[{"success":true,"trial_type":"fullscreen","trial_index":0,"time_elapsed":4330,"internal_node_id":"0.0-0.0","subject_id":"5fac475e1718081c63013fba","study_id":"6197b3f67c2b5cd3b6d9596a","session_id":"619beefcd768ab678a6c21f8","condition":"contingent","relevant_dimensions":["pattern","legs"],"bee_group":{"antennae":"X","wings":"X","pattern":"D","legs":"M"},"bonus":1.4800000000000013},{"success":true,"timeout":false,"failed_images":[],"failed_audio":[],"failed_video":[],"trial_type":"preload","trial_index":1,"time_elapsed":7250,"internal_node_id":"0.0-1.0","subject_id":"5fac475e1718081c63013fba","study_id":"6197b3f67c2b5cd3b6d9596a","session_id":"619beefcd768ab678a6c21f8","condition":"contingent","relevant_dimensions":["pattern","legs"],"bee_group":{"antennae":"X","wings":"X","pattern":"D","legs":"M"},"bonus":1.4800000000000013},{"rt":2066.2000000476837,"stimulus":"Welcome! Press any key to begin.","response":" ","trial_type":"html-keyboard-response","trial_index":2,"time_elapsed":9317,"internal_node_id":"0.0-2.0","subject_id":"5fac475e1718081c63013fba","study_id":"6197b3f67c2b5cd3b6d9596a","session_id":"619beefcd768ab678a6c21f8","condition":"contingent","relevant_dimensions":["pattern","legs"],"bee_group":{"antennae":"X","wings":"X","pattern":"D","legs":"M"},"bonus":1.4800000000000013},{"view_history":[{"page_index":0,"viewing_time":5439.600000023842},{"page_index":1,"viewing_time":15063.299999952316},{"page_index":2,"viewing_time":21406.100000023842},{"page_index":3,"viewing_time":16902.299999952316},{"page_index":4,"viewing_time":18404.800000071526},{"page_index":5,"viewing_time":26509.099999904633},{"page_index":6,"viewing_time":15330.900000095367},{"page_index":7,"viewing_time":12053.799999952316},{"page_index":8,"viewing_time":9755.200000047684},{"page_index":9,"viewing_time":10239.899999976158},{"page_index":10,"viewing_time":9548.5},{"page_index":11,"viewing_time":11016},{"page_index":12,"viewing_time":7061.5},{"page_index":13,"viewing_time":1425.1000000238419},{"page_index":14,"viewing_time":3445.899999976158}],"rt":183603.19999992847,"trial_type":"instructions","trial_index":3,"time_elapsed":192921,"internal_node_id":"0.0-3.0-0.0","subject_id":"5fac475e1718081c63013fba","study_id":"6197b3f67c2b5cd3b6d9596a","session_id":"619beefcd768ab678a6c21f8","condition":"contingent","relevant_dimensions":["pattern","legs"],"bee_group":{"antennae":"X","wings":"X","pattern":"D","legs":"M"},"bonus":1.4800000000000013},{"rt":21824.200000047684,"response":{"Q0":["Two or six legs","Stripes or spots on body","Single or double wings","Antennae or no antennae"]},"question_order":[0],"trial_type":"survey-multi-select","trial_index":4,"time_elapsed":214753,"internal_node_id":"0.0-3.0-1.0","subject_id":"5fac475e1718081c63013fba","study_id":"6197b3f67c2b5cd3b6d9596a","session_id":"619beefcd768ab678a6c21f8","condition":"contingent","relevant_dimensions":["pattern","legs"],"bee_group":{"antennae":"X","wings":"X","pattern":"D","legs":"M"},"correct":true,"bonus":1.4800000000000013},{"rt":21821.5,"response":{"Q1":"No.","Q2":"Based on the four features of the bee.","Q3":"You do not learn if it was friendly or dangerous, and do not alter your bonus."},"question_order":[0,1,2],"trial_type":"survey-multi-choice","trial_index":5,"time_elapsed":236577,"internal_node_id":"0.0-3.0-2.0","subject_id":"5fac475e1718081c63013fba","study_id":"6197b3f67c2b5cd3b6d9596a","session_id":"619beefcd768ab678a6c21f8","condition":"contingent","relevant_dimensions":["pattern","legs"],"bee_group":{"antennae":"X","wings":"X","pattern":"D","legs":"M"},"correct":true,"bonus":1.4800000000000013},{"rt":2749.600000023842,"stimulus":"<p>Congrats, you got everything right<br>When you're ready, click the button below to continue to the experiment.</p>","response":0,"trial_type":"html-button-response","trial_index":6,"time_elapsed":239329,"internal_node_id":"0.0-3.0-3.0","subject_id":"5fac475e1718081c63013fba","study_id":"6197b3f67c2b5cd3b6d9596a","session_id":"619beefcd768ab678a6c21f8","condition":"contingent","relevant_dimensions":["pattern","legs"],"bee_group":{"antennae":"X","wings":"X","pattern":"D","legs":"M"},"bonus":1.4800000000000013},{"rt":21326.299999952316,"stimulus":"bees-with-color/bee-A1DF.svg","response":0,"trial_type":"image-button-response","trial_index":7,"time_elapsed":260658,"internal_node_id":"0.0-4.0-0.0","subject_id":"5fac475e1718081c63013fba","study_id":"6197b3f67c2b5cd3b6d9596a","session_id":"619beefcd768ab678a6c21f8","condition":"contingent","relevant_dimensions":["pattern","legs"],"bee_group":{"antennae":"X","wings":"X","pattern":"D","legs":"M"},"action":"harvest","summary":"good-harvest","bonus":1.4800000000000013},{"rt":9413.700000047684,"stimulus":"\n                    <p><b>Action: <em>harvest</em></b></p>\n                    <p>This is the bee that you just saw.</p>\n                    <img src=\"bees-with-color/bee-A1DF.svg\" width=\"200\">\n                    <p><span class=\"greenText\"><b>Successful harvest!</b></span><br>Your pay has increased by $0.02. Your bonus pay is now $0.56.</p>\n            ","response":0,"trial_type":"html-button-response","trial_index":8,"time_elapsed":270075,"internal_node_id":"0.0-4.0-1.0","subject_id":"5fac475e1718081c63013fba","study_id":"6197b3f67c2b5cd3b6d9596a","session_id":"619beefcd768ab678a6c21f8","condition":"contingent","relevant_dimensions":["pattern","legs"],"bee_group":{"antennae":"X","wings":"X","pattern":"D","legs":"M"},"bonus":1.4800000000000013},{"rt":9886.399999976158,"stimulus":"bees-with-color/bee-A1SF.svg","response":0,"trial_type":"image-button-response","trial_index":9,"time_elapsed":279964,"internal_node_id":"0.0-4.0-0.1","subject_id":"5fac475e1718081c63013fba","study_id":"6197b3f67c2b5cd3b6d9596a","session_id":"619beefcd768ab678a6c21f8","condition":"contingent","relevant_dimensions":["pattern","legs"],"bee_group":{"antennae":"X","wings":"X","pattern":"D","legs":"M"},"action":"harvest","summary":"good-harvest","bonus":1.4800000000000013},{"rt":5080.799999952316,"stimulus":"\n                    <p><b>Action: <em>harvest</em></b></p>\n                    <p>This is the bee that you just saw.</p>\n                    <img src=\"bees-with-color/bee-A1SF.svg\" width=\"200\">\n                    <p><span class=\"greenText\"><b>Successful harvest!</b></span><br>Your pay has increased by $0.02. Your bonus pay is now $0.58.</p>\n            ","response":0,"trial_type":"html-button-response","trial_index":10,"time_elapsed":285047,"internal_node_id":"0.0-4.0-1.1","subject_id":"5fac475e1718081c63013fba","study_id":"6197b3f67c2b5cd3b6d9596a","session_id":"619beefcd768ab678a6c21f8","condition":"contingent","relevant_dimensions":["pattern","legs"],"bee_group":{"antennae":"X","wings":"X","pattern":"D","legs":"M"},"bonus":1.4800000000000013},{"rt":8501.799999952316,"stimulus":"bees-with-color/bee-B1SF.svg","response":0,"trial_type":"image-button-response","trial_index":11,"time_elapsed":293551,"internal_node_id":"0.0-4.0-0.2","subject_id":"5fac475e1718081c63013fba","study_id":"6197b3f67c2b5cd3b6d9596a","session_id":"619beefcd768ab678a6c21f8","condition":"contingent","relevant_dimensions":["pattern","legs"],"bee_group":{"antennae":"X","wings":"X","pattern":"D","legs":"M"},"action":"harvest","summary":"good-harvest","bonus":1.4800000000000013},{"rt":4575.200000047684,"stimulus":"\n                    <p><b>Action: <em>harvest</em></b></p>\n                    <p>This is the bee that you just saw.</p>\n                    <img src=\"bees-with-color/bee-B1SF.svg\" width=\"200\">\n                    <p><span class=\"greenText\"><b>Successful harvest!</b></span><br>Your pay has increased by $0.02. Your bonus pay is now $0.60.</p>\n            ","response":0,"trial_type":"html-button-response","trial_index":12,"time_elapsed":298129,"internal_node_id":"0.0-4.0-1.2","subject_id":"5fac475e1718081c63013fba","study_id":"6197b3f67c2b5cd3b6d9596a","session_id":"619beefcd768ab678a6c21f8","condition":"contingent","relevant_dimensions":["pattern","legs"],"bee_group":{"antennae":"X","wings":"X","pattern":"D","legs":"M"},"bonus":1.4800000000000013},{"rt":18268.600000023842,"stimulus":"bees-with-color/bee-A1SM.svg","response":0,"trial_type":"image-button-response","trial_index":13,"time_elapsed":316399,"internal_node_id":"0.0-4.0-0.3","subject_id":"5fac475e1718081c63013fba","study_id":"6197b3f67c2b5cd3b6d9596a","session_id":"619beefcd768ab678a6c21f8","condition":"contingent","relevant_dimensions":["pattern","legs"],"bee_group":{"antennae":"X","wings":"X","pattern":"D","legs":"M"},"action":"harvest","summary":"good-harvest","bonus":1.4800000000000013},{"rt":5395.299999952316,"stimulus":"\n                    <p><b>Action: <em>harvest</em></b></p>\n                    <p>This is the bee that you just saw.</p>\n                    <img src=\"bees-with-color/bee-A1SM.svg\" width=\"200\">\n                    <p><span class=\"greenText\"><b>Successful harvest!</b></span><br>Your pay has increased by $0.02. Your bonus pay is now $0.62.</p>\n            ","response":0,"trial_type":"html-button-response","trial_index":14,"time_elapsed":321796,"internal_node_id":"0.0-4.0-1.3","subject_id":"5fac475e1718081c63013fba","study_id":"6197b3f67c2b5cd3b6d9596a","session_id":"619beefcd768ab678a6c21f8","condition":"contingent","relevant_dimensions":["pattern","legs"],"bee_group":{"antennae":"X","wings":"X","pattern":"D","legs":"M"},"bonus":1.4800000000000013},{"rt":4071,"stimulus":"bees-with-color/bee-B1DF.svg","response":0,"trial_type":"image-button-response","trial_index":15,"time_elapsed":325869,"internal_node_id":"0.0-4.0-0.4","subject_id":"5fac475e1718081c63013fba","study_id":"6197b3f67c2b5cd3b6d9596a","session_id":"619beefcd768ab678a6c21f8","condition":"contingent","relevant_dimensions":["pattern","legs"],"bee_group":{"antennae":"X","wings":"X","pattern":"D","legs":"M"},"action":"harvest","summary":"good-harvest","bonus":1.4800000000000013},{"rt":4655,"stimulus":"\n                    <p><b>Action: <em>harvest</em></b></p>\n                    <p>This is the bee that you just saw.</p>\n                    <img src=\"bees-with-color/bee-B1DF.svg\" width=\"200\">\n                    <p><span class=\"greenText\"><b>Successful harvest!</b></span><br>Your pay has increased by $0.02. Your bonus pay is now $0.64.</p>\n            ","response":0,"trial_type":"html-button-response","trial_index":16,"time_elapsed":330526,"internal_node_id":"0.0-4.0-1.4","subject_id":"5fac475e1718081c63013fba","study_id":"6197b3f67c2b5cd3b6d9596a","session_id":"619beefcd768ab678a6c21f8","condition":"contingent","relevant_dimensions":["pattern","legs"],"bee_group":{"antennae":"X","wings":"X","pattern":"D","legs":"M"},"bonus":1.4800000000000013},{"rt":1230.6000000238419,"stimulus":"bees-with-color/bee-A2DF.svg","response":0,"trial_type":"image-button-response","trial_index":17,"time_elapsed":331759,"internal_node_id":"0.0-4.0-0.5","subject_id":"5fac475e1718081c63013fba","study_id":"6197b3f67c2b5cd3b6d9596a","session_id":"619beefcd768ab678a6c21f8","condition":"contingent","relevant_dimensions":["pattern","legs"],"bee_group":{"antennae":"X","wings":"X","pattern":"D","legs":"M"},"action":"harvest","summary":"good-harvest","bonus":1.4800000000000013},{"rt":4551.300000071526,"stimulus":"\n                    <p><b>Action: <em>harvest</em></b></p>\n                    <p>This is the bee that you just saw.</p>\n                    <img src=\"bees-with-color/bee-A2DF.svg\" width=\"200\">\n                    <p><span class=\"greenText\"><b>Successful harvest!</b></span><br>Your pay has increased by $0.02. Your bonus pay is now $0.66.</p>\n            ","response":0,"trial_type":"html-button-response","trial_index":18,"time_elapsed":336312,"internal_node_id":"0.0-4.0-1.5","subject_id":"5fac475e1718081c63013fba","study_id":"6197b3f67c2b5cd3b6d9596a","session_id":"619beefcd768ab678a6c21f8","condition":"contingent","relevant_dimensions":["pattern","legs"],"bee_group":{"antennae":"X","wings":"X","pattern":"D","legs":"M"},"bonus":1.4800000000000013},{"rt":1667.8999999761581,"stimulus":"bees-with-color/bee-A1DM.svg","response":0,"trial_type":"image-button-response","trial_index":19,"time_elapsed":337982,"internal_node_id":"0.0-4.0-0.6","subject_id":"5fac475e1718081c63013fba","study_id":"6197b3f67c2b5cd3b6d9596a","session_id":"619beefcd768ab678a6c21f8","condition":"contingent","relevant_dimensions":["pattern","legs"],"bee_group":{"antennae":"X","wings":"X","pattern":"D","legs":"M"},"action":"harvest","summary":"bad-harvest","bonus":1.4800000000000013},{"rt":16047.899999976158,"stimulus":"\n                    <p><b>Action: <em>harvest</em></b></p>\n                    <p>This is the bee that you just saw.</p>\n                    <img src=\"bees-with-color/bee-A1DM.svg\" width=\"200\">\n                    <p><span class=\"redText\">Bad choice, the bee was angry.</span><br><b>You have been stung!</b><br>Your pay has been decreased by $0.10. Your bonus pay is now $0.56.</p>\n            ","response":0,"trial_type":"html-button-response","trial_index":20,"time_elapsed":354032,"internal_node_id":"0.0-4.0-1.6","subject_id":"5fac475e1718081c63013fba","study_id":"6197b3f67c2b5cd3b6d9596a","session_id":"619beefcd768ab678a6c21f8","condition":"contingent","relevant_dimensions":["pattern","legs"],"bee_group":{"antennae":"X","wings":"X","pattern":"D","legs":"M"},"bonus":1.4800000000000013},{"rt":1827.6999999284744,"stimulus":"bees-with-color/bee-B2DM.svg","response":0,"trial_type":"image-button-response","trial_index":21,"time_elapsed":355861,"internal_node_id":"0.0-4.0-0.7","subject_id":"5fac475e1718081c63013fba","study_id":"6197b3f67c2b5cd3b6d9596a","session_id":"619beefcd768ab678a6c21f8","condition":"contingent","relevant_dimensions":["pattern","legs"],"bee_group":{"antennae":"X","wings":"X","pattern":"D","legs":"M"},"action":"harvest","summary":"bad-harvest","bonus":1.4800000000000013},{"rt":15659.299999952316,"stimulus":"\n                    <p><b>Action: <em>harvest</em></b></p>\n                    <p>This is the bee that you just saw.</p>\n                    <img src=\"bees-with-color/bee-B2DM.svg\" width=\"200\">\n                    <p><span class=\"redText\">Bad choice, the bee was angry.</span><br><b>You have been stung!</b><br>Your pay has been decreased by $0.10. Your bonus pay is now $0.46.</p>\n            ","response":0,"trial_type":"html-button-response","trial_index":22,"time_elapsed":371522,"internal_node_id":"0.0-4.0-1.7","subject_id":"5fac475e1718081c63013fba","study_id":"6197b3f67c2b5cd3b6d9596a","session_id":"619beefcd768ab678a6c21f8","condition":"contingent","relevant_dimensions":["pattern","legs"],"bee_group":{"antennae":"X","wings":"X","pattern":"D","legs":"M"},"bonus":1.4800000000000013},{"rt":2067.7000000476837,"stimulus":"bees-with-color/bee-B2SF.svg","response":0,"trial_type":"image-button-response","trial_index":23,"time_elapsed":373592,"internal_node_id":"0.0-4.0-0.8","subject_id":"5fac475e1718081c63013fba","study_id":"6197b3f67c2b5cd3b6d9596a","session_id":"619beefcd768ab678a6c21f8","condition":"contingent","relevant_dimensions":["pattern","legs"],"bee_group":{"antennae":"X","wings":"X","pattern":"D","legs":"M"},"action":"harvest","summary":"good-harvest","bonus":1.4800000000000013},{"rt":1202,"stimulus":"\n                    <p><b>Action: <em>harvest</em></b></p>\n                    <p>This is the bee that you just saw.</p>\n                    <img src=\"bees-with-color/bee-B2SF.svg\" width=\"200\">\n                    <p><span class=\"greenText\"><b>Successful harvest!</b></span><br>Your pay has increased by $0.02. Your bonus pay is now $0.48.</p>\n            ","response":0,"trial_type":"html-button-response","trial_index":24,"time_elapsed":374796,"internal_node_id":"0.0-4.0-1.8","subject_id":"5fac475e1718081c63013fba","study_id":"6197b3f67c2b5cd3b6d9596a","session_id":"619beefcd768ab678a6c21f8","condition":"contingent","relevant_dimensions":["pattern","legs"],"bee_group":{"antennae":"X","wings":"X","pattern":"D","legs":"M"},"bonus":1.4800000000000013},{"rt":5473.399999976158,"stimulus":"bees-with-color/bee-B2SM.svg","response":0,"trial_type":"image-button-response","trial_index":25,"time_elapsed":380271,"internal_node_id":"0.0-4.0-0.9","subject_id":"5fac475e1718081c63013fba","study_id":"6197b3f67c2b5cd3b6d9596a","session_id":"619beefcd768ab678a6c21f8","condition":"contingent","relevant_dimensions":["pattern","legs"],"bee_group":{"antennae":"X","wings":"X","pattern":"D","legs":"M"},"action":"harvest","summary":"good-harvest","bonus":1.4800000000000013},{"rt":857.1000000238419,"stimulus":"\n                    <p><b>Action: <em>harvest</em></b></p>\n                    <p>This is the bee that you just saw.</p>\n                    <img src=\"bees-with-color/bee-B2SM.svg\" width=\"200\">\n                    <p><span class=\"greenText\"><b>Successful harvest!</b></span><br>Your pay has increased by $0.02. Your bonus pay is now $0.50.</p>\n            ","response":0,"trial_type":"html-button-response","trial_index":26,"time_elapsed":381130,"internal_node_id":"0.0-4.0-1.9","subject_id":"5fac475e1718081c63013fba","study_id":"6197b3f67c2b5cd3b6d9596a","session_id":"619beefcd768ab678a6c21f8","condition":"contingent","relevant_dimensions":["pattern","legs"],"bee_group":{"antennae":"X","wings":"X","pattern":"D","legs":"M"},"bonus":1.4800000000000013},{"rt":1147.2000000476837,"stimulus":"bees-with-color/bee-B1DM.svg","response":0,"trial_type":"image-button-response","trial_index":27,"time_elapsed":382279,"internal_node_id":"0.0-4.0-0.10","subject_id":"5fac475e1718081c63013fba","study_id":"6197b3f67c2b5cd3b6d9596a","session_id":"619beefcd768ab678a6c21f8","condition":"contingent","relevant_dimensions":["pattern","legs"],"bee_group":{"antennae":"X","wings":"X","pattern":"D","legs":"M"},"action":"harvest","summary":"bad-harvest","bonus":1.4800000000000013},{"rt":8174.300000071526,"stimulus":"\n                    <p><b>Action: <em>harvest</em></b></p>\n                    <p>This is the bee that you just saw.</p>\n                    <img src=\"bees-with-color/bee-B1DM.svg\" width=\"200\">\n                    <p><span class=\"redText\">Bad choice, the bee was angry.</span><br><b>You have been stung!</b><br>Your pay has been decreased by $0.10. Your bonus pay is now $0.40.</p>\n            ","response":0,"trial_type":"html-button-response","trial_index":28,"time_elapsed":390455,"internal_node_id":"0.0-4.0-1.10","subject_id":"5fac475e1718081c63013fba","study_id":"6197b3f67c2b5cd3b6d9596a","session_id":"619beefcd768ab678a6c21f8","condition":"contingent","relevant_dimensions":["pattern","legs"],"bee_group":{"antennae":"X","wings":"X","pattern":"D","legs":"M"},"bonus":1.4800000000000013},{"rt":3351.8000000715256,"stimulus":"bees-with-color/bee-B1SM.svg","response":0,"trial_type":"image-button-response","trial_index":29,"time_elapsed":393809,"internal_node_id":"0.0-4.0-0.11","subject_id":"5fac475e1718081c63013fba","study_id":"6197b3f67c2b5cd3b6d9596a","session_id":"619beefcd768ab678a6c21f8","condition":"contingent","relevant_dimensions":["pattern","legs"],"bee_group":{"antennae":"X","wings":"X","pattern":"D","legs":"M"},"action":"harvest","summary":"good-harvest","bonus":1.4800000000000013},{"rt":946.7999999523163,"stimulus":"\n                    <p><b>Action: <em>harvest</em></b></p>\n                    <p>This is the bee that you just saw.</p>\n                    <img src=\"bees-with-color/bee-B1SM.svg\" width=\"200\">\n                    <p><span class=\"greenText\"><b>Successful harvest!</b></span><br>Your pay has increased by $0.02. Your bonus pay is now $0.42.</p>\n            ","response":0,"trial_type":"html-button-response","trial_index":30,"time_elapsed":394758,"internal_node_id":"0.0-4.0-1.11","subject_id":"5fac475e1718081c63013fba","study_id":"6197b3f67c2b5cd3b6d9596a","session_id":"619beefcd768ab678a6c21f8","condition":"contingent","relevant_dimensions":["pattern","legs"],"bee_group":{"antennae":"X","wings":"X","pattern":"D","legs":"M"},"bonus":1.4800000000000013},{"rt":4791.600000023842,"stimulus":"bees-with-color/bee-B2DF.svg","response":0,"trial_type":"image-button-response","trial_index":31,"time_elapsed":399552,"internal_node_id":"0.0-4.0-0.12","subject_id":"5fac475e1718081c63013fba","study_id":"6197b3f67c2b5cd3b6d9596a","session_id":"619beefcd768ab678a6c21f8","condition":"contingent","relevant_dimensions":["pattern","legs"],"bee_group":{"antennae":"X","wings":"X","pattern":"D","legs":"M"},"action":"harvest","summary":"good-harvest","bonus":1.4800000000000013},{"rt":1109,"stimulus":"\n                    <p><b>Action: <em>harvest</em></b></p>\n                    <p>This is the bee that you just saw.</p>\n                    <img src=\"bees-with-color/bee-B2DF.svg\" width=\"200\">\n                    <p><span class=\"greenText\"><b>Successful harvest!</b></span><br>Your pay has increased by $0.02. Your bonus pay is now $0.44.</p>\n            ","response":0,"trial_type":"html-button-response","trial_index":32,"time_elapsed":400662,"internal_node_id":"0.0-4.0-1.12","subject_id":"5fac475e1718081c63013fba","study_id":"6197b3f67c2b5cd3b6d9596a","session_id":"619beefcd768ab678a6c21f8","condition":"contingent","relevant_dimensions":["pattern","legs"],"bee_group":{"antennae":"X","wings":"X","pattern":"D","legs":"M"},"bonus":1.4800000000000013},{"rt":6590.899999976158,"stimulus":"bees-with-color/bee-A2SM.svg","response":0,"trial_type":"image-button-response","trial_index":33,"time_elapsed":407255,"internal_node_id":"0.0-4.0-0.13","subject_id":"5fac475e1718081c63013fba","study_id":"6197b3f67c2b5cd3b6d9596a","session_id":"619beefcd768ab678a6c21f8","condition":"contingent","relevant_dimensions":["pattern","legs"],"bee_group":{"antennae":"X","wings":"X","pattern":"D","legs":"M"},"action":"harvest","summary":"good-harvest","bonus":1.4800000000000013},{"rt":1076.3000000715256,"stimulus":"\n                    <p><b>Action: <em>harvest</em></b></p>\n                    <p>This is the bee that you just saw.</p>\n                    <img src=\"bees-with-color/bee-A2SM.svg\" width=\"200\">\n                    <p><span class=\"greenText\"><b>Successful harvest!</b></span><br>Your pay has increased by $0.02. Your bonus pay is now $0.46.</p>\n            ","response":0,"trial_type":"html-button-response","trial_index":34,"time_elapsed":408333,"internal_node_id":"0.0-4.0-1.13","subject_id":"5fac475e1718081c63013fba","study_id":"6197b3f67c2b5cd3b6d9596a","session_id":"619beefcd768ab678a6c21f8","condition":"contingent","relevant_dimensions":["pattern","legs"],"bee_group":{"antennae":"X","wings":"X","pattern":"D","legs":"M"},"bonus":1.4800000000000013},{"rt":5465.899999976158,"stimulus":"bees-with-color/bee-A2SF.svg","response":0,"trial_type":"image-button-response","trial_index":35,"time_elapsed":413800,"internal_node_id":"0.0-4.0-0.14","subject_id":"5fac475e1718081c63013fba","study_id":"6197b3f67c2b5cd3b6d9596a","session_id":"619beefcd768ab678a6c21f8","condition":"contingent","relevant_dimensions":["pattern","legs"],"bee_group":{"antennae":"X","wings":"X","pattern":"D","legs":"M"},"action":"harvest","summary":"good-harvest","bonus":1.4800000000000013},{"rt":837.1000000238419,"stimulus":"\n                    <p><b>Action: <em>harvest</em></b></p>\n                    <p>This is the bee that you just saw.</p>\n                    <img src=\"bees-with-color/bee-A2SF.svg\" width=\"200\">\n                    <p><span class=\"greenText\"><b>Successful harvest!</b></span><br>Your pay has increased by $0.02. Your bonus pay is now $0.48.</p>\n            ","response":0,"trial_type":"html-button-response","trial_index":36,"time_elapsed":414639,"internal_node_id":"0.0-4.0-1.14","subject_id":"5fac475e1718081c63013fba","study_id":"6197b3f67c2b5cd3b6d9596a","session_id":"619beefcd768ab678a6c21f8","condition":"contingent","relevant_dimensions":["pattern","legs"],"bee_group":{"antennae":"X","wings":"X","pattern":"D","legs":"M"},"bonus":1.4800000000000013},{"rt":3725.899999976158,"stimulus":"bees-with-color/bee-A2DM.svg","response":0,"trial_type":"image-button-response","trial_index":37,"time_elapsed":418366,"internal_node_id":"0.0-4.0-0.15","subject_id":"5fac475e1718081c63013fba","study_id":"6197b3f67c2b5cd3b6d9596a","session_id":"619beefcd768ab678a6c21f8","condition":"contingent","relevant_dimensions":["pattern","legs"],"bee_group":{"antennae":"X","wings":"X","pattern":"D","legs":"M"},"action":"harvest","summary":"bad-harvest","bonus":1.4800000000000013},{"rt":11861.5,"stimulus":"\n                    <p><b>Action: <em>harvest</em></b></p>\n                    <p>This is the bee that you just saw.</p>\n                    <img src=\"bees-with-color/bee-A2DM.svg\" width=\"200\">\n                    <p><span class=\"redText\">Bad choice, the bee was angry.</span><br><b>You have been stung!</b><br>Your pay has been decreased by $0.10. Your bonus pay is now $0.38.</p>\n            ","response":0,"trial_type":"html-button-response","trial_index":38,"time_elapsed":430229,"internal_node_id":"0.0-4.0-1.15","subject_id":"5fac475e1718081c63013fba","study_id":"6197b3f67c2b5cd3b6d9596a","session_id":"619beefcd768ab678a6c21f8","condition":"contingent","relevant_dimensions":["pattern","legs"],"bee_group":{"antennae":"X","wings":"X","pattern":"D","legs":"M"},"bonus":1.4800000000000013},{"rt":4361.100000023842,"stimulus":"bees-with-color/bee-A2SM.svg","response":0,"trial_type":"image-button-response","trial_index":39,"time_elapsed":434592,"internal_node_id":"0.0-4.0-0.16","subject_id":"5fac475e1718081c63013fba","study_id":"6197b3f67c2b5cd3b6d9596a","session_id":"619beefcd768ab678a6c21f8","condition":"contingent","relevant_dimensions":["pattern","legs"],"bee_group":{"antennae":"X","wings":"X","pattern":"D","legs":"M"},"action":"harvest","summary":"good-harvest","bonus":1.4800000000000013},{"rt":975.6999999284744,"stimulus":"\n                    <p><b>Action: <em>harvest</em></b></p>\n                    <p>This is the bee that you just saw.</p>\n                    <img src=\"bees-with-color/bee-A2SM.svg\" width=\"200\">\n                    <p><span class=\"greenText\"><b>Successful harvest!</b></span><br>Your pay has increased by $0.02. Your bonus pay is now $0.40.</p>\n            ","response":0,"trial_type":"html-button-response","trial_index":40,"time_elapsed":435570,"internal_node_id":"0.0-4.0-1.16","subject_id":"5fac475e1718081c63013fba","study_id":"6197b3f67c2b5cd3b6d9596a","session_id":"619beefcd768ab678a6c21f8","condition":"contingent","relevant_dimensions":["pattern","legs"],"bee_group":{"antennae":"X","wings":"X","pattern":"D","legs":"M"},"bonus":1.4800000000000013},{"rt":5426,"stimulus":"bees-with-color/bee-A1SM.svg","response":0,"trial_type":"image-button-response","trial_index":41,"time_elapsed":440997,"internal_node_id":"0.0-4.0-0.17","subject_id":"5fac475e1718081c63013fba","study_id":"6197b3f67c2b5cd3b6d9596a","session_id":"619beefcd768ab678a6c21f8","condition":"contingent","relevant_dimensions":["pattern","legs"],"bee_group":{"antennae":"X","wings":"X","pattern":"D","legs":"M"},"action":"harvest","summary":"good-harvest","bonus":1.4800000000000013},{"rt":1454.8999999761581,"stimulus":"\n                    <p><b>Action: <em>harvest</em></b></p>\n                    <p>This is the bee that you just saw.</p>\n                    <img src=\"bees-with-color/bee-A1SM.svg\" width=\"200\">\n                    <p><span class=\"greenText\"><b>Successful harvest!</b></span><br>Your pay has increased by $0.02. Your bonus pay is now $0.42.</p>\n            ","response":0,"trial_type":"html-button-response","trial_index":42,"time_elapsed":442454,"internal_node_id":"0.0-4.0-1.17","subject_id":"5fac475e1718081c63013fba","study_id":"6197b3f67c2b5cd3b6d9596a","session_id":"619beefcd768ab678a6c21f8","condition":"contingent","relevant_dimensions":["pattern","legs"],"bee_group":{"antennae":"X","wings":"X","pattern":"D","legs":"M"},"bonus":1.4800000000000013},{"rt":5644.600000023842,"stimulus":"bees-with-color/bee-B2SF.svg","response":0,"trial_type":"image-button-response","trial_index":43,"time_elapsed":448100,"internal_node_id":"0.0-4.0-0.18","subject_id":"5fac475e1718081c63013fba","study_id":"6197b3f67c2b5cd3b6d9596a","session_id":"619beefcd768ab678a6c21f8","condition":"contingent","relevant_dimensions":["pattern","legs"],"bee_group":{"antennae":"X","wings":"X","pattern":"D","legs":"M"},"action":"harvest","summary":"good-harvest","bonus":1.4800000000000013},{"rt":836.5,"stimulus":"\n                    <p><b>Action: <em>harvest</em></b></p>\n                    <p>This is the bee that you just saw.</p>\n                    <img src=\"bees-with-color/bee-B2SF.svg\" width=\"200\">\n                    <p><span class=\"greenText\"><b>Successful harvest!</b></span><br>Your pay has increased by $0.02. Your bonus pay is now $0.44.</p>\n            ","response":0,"trial_type":"html-button-response","trial_index":44,"time_elapsed":448938,"internal_node_id":"0.0-4.0-1.18","subject_id":"5fac475e1718081c63013fba","study_id":"6197b3f67c2b5cd3b6d9596a","session_id":"619beefcd768ab678a6c21f8","condition":"contingent","relevant_dimensions":["pattern","legs"],"bee_group":{"antennae":"X","wings":"X","pattern":"D","legs":"M"},"bonus":1.4800000000000013},{"rt":6729.599999904633,"stimulus":"bees-with-color/bee-A2DM.svg","response":1,"trial_type":"image-button-response","trial_index":45,"time_elapsed":455670,"internal_node_id":"0.0-4.0-0.19","subject_id":"5fac475e1718081c63013fba","study_id":"6197b3f67c2b5cd3b6d9596a","session_id":"619beefcd768ab678a6c21f8","condition":"contingent","relevant_dimensions":["pattern","legs"],"bee_group":{"antennae":"X","wings":"X","pattern":"D","legs":"M"},"action":"avoid","summary":"good-avoid","bonus":1.4800000000000013},{"rt":2094.2999999523163,"stimulus":"\n                    <p><b>Action: <em>avoid</em></b></p>\n                    <p>This is the bee that you just saw.</p>\n                    <img src=\"bees-with-color/bee-A2DM.svg\" width=\"200\">\n                    <p><br>Your bonus pay is unchanged, and remains at $0.44.</p>\n            ","response":0,"trial_type":"html-button-response","trial_index":46,"time_elapsed":457766,"internal_node_id":"0.0-4.0-1.19","subject_id":"5fac475e1718081c63013fba","study_id":"6197b3f67c2b5cd3b6d9596a","session_id":"619beefcd768ab678a6c21f8","condition":"contingent","relevant_dimensions":["pattern","legs"],"bee_group":{"antennae":"X","wings":"X","pattern":"D","legs":"M"},"bonus":1.4800000000000013},{"rt":4166.700000047684,"stimulus":"bees-with-color/bee-A2SF.svg","response":0,"trial_type":"image-button-response","trial_index":47,"time_elapsed":461935,"internal_node_id":"0.0-4.0-0.20","subject_id":"5fac475e1718081c63013fba","study_id":"6197b3f67c2b5cd3b6d9596a","session_id":"619beefcd768ab678a6c21f8","condition":"contingent","relevant_dimensions":["pattern","legs"],"bee_group":{"antennae":"X","wings":"X","pattern":"D","legs":"M"},"action":"harvest","summary":"good-harvest","bonus":1.4800000000000013},{"rt":889.1000000238419,"stimulus":"\n                    <p><b>Action: <em>harvest</em></b></p>\n                    <p>This is the bee that you just saw.</p>\n                    <img src=\"bees-with-color/bee-A2SF.svg\" width=\"200\">\n                    <p><span class=\"greenText\"><b>Successful harvest!</b></span><br>Your pay has increased by $0.02. Your bonus pay is now $0.46.</p>\n            ","response":0,"trial_type":"html-button-response","trial_index":48,"time_elapsed":462826,"internal_node_id":"0.0-4.0-1.20","subject_id":"5fac475e1718081c63013fba","study_id":"6197b3f67c2b5cd3b6d9596a","session_id":"619beefcd768ab678a6c21f8","condition":"contingent","relevant_dimensions":["pattern","legs"],"bee_group":{"antennae":"X","wings":"X","pattern":"D","legs":"M"},"bonus":1.4800000000000013},{"rt":5252,"stimulus":"bees-with-color/bee-A1SF.svg","response":0,"trial_type":"image-button-response","trial_index":49,"time_elapsed":468080,"internal_node_id":"0.0-4.0-0.21","subject_id":"5fac475e1718081c63013fba","study_id":"6197b3f67c2b5cd3b6d9596a","session_id":"619beefcd768ab678a6c21f8","condition":"contingent","relevant_dimensions":["pattern","legs"],"bee_group":{"antennae":"X","wings":"X","pattern":"D","legs":"M"},"action":"harvest","summary":"good-harvest","bonus":1.4800000000000013},{"rt":1116.1999999284744,"stimulus":"\n                    <p><b>Action: <em>harvest</em></b></p>\n                    <p>This is the bee that you just saw.</p>\n                    <img src=\"bees-with-color/bee-A1SF.svg\" width=\"200\">\n                    <p><span class=\"greenText\"><b>Successful harvest!</b></span><br>Your pay has increased by $0.02. Your bonus pay is now $0.48.</p>\n            ","response":0,"trial_type":"html-button-response","trial_index":50,"time_elapsed":469198,"internal_node_id":"0.0-4.0-1.21","subject_id":"5fac475e1718081c63013fba","study_id":"6197b3f67c2b5cd3b6d9596a","session_id":"619beefcd768ab678a6c21f8","condition":"contingent","relevant_dimensions":["pattern","legs"],"bee_group":{"antennae":"X","wings":"X","pattern":"D","legs":"M"},"bonus":1.4800000000000013},{"rt":3051.2999999523163,"stimulus":"bees-with-color/bee-B2SM.svg","response":0,"trial_type":"image-button-response","trial_index":51,"time_elapsed":472251,"internal_node_id":"0.0-4.0-0.22","subject_id":"5fac475e1718081c63013fba","study_id":"6197b3f67c2b5cd3b6d9596a","session_id":"619beefcd768ab678a6c21f8","condition":"contingent","relevant_dimensions":["pattern","legs"],"bee_group":{"antennae":"X","wings":"X","pattern":"D","legs":"M"},"action":"harvest","summary":"good-harvest","bonus":1.4800000000000013},{"rt":801.1999999284744,"stimulus":"\n                    <p><b>Action: <em>harvest</em></b></p>\n                    <p>This is the bee that you just saw.</p>\n                    <img src=\"bees-with-color/bee-B2SM.svg\" width=\"200\">\n                    <p><span class=\"greenText\"><b>Successful harvest!</b></span><br>Your pay has increased by $0.02. Your bonus pay is now $0.50.</p>\n            ","response":0,"trial_type":"html-button-response","trial_index":52,"time_elapsed":473054,"internal_node_id":"0.0-4.0-1.22","subject_id":"5fac475e1718081c63013fba","study_id":"6197b3f67c2b5cd3b6d9596a","session_id":"619beefcd768ab678a6c21f8","condition":"contingent","relevant_dimensions":["pattern","legs"],"bee_group":{"antennae":"X","wings":"X","pattern":"D","legs":"M"},"bonus":1.4800000000000013},{"rt":6085.100000023842,"stimulus":"bees-with-color/bee-B1DM.svg","response":1,"trial_type":"image-button-response","trial_index":53,"time_elapsed":479141,"internal_node_id":"0.0-4.0-0.23","subject_id":"5fac475e1718081c63013fba","study_id":"6197b3f67c2b5cd3b6d9596a","session_id":"619beefcd768ab678a6c21f8","condition":"contingent","relevant_dimensions":["pattern","legs"],"bee_group":{"antennae":"X","wings":"X","pattern":"D","legs":"M"},"action":"avoid","summary":"good-avoid","bonus":1.4800000000000013},{"rt":963.3000000715256,"stimulus":"\n                    <p><b>Action: <em>avoid</em></b></p>\n                    <p>This is the bee that you just saw.</p>\n                    <img src=\"bees-with-color/bee-B1DM.svg\" width=\"200\">\n                    <p><br>Your bonus pay is unchanged, and remains at $0.50.</p>\n            ","response":0,"trial_type":"html-button-response","trial_index":54,"time_elapsed":480106,"internal_node_id":"0.0-4.0-1.23","subject_id":"5fac475e1718081c63013fba","study_id":"6197b3f67c2b5cd3b6d9596a","session_id":"619beefcd768ab678a6c21f8","condition":"contingent","relevant_dimensions":["pattern","legs"],"bee_group":{"antennae":"X","wings":"X","pattern":"D","legs":"M"},"bonus":1.4800000000000013},{"rt":6663.299999952316,"stimulus":"bees-with-color/bee-B1DF.svg","response":0,"trial_type":"image-button-response","trial_index":55,"time_elapsed":486771,"internal_node_id":"0.0-4.0-0.24","subject_id":"5fac475e1718081c63013fba","study_id":"6197b3f67c2b5cd3b6d9596a","session_id":"619beefcd768ab678a6c21f8","condition":"contingent","relevant_dimensions":["pattern","legs"],"bee_group":{"antennae":"X","wings":"X","pattern":"D","legs":"M"},"action":"harvest","summary":"good-harvest","bonus":1.4800000000000013},{"rt":954.8999999761581,"stimulus":"\n                    <p><b>Action: <em>harvest</em></b></p>\n                    <p>This is the bee that you just saw.</p>\n                    <img src=\"bees-with-color/bee-B1DF.svg\" width=\"200\">\n                    <p><span class=\"greenText\"><b>Successful harvest!</b></span><br>Your pay has increased by $0.02. Your bonus pay is now $0.52.</p>\n            ","response":0,"trial_type":"html-button-response","trial_index":56,"time_elapsed":487728,"internal_node_id":"0.0-4.0-1.24","subject_id":"5fac475e1718081c63013fba","study_id":"6197b3f67c2b5cd3b6d9596a","session_id":"619beefcd768ab678a6c21f8","condition":"contingent","relevant_dimensions":["pattern","legs"],"bee_group":{"antennae":"X","wings":"X","pattern":"D","legs":"M"},"bonus":1.4800000000000013},{"rt":5211.600000023842,"stimulus":"bees-with-color/bee-A1DF.svg","response":0,"trial_type":"image-button-response","trial_index":57,"time_elapsed":492942,"internal_node_id":"0.0-4.0-0.25","subject_id":"5fac475e1718081c63013fba","study_id":"6197b3f67c2b5cd3b6d9596a","session_id":"619beefcd768ab678a6c21f8","condition":"contingent","relevant_dimensions":["pattern","legs"],"bee_group":{"antennae":"X","wings":"X","pattern":"D","legs":"M"},"action":"harvest","summary":"good-harvest","bonus":1.4800000000000013},{"rt":970.3999999761581,"stimulus":"\n                    <p><b>Action: <em>harvest</em></b></p>\n                    <p>This is the bee that you just saw.</p>\n                    <img src=\"bees-with-color/bee-A1DF.svg\" width=\"200\">\n                    <p><span class=\"greenText\"><b>Successful harvest!</b></span><br>Your pay has increased by $0.02. Your bonus pay is now $0.54.</p>\n            ","response":0,"trial_type":"html-button-response","trial_index":58,"time_elapsed":493914,"internal_node_id":"0.0-4.0-1.25","subject_id":"5fac475e1718081c63013fba","study_id":"6197b3f67c2b5cd3b6d9596a","session_id":"619beefcd768ab678a6c21f8","condition":"contingent","relevant_dimensions":["pattern","legs"],"bee_group":{"antennae":"X","wings":"X","pattern":"D","legs":"M"},"bonus":1.4800000000000013},{"rt":2869.100000023842,"stimulus":"bees-with-color/bee-B1SM.svg","response":0,"trial_type":"image-button-response","trial_index":59,"time_elapsed":496785,"internal_node_id":"0.0-4.0-0.26","subject_id":"5fac475e1718081c63013fba","study_id":"6197b3f67c2b5cd3b6d9596a","session_id":"619beefcd768ab678a6c21f8","condition":"contingent","relevant_dimensions":["pattern","legs"],"bee_group":{"antennae":"X","wings":"X","pattern":"D","legs":"M"},"action":"harvest","summary":"good-harvest","bonus":1.4800000000000013},{"rt":930,"stimulus":"\n                    <p><b>Action: <em>harvest</em></b></p>\n                    <p>This is the bee that you just saw.</p>\n                    <img src=\"bees-with-color/bee-B1SM.svg\" width=\"200\">\n                    <p><span class=\"greenText\"><b>Successful harvest!</b></span><br>Your pay has increased by $0.02. Your bonus pay is now $0.56.</p>\n            ","response":0,"trial_type":"html-button-response","trial_index":60,"time_elapsed":497717,"internal_node_id":"0.0-4.0-1.26","subject_id":"5fac475e1718081c63013fba","study_id":"6197b3f67c2b5cd3b6d9596a","session_id":"619beefcd768ab678a6c21f8","condition":"contingent","relevant_dimensions":["pattern","legs"],"bee_group":{"antennae":"X","wings":"X","pattern":"D","legs":"M"},"bonus":1.4800000000000013},{"rt":3347.4000000953674,"stimulus":"bees-with-color/bee-B2DM.svg","response":1,"trial_type":"image-button-response","trial_index":61,"time_elapsed":501066,"internal_node_id":"0.0-4.0-0.27","subject_id":"5fac475e1718081c63013fba","study_id":"6197b3f67c2b5cd3b6d9596a","session_id":"619beefcd768ab678a6c21f8","condition":"contingent","relevant_dimensions":["pattern","legs"],"bee_group":{"antennae":"X","wings":"X","pattern":"D","legs":"M"},"action":"avoid","summary":"good-avoid","bonus":1.4800000000000013},{"rt":1082.5,"stimulus":"\n                    <p><b>Action: <em>avoid</em></b></p>\n                    <p>This is the bee that you just saw.</p>\n                    <img src=\"bees-with-color/bee-B2DM.svg\" width=\"200\">\n                    <p><br>Your bonus pay is unchanged, and remains at $0.56.</p>\n            ","response":0,"trial_type":"html-button-response","trial_index":62,"time_elapsed":502150,"internal_node_id":"0.0-4.0-1.27","subject_id":"5fac475e1718081c63013fba","study_id":"6197b3f67c2b5cd3b6d9596a","session_id":"619beefcd768ab678a6c21f8","condition":"contingent","relevant_dimensions":["pattern","legs"],"bee_group":{"antennae":"X","wings":"X","pattern":"D","legs":"M"},"bonus":1.4800000000000013},{"rt":5444.599999904633,"stimulus":"bees-with-color/bee-A1DM.svg","response":1,"trial_type":"image-button-response","trial_index":63,"time_elapsed":507596,"internal_node_id":"0.0-4.0-0.28","subject_id":"5fac475e1718081c63013fba","study_id":"6197b3f67c2b5cd3b6d9596a","session_id":"619beefcd768ab678a6c21f8","condition":"contingent","relevant_dimensions":["pattern","legs"],"bee_group":{"antennae":"X","wings":"X","pattern":"D","legs":"M"},"action":"avoid","summary":"good-avoid","bonus":1.4800000000000013},{"rt":1165.4000000953674,"stimulus":"\n                    <p><b>Action: <em>avoid</em></b></p>\n                    <p>This is the bee that you just saw.</p>\n                    <img src=\"bees-with-color/bee-A1DM.svg\" width=\"200\">\n                    <p><br>Your bonus pay is unchanged, and remains at $0.56.</p>\n            ","response":0,"trial_type":"html-button-response","trial_index":64,"time_elapsed":508763,"internal_node_id":"0.0-4.0-1.28","subject_id":"5fac475e1718081c63013fba","study_id":"6197b3f67c2b5cd3b6d9596a","session_id":"619beefcd768ab678a6c21f8","condition":"contingent","relevant_dimensions":["pattern","legs"],"bee_group":{"antennae":"X","wings":"X","pattern":"D","legs":"M"},"bonus":1.4800000000000013},{"rt":4280.200000047684,"stimulus":"bees-with-color/bee-B2DF.svg","response":0,"trial_type":"image-button-response","trial_index":65,"time_elapsed":513045,"internal_node_id":"0.0-4.0-0.29","subject_id":"5fac475e1718081c63013fba","study_id":"6197b3f67c2b5cd3b6d9596a","session_id":"619beefcd768ab678a6c21f8","condition":"contingent","relevant_dimensions":["pattern","legs"],"bee_group":{"antennae":"X","wings":"X","pattern":"D","legs":"M"},"action":"harvest","summary":"good-harvest","bonus":1.4800000000000013},{"rt":1127.8999999761581,"stimulus":"\n                    <p><b>Action: <em>harvest</em></b></p>\n                    <p>This is the bee that you just saw.</p>\n                    <img src=\"bees-with-color/bee-B2DF.svg\" width=\"200\">\n                    <p><span class=\"greenText\"><b>Successful harvest!</b></span><br>Your pay has increased by $0.02. Your bonus pay is now $0.58.</p>\n            ","response":0,"trial_type":"html-button-response","trial_index":66,"time_elapsed":514175,"internal_node_id":"0.0-4.0-1.29","subject_id":"5fac475e1718081c63013fba","study_id":"6197b3f67c2b5cd3b6d9596a","session_id":"619beefcd768ab678a6c21f8","condition":"contingent","relevant_dimensions":["pattern","legs"],"bee_group":{"antennae":"X","wings":"X","pattern":"D","legs":"M"},"bonus":1.4800000000000013},{"rt":6513.900000095367,"stimulus":"bees-with-color/bee-A2DF.svg","response":0,"trial_type":"image-button-response","trial_index":67,"time_elapsed":520690,"internal_node_id":"0.0-4.0-0.30","subject_id":"5fac475e1718081c63013fba","study_id":"6197b3f67c2b5cd3b6d9596a","session_id":"619beefcd768ab678a6c21f8","condition":"contingent","relevant_dimensions":["pattern","legs"],"bee_group":{"antennae":"X","wings":"X","pattern":"D","legs":"M"},"action":"harvest","summary":"good-harvest","bonus":1.4800000000000013},{"rt":886.1000000238419,"stimulus":"\n                    <p><b>Action: <em>harvest</em></b></p>\n                    <p>This is the bee that you just saw.</p>\n                    <img src=\"bees-with-color/bee-A2DF.svg\" width=\"200\">\n                    <p><span class=\"greenText\"><b>Successful harvest!</b></span><br>Your pay has increased by $0.02. Your bonus pay is now $0.60.</p>\n            ","response":0,"trial_type":"html-button-response","trial_index":68,"time_elapsed":521578,"internal_node_id":"0.0-4.0-1.30","subject_id":"5fac475e1718081c63013fba","study_id":"6197b3f67c2b5cd3b6d9596a","session_id":"619beefcd768ab678a6c21f8","condition":"contingent","relevant_dimensions":["pattern","legs"],"bee_group":{"antennae":"X","wings":"X","pattern":"D","legs":"M"},"bonus":1.4800000000000013},{"rt":3206.2000000476837,"stimulus":"bees-with-color/bee-B1SF.svg","response":0,"trial_type":"image-button-response","trial_index":69,"time_elapsed":524787,"internal_node_id":"0.0-4.0-0.31","subject_id":"5fac475e1718081c63013fba","study_id":"6197b3f67c2b5cd3b6d9596a","session_id":"619beefcd768ab678a6c21f8","condition":"contingent","relevant_dimensions":["pattern","legs"],"bee_group":{"antennae":"X","wings":"X","pattern":"D","legs":"M"},"action":"harvest","summary":"good-harvest","bonus":1.4800000000000013},{"rt":991,"stimulus":"\n                    <p><b>Action: <em>harvest</em></b></p>\n                    <p>This is the bee that you just saw.</p>\n                    <img src=\"bees-with-color/bee-B1SF.svg\" width=\"200\">\n                    <p><span class=\"greenText\"><b>Successful harvest!</b></span><br>Your pay has increased by $0.02. Your bonus pay is now $0.62.</p>\n            ","response":0,"trial_type":"html-button-response","trial_index":70,"time_elapsed":525779,"internal_node_id":"0.0-4.0-1.31","subject_id":"5fac475e1718081c63013fba","study_id":"6197b3f67c2b5cd3b6d9596a","session_id":"619beefcd768ab678a6c21f8","condition":"contingent","relevant_dimensions":["pattern","legs"],"bee_group":{"antennae":"X","wings":"X","pattern":"D","legs":"M"},"bonus":1.4800000000000013},{"rt":2406,"stimulus":"bees-with-color/bee-B2SF.svg","response":0,"trial_type":"image-button-response","trial_index":71,"time_elapsed":528187,"internal_node_id":"0.0-4.0-0.32","subject_id":"5fac475e1718081c63013fba","study_id":"6197b3f67c2b5cd3b6d9596a","session_id":"619beefcd768ab678a6c21f8","condition":"contingent","relevant_dimensions":["pattern","legs"],"bee_group":{"antennae":"X","wings":"X","pattern":"D","legs":"M"},"action":"harvest","summary":"good-harvest","bonus":1.4800000000000013},{"rt":851.1000000238419,"stimulus":"\n                    <p><b>Action: <em>harvest</em></b></p>\n                    <p>This is the bee that you just saw.</p>\n                    <img src=\"bees-with-color/bee-B2SF.svg\" width=\"200\">\n                    <p><span class=\"greenText\"><b>Successful harvest!</b></span><br>Your pay has increased by $0.02. Your bonus pay is now $0.64.</p>\n            ","response":0,"trial_type":"html-button-response","trial_index":72,"time_elapsed":529040,"internal_node_id":"0.0-4.0-1.32","subject_id":"5fac475e1718081c63013fba","study_id":"6197b3f67c2b5cd3b6d9596a","session_id":"619beefcd768ab678a6c21f8","condition":"contingent","relevant_dimensions":["pattern","legs"],"bee_group":{"antennae":"X","wings":"X","pattern":"D","legs":"M"},"bonus":1.4800000000000013},{"rt":4483.599999904633,"stimulus":"bees-with-color/bee-A1DM.svg","response":1,"trial_type":"image-button-response","trial_index":73,"time_elapsed":533526,"internal_node_id":"0.0-4.0-0.33","subject_id":"5fac475e1718081c63013fba","study_id":"6197b3f67c2b5cd3b6d9596a","session_id":"619beefcd768ab678a6c21f8","condition":"contingent","relevant_dimensions":["pattern","legs"],"bee_group":{"antennae":"X","wings":"X","pattern":"D","legs":"M"},"action":"avoid","summary":"good-avoid","bonus":1.4800000000000013},{"rt":1292.2999999523163,"stimulus":"\n                    <p><b>Action: <em>avoid</em></b></p>\n                    <p>This is the bee that you just saw.</p>\n                    <img src=\"bees-with-color/bee-A1DM.svg\" width=\"200\">\n                    <p><br>Your bonus pay is unchanged, and remains at $0.64.</p>\n            ","response":0,"trial_type":"html-button-response","trial_index":74,"time_elapsed":534820,"internal_node_id":"0.0-4.0-1.33","subject_id":"5fac475e1718081c63013fba","study_id":"6197b3f67c2b5cd3b6d9596a","session_id":"619beefcd768ab678a6c21f8","condition":"contingent","relevant_dimensions":["pattern","legs"],"bee_group":{"antennae":"X","wings":"X","pattern":"D","legs":"M"},"bonus":1.4800000000000013},{"rt":4131.099999904633,"stimulus":"bees-with-color/bee-A1SM.svg","response":0,"trial_type":"image-button-response","trial_index":75,"time_elapsed":538953,"internal_node_id":"0.0-4.0-0.34","subject_id":"5fac475e1718081c63013fba","study_id":"6197b3f67c2b5cd3b6d9596a","session_id":"619beefcd768ab678a6c21f8","condition":"contingent","relevant_dimensions":["pattern","legs"],"bee_group":{"antennae":"X","wings":"X","pattern":"D","legs":"M"},"action":"harvest","summary":"good-harvest","bonus":1.4800000000000013},{"rt":1172.1999999284744,"stimulus":"\n                    <p><b>Action: <em>harvest</em></b></p>\n                    <p>This is the bee that you just saw.</p>\n                    <img src=\"bees-with-color/bee-A1SM.svg\" width=\"200\">\n                    <p><span class=\"greenText\"><b>Successful harvest!</b></span><br>Your pay has increased by $0.02. Your bonus pay is now $0.66.</p>\n            ","response":0,"trial_type":"html-button-response","trial_index":76,"time_elapsed":540127,"internal_node_id":"0.0-4.0-1.34","subject_id":"5fac475e1718081c63013fba","study_id":"6197b3f67c2b5cd3b6d9596a","session_id":"619beefcd768ab678a6c21f8","condition":"contingent","relevant_dimensions":["pattern","legs"],"bee_group":{"antennae":"X","wings":"X","pattern":"D","legs":"M"},"bonus":1.4800000000000013},{"rt":3520.5,"stimulus":"bees-with-color/bee-A2DM.svg","response":1,"trial_type":"image-button-response","trial_index":77,"time_elapsed":543649,"internal_node_id":"0.0-4.0-0.35","subject_id":"5fac475e1718081c63013fba","study_id":"6197b3f67c2b5cd3b6d9596a","session_id":"619beefcd768ab678a6c21f8","condition":"contingent","relevant_dimensions":["pattern","legs"],"bee_group":{"antennae":"X","wings":"X","pattern":"D","legs":"M"},"action":"avoid","summary":"good-avoid","bonus":1.4800000000000013},{"rt":1120.3999999761581,"stimulus":"\n                    <p><b>Action: <em>avoid</em></b></p>\n                    <p>This is the bee that you just saw.</p>\n                    <img src=\"bees-with-color/bee-A2DM.svg\" width=\"200\">\n                    <p><br>Your bonus pay is unchanged, and remains at $0.66.</p>\n            ","response":0,"trial_type":"html-button-response","trial_index":78,"time_elapsed":544771,"internal_node_id":"0.0-4.0-1.35","subject_id":"5fac475e1718081c63013fba","study_id":"6197b3f67c2b5cd3b6d9596a","session_id":"619beefcd768ab678a6c21f8","condition":"contingent","relevant_dimensions":["pattern","legs"],"bee_group":{"antennae":"X","wings":"X","pattern":"D","legs":"M"},"bonus":1.4800000000000013},{"rt":2680,"stimulus":"bees-with-color/bee-A2DF.svg","response":0,"trial_type":"image-button-response","trial_index":79,"time_elapsed":547453,"internal_node_id":"0.0-4.0-0.36","subject_id":"5fac475e1718081c63013fba","study_id":"6197b3f67c2b5cd3b6d9596a","session_id":"619beefcd768ab678a6c21f8","condition":"contingent","relevant_dimensions":["pattern","legs"],"bee_group":{"antennae":"X","wings":"X","pattern":"D","legs":"M"},"action":"harvest","summary":"good-harvest","bonus":1.4800000000000013},{"rt":773,"stimulus":"\n                    <p><b>Action: <em>harvest</em></b></p>\n                    <p>This is the bee that you just saw.</p>\n                    <img src=\"bees-with-color/bee-A2DF.svg\" width=\"200\">\n                    <p><span class=\"greenText\"><b>Successful harvest!</b></span><br>Your pay has increased by $0.02. Your bonus pay is now $0.68.</p>\n            ","response":0,"trial_type":"html-button-response","trial_index":80,"time_elapsed":548228,"internal_node_id":"0.0-4.0-1.36","subject_id":"5fac475e1718081c63013fba","study_id":"6197b3f67c2b5cd3b6d9596a","session_id":"619beefcd768ab678a6c21f8","condition":"contingent","relevant_dimensions":["pattern","legs"],"bee_group":{"antennae":"X","wings":"X","pattern":"D","legs":"M"},"bonus":1.4800000000000013},{"rt":3547.2999999523163,"stimulus":"bees-with-color/bee-A1SF.svg","response":0,"trial_type":"image-button-response","trial_index":81,"time_elapsed":551777,"internal_node_id":"0.0-4.0-0.37","subject_id":"5fac475e1718081c63013fba","study_id":"6197b3f67c2b5cd3b6d9596a","session_id":"619beefcd768ab678a6c21f8","condition":"contingent","relevant_dimensions":["pattern","legs"],"bee_group":{"antennae":"X","wings":"X","pattern":"D","legs":"M"},"action":"harvest","summary":"good-harvest","bonus":1.4800000000000013},{"rt":1092.6999999284744,"stimulus":"\n                    <p><b>Action: <em>harvest</em></b></p>\n                    <p>This is the bee that you just saw.</p>\n                    <img src=\"bees-with-color/bee-A1SF.svg\" width=\"200\">\n                    <p><span class=\"greenText\"><b>Successful harvest!</b></span><br>Your pay has increased by $0.02. Your bonus pay is now $0.70.</p>\n            ","response":0,"trial_type":"html-button-response","trial_index":82,"time_elapsed":552871,"internal_node_id":"0.0-4.0-1.37","subject_id":"5fac475e1718081c63013fba","study_id":"6197b3f67c2b5cd3b6d9596a","session_id":"619beefcd768ab678a6c21f8","condition":"contingent","relevant_dimensions":["pattern","legs"],"bee_group":{"antennae":"X","wings":"X","pattern":"D","legs":"M"},"bonus":1.4800000000000013},{"rt":3726.7000000476837,"stimulus":"bees-with-color/bee-A2SF.svg","response":0,"trial_type":"image-button-response","trial_index":83,"time_elapsed":556600,"internal_node_id":"0.0-4.0-0.38","subject_id":"5fac475e1718081c63013fba","study_id":"6197b3f67c2b5cd3b6d9596a","session_id":"619beefcd768ab678a6c21f8","condition":"contingent","relevant_dimensions":["pattern","legs"],"bee_group":{"antennae":"X","wings":"X","pattern":"D","legs":"M"},"action":"harvest","summary":"good-harvest","bonus":1.4800000000000013},{"rt":870.8999999761581,"stimulus":"\n                    <p><b>Action: <em>harvest</em></b></p>\n                    <p>This is the bee that you just saw.</p>\n                    <img src=\"bees-with-color/bee-A2SF.svg\" width=\"200\">\n                    <p><span class=\"greenText\"><b>Successful harvest!</b></span><br>Your pay has increased by $0.02. Your bonus pay is now $0.72.</p>\n            ","response":0,"trial_type":"html-button-response","trial_index":84,"time_elapsed":557473,"internal_node_id":"0.0-4.0-1.38","subject_id":"5fac475e1718081c63013fba","study_id":"6197b3f67c2b5cd3b6d9596a","session_id":"619beefcd768ab678a6c21f8","condition":"contingent","relevant_dimensions":["pattern","legs"],"bee_group":{"antennae":"X","wings":"X","pattern":"D","legs":"M"},"bonus":1.4800000000000013},{"rt":2679.1999999284744,"stimulus":"bees-with-color/bee-B1DF.svg","response":0,"trial_type":"image-button-response","trial_index":85,"time_elapsed":560154,"internal_node_id":"0.0-4.0-0.39","subject_id":"5fac475e1718081c63013fba","study_id":"6197b3f67c2b5cd3b6d9596a","session_id":"619beefcd768ab678a6c21f8","condition":"contingent","relevant_dimensions":["pattern","legs"],"bee_group":{"antennae":"X","wings":"X","pattern":"D","legs":"M"},"action":"harvest","summary":"good-harvest","bonus":1.4800000000000013},{"rt":862.1000000238419,"stimulus":"\n                    <p><b>Action: <em>harvest</em></b></p>\n                    <p>This is the bee that you just saw.</p>\n                    <img src=\"bees-with-color/bee-B1DF.svg\" width=\"200\">\n                    <p><span class=\"greenText\"><b>Successful harvest!</b></span><br>Your pay has increased by $0.02. Your bonus pay is now $0.74.</p>\n            ","response":0,"trial_type":"html-button-response","trial_index":86,"time_elapsed":561018,"internal_node_id":"0.0-4.0-1.39","subject_id":"5fac475e1718081c63013fba","study_id":"6197b3f67c2b5cd3b6d9596a","session_id":"619beefcd768ab678a6c21f8","condition":"contingent","relevant_dimensions":["pattern","legs"],"bee_group":{"antennae":"X","wings":"X","pattern":"D","legs":"M"},"bonus":1.4800000000000013},{"rt":2534.899999976158,"stimulus":"bees-with-color/bee-B1SF.svg","response":0,"trial_type":"image-button-response","trial_index":87,"time_elapsed":563555,"internal_node_id":"0.0-4.0-0.40","subject_id":"5fac475e1718081c63013fba","study_id":"6197b3f67c2b5cd3b6d9596a","session_id":"619beefcd768ab678a6c21f8","condition":"contingent","relevant_dimensions":["pattern","legs"],"bee_group":{"antennae":"X","wings":"X","pattern":"D","legs":"M"},"action":"harvest","summary":"good-harvest","bonus":1.4800000000000013},{"rt":808.5,"stimulus":"\n                    <p><b>Action: <em>harvest</em></b></p>\n                    <p>This is the bee that you just saw.</p>\n                    <img src=\"bees-with-color/bee-B1SF.svg\" width=\"200\">\n                    <p><span class=\"greenText\"><b>Successful harvest!</b></span><br>Your pay has increased by $0.02. Your bonus pay is now $0.76.</p>\n            ","response":0,"trial_type":"html-button-response","trial_index":88,"time_elapsed":564365,"internal_node_id":"0.0-4.0-1.40","subject_id":"5fac475e1718081c63013fba","study_id":"6197b3f67c2b5cd3b6d9596a","session_id":"619beefcd768ab678a6c21f8","condition":"contingent","relevant_dimensions":["pattern","legs"],"bee_group":{"antennae":"X","wings":"X","pattern":"D","legs":"M"},"bonus":1.4800000000000013},{"rt":2846.399999976158,"stimulus":"bees-with-color/bee-B1DM.svg","response":0,"trial_type":"image-button-response","trial_index":89,"time_elapsed":567213,"internal_node_id":"0.0-4.0-0.41","subject_id":"5fac475e1718081c63013fba","study_id":"6197b3f67c2b5cd3b6d9596a","session_id":"619beefcd768ab678a6c21f8","condition":"contingent","relevant_dimensions":["pattern","legs"],"bee_group":{"antennae":"X","wings":"X","pattern":"D","legs":"M"},"action":"harvest","summary":"bad-harvest","bonus":1.4800000000000013},{"rt":14435,"stimulus":"\n                    <p><b>Action: <em>harvest</em></b></p>\n                    <p>This is the bee that you just saw.</p>\n                    <img src=\"bees-with-color/bee-B1DM.svg\" width=\"200\">\n                    <p><span class=\"redText\">Bad choice, the bee was angry.</span><br><b>You have been stung!</b><br>Your pay has been decreased by $0.10. Your bonus pay is now $0.66.</p>\n            ","response":0,"trial_type":"html-button-response","trial_index":90,"time_elapsed":581650,"internal_node_id":"0.0-4.0-1.41","subject_id":"5fac475e1718081c63013fba","study_id":"6197b3f67c2b5cd3b6d9596a","session_id":"619beefcd768ab678a6c21f8","condition":"contingent","relevant_dimensions":["pattern","legs"],"bee_group":{"antennae":"X","wings":"X","pattern":"D","legs":"M"},"bonus":1.4800000000000013},{"rt":6698.399999976158,"stimulus":"bees-with-color/bee-A1DF.svg","response":0,"trial_type":"image-button-response","trial_index":91,"time_elapsed":588350,"internal_node_id":"0.0-4.0-0.42","subject_id":"5fac475e1718081c63013fba","study_id":"6197b3f67c2b5cd3b6d9596a","session_id":"619beefcd768ab678a6c21f8","condition":"contingent","relevant_dimensions":["pattern","legs"],"bee_group":{"antennae":"X","wings":"X","pattern":"D","legs":"M"},"action":"harvest","summary":"good-harvest","bonus":1.4800000000000013},{"rt":1574.3000000715256,"stimulus":"\n                    <p><b>Action: <em>harvest</em></b></p>\n                    <p>This is the bee that you just saw.</p>\n                    <img src=\"bees-with-color/bee-A1DF.svg\" width=\"200\">\n                    <p><span class=\"greenText\"><b>Successful harvest!</b></span><br>Your pay has increased by $0.02. Your bonus pay is now $0.68.</p>\n            ","response":0,"trial_type":"html-button-response","trial_index":92,"time_elapsed":589926,"internal_node_id":"0.0-4.0-1.42","subject_id":"5fac475e1718081c63013fba","study_id":"6197b3f67c2b5cd3b6d9596a","session_id":"619beefcd768ab678a6c21f8","condition":"contingent","relevant_dimensions":["pattern","legs"],"bee_group":{"antennae":"X","wings":"X","pattern":"D","legs":"M"},"bonus":1.4800000000000013},{"rt":2497,"stimulus":"bees-with-color/bee-B1SM.svg","response":0,"trial_type":"image-button-response","trial_index":93,"time_elapsed":592425,"internal_node_id":"0.0-4.0-0.43","subject_id":"5fac475e1718081c63013fba","study_id":"6197b3f67c2b5cd3b6d9596a","session_id":"619beefcd768ab678a6c21f8","condition":"contingent","relevant_dimensions":["pattern","legs"],"bee_group":{"antennae":"X","wings":"X","pattern":"D","legs":"M"},"action":"harvest","summary":"good-harvest","bonus":1.4800000000000013},{"rt":631.3999999761581,"stimulus":"\n                    <p><b>Action: <em>harvest</em></b></p>\n                    <p>This is the bee that you just saw.</p>\n                    <img src=\"bees-with-color/bee-B1SM.svg\" width=\"200\">\n                    <p><span class=\"greenText\"><b>Successful harvest!</b></span><br>Your pay has increased by $0.02. Your bonus pay is now $0.70.</p>\n            ","response":0,"trial_type":"html-button-response","trial_index":94,"time_elapsed":593058,"internal_node_id":"0.0-4.0-1.43","subject_id":"5fac475e1718081c63013fba","study_id":"6197b3f67c2b5cd3b6d9596a","session_id":"619beefcd768ab678a6c21f8","condition":"contingent","relevant_dimensions":["pattern","legs"],"bee_group":{"antennae":"X","wings":"X","pattern":"D","legs":"M"},"bonus":1.4800000000000013},{"rt":3669.4000000953674,"stimulus":"bees-with-color/bee-B2DF.svg","response":0,"trial_type":"image-button-response","trial_index":95,"time_elapsed":596729,"internal_node_id":"0.0-4.0-0.44","subject_id":"5fac475e1718081c63013fba","study_id":"6197b3f67c2b5cd3b6d9596a","session_id":"619beefcd768ab678a6c21f8","condition":"contingent","relevant_dimensions":["pattern","legs"],"bee_group":{"antennae":"X","wings":"X","pattern":"D","legs":"M"},"action":"harvest","summary":"good-harvest","bonus":1.4800000000000013},{"rt":676.0999999046326,"stimulus":"\n                    <p><b>Action: <em>harvest</em></b></p>\n                    <p>This is the bee that you just saw.</p>\n                    <img src=\"bees-with-color/bee-B2DF.svg\" width=\"200\">\n                    <p><span class=\"greenText\"><b>Successful harvest!</b></span><br>Your pay has increased by $0.02. Your bonus pay is now $0.72.</p>\n            ","response":0,"trial_type":"html-button-response","trial_index":96,"time_elapsed":597407,"internal_node_id":"0.0-4.0-1.44","subject_id":"5fac475e1718081c63013fba","study_id":"6197b3f67c2b5cd3b6d9596a","session_id":"619beefcd768ab678a6c21f8","condition":"contingent","relevant_dimensions":["pattern","legs"],"bee_group":{"antennae":"X","wings":"X","pattern":"D","legs":"M"},"bonus":1.4800000000000013},{"rt":2374.899999976158,"stimulus":"bees-with-color/bee-B2SM.svg","response":0,"trial_type":"image-button-response","trial_index":97,"time_elapsed":599784,"internal_node_id":"0.0-4.0-0.45","subject_id":"5fac475e1718081c63013fba","study_id":"6197b3f67c2b5cd3b6d9596a","session_id":"619beefcd768ab678a6c21f8","condition":"contingent","relevant_dimensions":["pattern","legs"],"bee_group":{"antennae":"X","wings":"X","pattern":"D","legs":"M"},"action":"harvest","summary":"good-harvest","bonus":1.4800000000000013},{"rt":615.0999999046326,"stimulus":"\n                    <p><b>Action: <em>harvest</em></b></p>\n                    <p>This is the bee that you just saw.</p>\n                    <img src=\"bees-with-color/bee-B2SM.svg\" width=\"200\">\n                    <p><span class=\"greenText\"><b>Successful harvest!</b></span><br>Your pay has increased by $0.02. Your bonus pay is now $0.74.</p>\n            ","response":0,"trial_type":"html-button-response","trial_index":98,"time_elapsed":600401,"internal_node_id":"0.0-4.0-1.45","subject_id":"5fac475e1718081c63013fba","study_id":"6197b3f67c2b5cd3b6d9596a","session_id":"619beefcd768ab678a6c21f8","condition":"contingent","relevant_dimensions":["pattern","legs"],"bee_group":{"antennae":"X","wings":"X","pattern":"D","legs":"M"},"bonus":1.4800000000000013},{"rt":4302.300000071526,"stimulus":"bees-with-color/bee-B2DM.svg","response":1,"trial_type":"image-button-response","trial_index":99,"time_elapsed":604705,"internal_node_id":"0.0-4.0-0.46","subject_id":"5fac475e1718081c63013fba","study_id":"6197b3f67c2b5cd3b6d9596a","session_id":"619beefcd768ab678a6c21f8","condition":"contingent","relevant_dimensions":["pattern","legs"],"bee_group":{"antennae":"X","wings":"X","pattern":"D","legs":"M"},"action":"avoid","summary":"good-avoid","bonus":1.4800000000000013},{"rt":642.1999999284744,"stimulus":"\n                    <p><b>Action: <em>avoid</em></b></p>\n                    <p>This is the bee that you just saw.</p>\n                    <img src=\"bees-with-color/bee-B2DM.svg\" width=\"200\">\n                    <p><br>Your bonus pay is unchanged, and remains at $0.74.</p>\n            ","response":0,"trial_type":"html-button-response","trial_index":100,"time_elapsed":605349,"internal_node_id":"0.0-4.0-1.46","subject_id":"5fac475e1718081c63013fba","study_id":"6197b3f67c2b5cd3b6d9596a","session_id":"619beefcd768ab678a6c21f8","condition":"contingent","relevant_dimensions":["pattern","legs"],"bee_group":{"antennae":"X","wings":"X","pattern":"D","legs":"M"},"bonus":1.4800000000000013},{"rt":4009.7999999523163,"stimulus":"bees-with-color/bee-A2SM.svg","response":0,"trial_type":"image-button-response","trial_index":101,"time_elapsed":609360,"internal_node_id":"0.0-4.0-0.47","subject_id":"5fac475e1718081c63013fba","study_id":"6197b3f67c2b5cd3b6d9596a","session_id":"619beefcd768ab678a6c21f8","condition":"contingent","relevant_dimensions":["pattern","legs"],"bee_group":{"antennae":"X","wings":"X","pattern":"D","legs":"M"},"action":"harvest","summary":"good-harvest","bonus":1.4800000000000013},{"rt":597.7000000476837,"stimulus":"\n                    <p><b>Action: <em>harvest</em></b></p>\n                    <p>This is the bee that you just saw.</p>\n                    <img src=\"bees-with-color/bee-A2SM.svg\" width=\"200\">\n                    <p><span class=\"greenText\"><b>Successful harvest!</b></span><br>Your pay has increased by $0.02. Your bonus pay is now $0.76.</p>\n            ","response":0,"trial_type":"html-button-response","trial_index":102,"time_elapsed":609960,"internal_node_id":"0.0-4.0-1.47","subject_id":"5fac475e1718081c63013fba","study_id":"6197b3f67c2b5cd3b6d9596a","session_id":"619beefcd768ab678a6c21f8","condition":"contingent","relevant_dimensions":["pattern","legs"],"bee_group":{"antennae":"X","wings":"X","pattern":"D","legs":"M"},"bonus":1.4800000000000013},{"rt":8724.300000071526,"stimulus":"bees-with-color/bee-B1DF.svg","response":0,"trial_type":"image-button-response","trial_index":103,"time_elapsed":618686,"internal_node_id":"0.0-4.0-0.48","subject_id":"5fac475e1718081c63013fba","study_id":"6197b3f67c2b5cd3b6d9596a","session_id":"619beefcd768ab678a6c21f8","condition":"contingent","relevant_dimensions":["pattern","legs"],"bee_group":{"antennae":"X","wings":"X","pattern":"D","legs":"M"},"action":"harvest","summary":"good-harvest","bonus":1.4800000000000013},{"rt":863.5,"stimulus":"\n                    <p><b>Action: <em>harvest</em></b></p>\n                    <p>This is the bee that you just saw.</p>\n                    <img src=\"bees-with-color/bee-B1DF.svg\" width=\"200\">\n                    <p><span class=\"greenText\"><b>Successful harvest!</b></span><br>Your pay has increased by $0.02. Your bonus pay is now $0.78.</p>\n            ","response":0,"trial_type":"html-button-response","trial_index":104,"time_elapsed":619551,"internal_node_id":"0.0-4.0-1.48","subject_id":"5fac475e1718081c63013fba","study_id":"6197b3f67c2b5cd3b6d9596a","session_id":"619beefcd768ab678a6c21f8","condition":"contingent","relevant_dimensions":["pattern","legs"],"bee_group":{"antennae":"X","wings":"X","pattern":"D","legs":"M"},"bonus":1.4800000000000013},{"rt":1739,"stimulus":"bees-with-color/bee-B1SF.svg","response":0,"trial_type":"image-button-response","trial_index":105,"time_elapsed":621292,"internal_node_id":"0.0-4.0-0.49","subject_id":"5fac475e1718081c63013fba","study_id":"6197b3f67c2b5cd3b6d9596a","session_id":"619beefcd768ab678a6c21f8","condition":"contingent","relevant_dimensions":["pattern","legs"],"bee_group":{"antennae":"X","wings":"X","pattern":"D","legs":"M"},"action":"harvest","summary":"good-harvest","bonus":1.4800000000000013},{"rt":676.9000000953674,"stimulus":"\n                    <p><b>Action: <em>harvest</em></b></p>\n                    <p>This is the bee that you just saw.</p>\n                    <img src=\"bees-with-color/bee-B1SF.svg\" width=\"200\">\n                    <p><span class=\"greenText\"><b>Successful harvest!</b></span><br>Your pay has increased by $0.02. Your bonus pay is now $0.80.</p>\n            ","response":0,"trial_type":"html-button-response","trial_index":106,"time_elapsed":621971,"internal_node_id":"0.0-4.0-1.49","subject_id":"5fac475e1718081c63013fba","study_id":"6197b3f67c2b5cd3b6d9596a","session_id":"619beefcd768ab678a6c21f8","condition":"contingent","relevant_dimensions":["pattern","legs"],"bee_group":{"antennae":"X","wings":"X","pattern":"D","legs":"M"},"bonus":1.4800000000000013},{"rt":4689.899999976158,"stimulus":"bees-with-color/bee-B1SM.svg","response":0,"trial_type":"image-button-response","trial_index":107,"time_elapsed":626663,"internal_node_id":"0.0-4.0-0.50","subject_id":"5fac475e1718081c63013fba","study_id":"6197b3f67c2b5cd3b6d9596a","session_id":"619beefcd768ab678a6c21f8","condition":"contingent","relevant_dimensions":["pattern","legs"],"bee_group":{"antennae":"X","wings":"X","pattern":"D","legs":"M"},"action":"harvest","summary":"good-harvest","bonus":1.4800000000000013},{"rt":610.5999999046326,"stimulus":"\n                    <p><b>Action: <em>harvest</em></b></p>\n                    <p>This is the bee that you just saw.</p>\n                    <img src=\"bees-with-color/bee-B1SM.svg\" width=\"200\">\n                    <p><span class=\"greenText\"><b>Successful harvest!</b></span><br>Your pay has increased by $0.02. Your bonus pay is now $0.82.</p>\n            ","response":0,"trial_type":"html-button-response","trial_index":108,"time_elapsed":627275,"internal_node_id":"0.0-4.0-1.50","subject_id":"5fac475e1718081c63013fba","study_id":"6197b3f67c2b5cd3b6d9596a","session_id":"619beefcd768ab678a6c21f8","condition":"contingent","relevant_dimensions":["pattern","legs"],"bee_group":{"antennae":"X","wings":"X","pattern":"D","legs":"M"},"bonus":1.4800000000000013},{"rt":3264,"stimulus":"bees-with-color/bee-B2SM.svg","response":0,"trial_type":"image-button-response","trial_index":109,"time_elapsed":630541,"internal_node_id":"0.0-4.0-0.51","subject_id":"5fac475e1718081c63013fba","study_id":"6197b3f67c2b5cd3b6d9596a","session_id":"619beefcd768ab678a6c21f8","condition":"contingent","relevant_dimensions":["pattern","legs"],"bee_group":{"antennae":"X","wings":"X","pattern":"D","legs":"M"},"action":"harvest","summary":"good-harvest","bonus":1.4800000000000013},{"rt":638.2000000476837,"stimulus":"\n                    <p><b>Action: <em>harvest</em></b></p>\n                    <p>This is the bee that you just saw.</p>\n                    <img src=\"bees-with-color/bee-B2SM.svg\" width=\"200\">\n                    <p><span class=\"greenText\"><b>Successful harvest!</b></span><br>Your pay has increased by $0.02. Your bonus pay is now $0.84.</p>\n            ","response":0,"trial_type":"html-button-response","trial_index":110,"time_elapsed":631181,"internal_node_id":"0.0-4.0-1.51","subject_id":"5fac475e1718081c63013fba","study_id":"6197b3f67c2b5cd3b6d9596a","session_id":"619beefcd768ab678a6c21f8","condition":"contingent","relevant_dimensions":["pattern","legs"],"bee_group":{"antennae":"X","wings":"X","pattern":"D","legs":"M"},"bonus":1.4800000000000013},{"rt":8279.300000071526,"stimulus":"bees-with-color/bee-A1DM.svg","response":1,"trial_type":"image-button-response","trial_index":111,"time_elapsed":639462,"internal_node_id":"0.0-4.0-0.52","subject_id":"5fac475e1718081c63013fba","study_id":"6197b3f67c2b5cd3b6d9596a","session_id":"619beefcd768ab678a6c21f8","condition":"contingent","relevant_dimensions":["pattern","legs"],"bee_group":{"antennae":"X","wings":"X","pattern":"D","legs":"M"},"action":"avoid","summary":"good-avoid","bonus":1.4800000000000013},{"rt":1405.2000000476837,"stimulus":"\n                    <p><b>Action: <em>avoid</em></b></p>\n                    <p>This is the bee that you just saw.</p>\n                    <img src=\"bees-with-color/bee-A1DM.svg\" width=\"200\">\n                    <p><br>Your bonus pay is unchanged, and remains at $0.84.</p>\n            ","response":0,"trial_type":"html-button-response","trial_index":112,"time_elapsed":640869,"internal_node_id":"0.0-4.0-1.52","subject_id":"5fac475e1718081c63013fba","study_id":"6197b3f67c2b5cd3b6d9596a","session_id":"619beefcd768ab678a6c21f8","condition":"contingent","relevant_dimensions":["pattern","legs"],"bee_group":{"antennae":"X","wings":"X","pattern":"D","legs":"M"},"bonus":1.4800000000000013},{"rt":4987.5,"stimulus":"bees-with-color/bee-A1SF.svg","response":0,"trial_type":"image-button-response","trial_index":113,"time_elapsed":645859,"internal_node_id":"0.0-4.0-0.53","subject_id":"5fac475e1718081c63013fba","study_id":"6197b3f67c2b5cd3b6d9596a","session_id":"619beefcd768ab678a6c21f8","condition":"contingent","relevant_dimensions":["pattern","legs"],"bee_group":{"antennae":"X","wings":"X","pattern":"D","legs":"M"},"action":"harvest","summary":"good-harvest","bonus":1.4800000000000013},{"rt":612.6000000238419,"stimulus":"\n                    <p><b>Action: <em>harvest</em></b></p>\n                    <p>This is the bee that you just saw.</p>\n                    <img src=\"bees-with-color/bee-A1SF.svg\" width=\"200\">\n                    <p><span class=\"greenText\"><b>Successful harvest!</b></span><br>Your pay has increased by $0.02. Your bonus pay is now $0.86.</p>\n            ","response":0,"trial_type":"html-button-response","trial_index":114,"time_elapsed":646473,"internal_node_id":"0.0-4.0-1.53","subject_id":"5fac475e1718081c63013fba","study_id":"6197b3f67c2b5cd3b6d9596a","session_id":"619beefcd768ab678a6c21f8","condition":"contingent","relevant_dimensions":["pattern","legs"],"bee_group":{"antennae":"X","wings":"X","pattern":"D","legs":"M"},"bonus":1.4800000000000013},{"rt":4734.900000095367,"stimulus":"bees-with-color/bee-B2DM.svg","response":1,"trial_type":"image-button-response","trial_index":115,"time_elapsed":651210,"internal_node_id":"0.0-4.0-0.54","subject_id":"5fac475e1718081c63013fba","study_id":"6197b3f67c2b5cd3b6d9596a","session_id":"619beefcd768ab678a6c21f8","condition":"contingent","relevant_dimensions":["pattern","legs"],"bee_group":{"antennae":"X","wings":"X","pattern":"D","legs":"M"},"action":"avoid","summary":"good-avoid","bonus":1.4800000000000013},{"rt":779.7000000476837,"stimulus":"\n                    <p><b>Action: <em>avoid</em></b></p>\n                    <p>This is the bee that you just saw.</p>\n                    <img src=\"bees-with-color/bee-B2DM.svg\" width=\"200\">\n                    <p><br>Your bonus pay is unchanged, and remains at $0.86.</p>\n            ","response":0,"trial_type":"html-button-response","trial_index":116,"time_elapsed":651992,"internal_node_id":"0.0-4.0-1.54","subject_id":"5fac475e1718081c63013fba","study_id":"6197b3f67c2b5cd3b6d9596a","session_id":"619beefcd768ab678a6c21f8","condition":"contingent","relevant_dimensions":["pattern","legs"],"bee_group":{"antennae":"X","wings":"X","pattern":"D","legs":"M"},"bonus":1.4800000000000013},{"rt":1562.5,"stimulus":"bees-with-color/bee-A2SM.svg","response":0,"trial_type":"image-button-response","trial_index":117,"time_elapsed":653557,"internal_node_id":"0.0-4.0-0.55","subject_id":"5fac475e1718081c63013fba","study_id":"6197b3f67c2b5cd3b6d9596a","session_id":"619beefcd768ab678a6c21f8","condition":"contingent","relevant_dimensions":["pattern","legs"],"bee_group":{"antennae":"X","wings":"X","pattern":"D","legs":"M"},"action":"harvest","summary":"good-harvest","bonus":1.4800000000000013},{"rt":504.60000002384186,"stimulus":"\n                    <p><b>Action: <em>harvest</em></b></p>\n                    <p>This is the bee that you just saw.</p>\n                    <img src=\"bees-with-color/bee-A2SM.svg\" width=\"200\">\n                    <p><span class=\"greenText\"><b>Successful harvest!</b></span><br>Your pay has increased by $0.02. Your bonus pay is now $0.88.</p>\n            ","response":0,"trial_type":"html-button-response","trial_index":118,"time_elapsed":654063,"internal_node_id":"0.0-4.0-1.55","subject_id":"5fac475e1718081c63013fba","study_id":"6197b3f67c2b5cd3b6d9596a","session_id":"619beefcd768ab678a6c21f8","condition":"contingent","relevant_dimensions":["pattern","legs"],"bee_group":{"antennae":"X","wings":"X","pattern":"D","legs":"M"},"bonus":1.4800000000000013},{"rt":8501.100000023842,"stimulus":"bees-with-color/bee-A2DM.svg","response":1,"trial_type":"image-button-response","trial_index":119,"time_elapsed":662566,"internal_node_id":"0.0-4.0-0.56","subject_id":"5fac475e1718081c63013fba","study_id":"6197b3f67c2b5cd3b6d9596a","session_id":"619beefcd768ab678a6c21f8","condition":"contingent","relevant_dimensions":["pattern","legs"],"bee_group":{"antennae":"X","wings":"X","pattern":"D","legs":"M"},"action":"avoid","summary":"good-avoid","bonus":1.4800000000000013},{"rt":896.8999999761581,"stimulus":"\n                    <p><b>Action: <em>avoid</em></b></p>\n                    <p>This is the bee that you just saw.</p>\n                    <img src=\"bees-with-color/bee-A2DM.svg\" width=\"200\">\n                    <p><br>Your bonus pay is unchanged, and remains at $0.88.</p>\n            ","response":0,"trial_type":"html-button-response","trial_index":120,"time_elapsed":663464,"internal_node_id":"0.0-4.0-1.56","subject_id":"5fac475e1718081c63013fba","study_id":"6197b3f67c2b5cd3b6d9596a","session_id":"619beefcd768ab678a6c21f8","condition":"contingent","relevant_dimensions":["pattern","legs"],"bee_group":{"antennae":"X","wings":"X","pattern":"D","legs":"M"},"bonus":1.4800000000000013},{"rt":1580.8999999761581,"stimulus":"bees-with-color/bee-B2SF.svg","response":0,"trial_type":"image-button-response","trial_index":121,"time_elapsed":665047,"internal_node_id":"0.0-4.0-0.57","subject_id":"5fac475e1718081c63013fba","study_id":"6197b3f67c2b5cd3b6d9596a","session_id":"619beefcd768ab678a6c21f8","condition":"contingent","relevant_dimensions":["pattern","legs"],"bee_group":{"antennae":"X","wings":"X","pattern":"D","legs":"M"},"action":"harvest","summary":"good-harvest","bonus":1.4800000000000013},{"rt":564.6999999284744,"stimulus":"\n                    <p><b>Action: <em>harvest</em></b></p>\n                    <p>This is the bee that you just saw.</p>\n                    <img src=\"bees-with-color/bee-B2SF.svg\" width=\"200\">\n                    <p><span class=\"greenText\"><b>Successful harvest!</b></span><br>Your pay has increased by $0.02. Your bonus pay is now $0.90.</p>\n            ","response":0,"trial_type":"html-button-response","trial_index":122,"time_elapsed":665614,"internal_node_id":"0.0-4.0-1.57","subject_id":"5fac475e1718081c63013fba","study_id":"6197b3f67c2b5cd3b6d9596a","session_id":"619beefcd768ab678a6c21f8","condition":"contingent","relevant_dimensions":["pattern","legs"],"bee_group":{"antennae":"X","wings":"X","pattern":"D","legs":"M"},"bonus":1.4800000000000013},{"rt":8309.299999952316,"stimulus":"bees-with-color/bee-B1DM.svg","response":1,"trial_type":"image-button-response","trial_index":123,"time_elapsed":673925,"internal_node_id":"0.0-4.0-0.58","subject_id":"5fac475e1718081c63013fba","study_id":"6197b3f67c2b5cd3b6d9596a","session_id":"619beefcd768ab678a6c21f8","condition":"contingent","relevant_dimensions":["pattern","legs"],"bee_group":{"antennae":"X","wings":"X","pattern":"D","legs":"M"},"action":"avoid","summary":"good-avoid","bonus":1.4800000000000013},{"rt":1047.2000000476837,"stimulus":"\n                    <p><b>Action: <em>avoid</em></b></p>\n                    <p>This is the bee that you just saw.</p>\n                    <img src=\"bees-with-color/bee-B1DM.svg\" width=\"200\">\n                    <p><br>Your bonus pay is unchanged, and remains at $0.90.</p>\n            ","response":0,"trial_type":"html-button-response","trial_index":124,"time_elapsed":674974,"internal_node_id":"0.0-4.0-1.58","subject_id":"5fac475e1718081c63013fba","study_id":"6197b3f67c2b5cd3b6d9596a","session_id":"619beefcd768ab678a6c21f8","condition":"contingent","relevant_dimensions":["pattern","legs"],"bee_group":{"antennae":"X","wings":"X","pattern":"D","legs":"M"},"bonus":1.4800000000000013},{"rt":2020.6999999284744,"stimulus":"bees-with-color/bee-A2SF.svg","response":0,"trial_type":"image-button-response","trial_index":125,"time_elapsed":676997,"internal_node_id":"0.0-4.0-0.59","subject_id":"5fac475e1718081c63013fba","study_id":"6197b3f67c2b5cd3b6d9596a","session_id":"619beefcd768ab678a6c21f8","condition":"contingent","relevant_dimensions":["pattern","legs"],"bee_group":{"antennae":"X","wings":"X","pattern":"D","legs":"M"},"action":"harvest","summary":"good-harvest","bonus":1.4800000000000013},{"rt":471.3000000715256,"stimulus":"\n                    <p><b>Action: <em>harvest</em></b></p>\n                    <p>This is the bee that you just saw.</p>\n                    <img src=\"bees-with-color/bee-A2SF.svg\" width=\"200\">\n                    <p><span class=\"greenText\"><b>Successful harvest!</b></span><br>Your pay has increased by $0.02. Your bonus pay is now $0.92.</p>\n            ","response":0,"trial_type":"html-button-response","trial_index":126,"time_elapsed":677470,"internal_node_id":"0.0-4.0-1.59","subject_id":"5fac475e1718081c63013fba","study_id":"6197b3f67c2b5cd3b6d9596a","session_id":"619beefcd768ab678a6c21f8","condition":"contingent","relevant_dimensions":["pattern","legs"],"bee_group":{"antennae":"X","wings":"X","pattern":"D","legs":"M"},"bonus":1.4800000000000013},{"rt":5103.200000047684,"stimulus":"bees-with-color/bee-A2DF.svg","response":0,"trial_type":"image-button-response","trial_index":127,"time_elapsed":682574,"internal_node_id":"0.0-4.0-0.60","subject_id":"5fac475e1718081c63013fba","study_id":"6197b3f67c2b5cd3b6d9596a","session_id":"619beefcd768ab678a6c21f8","condition":"contingent","relevant_dimensions":["pattern","legs"],"bee_group":{"antennae":"X","wings":"X","pattern":"D","legs":"M"},"action":"harvest","summary":"good-harvest","bonus":1.4800000000000013},{"rt":599.8999999761581,"stimulus":"\n                    <p><b>Action: <em>harvest</em></b></p>\n                    <p>This is the bee that you just saw.</p>\n                    <img src=\"bees-with-color/bee-A2DF.svg\" width=\"200\">\n                    <p><span class=\"greenText\"><b>Successful harvest!</b></span><br>Your pay has increased by $0.02. Your bonus pay is now $0.94.</p>\n            ","response":0,"trial_type":"html-button-response","trial_index":128,"time_elapsed":683176,"internal_node_id":"0.0-4.0-1.60","subject_id":"5fac475e1718081c63013fba","study_id":"6197b3f67c2b5cd3b6d9596a","session_id":"619beefcd768ab678a6c21f8","condition":"contingent","relevant_dimensions":["pattern","legs"],"bee_group":{"antennae":"X","wings":"X","pattern":"D","legs":"M"},"bonus":1.4800000000000013},{"rt":3809.2000000476837,"stimulus":"bees-with-color/bee-B2DF.svg","response":0,"trial_type":"image-button-response","trial_index":129,"time_elapsed":686987,"internal_node_id":"0.0-4.0-0.61","subject_id":"5fac475e1718081c63013fba","study_id":"6197b3f67c2b5cd3b6d9596a","session_id":"619beefcd768ab678a6c21f8","condition":"contingent","relevant_dimensions":["pattern","legs"],"bee_group":{"antennae":"X","wings":"X","pattern":"D","legs":"M"},"action":"harvest","summary":"good-harvest","bonus":1.4800000000000013},{"rt":627.6999999284744,"stimulus":"\n                    <p><b>Action: <em>harvest</em></b></p>\n                    <p>This is the bee that you just saw.</p>\n                    <img src=\"bees-with-color/bee-B2DF.svg\" width=\"200\">\n                    <p><span class=\"greenText\"><b>Successful harvest!</b></span><br>Your pay has increased by $0.02. Your bonus pay is now $0.96.</p>\n            ","response":0,"trial_type":"html-button-response","trial_index":130,"time_elapsed":687617,"internal_node_id":"0.0-4.0-1.61","subject_id":"5fac475e1718081c63013fba","study_id":"6197b3f67c2b5cd3b6d9596a","session_id":"619beefcd768ab678a6c21f8","condition":"contingent","relevant_dimensions":["pattern","legs"],"bee_group":{"antennae":"X","wings":"X","pattern":"D","legs":"M"},"bonus":1.4800000000000013},{"rt":2658,"stimulus":"bees-with-color/bee-A1DF.svg","response":0,"trial_type":"image-button-response","trial_index":131,"time_elapsed":690277,"internal_node_id":"0.0-4.0-0.62","subject_id":"5fac475e1718081c63013fba","study_id":"6197b3f67c2b5cd3b6d9596a","session_id":"619beefcd768ab678a6c21f8","condition":"contingent","relevant_dimensions":["pattern","legs"],"bee_group":{"antennae":"X","wings":"X","pattern":"D","legs":"M"},"action":"harvest","summary":"good-harvest","bonus":1.4800000000000013},{"rt":619,"stimulus":"\n                    <p><b>Action: <em>harvest</em></b></p>\n                    <p>This is the bee that you just saw.</p>\n                    <img src=\"bees-with-color/bee-A1DF.svg\" width=\"200\">\n                    <p><span class=\"greenText\"><b>Successful harvest!</b></span><br>Your pay has increased by $0.02. Your bonus pay is now $0.98.</p>\n            ","response":0,"trial_type":"html-button-response","trial_index":132,"time_elapsed":690897,"internal_node_id":"0.0-4.0-1.62","subject_id":"5fac475e1718081c63013fba","study_id":"6197b3f67c2b5cd3b6d9596a","session_id":"619beefcd768ab678a6c21f8","condition":"contingent","relevant_dimensions":["pattern","legs"],"bee_group":{"antennae":"X","wings":"X","pattern":"D","legs":"M"},"bonus":1.4800000000000013},{"rt":1870.3999999761581,"stimulus":"bees-with-color/bee-A1SM.svg","response":0,"trial_type":"image-button-response","trial_index":133,"time_elapsed":692769,"internal_node_id":"0.0-4.0-0.63","subject_id":"5fac475e1718081c63013fba","study_id":"6197b3f67c2b5cd3b6d9596a","session_id":"619beefcd768ab678a6c21f8","condition":"contingent","relevant_dimensions":["pattern","legs"],"bee_group":{"antennae":"X","wings":"X","pattern":"D","legs":"M"},"action":"harvest","summary":"good-harvest","bonus":1.4800000000000013},{"rt":668.5,"stimulus":"\n                    <p><b>Action: <em>harvest</em></b></p>\n                    <p>This is the bee that you just saw.</p>\n                    <img src=\"bees-with-color/bee-A1SM.svg\" width=\"200\">\n                    <p><span class=\"greenText\"><b>Successful harvest!</b></span><br>Your pay has increased by $0.02. Your bonus pay is now $1.00.</p>\n            ","response":0,"trial_type":"html-button-response","trial_index":134,"time_elapsed":693439,"internal_node_id":"0.0-4.0-1.63","subject_id":"5fac475e1718081c63013fba","study_id":"6197b3f67c2b5cd3b6d9596a","session_id":"619beefcd768ab678a6c21f8","condition":"contingent","relevant_dimensions":["pattern","legs"],"bee_group":{"antennae":"X","wings":"X","pattern":"D","legs":"M"},"bonus":1.4800000000000013},{"rt":11175.900000095367,"stimulus":"You have completed the first part of this experiment.<br><br>You will now begin a shorter second part, in which you will receive no feedback.<br>The same rules regarding bonus pay apply.<br><br>Press any key to begin.","response":" ","trial_type":"html-keyboard-response","trial_index":135,"time_elapsed":704617,"internal_node_id":"0.0-5.0","subject_id":"5fac475e1718081c63013fba","study_id":"6197b3f67c2b5cd3b6d9596a","session_id":"619beefcd768ab678a6c21f8","condition":"contingent","relevant_dimensions":["pattern","legs"],"bee_group":{"antennae":"X","wings":"X","pattern":"D","legs":"M"},"bonus":1.4800000000000013},{"rt":4847.899999976158,"stimulus":"bees-with-color/bee-B1SF.svg","response":0,"trial_type":"image-button-response","trial_index":136,"time_elapsed":709475,"internal_node_id":"0.0-6.0-0.0","subject_id":"5fac475e1718081c63013fba","study_id":"6197b3f67c2b5cd3b6d9596a","session_id":"619beefcd768ab678a6c21f8","condition":"contingent","relevant_dimensions":["pattern","legs"],"bee_group":{"antennae":"X","wings":"X","pattern":"D","legs":"M"},"bonus":1.4800000000000013},{"rt":6918,"stimulus":"bees-with-color/bee-A2DM.svg","response":1,"trial_type":"image-button-response","trial_index":137,"time_elapsed":716396,"internal_node_id":"0.0-6.0-0.1","subject_id":"5fac475e1718081c63013fba","study_id":"6197b3f67c2b5cd3b6d9596a","session_id":"619beefcd768ab678a6c21f8","condition":"contingent","relevant_dimensions":["pattern","legs"],"bee_group":{"antennae":"X","wings":"X","pattern":"D","legs":"M"},"bonus":1.4800000000000013},{"rt":1652.5,"stimulus":"bees-with-color/bee-B1SM.svg","response":0,"trial_type":"image-button-response","trial_index":138,"time_elapsed":718051,"internal_node_id":"0.0-6.0-0.2","subject_id":"5fac475e1718081c63013fba","study_id":"6197b3f67c2b5cd3b6d9596a","session_id":"619beefcd768ab678a6c21f8","condition":"contingent","relevant_dimensions":["pattern","legs"],"bee_group":{"antennae":"X","wings":"X","pattern":"D","legs":"M"},"bonus":1.4800000000000013},{"rt":1521.8999999761581,"stimulus":"bees-with-color/bee-B2SF.svg","response":0,"trial_type":"image-button-response","trial_index":139,"time_elapsed":719576,"internal_node_id":"0.0-6.0-0.3","subject_id":"5fac475e1718081c63013fba","study_id":"6197b3f67c2b5cd3b6d9596a","session_id":"619beefcd768ab678a6c21f8","condition":"contingent","relevant_dimensions":["pattern","legs"],"bee_group":{"antennae":"X","wings":"X","pattern":"D","legs":"M"},"bonus":1.4800000000000013},{"rt":2344,"stimulus":"bees-with-color/bee-A1SF.svg","response":0,"trial_type":"image-button-response","trial_index":140,"time_elapsed":721922,"internal_node_id":"0.0-6.0-0.4","subject_id":"5fac475e1718081c63013fba","study_id":"6197b3f67c2b5cd3b6d9596a","session_id":"619beefcd768ab678a6c21f8","condition":"contingent","relevant_dimensions":["pattern","legs"],"bee_group":{"antennae":"X","wings":"X","pattern":"D","legs":"M"},"bonus":1.4800000000000013},{"rt":995.5,"stimulus":"bees-with-color/bee-A1SM.svg","response":0,"trial_type":"image-button-response","trial_index":141,"time_elapsed":722920,"internal_node_id":"0.0-6.0-0.5","subject_id":"5fac475e1718081c63013fba","study_id":"6197b3f67c2b5cd3b6d9596a","session_id":"619beefcd768ab678a6c21f8","condition":"contingent","relevant_dimensions":["pattern","legs"],"bee_group":{"antennae":"X","wings":"X","pattern":"D","legs":"M"},"bonus":1.4800000000000013},{"rt":684.2000000476837,"stimulus":"bees-with-color/bee-A2SM.svg","response":0,"trial_type":"image-button-response","trial_index":142,"time_elapsed":723606,"internal_node_id":"0.0-6.0-0.6","subject_id":"5fac475e1718081c63013fba","study_id":"6197b3f67c2b5cd3b6d9596a","session_id":"619beefcd768ab678a6c21f8","condition":"contingent","relevant_dimensions":["pattern","legs"],"bee_group":{"antennae":"X","wings":"X","pattern":"D","legs":"M"},"bonus":1.4800000000000013},{"rt":5315.199999928474,"stimulus":"bees-with-color/bee-B2DM.svg","response":1,"trial_type":"image-button-response","trial_index":143,"time_elapsed":728924,"internal_node_id":"0.0-6.0-0.7","subject_id":"5fac475e1718081c63013fba","study_id":"6197b3f67c2b5cd3b6d9596a","session_id":"619beefcd768ab678a6c21f8","condition":"contingent","relevant_dimensions":["pattern","legs"],"bee_group":{"antennae":"X","wings":"X","pattern":"D","legs":"M"},"bonus":1.4800000000000013},{"rt":1086.9000000953674,"stimulus":"bees-with-color/bee-B2SM.svg","response":0,"trial_type":"image-button-response","trial_index":144,"time_elapsed":730013,"internal_node_id":"0.0-6.0-0.8","subject_id":"5fac475e1718081c63013fba","study_id":"6197b3f67c2b5cd3b6d9596a","session_id":"619beefcd768ab678a6c21f8","condition":"contingent","relevant_dimensions":["pattern","legs"],"bee_group":{"antennae":"X","wings":"X","pattern":"D","legs":"M"},"bonus":1.4800000000000013},{"rt":4229.700000047684,"stimulus":"bees-with-color/bee-B2DF.svg","response":0,"trial_type":"image-button-response","trial_index":145,"time_elapsed":734245,"internal_node_id":"0.0-6.0-0.9","subject_id":"5fac475e1718081c63013fba","study_id":"6197b3f67c2b5cd3b6d9596a","session_id":"619beefcd768ab678a6c21f8","condition":"contingent","relevant_dimensions":["pattern","legs"],"bee_group":{"antennae":"X","wings":"X","pattern":"D","legs":"M"},"bonus":1.4800000000000013},{"rt":1371.2000000476837,"stimulus":"bees-with-color/bee-B1DF.svg","response":0,"trial_type":"image-button-response","trial_index":146,"time_elapsed":735619,"internal_node_id":"0.0-6.0-0.10","subject_id":"5fac475e1718081c63013fba","study_id":"6197b3f67c2b5cd3b6d9596a","session_id":"619beefcd768ab678a6c21f8","condition":"contingent","relevant_dimensions":["pattern","legs"],"bee_group":{"antennae":"X","wings":"X","pattern":"D","legs":"M"},"bonus":1.4800000000000013},{"rt":4587.200000047684,"stimulus":"bees-with-color/bee-B1DM.svg","response":1,"trial_type":"image-button-response","trial_index":147,"time_elapsed":740209,"internal_node_id":"0.0-6.0-0.11","subject_id":"5fac475e1718081c63013fba","study_id":"6197b3f67c2b5cd3b6d9596a","session_id":"619beefcd768ab678a6c21f8","condition":"contingent","relevant_dimensions":["pattern","legs"],"bee_group":{"antennae":"X","wings":"X","pattern":"D","legs":"M"},"bonus":1.4800000000000013},{"rt":1557.3999999761581,"stimulus":"bees-with-color/bee-A1DF.svg","response":0,"trial_type":"image-button-response","trial_index":148,"time_elapsed":741769,"internal_node_id":"0.0-6.0-0.12","subject_id":"5fac475e1718081c63013fba","study_id":"6197b3f67c2b5cd3b6d9596a","session_id":"619beefcd768ab678a6c21f8","condition":"contingent","relevant_dimensions":["pattern","legs"],"bee_group":{"antennae":"X","wings":"X","pattern":"D","legs":"M"},"bonus":1.4800000000000013},{"rt":1382.5,"stimulus":"bees-with-color/bee-A2SF.svg","response":0,"trial_type":"image-button-response","trial_index":149,"time_elapsed":743153,"internal_node_id":"0.0-6.0-0.13","subject_id":"5fac475e1718081c63013fba","study_id":"6197b3f67c2b5cd3b6d9596a","session_id":"619beefcd768ab678a6c21f8","condition":"contingent","relevant_dimensions":["pattern","legs"],"bee_group":{"antennae":"X","wings":"X","pattern":"D","legs":"M"},"bonus":1.4800000000000013},{"rt":2554.4000000953674,"stimulus":"bees-with-color/bee-A1DM.svg","response":1,"trial_type":"image-button-response","trial_index":150,"time_elapsed":745710,"internal_node_id":"0.0-6.0-0.14","subject_id":"5fac475e1718081c63013fba","study_id":"6197b3f67c2b5cd3b6d9596a","session_id":"619beefcd768ab678a6c21f8","condition":"contingent","relevant_dimensions":["pattern","legs"],"bee_group":{"antennae":"X","wings":"X","pattern":"D","legs":"M"},"bonus":1.4800000000000013},{"rt":6986.699999928474,"stimulus":"bees-with-color/bee-A2DF.svg","response":0,"trial_type":"image-button-response","trial_index":151,"time_elapsed":752699,"internal_node_id":"0.0-6.0-0.15","subject_id":"5fac475e1718081c63013fba","study_id":"6197b3f67c2b5cd3b6d9596a","session_id":"619beefcd768ab678a6c21f8","condition":"contingent","relevant_dimensions":["pattern","legs"],"bee_group":{"antennae":"X","wings":"X","pattern":"D","legs":"M"},"bonus":1.4800000000000013},{"rt":1301.6000000238419,"stimulus":"bees-with-color/bee-B1SM.svg","response":0,"trial_type":"image-button-response","trial_index":152,"time_elapsed":754003,"internal_node_id":"0.0-6.0-0.16","subject_id":"5fac475e1718081c63013fba","study_id":"6197b3f67c2b5cd3b6d9596a","session_id":"619beefcd768ab678a6c21f8","condition":"contingent","relevant_dimensions":["pattern","legs"],"bee_group":{"antennae":"X","wings":"X","pattern":"D","legs":"M"},"bonus":1.4800000000000013},{"rt":740.2000000476837,"stimulus":"bees-with-color/bee-B1SF.svg","response":0,"trial_type":"image-button-response","trial_index":153,"time_elapsed":754745,"internal_node_id":"0.0-6.0-0.17","subject_id":"5fac475e1718081c63013fba","study_id":"6197b3f67c2b5cd3b6d9596a","session_id":"619beefcd768ab678a6c21f8","condition":"contingent","relevant_dimensions":["pattern","legs"],"bee_group":{"antennae":"X","wings":"X","pattern":"D","legs":"M"},"bonus":1.4800000000000013},{"rt":858.1000000238419,"stimulus":"bees-with-color/bee-B2SM.svg","response":0,"trial_type":"image-button-response","trial_index":154,"time_elapsed":755605,"internal_node_id":"0.0-6.0-0.18","subject_id":"5fac475e1718081c63013fba","study_id":"6197b3f67c2b5cd3b6d9596a","session_id":"619beefcd768ab678a6c21f8","condition":"contingent","relevant_dimensions":["pattern","legs"],"bee_group":{"antennae":"X","wings":"X","pattern":"D","legs":"M"},"bonus":1.4800000000000013},{"rt":845.1000000238419,"stimulus":"bees-with-color/bee-A1SF.svg","response":0,"trial_type":"image-button-response","trial_index":155,"time_elapsed":756452,"internal_node_id":"0.0-6.0-0.19","subject_id":"5fac475e1718081c63013fba","study_id":"6197b3f67c2b5cd3b6d9596a","session_id":"619beefcd768ab678a6c21f8","condition":"contingent","relevant_dimensions":["pattern","legs"],"bee_group":{"antennae":"X","wings":"X","pattern":"D","legs":"M"},"bonus":1.4800000000000013},{"rt":762.7999999523163,"stimulus":"bees-with-color/bee-A2SF.svg","response":0,"trial_type":"image-button-response","trial_index":156,"time_elapsed":757217,"internal_node_id":"0.0-6.0-0.20","subject_id":"5fac475e1718081c63013fba","study_id":"6197b3f67c2b5cd3b6d9596a","session_id":"619beefcd768ab678a6c21f8","condition":"contingent","relevant_dimensions":["pattern","legs"],"bee_group":{"antennae":"X","wings":"X","pattern":"D","legs":"M"},"bonus":1.4800000000000013},{"rt":920.9000000953674,"stimulus":"bees-with-color/bee-B2SF.svg","response":0,"trial_type":"image-button-response","trial_index":157,"time_elapsed":758140,"internal_node_id":"0.0-6.0-0.21","subject_id":"5fac475e1718081c63013fba","study_id":"6197b3f67c2b5cd3b6d9596a","session_id":"619beefcd768ab678a6c21f8","condition":"contingent","relevant_dimensions":["pattern","legs"],"bee_group":{"antennae":"X","wings":"X","pattern":"D","legs":"M"},"bonus":1.4800000000000013},{"rt":1134.8999999761581,"stimulus":"bees-with-color/bee-A1DM.svg","response":1,"trial_type":"image-button-response","trial_index":158,"time_elapsed":759277,"internal_node_id":"0.0-6.0-0.22","subject_id":"5fac475e1718081c63013fba","study_id":"6197b3f67c2b5cd3b6d9596a","session_id":"619beefcd768ab678a6c21f8","condition":"contingent","relevant_dimensions":["pattern","legs"],"bee_group":{"antennae":"X","wings":"X","pattern":"D","legs":"M"},"bonus":1.4800000000000013},{"rt":1279.8000000715256,"stimulus":"bees-with-color/bee-B2DM.svg","response":1,"trial_type":"image-button-response","trial_index":159,"time_elapsed":760559,"internal_node_id":"0.0-6.0-0.23","subject_id":"5fac475e1718081c63013fba","study_id":"6197b3f67c2b5cd3b6d9596a","session_id":"619beefcd768ab678a6c21f8","condition":"contingent","relevant_dimensions":["pattern","legs"],"bee_group":{"antennae":"X","wings":"X","pattern":"D","legs":"M"},"bonus":1.4800000000000013},{"rt":1051.5,"stimulus":"bees-with-color/bee-A2DM.svg","response":1,"trial_type":"image-button-response","trial_index":160,"time_elapsed":761612,"internal_node_id":"0.0-6.0-0.24","subject_id":"5fac475e1718081c63013fba","study_id":"6197b3f67c2b5cd3b6d9596a","session_id":"619beefcd768ab678a6c21f8","condition":"contingent","relevant_dimensions":["pattern","legs"],"bee_group":{"antennae":"X","wings":"X","pattern":"D","legs":"M"},"bonus":1.4800000000000013},{"rt":1220.2999999523163,"stimulus":"bees-with-color/bee-A1DF.svg","response":0,"trial_type":"image-button-response","trial_index":161,"time_elapsed":762836,"internal_node_id":"0.0-6.0-0.25","sub