[{"success":true,"trial_type":"fullscreen","trial_index":0,"time_elapsed":3437,"internal_node_id":"0.0-0.0","subject_id":"60f9e5fdb753010b9fff46e3","study_id":"60edd13110225f80f9f3709b","session_id":"6196c2e75567666ff6165521","condition":"full-information","relevant_dimensions":["antennae","legs"],"bee_group":{"antennae":"A","wings":"X","pattern":"X","legs":"F"},"bonus":0.06},{"success":true,"timeout":false,"failed_images":[],"failed_audio":[],"failed_video":[],"trial_type":"preload","trial_index":1,"time_elapsed":5717,"internal_node_id":"0.0-1.0","subject_id":"60f9e5fdb753010b9fff46e3","study_id":"60edd13110225f80f9f3709b","session_id":"6196c2e75567666ff6165521","condition":"full-information","relevant_dimensions":["antennae","legs"],"bee_group":{"antennae":"A","wings":"X","pattern":"X","legs":"F"},"bonus":0.06},{"rt":4226,"stimulus":"Welcome! Press any key to begin.","response":" ","trial_type":"html-keyboard-response","trial_index":2,"time_elapsed":9944,"internal_node_id":"0.0-2.0","subject_id":"60f9e5fdb753010b9fff46e3","study_id":"60edd13110225f80f9f3709b","session_id":"6196c2e75567666ff6165521","condition":"full-information","relevant_dimensions":["antennae","legs"],"bee_group":{"antennae":"A","wings":"X","pattern":"X","legs":"F"},"bonus":0.06},{"view_history":[{"page_index":0,"viewing_time":14532.100000023842},{"page_index":1,"viewing_time":49378.69999998808},{"page_index":2,"viewing_time":66735.5},{"page_index":3,"viewing_time":23613.69999998808},{"page_index":4,"viewing_time":10704.600000023842},{"page_index":5,"viewing_time":14292.299999952316},{"page_index":6,"viewing_time":15536},{"page_index":7,"viewing_time":11143.100000023842},{"page_index":8,"viewing_time":6423.600000023842},{"page_index":9,"viewing_time":4372.899999976158},{"page_index":10,"viewing_time":3372.699999988079},{"page_index":11,"viewing_time":15410.900000035763},{"page_index":10,"viewing_time":1831.3999999761581},{"page_index":9,"viewing_time":665.8999999761581},{"page_index":8,"viewing_time":567},{"page_index":7,"viewing_time":649.7000000476837},{"page_index":6,"viewing_time":9299.699999988079},{"page_index":7,"viewing_time":1779},{"page_index":8,"viewing_time":601.8000000119209},{"page_index":9,"viewing_time":223.79999995231628},{"page_index":10,"viewing_time":699.4000000357628},{"page_index":11,"viewing_time":1639.5999999642372},{"page_index":12,"viewing_time":17818},{"page_index":13,"viewing_time":4022.900000035763},{"page_index":14,"viewing_time":5183.699999988079}],"rt":280498.5,"trial_type":"instructions","trial_index":3,"time_elapsed":290449,"internal_node_id":"0.0-3.0-0.0","subject_id":"60f9e5fdb753010b9fff46e3","study_id":"60edd13110225f80f9f3709b","session_id":"6196c2e75567666ff6165521","condition":"full-information","relevant_dimensions":["antennae","legs"],"bee_group":{"antennae":"A","wings":"X","pattern":"X","legs":"F"},"bonus":0.06},{"rt":45887,"response":{"Q0":["Two or six legs","Stripes or spots on body","Single or double wings","Antennae or no antennae"]},"question_order":[0],"trial_type":"survey-multi-select","trial_index":4,"time_elapsed":336342,"internal_node_id":"0.0-3.0-1.0","subject_id":"60f9e5fdb753010b9fff46e3","study_id":"60edd13110225f80f9f3709b","session_id":"6196c2e75567666ff6165521","condition":"full-information","relevant_dimensions":["antennae","legs"],"bee_group":{"antennae":"A","wings":"X","pattern":"X","legs":"F"},"correct":true,"bonus":0.06},{"rt":30269.899999976158,"response":{"Q1":"No.","Q2":"Based on the four features of the bee.","Q3":"You learn if it was friendly or dangerous, but do not alter your bonus."},"question_order":[0,1,2],"trial_type":"survey-multi-choice","trial_index":5,"time_elapsed":366621,"internal_node_id":"0.0-3.0-2.0","subject_id":"60f9e5fdb753010b9fff46e3","study_id":"60edd13110225f80f9f3709b","session_id":"6196c2e75567666ff6165521","condition":"full-information","relevant_dimensions":["antennae","legs"],"bee_group":{"antennae":"A","wings":"X","pattern":"X","legs":"F"},"correct":true,"bonus":0.06},{"rt":6098.699999988079,"stimulus":"<p>Congrats, you got everything right<br>When you're ready, click the button below to continue to the experiment.</p>","response":0,"trial_type":"html-button-response","trial_index":6,"time_elapsed":372725,"internal_node_id":"0.0-3.0-3.0","subject_id":"60f9e5fdb753010b9fff46e3","study_id":"60edd13110225f80f9f3709b","session_id":"6196c2e75567666ff6165521","condition":"full-information","relevant_dimensions":["antennae","legs"],"bee_group":{"antennae":"A","wings":"X","pattern":"X","legs":"F"},"bonus":0.06},{"rt":26790.200000047684,"stimulus":"bees-with-color/bee-B1SM.svg","response":0,"trial_type":"image-button-response","trial_index":7,"time_elapsed":399522,"internal_node_id":"0.0-4.0-0.0","subject_id":"60f9e5fdb753010b9fff46e3","study_id":"60edd13110225f80f9f3709b","session_id":"6196c2e75567666ff6165521","condition":"full-information","relevant_dimensions":["antennae","legs"],"bee_group":{"antennae":"A","wings":"X","pattern":"X","legs":"F"},"action":"harvest","summary":"good-harvest","bonus":0.06},{"rt":11032.5,"stimulus":"\n                    <p><b>Action: <em>harvest</em></b></p>\n                    <p>This is the bee that you just saw.</p>\n                    <img src=\"bees-with-color/bee-B1SM.svg\" width=\"200\">\n                    <p><span class=\"greenText\"><b>Successful harvest!</b></span><br>Your pay has increased by $0.02. Your bonus pay is now $0.56.</p>\n            ","response":0,"trial_type":"html-button-response","trial_index":8,"time_elapsed":410559,"internal_node_id":"0.0-4.0-1.0","subject_id":"60f9e5fdb753010b9fff46e3","study_id":"60edd13110225f80f9f3709b","session_id":"6196c2e75567666ff6165521","condition":"full-information","relevant_dimensions":["antennae","legs"],"bee_group":{"antennae":"A","wings":"X","pattern":"X","legs":"F"},"bonus":0.06},{"rt":72663.5,"stimulus":"bees-with-color/bee-A2SM.svg","response":1,"trial_type":"image-button-response","trial_index":9,"time_elapsed":483226,"internal_node_id":"0.0-4.0-0.1","subject_id":"60f9e5fdb753010b9fff46e3","study_id":"60edd13110225f80f9f3709b","session_id":"6196c2e75567666ff6165521","condition":"full-information","relevant_dimensions":["antennae","legs"],"bee_group":{"antennae":"A","wings":"X","pattern":"X","legs":"F"},"action":"avoid","summary":"bad-avoid","bonus":0.06},{"rt":18388.100000023842,"stimulus":"\n                    <p><b>Action: <em>avoid</em></b></p>\n                    <p>This is the bee that you just saw.</p>\n                    <img src=\"bees-with-color/bee-A2SM.svg\" width=\"200\">\n                    <p><span class=\"redText\">Bad choice,</span> the bee was friendly.<br>Your bonus pay is unchanged, and remains at $0.56.</p>\n            ","response":0,"trial_type":"html-button-response","trial_index":10,"time_elapsed":501617,"internal_node_id":"0.0-4.0-1.1","subject_id":"60f9e5fdb753010b9fff46e3","study_id":"60edd13110225f80f9f3709b","session_id":"6196c2e75567666ff6165521","condition":"full-information","relevant_dimensions":["antennae","legs"],"bee_group":{"antennae":"A","wings":"X","pattern":"X","legs":"F"},"bonus":0.06},{"rt":6143.900000035763,"stimulus":"bees-with-color/bee-A2SF.svg","response":1,"trial_type":"image-button-response","trial_index":11,"time_elapsed":507764,"internal_node_id":"0.0-4.0-0.2","subject_id":"60f9e5fdb753010b9fff46e3","study_id":"60edd13110225f80f9f3709b","session_id":"6196c2e75567666ff6165521","condition":"full-information","relevant_dimensions":["antennae","legs"],"bee_group":{"antennae":"A","wings":"X","pattern":"X","legs":"F"},"action":"avoid","summary":"good-avoid","bonus":0.06},{"rt":8970.700000047684,"stimulus":"\n                    <p><b>Action: <em>avoid</em></b></p>\n                    <p>This is the bee that you just saw.</p>\n                    <img src=\"bees-with-color/bee-A2SF.svg\" width=\"200\">\n                    <p><span class=\"greenText\">Good choice!</span>  This bee would have stung you.<br>Your bonus pay is unchanged, and remains at $0.56.</p>\n            ","response":0,"trial_type":"html-button-response","trial_index":12,"time_elapsed":516737,"internal_node_id":"0.0-4.0-1.2","subject_id":"60f9e5fdb753010b9fff46e3","study_id":"60edd13110225f80f9f3709b","session_id":"6196c2e75567666ff6165521","condition":"full-information","relevant_dimensions":["antennae","legs"],"bee_group":{"antennae":"A","wings":"X","pattern":"X","legs":"F"},"bonus":0.06},{"rt":10458.300000011921,"stimulus":"bees-with-color/bee-A1SM.svg","response":0,"trial_type":"image-button-response","trial_index":13,"time_elapsed":527198,"internal_node_id":"0.0-4.0-0.3","subject_id":"60f9e5fdb753010b9fff46e3","study_id":"60edd13110225f80f9f3709b","session_id":"6196c2e75567666ff6165521","condition":"full-information","relevant_dimensions":["antennae","legs"],"bee_group":{"antennae":"A","wings":"X","pattern":"X","legs":"F"},"action":"harvest","summary":"good-harvest","bonus":0.06},{"rt":4817.800000011921,"stimulus":"\n                    <p><b>Action: <em>harvest</em></b></p>\n                    <p>This is the bee that you just saw.</p>\n                    <img src=\"bees-with-color/bee-A1SM.svg\" width=\"200\">\n                    <p><span class=\"greenText\"><b>Successful harvest!</b></span><br>Your pay has increased by $0.02. Your bonus pay is now $0.58.</p>\n            ","response":0,"trial_type":"html-button-response","trial_index":14,"time_elapsed":532020,"internal_node_id":"0.0-4.0-1.3","subject_id":"60f9e5fdb753010b9fff46e3","study_id":"60edd13110225f80f9f3709b","session_id":"6196c2e75567666ff6165521","condition":"full-information","relevant_dimensions":["antennae","legs"],"bee_group":{"antennae":"A","wings":"X","pattern":"X","legs":"F"},"bonus":0.06},{"rt":20122.900000035763,"stimulus":"bees-with-color/bee-B2SM.svg","response":0,"trial_type":"image-button-response","trial_index":15,"time_elapsed":552146,"internal_node_id":"0.0-4.0-0.4","subject_id":"60f9e5fdb753010b9fff46e3","study_id":"60edd13110225f80f9f3709b","session_id":"6196c2e75567666ff6165521","condition":"full-information","relevant_dimensions":["antennae","legs"],"bee_group":{"antennae":"A","wings":"X","pattern":"X","legs":"F"},"action":"harvest","summary":"good-harvest","bonus":0.06},{"rt":3626.599999964237,"stimulus":"\n                    <p><b>Action: <em>harvest</em></b></p>\n                    <p>This is the bee that you just saw.</p>\n                    <img src=\"bees-with-color/bee-B2SM.svg\" width=\"200\">\n                    <p><span class=\"greenText\"><b>Successful harvest!</b></span><br>Your pay has increased by $0.02. Your bonus pay is now $0.60.</p>\n            ","response":0,"trial_type":"html-button-response","trial_index":16,"time_elapsed":555776,"internal_node_id":"0.0-4.0-1.4","subject_id":"60f9e5fdb753010b9fff46e3","study_id":"60edd13110225f80f9f3709b","session_id":"6196c2e75567666ff6165521","condition":"full-information","relevant_dimensions":["antennae","legs"],"bee_group":{"antennae":"A","wings":"X","pattern":"X","legs":"F"},"bonus":0.06},{"rt":4894.199999988079,"stimulus":"bees-with-color/bee-A2DF.svg","response":1,"trial_type":"image-button-response","trial_index":17,"time_elapsed":560673,"internal_node_id":"0.0-4.0-0.5","subject_id":"60f9e5fdb753010b9fff46e3","study_id":"60edd13110225f80f9f3709b","session_id":"6196c2e75567666ff6165521","condition":"full-information","relevant_dimensions":["antennae","legs"],"bee_group":{"antennae":"A","wings":"X","pattern":"X","legs":"F"},"action":"avoid","summary":"good-avoid","bonus":0.06},{"rt":3745.899999976158,"stimulus":"\n                    <p><b>Action: <em>avoid</em></b></p>\n                    <p>This is the bee that you just saw.</p>\n                    <img src=\"bees-with-color/bee-A2DF.svg\" width=\"200\">\n                    <p><span class=\"greenText\">Good choice!</span>  This bee would have stung you.<br>Your bonus pay is unchanged, and remains at $0.60.</p>\n            ","response":0,"trial_type":"html-button-response","trial_index":18,"time_elapsed":564422,"internal_node_id":"0.0-4.0-1.5","subject_id":"60f9e5fdb753010b9fff46e3","study_id":"60edd13110225f80f9f3709b","session_id":"6196c2e75567666ff6165521","condition":"full-information","relevant_dimensions":["antennae","legs"],"bee_group":{"antennae":"A","wings":"X","pattern":"X","legs":"F"},"bonus":0.06},{"rt":11900.099999964237,"stimulus":"bees-with-color/bee-A1DM.svg","response":0,"trial_type":"image-button-response","trial_index":19,"time_elapsed":576326,"internal_node_id":"0.0-4.0-0.6","subject_id":"60f9e5fdb753010b9fff46e3","study_id":"60edd13110225f80f9f3709b","session_id":"6196c2e75567666ff6165521","condition":"full-information","relevant_dimensions":["antennae","legs"],"bee_group":{"antennae":"A","wings":"X","pattern":"X","legs":"F"},"action":"harvest","summary":"good-harvest","bonus":0.06},{"rt":3986.300000011921,"stimulus":"\n                    <p><b>Action: <em>harvest</em></b></p>\n                    <p>This is the bee that you just saw.</p>\n                    <img src=\"bees-with-color/bee-A1DM.svg\" width=\"200\">\n                    <p><span class=\"greenText\"><b>Successful harvest!</b></span><br>Your pay has increased by $0.02. Your bonus pay is now $0.62.</p>\n            ","response":0,"trial_type":"html-button-response","trial_index":20,"time_elapsed":580315,"internal_node_id":"0.0-4.0-1.6","subject_id":"60f9e5fdb753010b9fff46e3","study_id":"60edd13110225f80f9f3709b","session_id":"6196c2e75567666ff6165521","condition":"full-information","relevant_dimensions":["antennae","legs"],"bee_group":{"antennae":"A","wings":"X","pattern":"X","legs":"F"},"bonus":0.06},{"rt":2879.599999964237,"stimulus":"bees-with-color/bee-B2SF.svg","response":1,"trial_type":"image-button-response","trial_index":21,"time_elapsed":583198,"internal_node_id":"0.0-4.0-0.7","subject_id":"60f9e5fdb753010b9fff46e3","study_id":"60edd13110225f80f9f3709b","session_id":"6196c2e75567666ff6165521","condition":"full-information","relevant_dimensions":["antennae","legs"],"bee_group":{"antennae":"A","wings":"X","pattern":"X","legs":"F"},"action":"avoid","summary":"bad-avoid","bonus":0.06},{"rt":15371.599999964237,"stimulus":"\n                    <p><b>Action: <em>avoid</em></b></p>\n                    <p>This is the bee that you just saw.</p>\n                    <img src=\"bees-with-color/bee-B2SF.svg\" width=\"200\">\n                    <p><span class=\"redText\">Bad choice,</span> the bee was friendly.<br>Your bonus pay is unchanged, and remains at $0.62.</p>\n            ","response":0,"trial_type":"html-button-response","trial_index":22,"time_elapsed":598573,"internal_node_id":"0.0-4.0-1.7","subject_id":"60f9e5fdb753010b9fff46e3","study_id":"60edd13110225f80f9f3709b","session_id":"6196c2e75567666ff6165521","condition":"full-information","relevant_dimensions":["antennae","legs"],"bee_group":{"antennae":"A","wings":"X","pattern":"X","legs":"F"},"bonus":0.06},{"rt":35463.19999998808,"stimulus":"bees-with-color/bee-A2DM.svg","response":1,"trial_type":"image-button-response","trial_index":23,"time_elapsed":634040,"internal_node_id":"0.0-4.0-0.8","subject_id":"60f9e5fdb753010b9fff46e3","study_id":"60edd13110225f80f9f3709b","session_id":"6196c2e75567666ff6165521","condition":"full-information","relevant_dimensions":["antennae","legs"],"bee_group":{"antennae":"A","wings":"X","pattern":"X","legs":"F"},"action":"avoid","summary":"bad-avoid","bonus":0.06},{"rt":2679.599999964237,"stimulus":"\n                    <p><b>Action: <em>avoid</em></b></p>\n                    <p>This is the bee that you just saw.</p>\n                    <img src=\"bees-with-color/bee-A2DM.svg\" width=\"200\">\n                    <p><span class=\"redText\">Bad choice,</span> the bee was friendly.<br>Your bonus pay is unchanged, and remains at $0.62.</p>\n            ","response":0,"trial_type":"html-button-response","trial_index":24,"time_elapsed":636722,"internal_node_id":"0.0-4.0-1.8","subject_id":"60f9e5fdb753010b9fff46e3","study_id":"60edd13110225f80f9f3709b","session_id":"6196c2e75567666ff6165521","condition":"full-information","relevant_dimensions":["antennae","legs"],"bee_group":{"antennae":"A","wings":"X","pattern":"X","legs":"F"},"bonus":0.06},{"rt":5186.900000035763,"stimulus":"bees-with-color/bee-B1DF.svg","response":1,"trial_type":"image-button-response","trial_index":25,"time_elapsed":641913,"internal_node_id":"0.0-4.0-0.9","subject_id":"60f9e5fdb753010b9fff46e3","study_id":"60edd13110225f80f9f3709b","session_id":"6196c2e75567666ff6165521","condition":"full-information","relevant_dimensions":["antennae","legs"],"bee_group":{"antennae":"A","wings":"X","pattern":"X","legs":"F"},"action":"avoid","summary":"bad-avoid","bonus":0.06},{"rt":4518.800000011921,"stimulus":"\n                    <p><b>Action: <em>avoid</em></b></p>\n                    <p>This is the bee that you just saw.</p>\n                    <img src=\"bees-with-color/bee-B1DF.svg\" width=\"200\">\n                    <p><span class=\"redText\">Bad choice,</span> the bee was friendly.<br>Your bonus pay is unchanged, and remains at $0.62.</p>\n            ","response":0,"trial_type":"html-button-response","trial_index":26,"time_elapsed":646435,"internal_node_id":"0.0-4.0-1.9","subject_id":"60f9e5fdb753010b9fff46e3","study_id":"60edd13110225f80f9f3709b","session_id":"6196c2e75567666ff6165521","condition":"full-information","relevant_dimensions":["antennae","legs"],"bee_group":{"antennae":"A","wings":"X","pattern":"X","legs":"F"},"bonus":0.06},{"rt":15072.300000011921,"stimulus":"bees-with-color/bee-B1SF.svg","response":1,"trial_type":"image-button-response","trial_index":27,"time_elapsed":661512,"internal_node_id":"0.0-4.0-0.10","subject_id":"60f9e5fdb753010b9fff46e3","study_id":"60edd13110225f80f9f3709b","session_id":"6196c2e75567666ff6165521","condition":"full-information","relevant_dimensions":["antennae","legs"],"bee_group":{"antennae":"A","wings":"X","pattern":"X","legs":"F"},"action":"avoid","summary":"bad-avoid","bonus":0.06},{"rt":3177.100000023842,"stimulus":"\n                    <p><b>Action: <em>avoid</em></b></p>\n                    <p>This is the bee that you just saw.</p>\n                    <img src=\"bees-with-color/bee-B1SF.svg\" width=\"200\">\n                    <p><span class=\"redText\">Bad choice,</span> the bee was friendly.<br>Your bonus pay is unchanged, and remains at $0.62.</p>\n            ","response":0,"trial_type":"html-button-response","trial_index":28,"time_elapsed":664691,"internal_node_id":"0.0-4.0-1.10","subject_id":"60f9e5fdb753010b9fff46e3","study_id":"60edd13110225f80f9f3709b","session_id":"6196c2e75567666ff6165521","condition":"full-information","relevant_dimensions":["antennae","legs"],"bee_group":{"antennae":"A","wings":"X","pattern":"X","legs":"F"},"bonus":0.06},{"rt":10986.400000035763,"stimulus":"bees-with-color/bee-B1DM.svg","response":1,"trial_type":"image-button-response","trial_index":29,"time_elapsed":675680,"internal_node_id":"0.0-4.0-0.11","subject_id":"60f9e5fdb753010b9fff46e3","study_id":"60edd13110225f80f9f3709b","session_id":"6196c2e75567666ff6165521","condition":"full-information","relevant_dimensions":["antennae","legs"],"bee_group":{"antennae":"A","wings":"X","pattern":"X","legs":"F"},"action":"avoid","summary":"bad-avoid","bonus":0.06},{"rt":1966.699999988079,"stimulus":"\n                    <p><b>Action: <em>avoid</em></b></p>\n                    <p>This is the bee that you just saw.</p>\n                    <img src=\"bees-with-color/bee-B1DM.svg\" width=\"200\">\n                    <p><span class=\"redText\">Bad choice,</span> the bee was friendly.<br>Your bonus pay is unchanged, and remains at $0.62.</p>\n            ","response":0,"trial_type":"html-button-response","trial_index":30,"time_elapsed":677649,"internal_node_id":"0.0-4.0-1.11","subject_id":"60f9e5fdb753010b9fff46e3","study_id":"60edd13110225f80f9f3709b","session_id":"6196c2e75567666ff6165521","condition":"full-information","relevant_dimensions":["antennae","legs"],"bee_group":{"antennae":"A","wings":"X","pattern":"X","legs":"F"},"bonus":0.06},{"rt":4447.899999976158,"stimulus":"bees-with-color/bee-B2DF.svg","response":1,"trial_type":"image-button-response","trial_index":31,"time_elapsed":682100,"internal_node_id":"0.0-4.0-0.12","subject_id":"60f9e5fdb753010b9fff46e3","study_id":"60edd13110225f80f9f3709b","session_id":"6196c2e75567666ff6165521","condition":"full-information","relevant_dimensions":["antennae","legs"],"bee_group":{"antennae":"A","wings":"X","pattern":"X","legs":"F"},"action":"avoid","summary":"bad-avoid","bonus":0.06},{"rt":1431.4000000357628,"stimulus":"\n                    <p><b>Action: <em>avoid</em></b></p>\n                    <p>This is the bee that you just saw.</p>\n                    <img src=\"bees-with-color/bee-B2DF.svg\" width=\"200\">\n                    <p><span class=\"redText\">Bad choice,</span> the bee was friendly.<br>Your bonus pay is unchanged, and remains at $0.62.</p>\n            ","response":0,"trial_type":"html-button-response","trial_index":32,"time_elapsed":683533,"internal_node_id":"0.0-4.0-1.12","subject_id":"60f9e5fdb753010b9fff46e3","study_id":"60edd13110225f80f9f3709b","session_id":"6196c2e75567666ff6165521","condition":"full-information","relevant_dimensions":["antennae","legs"],"bee_group":{"antennae":"A","wings":"X","pattern":"X","legs":"F"},"bonus":0.06},{"rt":16581.599999964237,"stimulus":"bees-with-color/bee-A1SF.svg","response":0,"trial_type":"image-button-response","trial_index":33,"time_elapsed":700118,"internal_node_id":"0.0-4.0-0.13","subject_id":"60f9e5fdb753010b9fff46e3","study_id":"60edd13110225f80f9f3709b","session_id":"6196c2e75567666ff6165521","condition":"full-information","relevant_dimensions":["antennae","legs"],"bee_group":{"antennae":"A","wings":"X","pattern":"X","legs":"F"},"action":"harvest","summary":"bad-harvest","bonus":0.06},{"rt":6951.199999988079,"stimulus":"\n                    <p><b>Action: <em>harvest</em></b></p>\n                    <p>This is the bee that you just saw.</p>\n                    <img src=\"bees-with-color/bee-A1SF.svg\" width=\"200\">\n                    <p><span class=\"redText\">Bad choice, the bee was angry.</span><br><b>You have been stung!</b><br>Your pay has been decreased by $0.10. Your bonus pay is now $0.52.</p>\n            ","response":0,"trial_type":"html-button-response","trial_index":34,"time_elapsed":707072,"internal_node_id":"0.0-4.0-1.13","subject_id":"60f9e5fdb753010b9fff46e3","study_id":"60edd13110225f80f9f3709b","session_id":"6196c2e75567666ff6165521","condition":"full-information","relevant_dimensions":["antennae","legs"],"bee_group":{"antennae":"A","wings":"X","pattern":"X","legs":"F"},"bonus":0.06},{"rt":15685.299999952316,"stimulus":"bees-with-color/bee-B2DM.svg","response":1,"trial_type":"image-button-response","trial_index":35,"time_elapsed":722760,"internal_node_id":"0.0-4.0-0.14","subject_id":"60f9e5fdb753010b9fff46e3","study_id":"60edd13110225f80f9f3709b","session_id":"6196c2e75567666ff6165521","condition":"full-information","relevant_dimensions":["antennae","legs"],"bee_group":{"antennae":"A","wings":"X","pattern":"X","legs":"F"},"action":"avoid","summary":"bad-avoid","bonus":0.06},{"rt":1386.8999999761581,"stimulus":"\n                    <p><b>Action: <em>avoid</em></b></p>\n                    <p>This is the bee that you just saw.</p>\n                    <img src=\"bees-with-color/bee-B2DM.svg\" width=\"200\">\n                    <p><span class=\"redText\">Bad choice,</span> the bee was friendly.<br>Your bonus pay is unchanged, and remains at $0.52.</p>\n            ","response":0,"trial_type":"html-button-response","trial_index":36,"time_elapsed":724149,"internal_node_id":"0.0-4.0-1.14","subject_id":"60f9e5fdb753010b9fff46e3","study_id":"60edd13110225f80f9f3709b","session_id":"6196c2e75567666ff6165521","condition":"full-information","relevant_dimensions":["antennae","legs"],"bee_group":{"antennae":"A","wings":"X","pattern":"X","legs":"F"},"bonus":0.06},{"rt":2809.7999999523163,"stimulus":"bees-with-color/bee-A1DF.svg","response":0,"trial_type":"image-button-response","trial_index":37,"time_elapsed":726963,"internal_node_id":"0.0-4.0-0.15","subject_id":"60f9e5fdb753010b9fff46e3","study_id":"60edd13110225f80f9f3709b","session_id":"6196c2e75567666ff6165521","condition":"full-information","relevant_dimensions":["antennae","legs"],"bee_group":{"antennae":"A","wings":"X","pattern":"X","legs":"F"},"action":"harvest","summary":"bad-harvest","bonus":0.06},{"rt":2214,"stimulus":"\n                    <p><b>Action: <em>harvest</em></b></p>\n                    <p>This is the bee that you just saw.</p>\n                    <img src=\"bees-with-color/bee-A1DF.svg\" width=\"200\">\n                    <p><span class=\"redText\">Bad choice, the bee was angry.</span><br><b>You have been stung!</b><br>Your pay has been decreased by $0.10. Your bonus pay is now $0.42.</p>\n            ","response":0,"trial_type":"html-button-response","trial_index":38,"time_elapsed":729180,"internal_node_id":"0.0-4.0-1.15","subject_id":"60f9e5fdb753010b9fff46e3","study_id":"60edd13110225f80f9f3709b","session_id":"6196c2e75567666ff6165521","condition":"full-information","relevant_dimensions":["antennae","legs"],"bee_group":{"antennae":"A","wings":"X","pattern":"X","legs":"F"},"bonus":0.06},{"rt":1280.6000000238419,"stimulus":"bees-with-color/bee-B1DF.svg","response":0,"trial_type":"image-button-response","trial_index":39,"time_elapsed":730463,"internal_node_id":"0.0-4.0-0.16","subject_id":"60f9e5fdb753010b9fff46e3","study_id":"60edd13110225f80f9f3709b","session_id":"6196c2e75567666ff6165521","condition":"full-information","relevant_dimensions":["antennae","legs"],"bee_group":{"antennae":"A","wings":"X","pattern":"X","legs":"F"},"action":"harvest","summary":"good-harvest","bonus":0.06},{"rt":1364.5999999642372,"stimulus":"\n                    <p><b>Action: <em>harvest</em></b></p>\n                    <p>This is the bee that you just saw.</p>\n                    <img src=\"bees-with-color/bee-B1DF.svg\" width=\"200\">\n                    <p><span class=\"greenText\"><b>Successful harvest!</b></span><br>Your pay has increased by $0.02. Your bonus pay is now $0.44.</p>\n            ","response":0,"trial_type":"html-button-response","trial_index":40,"time_elapsed":731830,"internal_node_id":"0.0-4.0-1.16","subject_id":"60f9e5fdb753010b9fff46e3","study_id":"60edd13110225f80f9f3709b","session_id":"6196c2e75567666ff6165521","condition":"full-information","relevant_dimensions":["antennae","legs"],"bee_group":{"antennae":"A","wings":"X","pattern":"X","legs":"F"},"bonus":0.06},{"rt":1549.300000011921,"stimulus":"bees-with-color/bee-A1SF.svg","response":0,"trial_type":"image-button-response","trial_index":41,"time_elapsed":733382,"internal_node_id":"0.0-4.0-0.17","subject_id":"60f9e5fdb753010b9fff46e3","study_id":"60edd13110225f80f9f3709b","session_id":"6196c2e75567666ff6165521","condition":"full-information","relevant_dimensions":["antennae","legs"],"bee_group":{"antennae":"A","wings":"X","pattern":"X","legs":"F"},"action":"harvest","summary":"bad-harvest","bonus":0.06},{"rt":1143.5999999642372,"stimulus":"\n                    <p><b>Action: <em>harvest</em></b></p>\n                    <p>This is the bee that you just saw.</p>\n                    <img src=\"bees-with-color/bee-A1SF.svg\" width=\"200\">\n                    <p><span class=\"redText\">Bad choice, the bee was angry.</span><br><b>You have been stung!</b><br>Your pay has been decreased by $0.10. Your bonus pay is now $0.34.</p>\n            ","response":0,"trial_type":"html-button-response","trial_index":42,"time_elapsed":734528,"internal_node_id":"0.0-4.0-1.17","subject_id":"60f9e5fdb753010b9fff46e3","study_id":"60edd13110225f80f9f3709b","session_id":"6196c2e75567666ff6165521","condition":"full-information","relevant_dimensions":["antennae","legs"],"bee_group":{"antennae":"A","wings":"X","pattern":"X","legs":"F"},"bonus":0.06},{"rt":1379.7000000476837,"stimulus":"bees-with-color/bee-A2DM.svg","response":0,"trial_type":"image-button-response","trial_index":43,"time_elapsed":735911,"internal_node_id":"0.0-4.0-0.18","subject_id":"60f9e5fdb753010b9fff46e3","study_id":"60edd13110225f80f9f3709b","session_id":"6196c2e75567666ff6165521","condition":"full-information","relevant_dimensions":["antennae","legs"],"bee_group":{"antennae":"A","wings":"X","pattern":"X","legs":"F"},"action":"harvest","summary":"good-harvest","bonus":0.06},{"rt":1096.5999999642372,"stimulus":"\n                    <p><b>Action: <em>harvest</em></b></p>\n                    <p>This is the bee that you just saw.</p>\n                    <img src=\"bees-with-color/bee-A2DM.svg\" width=\"200\">\n                    <p><span class=\"greenText\"><b>Successful harvest!</b></span><br>Your pay has increased by $0.02. Your bonus pay is now $0.36.</p>\n            ","response":0,"trial_type":"html-button-response","trial_index":44,"time_elapsed":737010,"internal_node_id":"0.0-4.0-1.18","subject_id":"60f9e5fdb753010b9fff46e3","study_id":"60edd13110225f80f9f3709b","session_id":"6196c2e75567666ff6165521","condition":"full-information","relevant_dimensions":["antennae","legs"],"bee_group":{"antennae":"A","wings":"X","pattern":"X","legs":"F"},"bonus":0.06},{"rt":9077.5,"stimulus":"bees-with-color/bee-A2SM.svg","response":0,"trial_type":"image-button-response","trial_index":45,"time_elapsed":746090,"internal_node_id":"0.0-4.0-0.19","subject_id":"60f9e5fdb753010b9fff46e3","study_id":"60edd13110225f80f9f3709b","session_id":"6196c2e75567666ff6165521","condition":"full-information","relevant_dimensions":["antennae","legs"],"bee_group":{"antennae":"A","wings":"X","pattern":"X","legs":"F"},"action":"harvest","summary":"good-harvest","bonus":0.06},{"rt":1629.3999999761581,"stimulus":"\n                    <p><b>Action: <em>harvest</em></b></p>\n                    <p>This is the bee that you just saw.</p>\n                    <img src=\"bees-with-color/bee-A2SM.svg\" width=\"200\">\n                    <p><span class=\"greenText\"><b>Successful harvest!</b></span><br>Your pay has increased by $0.02. Your bonus pay is now $0.38.</p>\n            ","response":0,"trial_type":"html-button-response","trial_index":46,"time_elapsed":747722,"internal_node_id":"0.0-4.0-1.19","subject_id":"60f9e5fdb753010b9fff46e3","study_id":"60edd13110225f80f9f3709b","session_id":"6196c2e75567666ff6165521","condition":"full-information","relevant_dimensions":["antennae","legs"],"bee_group":{"antennae":"A","wings":"X","pattern":"X","legs":"F"},"bonus":0.06},{"rt":10092.5,"stimulus":"bees-with-color/bee-B2DF.svg","response":1,"trial_type":"image-button-response","trial_index":47,"time_elapsed":757817,"internal_node_id":"0.0-4.0-0.20","subject_id":"60f9e5fdb753010b9fff46e3","study_id":"60edd13110225f80f9f3709b","session_id":"6196c2e75567666ff6165521","condition":"full-information","relevant_dimensions":["antennae","legs"],"bee_group":{"antennae":"A","wings":"X","pattern":"X","legs":"F"},"action":"avoid","summary":"bad-avoid","bonus":0.06},{"rt":1939.800000011921,"stimulus":"\n                    <p><b>Action: <em>avoid</em></b></p>\n                    <p>This is the bee that you just saw.</p>\n                    <img src=\"bees-with-color/bee-B2DF.svg\" width=\"200\">\n                    <p><span class=\"redText\">Bad choice,</span> the bee was friendly.<br>Your bonus pay is unchanged, and remains at $0.38.</p>\n            ","response":0,"trial_type":"html-button-response","trial_index":48,"time_elapsed":759760,"internal_node_id":"0.0-4.0-1.20","subject_id":"60f9e5fdb753010b9fff46e3","study_id":"60edd13110225f80f9f3709b","session_id":"6196c2e75567666ff6165521","condition":"full-information","relevant_dimensions":["antennae","legs"],"bee_group":{"antennae":"A","wings":"X","pattern":"X","legs":"F"},"bonus":0.06},{"rt":1569.699999988079,"stimulus":"bees-with-color/bee-A2DF.svg","response":0,"trial_type":"image-button-response","trial_index":49,"time_elapsed":761333,"internal_node_id":"0.0-4.0-0.21","subject_id":"60f9e5fdb753010b9fff46e3","study_id":"60edd13110225f80f9f3709b","session_id":"6196c2e75567666ff6165521","condition":"full-information","relevant_dimensions":["antennae","legs"],"bee_group":{"antennae":"A","wings":"X","pattern":"X","legs":"F"},"action":"harvest","summary":"bad-harvest","bonus":0.06},{"rt":1429.2999999523163,"stimulus":"\n                    <p><b>Action: <em>harvest</em></b></p>\n                    <p>This is the bee that you just saw.</p>\n                    <img src=\"bees-with-color/bee-A2DF.svg\" width=\"200\">\n                    <p><span class=\"redText\">Bad choice, the bee was angry.</span><br><b>You have been stung!</b><br>Your pay has been decreased by $0.10. Your bonus pay is now $0.28.</p>\n            ","response":0,"trial_type":"html-button-response","trial_index":50,"time_elapsed":762765,"internal_node_id":"0.0-4.0-1.21","subject_id":"60f9e5fdb753010b9fff46e3","study_id":"60edd13110225f80f9f3709b","session_id":"6196c2e75567666ff6165521","condition":"full-information","relevant_dimensions":["antennae","legs"],"bee_group":{"antennae":"A","wings":"X","pattern":"X","legs":"F"},"bonus":0.06},{"rt":1697.699999988079,"stimulus":"bees-with-color/bee-A1SM.svg","response":0,"trial_type":"image-button-response","trial_index":51,"time_elapsed":764465,"internal_node_id":"0.0-4.0-0.22","subject_id":"60f9e5fdb753010b9fff46e3","study_id":"60edd13110225f80f9f3709b","session_id":"6196c2e75567666ff6165521","condition":"full-information","relevant_dimensions":["antennae","legs"],"bee_group":{"antennae":"A","wings":"X","pattern":"X","legs":"F"},"action":"harvest","summary":"good-harvest","bonus":0.06},{"rt":1113.1000000238419,"stimulus":"\n                    <p><b>Action: <em>harvest</em></b></p>\n                    <p>This is the bee that you just saw.</p>\n                    <img src=\"bees-with-color/bee-A1SM.svg\" width=\"200\">\n                    <p><span class=\"greenText\"><b>Successful harvest!</b></span><br>Your pay has increased by $0.02. Your bonus pay is now $0.30.</p>\n            ","response":0,"trial_type":"html-button-response","trial_index":52,"time_elapsed":765581,"internal_node_id":"0.0-4.0-1.22","subject_id":"60f9e5fdb753010b9fff46e3","study_id":"60edd13110225f80f9f3709b","session_id":"6196c2e75567666ff6165521","condition":"full-information","relevant_dimensions":["antennae","legs"],"bee_group":{"antennae":"A","wings":"X","pattern":"X","legs":"F"},"bonus":0.06},{"rt":2107.199999988079,"stimulus":"bees-with-color/bee-B2SF.svg","response":0,"trial_type":"image-button-response","trial_index":53,"time_elapsed":767691,"internal_node_id":"0.0-4.0-0.23","subject_id":"60f9e5fdb753010b9fff46e3","study_id":"60edd13110225f80f9f3709b","session_id":"6196c2e75567666ff6165521","condition":"full-information","relevant_dimensions":["antennae","legs"],"bee_group":{"antennae":"A","wings":"X","pattern":"X","legs":"F"},"action":"harvest","summary":"good-harvest","bonus":0.06},{"rt":1252.9000000357628,"stimulus":"\n                    <p><b>Action: <em>harvest</em></b></p>\n                    <p>This is the bee that you just saw.</p>\n                    <img src=\"bees-with-color/bee-B2SF.svg\" width=\"200\">\n                    <p><span class=\"greenText\"><b>Successful harvest!</b></span><br>Your pay has increased by $0.02. Your bonus pay is now $0.32.</p>\n            ","response":0,"trial_type":"html-button-response","trial_index":54,"time_elapsed":768947,"internal_node_id":"0.0-4.0-1.23","subject_id":"60f9e5fdb753010b9fff46e3","study_id":"60edd13110225f80f9f3709b","session_id":"6196c2e75567666ff6165521","condition":"full-information","relevant_dimensions":["antennae","legs"],"bee_group":{"antennae":"A","wings":"X","pattern":"X","legs":"F"},"bonus":0.06},{"rt":6135.600000023842,"stimulus":"bees-with-color/bee-A2SF.svg","response":0,"trial_type":"image-button-response","trial_index":55,"time_elapsed":775086,"internal_node_id":"0.0-4.0-0.24","subject_id":"60f9e5fdb753010b9fff46e3","study_id":"60edd13110225f80f9f3709b","session_id":"6196c2e75567666ff6165521","condition":"full-information","relevant_dimensions":["antennae","legs"],"bee_group":{"antennae":"A","wings":"X","pattern":"X","legs":"F"},"action":"harvest","summary":"bad-harvest","bonus":0.06},{"rt":1270.5,"stimulus":"\n                    <p><b>Action: <em>harvest</em></b></p>\n                    <p>This is the bee that you just saw.</p>\n                    <img src=\"bees-with-color/bee-A2SF.svg\" width=\"200\">\n                    <p><span class=\"redText\">Bad choice, the bee was angry.</span><br><b>You have been stung!</b><br>Your pay has been decreased by $0.10. Your bonus pay is now $0.22.</p>\n            ","response":0,"trial_type":"html-button-response","trial_index":56,"time_elapsed":776360,"internal_node_id":"0.0-4.0-1.24","subject_id":"60f9e5fdb753010b9fff46e3","study_id":"60edd13110225f80f9f3709b","session_id":"6196c2e75567666ff6165521","condition":"full-information","relevant_dimensions":["antennae","legs"],"bee_group":{"antennae":"A","wings":"X","pattern":"X","legs":"F"},"bonus":0.06},{"rt":1162.300000011921,"stimulus":"bees-with-color/bee-A1DF.svg","response":0,"trial_type":"image-button-response","trial_index":57,"time_elapsed":777525,"internal_node_id":"0.0-4.0-0.25","subject_id":"60f9e5fdb753010b9fff46e3","study_id":"60edd13110225f80f9f3709b","session_id":"6196c2e75567666ff6165521","condition":"full-information","relevant_dimensions":["antennae","legs"],"bee_group":{"antennae":"A","wings":"X","pattern":"X","legs":"F"},"action":"harvest","summary":"bad-harvest","bonus":0.06},{"rt":1263.199999988079,"stimulus":"\n                    <p><b>Action: <em>harvest</em></b></p>\n                    <p>This is the bee that you just saw.</p>\n                    <img src=\"bees-with-color/bee-A1DF.svg\" width=\"200\">\n                    <p><span class=\"redText\">Bad choice, the bee was angry.</span><br><b>You have been stung!</b><br>Your pay has been decreased by $0.10. Your bonus pay is now $0.12.</p>\n            ","response":0,"trial_type":"html-button-response","trial_index":58,"time_elapsed":778791,"internal_node_id":"0.0-4.0-1.25","subject_id":"60f9e5fdb753010b9fff46e3","study_id":"60edd13110225f80f9f3709b","session_id":"6196c2e75567666ff6165521","condition":"full-information","relevant_dimensions":["antennae","legs"],"bee_group":{"antennae":"A","wings":"X","pattern":"X","legs":"F"},"bonus":0.06},{"rt":1080,"stimulus":"bees-with-color/bee-B2DM.svg","response":0,"trial_type":"image-button-response","trial_index":59,"time_elapsed":779874,"internal_node_id":"0.0-4.0-0.26","subject_id":"60f9e5fdb753010b9fff46e3","study_id":"60edd13110225f80f9f3709b","session_id":"6196c2e75567666ff6165521","condition":"full-information","relevant_dimensions":["antennae","legs"],"bee_group":{"antennae":"A","wings":"X","pattern":"X","legs":"F"},"action":"harvest","summary":"good-harvest","bonus":0.06},{"rt":1817.3999999761581,"stimulus":"\n                    <p><b>Action: <em>harvest</em></b></p>\n                    <p>This is the bee that you just saw.</p>\n                    <img src=\"bees-with-color/bee-B2DM.svg\" width=\"200\">\n                    <p><span class=\"greenText\"><b>Successful harvest!</b></span><br>Your pay has increased by $0.02. Your bonus pay is now $0.14.</p>\n            ","response":0,"trial_type":"html-button-response","trial_index":60,"time_elapsed":781694,"internal_node_id":"0.0-4.0-1.26","subject_id":"60f9e5fdb753010b9fff46e3","study_id":"60edd13110225f80f9f3709b","session_id":"6196c2e75567666ff6165521","condition":"full-information","relevant_dimensions":["antennae","legs"],"bee_group":{"antennae":"A","wings":"X","pattern":"X","legs":"F"},"bonus":0.06},{"rt":3074.7000000476837,"stimulus":"bees-with-color/bee-A1DM.svg","response":0,"trial_type":"image-button-response","trial_index":61,"time_elapsed":784771,"internal_node_id":"0.0-4.0-0.27","subject_id":"60f9e5fdb753010b9fff46e3","study_id":"60edd13110225f80f9f3709b","session_id":"6196c2e75567666ff6165521","condition":"full-information","relevant_dimensions":["antennae","legs"],"bee_group":{"antennae":"A","wings":"X","pattern":"X","legs":"F"},"action":"harvest","summary":"good-harvest","bonus":0.06},{"rt":1181,"stimulus":"\n                    <p><b>Action: <em>harvest</em></b></p>\n                    <p>This is the bee that you just saw.</p>\n                    <img src=\"bees-with-color/bee-A1DM.svg\" width=\"200\">\n                    <p><span class=\"greenText\"><b>Successful harvest!</b></span><br>Your pay has increased by $0.02. Your bonus pay is now $0.16.</p>\n            ","response":0,"trial_type":"html-button-response","trial_index":62,"time_elapsed":785955,"internal_node_id":"0.0-4.0-1.27","subject_id":"60f9e5fdb753010b9fff46e3","study_id":"60edd13110225f80f9f3709b","session_id":"6196c2e75567666ff6165521","condition":"full-information","relevant_dimensions":["antennae","legs"],"bee_group":{"antennae":"A","wings":"X","pattern":"X","legs":"F"},"bonus":0.06},{"rt":2227.2999999523163,"stimulus":"bees-with-color/bee-B1SM.svg","response":1,"trial_type":"image-button-response","trial_index":63,"time_elapsed":788186,"internal_node_id":"0.0-4.0-0.28","subject_id":"60f9e5fdb753010b9fff46e3","study_id":"60edd13110225f80f9f3709b","session_id":"6196c2e75567666ff6165521","condition":"full-information","relevant_dimensions":["antennae","legs"],"bee_group":{"antennae":"A","wings":"X","pattern":"X","legs":"F"},"action":"avoid","summary":"bad-avoid","bonus":0.06},{"rt":1841.699999988079,"stimulus":"\n                    <p><b>Action: <em>avoid</em></b></p>\n                    <p>This is the bee that you just saw.</p>\n                    <img src=\"bees-with-color/bee-B1SM.svg\" width=\"200\">\n                    <p><span class=\"redText\">Bad choice,</span> the bee was friendly.<br>Your bonus pay is unchanged, and remains at $0.16.</p>\n            ","response":0,"trial_type":"html-button-response","trial_index":64,"time_elapsed":790030,"internal_node_id":"0.0-4.0-1.28","subject_id":"60f9e5fdb753010b9fff46e3","study_id":"60edd13110225f80f9f3709b","session_id":"6196c2e75567666ff6165521","condition":"full-information","relevant_dimensions":["antennae","legs"],"bee_group":{"antennae":"A","wings":"X","pattern":"X","legs":"F"},"bonus":0.06},{"rt":2233.199999988079,"stimulus":"bees-with-color/bee-B1DM.svg","response":1,"trial_type":"image-button-response","trial_index":65,"time_elapsed":792268,"internal_node_id":"0.0-4.0-0.29","subject_id":"60f9e5fdb753010b9fff46e3","study_id":"60edd13110225f80f9f3709b","session_id":"6196c2e75567666ff6165521","condition":"full-information","relevant_dimensions":["antennae","legs"],"bee_group":{"antennae":"A","wings":"X","pattern":"X","legs":"F"},"action":"avoid","summary":"bad-avoid","bonus":0.06},{"rt":1630.5999999642372,"stimulus":"\n                    <p><b>Action: <em>avoid</em></b></p>\n                    <p>This is the bee that you just saw.</p>\n                    <img src=\"bees-with-color/bee-B1DM.svg\" width=\"200\">\n                    <p><span class=\"redText\">Bad choice,</span> the bee was friendly.<br>Your bonus pay is unchanged, and remains at $0.16.</p>\n            ","response":0,"trial_type":"html-button-response","trial_index":66,"time_elapsed":793902,"internal_node_id":"0.0-4.0-1.29","subject_id":"60f9e5fdb753010b9fff46e3","study_id":"60edd13110225f80f9f3709b","session_id":"6196c2e75567666ff6165521","condition":"full-information","relevant_dimensions":["antennae","legs"],"bee_group":{"antennae":"A","wings":"X","pattern":"X","legs":"F"},"bonus":0.06},{"rt":1719.9000000357628,"stimulus":"bees-with-color/bee-B1SF.svg","response":1,"trial_type":"image-button-response","trial_index":67,"time_elapsed":795625,"internal_node_id":"0.0-4.0-0.30","subject_id":"60f9e5fdb753010b9fff46e3","study_id":"60edd13110225f80f9f3709b","session_id":"6196c2e75567666ff6165521","condition":"full-information","relevant_dimensions":["antennae","legs"],"bee_group":{"antennae":"A","wings":"X","pattern":"X","legs":"F"},"action":"avoid","summary":"bad-avoid","bonus":0.06},{"rt":1404.800000011921,"stimulus":"\n                    <p><b>Action: <em>avoid</em></b></p>\n                    <p>This is the bee that you just saw.</p>\n                    <img src=\"bees-with-color/bee-B1SF.svg\" width=\"200\">\n                    <p><span class=\"redText\">Bad choice,</span> the bee was friendly.<br>Your bonus pay is unchanged, and remains at $0.16.</p>\n            ","response":0,"trial_type":"html-button-response","trial_index":68,"time_elapsed":797033,"internal_node_id":"0.0-4.0-1.30","subject_id":"60f9e5fdb753010b9fff46e3","study_id":"60edd13110225f80f9f3709b","session_id":"6196c2e75567666ff6165521","condition":"full-information","relevant_dimensions":["antennae","legs"],"bee_group":{"antennae":"A","wings":"X","pattern":"X","legs":"F"},"bonus":0.06},{"rt":5252.699999988079,"stimulus":"bees-with-color/bee-B2SM.svg","response":1,"trial_type":"image-button-response","trial_index":69,"time_elapsed":802288,"internal_node_id":"0.0-4.0-0.31","subject_id":"60f9e5fdb753010b9fff46e3","study_id":"60edd13110225f80f9f3709b","session_id":"6196c2e75567666ff6165521","condition":"full-information","relevant_dimensions":["antennae","legs"],"bee_group":{"antennae":"A","wings":"X","pattern":"X","legs":"F"},"action":"avoid","summary":"bad-avoid","bonus":0.06},{"rt":1406.1000000238419,"stimulus":"\n                    <p><b>Action: <em>avoid</em></b></p>\n                    <p>This is the bee that you just saw.</p>\n                    <img src=\"bees-with-color/bee-B2SM.svg\" width=\"200\">\n                    <p><span class=\"redText\">Bad choice,</span> the bee was friendly.<br>Your bonus pay is unchanged, and remains at $0.16.</p>\n            ","response":0,"trial_type":"html-button-response","trial_index":70,"time_elapsed":803697,"internal_node_id":"0.0-4.0-1.31","subject_id":"60f9e5fdb753010b9fff46e3","study_id":"60edd13110225f80f9f3709b","session_id":"6196c2e75567666ff6165521","condition":"full-information","relevant_dimensions":["antennae","legs"],"bee_group":{"antennae":"A","wings":"X","pattern":"X","legs":"F"},"bonus":0.06},{"rt":2145.899999976158,"stimulus":"bees-with-color/bee-A2DM.svg","response":1,"trial_type":"image-button-response","trial_index":71,"time_elapsed":805845,"internal_node_id":"0.0-4.0-0.32","subject_id":"60f9e5fdb753010b9fff46e3","study_id":"60edd13110225f80f9f3709b","session_id":"6196c2e75567666ff6165521","condition":"full-information","relevant_dimensions":["antennae","legs"],"bee_group":{"antennae":"A","wings":"X","pattern":"X","legs":"F"},"action":"avoid","summary":"bad-avoid","bonus":0.06},{"rt":1313.699999988079,"stimulus":"\n                    <p><b>Action: <em>avoid</em></b></p>\n                    <p>This is the bee that you just saw.</p>\n                    <img src=\"bees-with-color/bee-A2DM.svg\" width=\"200\">\n                    <p><span class=\"redText\">Bad choice,</span> the bee was friendly.<br>Your bonus pay is unchanged, and remains at $0.16.</p>\n            ","response":0,"trial_type":"html-button-response","trial_index":72,"time_elapsed":807162,"internal_node_id":"0.0-4.0-1.32","subject_id":"60f9e5fdb753010b9fff46e3","study_id":"60edd13110225f80f9f3709b","session_id":"6196c2e75567666ff6165521","condition":"full-information","relevant_dimensions":["antennae","legs"],"bee_group":{"antennae":"A","wings":"X","pattern":"X","legs":"F"},"bonus":0.06},{"rt":1411.6000000238419,"stimulus":"bees-with-color/bee-A2SF.svg","response":1,"trial_type":"image-button-response","trial_index":73,"time_elapsed":808577,"internal_node_id":"0.0-4.0-0.33","subject_id":"60f9e5fdb753010b9fff46e3","study_id":"60edd13110225f80f9f3709b","session_id":"6196c2e75567666ff6165521","condition":"full-information","relevant_dimensions":["antennae","legs"],"bee_group":{"antennae":"A","wings":"X","pattern":"X","legs":"F"},"action":"avoid","summary":"good-avoid","bonus":0.06},{"rt":1314.3999999761581,"stimulus":"\n                    <p><b>Action: <em>avoid</em></b></p>\n                    <p>This is the bee that you just saw.</p>\n                    <img src=\"bees-with-color/bee-A2SF.svg\" width=\"200\">\n                    <p><span class=\"greenText\">Good choice!</span>  This bee would have stung you.<br>Your bonus pay is unchanged, and remains at $0.16.</p>\n            ","response":0,"trial_type":"html-button-response","trial_index":74,"time_elapsed":809893,"internal_node_id":"0.0-4.0-1.33","subject_id":"60f9e5fdb753010b9fff46e3","study_id":"60edd13110225f80f9f3709b","session_id":"6196c2e75567666ff6165521","condition":"full-information","relevant_dimensions":["antennae","legs"],"bee_group":{"antennae":"A","wings":"X","pattern":"X","legs":"F"},"bonus":0.06},{"rt":2468.5,"stimulus":"bees-with-color/bee-A2DF.svg","response":0,"trial_type":"image-button-response","trial_index":75,"time_elapsed":812364,"internal_node_id":"0.0-4.0-0.34","subject_id":"60f9e5fdb753010b9fff46e3","study_id":"60edd13110225f80f9f3709b","session_id":"6196c2e75567666ff6165521","condition":"full-information","relevant_dimensions":["antennae","legs"],"bee_group":{"antennae":"A","wings":"X","pattern":"X","legs":"F"},"action":"harvest","summary":"bad-harvest","bonus":0.06},{"rt":1310.1000000238419,"stimulus":"\n                    <p><b>Action: <em>harvest</em></b></p>\n                    <p>This is the bee that you just saw.</p>\n                    <img src=\"bees-with-color/bee-A2DF.svg\" width=\"200\">\n                    <p><span class=\"redText\">Bad choice, the bee was angry.</span><br><b>You have been stung!</b><br>Your pay has been decreased by $0.10. Your bonus pay is now $0.06.</p>\n            ","response":0,"trial_type":"html-button-response","trial_index":76,"time_elapsed":813677,"internal_node_id":"0.0-4.0-1.34","subject_id":"60f9e5fdb753010b9fff46e3","study_id":"60edd13110225f80f9f3709b","session_id":"6196c2e75567666ff6165521","condition":"full-information","relevant_dimensions":["antennae","legs"],"bee_group":{"antennae":"A","wings":"X","pattern":"X","legs":"F"},"bonus":0.06},{"rt":1487.5999999642372,"stimulus":"bees-with-color/bee-B2DF.svg","response":0,"trial_type":"image-button-response","trial_index":77,"time_elapsed":815168,"internal_node_id":"0.0-4.0-0.35","subject_id":"60f9e5fdb753010b9fff46e3","study_id":"60edd13110225f80f9f3709b","session_id":"6196c2e75567666ff6165521","condition":"full-information","relevant_dimensions":["antennae","legs"],"bee_group":{"antennae":"A","wings":"X","pattern":"X","legs":"F"},"action":"harvest","summary":"good-harvest","bonus":0.06},{"rt":1538.0999999642372,"stimulus":"\n                    <p><b>Action: <em>harvest</em></b></p>\n                    <p>This is the bee that you just saw.</p>\n                    <img src=\"bees-with-color/bee-B2DF.svg\" width=\"200\">\n                    <p><span class=\"greenText\"><b>Successful harvest!</b></span><br>Your pay has increased by $0.02. Your bonus pay is now $0.08.</p>\n            ","response":0,"trial_type":"html-button-response","trial_index":78,"time_elapsed":816708,"internal_node_id":"0.0-4.0-1.35","subject_id":"60f9e5fdb753010b9fff46e3","study_id":"60edd13110225f80f9f3709b","session_id":"6196c2e75567666ff6165521","condition":"full-information","relevant_dimensions":["antennae","legs"],"bee_group":{"antennae":"A","wings":"X","pattern":"X","legs":"F"},"bonus":0.06},{"rt":1229.5,"stimulus":"bees-with-color/bee-B1SM.svg","response":0,"trial_type":"image-button-response","trial_index":79,"time_elapsed":817941,"internal_node_id":"0.0-4.0-0.36","subject_id":"60f9e5fdb753010b9fff46e3","study_id":"60edd13110225f80f9f3709b","session_id":"6196c2e75567666ff6165521","condition":"full-information","relevant_dimensions":["antennae","legs"],"bee_group":{"antennae":"A","wings":"X","pattern":"X","legs":"F"},"action":"harvest","summary":"good-harvest","bonus":0.06},{"rt":1272.800000011921,"stimulus":"\n                    <p><b>Action: <em>harvest</em></b></p>\n                    <p>This is the bee that you just saw.</p>\n                    <img src=\"bees-with-color/bee-B1SM.svg\" width=\"200\">\n                    <p><span class=\"greenText\"><b>Successful harvest!</b></span><br>Your pay has increased by $0.02. Your bonus pay is now $0.10.</p>\n            ","response":0,"trial_type":"html-button-response","trial_index":80,"time_elapsed":819216,"internal_node_id":"0.0-4.0-1.36","subject_id":"60f9e5fdb753010b9fff46e3","study_id":"60edd13110225f80f9f3709b","session_id":"6196c2e75567666ff6165521","condition":"full-information","relevant_dimensions":["antennae","legs"],"bee_group":{"antennae":"A","wings":"X","pattern":"X","legs":"F"},"bonus":0.06},{"rt":3602.800000011921,"stimulus":"bees-with-color/bee-B1DF.svg","response":1,"trial_type":"image-button-response","trial_index":81,"time_elapsed":822821,"internal_node_id":"0.0-4.0-0.37","subject_id":"60f9e5fdb753010b9fff46e3","study_id":"60edd13110225f80f9f3709b","session_id":"6196c2e75567666ff6165521","condition":"full-information","relevant_dimensions":["antennae","legs"],"bee_group":{"antennae":"A","wings":"X","pattern":"X","legs":"F"},"action":"avoid","summary":"bad-avoid","bonus":0.06},{"rt":1812.800000011921,"stimulus":"\n                    <p><b>Action: <em>avoid</em></b></p>\n                    <p>This is the bee that you just saw.</p>\n                    <img src=\"bees-with-color/bee-B1DF.svg\" width=\"200\">\n                    <p><span class=\"redText\">Bad choice,</span> the bee was friendly.<br>Your bonus pay is unchanged, and remains at $0.10.</p>\n            ","response":0,"trial_type":"html-button-response","trial_index":82,"time_elapsed":824637,"internal_node_id":"0.0-4.0-1.37","subject_id":"60f9e5fdb753010b9fff46e3","study_id":"60edd13110225f80f9f3709b","session_id":"6196c2e75567666ff6165521","condition":"full-information","relevant_dimensions":["antennae","legs"],"bee_group":{"antennae":"A","wings":"X","pattern":"X","legs":"F"},"bonus":0.06},{"rt":2096.5,"stimulus":"bees-with-color/bee-A1DM.svg","response":1,"trial_type":"image-button-response","trial_index":83,"time_elapsed":826736,"internal_node_id":"0.0-4.0-0.38","subject_id":"60f9e5fdb753010b9fff46e3","study_id":"60edd13110225f80f9f3709b","session_id":"6196c2e75567666ff6165521","condition":"full-information","relevant_dimensions":["antennae","legs"],"bee_group":{"antennae":"A","wings":"X","pattern":"X","legs":"F"},"action":"avoid","summary":"bad-avoid","bonus":0.06},{"rt":1113.1000000238419,"stimulus":"\n                    <p><b>Action: <em>avoid</em></b></p>\n                    <p>This is the bee that you just saw.</p>\n                    <img src=\"bees-with-color/bee-A1DM.svg\" width=\"200\">\n                    <p><span class=\"redText\">Bad choice,</span> the bee was friendly.<br>Your bonus pay is unchanged, and remains at $0.10.</p>\n            ","response":0,"trial_type":"html-button-response","trial_index":84,"time_elapsed":827851,"internal_node_id":"0.0-4.0-1.38","subject_id":"60f9e5fdb753010b9fff46e3","study_id":"60edd13110225f80f9f3709b","session_id":"6196c2e75567666ff6165521","condition":"full-information","relevant_dimensions":["antennae","legs"],"bee_group":{"antennae":"A","wings":"X","pattern":"X","legs":"F"},"bonus":0.06},{"rt":3432.199999988079,"stimulus":"bees-with-color/bee-A1SM.svg","response":0,"trial_type":"image-button-response","trial_index":85,"time_elapsed":831285,"internal_node_id":"0.0-4.0-0.39","subject_id":"60f9e5fdb753010b9fff46e3","study_id":"60edd13110225f80f9f3709b","session_id":"6196c2e75567666ff6165521","condition":"full-information","relevant_dimensions":["antennae","legs"],"bee_group":{"antennae":"A","wings":"X","pattern":"X","legs":"F"},"action":"harvest","summary":"good-harvest","bonus":0.06},{"rt":1379,"stimulus":"\n                    <p><b>Action: <em>harvest</em></b></p>\n                    <p>This is the bee that you just saw.</p>\n                    <img src=\"bees-with-color/bee-A1SM.svg\" width=\"200\">\n                    <p><span class=\"greenText\"><b>Successful harvest!</b></span><br>Your pay has increased by $0.02. Your bonus pay is now $0.12.</p>\n            ","response":0,"trial_type":"html-button-response","trial_index":86,"time_elapsed":832667,"internal_node_id":"0.0-4.0-1.39","subject_id":"60f9e5fdb753010b9fff46e3","study_id":"60edd13110225f80f9f3709b","session_id":"6196c2e75567666ff6165521","condition":"full-information","relevant_dimensions":["antennae","legs"],"bee_group":{"antennae":"A","wings":"X","pattern":"X","legs":"F"},"bonus":0.06},{"rt":5494.100000023842,"stimulus":"bees-with-color/bee-B2DM.svg","response":1,"trial_type":"image-button-response","trial_index":87,"time_elapsed":838164,"internal_node_id":"0.0-4.0-0.40","subject_id":"60f9e5fdb753010b9fff46e3","study_id":"60edd13110225f80f9f3709b","session_id":"6196c2e75567666ff6165521","condition":"full-information","relevant_dimensions":["antennae","legs"],"bee_group":{"antennae":"A","wings":"X","pattern":"X","legs":"F"},"action":"avoid","summary":"bad-avoid","bonus":0.06},{"rt":2604,"stimulus":"\n                    <p><b>Action: <em>avoid</em></b></p>\n                    <p>This is the bee that you just saw.</p>\n                    <img src=\"bees-with-color/bee-B2DM.svg\" width=\"200\">\n                    <p><span class=\"redText\">Bad choice,</span> the bee was friendly.<br>Your bonus pay is unchanged, and remains at $0.12.</p>\n            ","response":0,"trial_type":"html-button-response","trial_index":88,"time_elapsed":840771,"internal_node_id":"0.0-4.0-1.40","subject_id":"60f9e5fdb753010b9fff46e3","study_id":"60edd13110225f80f9f3709b","session_id":"6196c2e75567666ff6165521","condition":"full-information","relevant_dimensions":["antennae","legs"],"bee_group":{"antennae":"A","wings":"X","pattern":"X","legs":"F"},"bonus":0.06},{"rt":3803.699999988079,"stimulus":"bees-with-color/bee-B1DM.svg","response":1,"trial_type":"image-button-response","trial_index":89,"time_elapsed":844578,"internal_node_id":"0.0-4.0-0.41","subject_id":"60f9e5fdb753010b9fff46e3","study_id":"60edd13110225f80f9f3709b","session_id":"6196c2e75567666ff6165521","condition":"full-information","relevant_dimensions":["antennae","legs"],"bee_group":{"antennae":"A","wings":"X","pattern":"X","legs":"F"},"action":"avoid","summary":"bad-avoid","bonus":0.06},{"rt":1346.699999988079,"stimulus":"\n                    <p><b>Action: <em>avoid</em></b></p>\n                    <p>This is the bee that you just saw.</p>\n                    <img src=\"bees-with-color/bee-B1DM.svg\" width=\"200\">\n                    <p><span class=\"redText\">Bad choice,</span> the bee was friendly.<br>Your bonus pay is unchanged, and remains at $0.12.</p>\n            ","response":0,"trial_type":"html-button-response","trial_index":90,"time_elapsed":845928,"internal_node_id":"0.0-4.0-1.41","subject_id":"60f9e5fdb753010b9fff46e3","study_id":"60edd13110225f80f9f3709b","session_id":"6196c2e75567666ff6165521","condition":"full-information","relevant_dimensions":["antennae","legs"],"bee_group":{"antennae":"A","wings":"X","pattern":"X","legs":"F"},"bonus":0.06},{"rt":23703.700000047684,"stimulus":"bees-with-color/bee-A2SM.svg","response":1,"trial_type":"image-button-response","trial_index":91,"time_elapsed":869635,"internal_node_id":"0.0-4.0-0.42","subject_id":"60f9e5fdb753010b9fff46e3","study_id":"60edd13110225f80f9f3709b","session_id":"6196c2e75567666ff6165521","condition":"full-information","relevant_dimensions":["antennae","legs"],"bee_group":{"antennae":"A","wings":"X","pattern":"X","legs":"F"},"action":"avoid","summary":"bad-avoid","bonus":0.06},{"rt":1379.199999988079,"stimulus":"\n                    <p><b>Action: <em>avoid</em></b></p>\n                    <p>This is the bee that you just saw.</p>\n                    <img src=\"bees-with-color/bee-A2SM.svg\" width=\"200\">\n                    <p><span class=\"redText\">Bad choice,</span> the bee was friendly.<br>Your bonus pay is unchanged, and remains at $0.12.</p>\n            ","response":0,"trial_type":"html-button-response","trial_index":92,"time_elapsed":871017,"internal_node_id":"0.0-4.0-1.42","subject_id":"60f9e5fdb753010b9fff46e3","study_id":"60edd13110225f80f9f3709b","session_id":"6196c2e75567666ff6165521","condition":"full-information","relevant_dimensions":["antennae","legs"],"bee_group":{"antennae":"A","wings":"X","pattern":"X","legs":"F"},"bonus":0.06},{"rt":1362,"stimulus":"bees-with-color/bee-A1DF.svg","response":1,"trial_type":"image-button-response","trial_index":93,"time_elapsed":872383,"internal_node_id":"0.0-4.0-0.43","subject_id":"60f9e5fdb753010b9fff46e3","study_id":"60edd13110225f80f9f3709b","session_id":"6196c2e75567666ff6165521","condition":"full-information","relevant_dimensions":["antennae","legs"],"bee_group":{"antennae":"A","wings":"X","pattern":"X","legs":"F"},"action":"avoid","summary":"good-avoid","bonus":0.06},{"rt":1062.0999999642372,"stimulus":"\n                    <p><b>Action: <em>avoid</em></b></p>\n                    <p>This is the bee that you just saw.</p>\n                    <img src=\"bees-with-color/bee-A1DF.svg\" width=\"200\">\n                    <p><span class=\"greenText\">Good choice!</span>  This bee would have stung you.<br>Your bonus pay is unchanged, and remains at $0.12.</p>\n            ","response":0,"trial_type":"html-button-response","trial_index":94,"time_elapsed":873448,"internal_node_id":"0.0-4.0-1.43","subject_id":"60f9e5fdb753010b9fff46e3","study_id":"60edd13110225f80f9f3709b","session_id":"6196c2e75567666ff6165521","condition":"full-information","relevant_dimensions":["antennae","legs"],"bee_group":{"antennae":"A","wings":"X","pattern":"X","legs":"F"},"bonus":0.06},{"rt":1613.300000011921,"stimulus":"bees-with-color/bee-A1SF.svg","response":1,"trial_type":"image-button-response","trial_index":95,"time_elapsed":875065,"internal_node_id":"0.0-4.0-0.44","subject_id":"60f9e5fdb753010b9fff46e3","study_id":"60edd13110225f80f9f3709b","session_id":"6196c2e75567666ff6165521","condition":"full-information","relevant_dimensions":["antennae","legs"],"bee_group":{"antennae":"A","wings":"X","pattern":"X","legs":"F"},"action":"avoid","summary":"good-avoid","bonus":0.06},{"rt":1045.800000011921,"stimulus":"\n                    <p><b>Action: <em>avoid</em></b></p>\n                    <p>This is the bee that you just saw.</p>\n                    <img src=\"bees-with-color/bee-A1SF.svg\" width=\"200\">\n                    <p><span class=\"greenText\">Good choice!</span>  This bee would have stung you.<br>Your bonus pay is unchanged, and remains at $0.12.</p>\n            ","response":0,"trial_type":"html-button-response","trial_index":96,"time_elapsed":876114,"internal_node_id":"0.0-4.0-1.44","subject_id":"60f9e5fdb753010b9fff46e3","study_id":"60edd13110225f80f9f3709b","session_id":"6196c2e75567666ff6165521","condition":"full-information","relevant_dimensions":["antennae","legs"],"bee_group":{"antennae":"A","wings":"X","pattern":"X","legs":"F"},"bonus":0.06},{"rt":1962.3999999761581,"stimulus":"bees-with-color/bee-B2SF.svg","response":1,"trial_type":"image-button-response","trial_index":97,"time_elapsed":878079,"internal_node_id":"0.0-4.0-0.45","subject_id":"60f9e5fdb753010b9fff46e3","study_id":"60edd13110225f80f9f3709b","session_id":"6196c2e75567666ff6165521","condition":"full-information","relevant_dimensions":["antennae","legs"],"bee_group":{"antennae":"A","wings":"X","pattern":"X","legs":"F"},"action":"avoid","summary":"bad-avoid","bonus":0.06},{"rt":1430.4000000357628,"stimulus":"\n                    <p><b>Action: <em>avoid</em></b></p>\n                    <p>This is the bee that you just saw.</p>\n                    <img src=\"bees-with-color/bee-B2SF.svg\" width=\"200\">\n                    <p><span class=\"redText\">Bad choice,</span> the bee was friendly.<br>Your bonus pay is unchanged, and remains at $0.12.</p>\n            ","response":0,"trial_type":"html-button-response","trial_index":98,"time_elapsed":879513,"internal_node_id":"0.0-4.0-1.45","subject_id":"60f9e5fdb753010b9fff46e3","study_id":"60edd13110225f80f9f3709b","session_id":"6196c2e75567666ff6165521","condition":"full-information","relevant_dimensions":["antennae","legs"],"bee_group":{"antennae":"A","wings":"X","pattern":"X","legs":"F"},"bonus":0.06},{"rt":8801.300000011921,"stimulus":"bees-with-color/bee-B1SF.svg","response":1,"trial_type":"image-button-response","trial_index":99,"time_elapsed":888318,"internal_node_id":"0.0-4.0-0.46","subject_id":"60f9e5fdb753010b9fff46e3","study_id":"60edd13110225f80f9f3709b","session_id":"6196c2e75567666ff6165521","condition":"full-information","relevant_dimensions":["antennae","legs"],"bee_group":{"antennae":"A","wings":"X","pattern":"X","legs":"F"},"action":"avoid","summary":"bad-avoid","bonus":0.06},{"rt":1219.5999999642372,"stimulus":"\n                    <p><b>Action: <em>avoid</em></b></p>\n                    <p>This is the bee that you just saw.</p>\n                    <img src=\"bees-with-color/bee-B1SF.svg\" width=\"200\">\n                    <p><span class=\"redText\">Bad choice,</span> the bee was friendly.<br>Your bonus pay is unchanged, and remains at $0.12.</p>\n            ","response":0,"trial_type":"html-button-response","trial_index":100,"time_elapsed":889541,"internal_node_id":"0.0-4.0-1.46","subject_id":"60f9e5fdb753010b9fff46e3","study_id":"60edd13110225f80f9f3709b","session_id":"6196c2e75567666ff6165521","condition":"full-information","relevant_dimensions":["antennae","legs"],"bee_group":{"antennae":"A","wings":"X","pattern":"X","legs":"F"},"bonus":0.06},{"rt":1580.699999988079,"stimulus":"bees-with-color/bee-B2SM.svg","response":0,"trial_type":"image-button-response","trial_index":101,"time_elapsed":891125,"internal_node_id":"0.0-4.0-0.47","subject_id":"60f9e5fdb753010b9fff46e3","study_id":"60edd13110225f80f9f3709b","session_id":"6196c2e75567666ff6165521","condition":"full-information","relevant_dimensions":["antennae","legs"],"bee_group":{"antennae":"A","wings":"X","pattern":"X","legs":"F"},"action":"harvest","summary":"good-harvest","bonus":0.06},{"rt":1137.6000000238419,"stimulus":"\n                    <p><b>Action: <em>harvest</em></b></p>\n                    <p>This is the bee that you just saw.</p>\n                    <img src=\"bees-with-color/bee-B2SM.svg\" width=\"200\">\n                    <p><span class=\"greenText\"><b>Successful harvest!</b></span><br>Your pay has increased by $0.02. Your bonus pay is now $0.14.</p>\n            ","response":0,"trial_type":"html-button-response","trial_index":102,"time_elapsed":892267,"internal_node_id":"0.0-4.0-1.47","subject_id":"60f9e5fdb753010b9fff46e3","study_id":"60edd13110225f80f9f3709b","session_id":"6196c2e75567666ff6165521","condition":"full-information","relevant_dimensions":["antennae","legs"],"bee_group":{"antennae":"A","wings":"X","pattern":"X","legs":"F"},"bonus":0.06},{"rt":1786.6000000238419,"stimulus":"bees-with-color/bee-B2DF.svg","response":1,"trial_type":"image-button-response","trial_index":103,"time_elapsed":894056,"internal_node_id":"0.0-4.0-0.48","subject_id":"60f9e5fdb753010b9fff46e3","study_id":"60edd13110225f80f9f3709b","session_id":"6196c2e75567666ff6165521","condition":"full-information","relevant_dimensions":["antennae","legs"],"bee_group":{"antennae":"A","wings":"X","pattern":"X","legs":"F"},"action":"avoid","summary":"bad-avoid","bonus":0.06},{"rt":979.6999999880791,"stimulus":"\n                    <p><b>Action: <em>avoid</em></b></p>\n                    <p>This is the bee that you just saw.</p>\n                    <img src=\"bees-with-color/bee-B2DF.svg\" width=\"200\">\n                    <p><span class=\"redText\">Bad choice,</span> the bee was friendly.<br>Your bonus pay is unchanged, and remains at $0.14.</p>\n            ","response":0,"trial_type":"html-button-response","trial_index":104,"time_elapsed":895039,"internal_node_id":"0.0-4.0-1.48","subject_id":"60f9e5fdb753010b9fff46e3","study_id":"60edd13110225f80f9f3709b","session_id":"6196c2e75567666ff6165521","condition":"full-information","relevant_dimensions":["antennae","legs"],"bee_group":{"antennae":"A","wings":"X","pattern":"X","legs":"F"},"bonus":0.06},{"rt":5412.599999964237,"stimulus":"bees-with-color/bee-B1SF.svg","response":0,"trial_type":"image-button-response","trial_index":105,"time_elapsed":900453,"internal_node_id":"0.0-4.0-0.49","subject_id":"60f9e5fdb753010b9fff46e3","study_id":"60edd13110225f80f9f3709b","session_id":"6196c2e75567666ff6165521","condition":"full-information","relevant_dimensions":["antennae","legs"],"bee_group":{"antennae":"A","wings":"X","pattern":"X","legs":"F"},"action":"harvest","summary":"good-harvest","bonus":0.06},{"rt":1263.199999988079,"stimulus":"\n                    <p><b>Action: <em>harvest</em></b></p>\n                    <p>This is the bee that you just saw.</p>\n                    <img src=\"bees-with-color/bee-B1SF.svg\" width=\"200\">\n                    <p><span class=\"greenText\"><b>Successful harvest!</b></span><br>Your pay has increased by $0.02. Your bonus pay is now $0.16.</p>\n            ","response":0,"trial_type":"html-button-response","trial_index":106,"time_elapsed":901718,"internal_node_id":"0.0-4.0-1.49","subject_id":"60f9e5fdb753010b9fff46e3","study_id":"60edd13110225f80f9f3709b","session_id":"6196c2e75567666ff6165521","condition":"full-information","relevant_dimensions":["antennae","legs"],"bee_group":{"antennae":"A","wings":"X","pattern":"X","legs":"F"},"bonus":0.06},{"rt":19911.69999998808,"stimulus":"bees-with-color/bee-A2DF.svg","response":0,"trial_type":"image-button-response","trial_index":107,"time_elapsed":921633,"internal_node_id":"0.0-4.0-0.50","subject_id":"60f9e5fdb753010b9fff46e3","study_id":"60edd13110225f80f9f3709b","session_id":"6196c2e75567666ff6165521","condition":"full-information","relevant_dimensions":["antennae","legs"],"bee_group":{"antennae":"A","wings":"X","pattern":"X","legs":"F"},"action":"harvest","summary":"bad-harvest","bonus":0.06},{"rt":1456,"stimulus":"\n                    <p><b>Action: <em>harvest</em></b></p>\n                    <p>This is the bee that you just saw.</p>\n                    <img src=\"bees-with-color/bee-A2DF.svg\" width=\"200\">\n                    <p><span class=\"redText\">Bad choice, the bee was angry.</span><br><b>You have been stung!</b><br>Your pay has been decreased by $0.10. Your bonus pay is now $0.06.</p>\n            ","response":0,"trial_type":"html-button-response","trial_index":108,"time_elapsed":923092,"internal_node_id":"0.0-4.0-1.50","subject_id":"60f9e5fdb753010b9fff46e3","study_id":"60edd13110225f80f9f3709b","session_id":"6196c2e75567666ff6165521","condition":"full-information","relevant_dimensions":["antennae","legs"],"bee_group":{"antennae":"A","wings":"X","pattern":"X","legs":"F"},"bonus":0.06},{"rt":5805.300000011921,"stimulus":"bees-with-color/bee-B2DM.svg","response":1,"trial_type":"image-button-response","trial_index":109,"time_elapsed":928900,"internal_node_id":"0.0-4.0-0.51","subject_id":"60f9e5fdb753010b9fff46e3","study_id":"60edd13110225f80f9f3709b","session_id":"6196c2e75567666ff6165521","condition":"full-information","relevant_dimensions":["antennae","legs"],"bee_group":{"antennae":"A","wings":"X","pattern":"X","legs":"F"},"action":"avoid","summary":"bad-avoid","bonus":0.06},{"rt":8002.599999964237,"stimulus":"\n                    <p><b>Action: <em>avoid</em></b></p>\n                    <p>This is the bee that you just saw.</p>\n                    <img src=\"bees-with-color/bee-B2DM.svg\" width=\"200\">\n                    <p><span class=\"redText\">Bad choice,</span> the bee was friendly.<br>Your bonus pay is unchanged, and remains at $0.06.</p>\n            ","response":0,"trial_type":"html-button-response","trial_index":110,"time_elapsed":936906,"internal_node_id":"0.0-4.0-1.51","subject_id":"60f9e5fdb753010b9fff46e3","study_id":"60edd13110225f80f9f3709b","session_id":"6196c2e75567666ff6165521","condition":"full-information","relevant_dimensions":["antennae","legs"],"bee_group":{"antennae":"A","wings":"X","pattern":"X","legs":"F"},"bonus":0.06},{"rt":2686,"stimulus":"bees-with-color/bee-A1SF.svg","response":0,"trial_type":"image-button-response","trial_index":111,"time_elapsed":939595,"internal_node_id":"0.0-4.0-0.52","subject_id":"60f9e5fdb753010b9fff46e3","study_id":"60edd13110225f80f9f3709b","session_id":"6196c2e75567666ff6165521","condition":"full-information","relevant_dimensions":["antennae","legs"],"bee_group":{"antennae":"A","wings":"X","pattern":"X","legs":"F"},"action":"harvest","summary":"bad-harvest","bonus":0.06},{"rt":5852,"stimulus":"\n                    <p><b>Action: <em>harvest</em></b></p>\n                    <p>This is the bee that you just saw.</p>\n                    <img src=\"bees-with-color/bee-A1SF.svg\" width=\"200\">\n                    <p><span class=\"redText\">Bad choice, the bee was angry.</span><br><b>You have been stung!</b><br>Your pay has been decreased by $0.10. Your bonus pay is now $0.00.</p>\n            ","response":0,"trial_type":"html-button-response","trial_index":112,"time_elapsed":945449,"internal_node_id":"0.0-4.0-1.52","subject_id":"60f9e5fdb753010b9fff46e3","study_id":"60edd13110225f80f9f3709b","session_id":"6196c2e75567666ff6165521","condition":"full-information","relevant_dimensions":["antennae","legs"],"bee_group":{"antennae":"A","wings":"X","pattern":"X","legs":"F"},"bonus":0.06},{"rt":3378.800000011921,"stimulus":"bees-with-color/bee-A1SM.svg","response":0,"trial_type":"image-button-response","trial_index":113,"time_elapsed":948831,"internal_node_id":"0.0-4.0-0.53","subject_id":"60f9e5fdb753010b9fff46e3","study_id":"60edd13110225f80f9f3709b","session_id":"6196c2e75567666ff6165521","condition":"full-information","relevant_dimensions":["antennae","legs"],"bee_group":{"antennae":"A","wings":"X","pattern":"X","legs":"F"},"action":"harvest","summary":"good-harvest","bonus":0.06},{"rt":1131.7000000476837,"stimulus":"\n                    <p><b>Action: <em>harvest</em></b></p>\n                    <p>This is the bee that you just saw.</p>\n                    <img src=\"bees-with-color/bee-A1SM.svg\" width=\"200\">\n                    <p><span class=\"greenText\"><b>Successful harvest!</b></span><br>Your pay has increased by $0.02. Your bonus pay is now $0.02.</p>\n            ","response":0,"trial_type":"html-button-response","trial_index":114,"time_elapsed":949965,"internal_node_id":"0.0-4.0-1.53","subject_id":"60f9e5fdb753010b9fff46e3","study_id":"60edd13110225f80f9f3709b","session_id":"6196c2e75567666ff6165521","condition":"full-information","relevant_dimensions":["antennae","legs"],"bee_group":{"antennae":"A","wings":"X","pattern":"X","legs":"F"},"bonus":0.06},{"rt":19870.30000001192,"stimulus":"bees-with-color/bee-B2SF.svg","response":0,"trial_type":"image-button-response","trial_index":115,"time_elapsed":969838,"internal_node_id":"0.0-4.0-0.54","subject_id":"60f9e5fdb753010b9fff46e3","study_id":"60edd13110225f80f9f3709b","session_id":"6196c2e75567666ff6165521","condition":"full-information","relevant_dimensions":["antennae","legs"],"bee_group":{"antennae":"A","wings":"X","pattern":"X","legs":"F"},"action":"harvest","summary":"good-harvest","bonus":0.06},{"rt":1947.1000000238419,"stimulus":"\n                    <p><b>Action: <em>harvest</em></b></p>\n                    <p>This is the bee that you just saw.</p>\n                    <img src=\"bees-with-color/bee-B2SF.svg\" width=\"200\">\n                    <p><span class=\"greenText\"><b>Successful harvest!</b></span><br>Your pay has increased by $0.02. Your bonus pay is now $0.04.</p>\n            ","response":0,"trial_type":"html-button-response","trial_index":116,"time_elapsed":971788,"internal_node_id":"0.0-4.0-1.54","subject_id":"60f9e5fdb753010b9fff46e3","study_id":"60edd13110225f80f9f3709b","session_id":"6196c2e75567666ff6165521","condition":"full-information","relevant_dimensions":["antennae","legs"],"bee_group":{"antennae":"A","wings":"X","pattern":"X","legs":"F"},"bonus":0.06},{"rt":9142.200000047684,"stimulus":"bees-with-color/bee-B1SM.svg","response":0,"trial_type":"image-button-response","trial_index":117,"time_elapsed":980933,"internal_node_id":"0.0-4.0-0.55","subject_id":"60f9e5fdb753010b9fff46e3","study_id":"60edd13110225f80f9f3709b","session_id":"6196c2e75567666ff6165521","condition":"full-information","relevant_dimensions":["antennae","legs"],"bee_group":{"antennae":"A","wings":"X","pattern":"X","legs":"F"},"action":"harvest","summary":"good-harvest","bonus":0.06},{"rt":1379.5999999642372,"stimulus":"\n                    <p><b>Action: <em>harvest</em></b></p>\n                    <p>This is the bee that you just saw.</p>\n                    <img src=\"bees-with-color/bee-B1SM.svg\" width=\"200\">\n                    <p><span class=\"greenText\"><b>Successful harvest!</b></span><br>Your pay has increased by $0.02. Your bonus pay is now $0.06.</p>\n            ","response":0,"trial_type":"html-button-response","trial_index":118,"time_elapsed":982316,"internal_node_id":"0.0-4.0-1.55","subject_id":"60f9e5fdb753010b9fff46e3","study_id":"60edd13110225f80f9f3709b","session_id":"6196c2e75567666ff6165521","condition":"full-information","relevant_dimensions":["antennae","legs"],"bee_group":{"antennae":"A","wings":"X","pattern":"X","legs":"F"},"bonus":0.06},{"rt":20271,"stimulus":"bees-with-color/bee-B1DM.svg","response":1,"trial_type":"image-button-response","trial_index":119,"time_elapsed":1002590,"internal_node_id":"0.0-4.0-0.56","subject_id":"60f9e5fdb753010b9fff46e3","study_id":"60edd13110225f80f9f3709b","session_id":"6196c2e75567666ff6165521","condition":"full-information","relevant_dimensions":["antennae","legs"],"bee_group":{"antennae":"A","wings":"X","pattern":"X","legs":"F"},"action":"avoid","summary":"bad-avoid","bonus":0.06},{"rt":8676.399999976158,"stimulus":"\n                    <p><b>Action: <em>avoid</em></b></p>\n                    <p>This is the bee that you just saw.</p>\n                    <img src=\"bees-with-color/bee-B1DM.svg\" width=\"200\">\n                    <p><span class=\"redText\">Bad choice,</span> the bee was friendly.<br>Your bonus pay is unchanged, and remains at $0.06.</p>\n            ","response":0,"trial_type":"html-button-response","trial_index":120,"time_elapsed":1011269,"internal_node_id":"0.0-4.0-1.56","subject_id":"60f9e5fdb753010b9fff46e3","study_id":"60edd13110225f80f9f3709b","session_id":"6196c2e75567666ff6165521","condition":"full-information","relevant_dimensions":["antennae","legs"],"bee_group":{"antennae":"A","wings":"X","pattern":"X","legs":"F"},"bonus":0.06},{"rt":11373.900000035763,"stimulus":"bees-with-color/bee-A1DM.svg","response":0,"trial_type":"image-button-response","trial_index":121,"time_elapsed":1022647,"internal_node_id":"0.0-4.0-0.57","subject_id":"60f9e5fdb753010b9fff46e3","study_id":"60edd13110225f80f9f3709b","session_id":"6196c2e75567666ff6165521","condition":"full-information","relevant_dimensions":["antennae","legs"],"bee_group":{"antennae":"A","wings":"X","pattern":"X","legs":"F"},"action":"harvest","summary":"good-harvest","bonus":0.06},{"rt":1297.1000000238419,"stimulus":"\n                    <p><b>Action: <em>harvest</em></b></p>\n                    <p>This is the bee that you just saw.</p>\n                    <img src=\"bees-with-color/bee-A1DM.svg\" width=\"200\">\n                    <p><span class=\"greenText\"><b>Successful harvest!</b></span><br>Your pay has increased by $0.02. Your bonus pay is now $0.08.</p>\n            ","response":0,"trial_type":"html-button-response","trial_index":122,"time_elapsed":1023948,"internal_node_id":"0.0-4.0-1.57","subject_id":"60f9e5fdb753010b9fff46e3","study_id":"60edd13110225f80f9f3709b","session_id":"6196c2e75567666ff6165521","condition":"full-information","relevant_dimensions":["antennae","legs"],"bee_group":{"antennae":"A","wings":"X","pattern":"X","legs":"F"},"bonus":0.06},{"rt":16124.199999988079,"stimulus":"bees-with-color/bee-A2SF.svg","response":1,"trial_type":"image-button-response","trial_index":123,"time_elapsed":1040075,"internal_node_id":"0.0-4.0-0.58","subject_id":"60f9e5fdb753010b9fff46e3","study_id":"60edd13110225f80f9f3709b","session_id":"6196c2e75567666ff6165521","condition":"full-information","relevant_dimensions":["antennae","legs"],"bee_group":{"antennae":"A","wings":"X","pattern":"X","legs":"F"},"action":"avoid","summary":"good-avoid","bonus":0.06},{"rt":8673.399999976158,"stimulus":"\n                    <p><b>Action: <em>avoid</em></b></p>\n                    <p>This is the bee that you just saw.</p>\n                    <img src=\"bees-with-color/bee-A2SF.svg\" width=\"200\">\n                    <p><span class=\"greenText\">Good choice!</span>  This bee would have stung you.<br>Your bonus pay is unchanged, and remains at $0.08.</p>\n            ","response":0,"trial_type":"html-button-response","trial_index":124,"time_elapsed":1048751,"internal_node_id":"0.0-4.0-1.58","subject_id":"60f9e5fdb753010b9fff46e3","study_id":"60edd13110225f80f9f3709b","session_id":"6196c2e75567666ff6165521","condition":"full-information","relevant_dimensions":["antennae","legs"],"bee_group":{"antennae":"A","wings":"X","pattern":"X","legs":"F"},"bonus":0.06},{"rt":23254.099999964237,"stimulus":"bees-with-color/bee-A2DM.svg","response":1,"trial_type":"image-button-response","trial_index":125,"time_elapsed":1072008,"internal_node_id":"0.0-4.0-0.59","subject_id":"60f9e5fdb753010b9fff46e3","study_id":"60edd13110225f80f9f3709b","session_id":"6196c2e75567666ff6165521","condition":"full-information","relevant_dimensions":["antennae","legs"],"bee_group":{"antennae":"A","wings":"X","pattern":"X","legs":"F"},"action":"avoid","summary":"bad-avoid","bonus":0.06},{"rt":9475.800000011921,"stimulus":"\n                    <p><b>Action: <em>avoid</em></b></p>\n                    <p>This is the bee that you just saw.</p>\n                    <img src=\"bees-with-color/bee-A2DM.svg\" width=\"200\">\n                    <p><span class=\"redText\">Bad choice,</span> the bee was friendly.<br>Your bonus pay is unchanged, and remains at $0.08.</p>\n            ","response":0,"trial_type":"html-button-response","trial_index":126,"time_elapsed":1081487,"internal_node_id":"0.0-4.0-1.59","subject_id":"60f9e5fdb753010b9fff46e3","study_id":"60edd13110225f80f9f3709b","session_id":"6196c2e75567666ff6165521","condition":"full-information","relevant_dimensions":["antennae","legs"],"bee_group":{"antennae":"A","wings":"X","pattern":"X","legs":"F"},"bonus":0.06},{"rt":13473.399999976158,"stimulus":"bees-with-color/bee-B2SM.svg","response":0,"trial_type":"image-button-response","trial_index":127,"time_elapsed":1094965,"internal_node_id":"0.0-4.0-0.60","subject_id":"60f9e5fdb753010b9fff46e3","study_id":"60edd13110225f80f9f3709b","session_id":"6196c2e75567666ff6165521","condition":"full-information","relevant_dimensions":["antennae","legs"],"bee_group":{"antennae":"A","wings":"X","pattern":"X","legs":"F"},"action":"harvest","summary":"good-harvest","bonus":0.06},{"rt":1219.1000000238419,"stimulus":"\n                    <p><b>Action: <em>harvest</em></b></p>\n                    <p>This is the bee that you just saw.</p>\n                    <img src=\"bees-with-color/bee-B2SM.svg\" width=\"200\">\n                    <p><span class=\"greenText\"><b>Successful harvest!</b></span><br>Your pay has increased by $0.02. Your bonus pay is now $0.10.</p>\n            ","response":0,"trial_type":"html-button-response","trial_index":128,"time_elapsed":1096187,"internal_node_id":"0.0-4.0-1.60","subject_id":"60f9e5fdb753010b9fff46e3","study_id":"60edd13110225f80f9f3709b","session_id":"6196c2e75567666ff6165521","condition":"full-information","relevant_dimensions":["antennae","legs"],"bee_group":{"antennae":"A","wings":"X","pattern":"X","legs":"F"},"bonus":0.06},{"rt":20729.600000023842,"stimulus":"bees-with-color/bee-A2SM.svg","response":0,"trial_type":"image-button-response","trial_index":129,"time_elapsed":1116921,"internal_node_id":"0.0-4.0-0.61","subject_id":"60f9e5fdb753010b9fff46e3","study_id":"60edd13110225f80f9f3709b","session_id":"6196c2e75567666ff6165521","condition":"full-information","relevant_dimensions":["antennae","legs"],"bee_group":{"antennae":"A","wings":"X","pattern":"X","legs":"F"},"action":"harvest","summary":"good-harvest","bonus":0.06},{"rt":1597.199999988079,"stimulus":"\n                    <p><b>Action: <em>harvest</em></b></p>\n                    <p>This is the bee that you just saw.</p>\n                    <img src=\"bees-with-color/bee-A2SM.svg\" width=\"200\">\n                    <p><span class=\"greenText\"><b>Successful harvest!</b></span><br>Your pay has increased by $0.02. Your bonus pay is now $0.12.</p>\n            ","response":0,"trial_type":"html-button-response","trial_index":130,"time_elapsed":1118521,"internal_node_id":"0.0-4.0-1.61","subject_id":"60f9e5fdb753010b9fff46e3","study_id":"60edd13110225f80f9f3709b","session_id":"6196c2e75567666ff6165521","condition":"full-information","relevant_dimensions":["antennae","legs"],"bee_group":{"antennae":"A","wings":"X","pattern":"X","legs":"F"},"bonus":0.06},{"rt":10658,"stimulus":"bees-with-color/bee-B1DF.svg","response":0,"trial_type":"image-button-response","trial_index":131,"time_elapsed":1129182,"internal_node_id":"0.0-4.0-0.62","subject_id":"60f9e5fdb753010b9fff46e3","study_id":"60edd13110225f80f9f3709b","session_id":"6196c2e75567666ff6165521","condition":"full-information","relevant_dimensions":["antennae","legs"],"bee_group":{"antennae":"A","wings":"X","pattern":"X","legs":"F"},"action":"harvest","summary":"good-harvest","bonus":0.06},{"rt":1264.6000000238419,"stimulus":"\n                    <p><b>Action: <em>harvest</em></b></p>\n                    <p>This is the bee that you just saw.</p>\n                    <img src=\"bees-with-color/bee-B1DF.svg\" width=\"200\">\n                    <p><span class=\"greenText\"><b>Successful harvest!</b></span><br>Your pay has increased by $0.02. Your bonus pay is now $0.14.</p>\n            ","response":0,"trial_type":"html-button-response","trial_index":132,"time_elapsed":1130449,"internal_node_id":"0.0-4.0-1.62","subject_id":"60f9e5fdb753010b9fff46e3","study_id":"60edd13110225f80f9f3709b","session_id":"6196c2e75567666ff6165521","condition":"full-information","relevant_dimensions":["antennae","legs"],"bee_group":{"antennae":"A","wings":"X","pattern":"X","legs":"F"},"bonus":0.06},{"rt":18603.600000023842,"stimulus":"bees-with-color/bee-A1DF.svg","response":1,"trial_type":"image-button-response","trial_index":133,"time_elapsed":1149056,"internal_node_id":"0.0-4.0-0.63","subject_id":"60f9e5fdb753010b9fff46e3","study_id":"60edd13110225f80f9f3709b","session_id":"6196c2e75567666ff6165521","condition":"full-information","relevant_dimensions":["antennae","legs"],"bee_group":{"antennae":"A","wings":"X","pattern":"X","legs":"F"},"action":"avoid","summary":"good-avoid","bonus":0.06},{"rt":1530.6000000238419,"stimulus":"\n                    <p><b>Action: <em>avoid</em></b></p>\n                    <p>This is the bee that you just saw.</p>\n                    <img src=\"bees-with-color/bee-A1DF.svg\" width=\"200\">\n                    <p><span class=\"greenText\">Good choice!</span>  This bee would have stung you.<br>Your bonus pay is unchanged, and remains at $0.14.</p>\n            ","response":0,"trial_type":"html-button-response","trial_index":134,"time_elapsed":1150589,"internal_node_id":"0.0-4.0-1.63","subject_id":"60f9e5fdb753010b9fff46e3","study_id":"60edd13110225f80f9f3709b","session_id":"6196c2e75567666ff6165521","condition":"full-information","relevant_dimensions":["antennae","legs"],"bee_group":{"antennae":"A","wings":"X","pattern":"X","legs":"F"},"bonus":0.06},{"rt":13629.800000011921,"stimulus":"You have completed the first part of this experiment.<br><br>You will now begin a shorter second part, in which you will receive no feedback.<br>The same rules regarding bonus pay apply.<br><br>Press any key to begin.","response":" ","trial_type":"html-keyboard-response","trial_index":135,"time_elapsed":1164222,"internal_node_id":"0.0-5.0","subject_id":"60f9e5fdb753010b9fff46e3","study_id":"60edd13110225f80f9f3709b","session_id":"6196c2e75567666ff6165521","condition":"full-information","relevant_dimensions":["antennae","legs"],"bee_group":{"antennae":"A","wings":"X","pattern":"X","legs":"F"},"bonus":0.06},{"rt":14614.600000023842,"stimulus":"bees-with-color/bee-A1DF.svg","response":1,"trial_type":"image-button-response","trial_index":136,"time_elapsed":1178853,"internal_node_id":"0.0-6.0-0.0","subject_id":"60f9e5fdb753010b9fff46e3","study_id":"60edd13110225f80f9f3709b","session_id":"6196c2e75567666ff6165521","condition":"full-information","relevant_dimensions":["antennae","legs"],"bee_group":{"antennae":"A","wings":"X","pattern":"X","legs":"F"},"bonus":0.06},{"rt":17327.80000001192,"stimulus":"bees-with-color/bee-B1SF.svg","response":1,"trial_type":"image-button-response","trial_index":137,"time_elapsed":1196185,"internal_node_id":"0.0-6.0-0.1","subject_id":"60f9e5fdb753010b9fff46e3","study_id":"60edd13110225f80f9f3709b","session_id":"6196c2e75567666ff6165521","condition":"full-information","relevant_dimensions":["antennae","legs"],"bee_group":{"antennae":"A","wings":"X","pattern":"X","legs":"F"},"bonus":0.06},{"rt":7026,"stimulus":"bees-with-color/bee-B1DF.svg","response":0,"trial_type":"image-button-response","trial_index":138,"time_elapsed":1203216,"internal_node_id":"0.0-6.0-0.2","subject_id":"60f9e5fdb753010b9fff46e3","study_id":"60edd13110225f80f9f3709b","session_id":"6196c2e75567666ff6165521","condition":"full-information","relevant_dimensions":["antennae","legs"],"bee_group":{"antennae":"A","wings":"X","pattern":"X","legs":"F"},"bonus":0.06},{"rt":5842,"stimulus":"bees-with-color/bee-A1SM.svg","response":0,"trial_type":"image-button-response","trial_index":139,"time_elapsed":1209062,"internal_node_id":"0.0-6.0-0.3","subject_id":"60f9e5fdb753010b9fff46e3","study_id":"60edd13110225f80f9f3709b","session_id":"6196c2e75567666ff6165521","condition":"full-information","relevant_dimensions":["antennae","legs"],"bee_group":{"antennae":"A","wings":"X","pattern":"X","legs":"F"},"bonus":0.06},{"rt":10642,"stimulus":"bees-with-color/bee-B2SF.svg","response":0,"trial_type":"image-button-response","trial_index":140,"time_elapsed":1219709,"internal_node_id":"0.0-6.0-0.4","subject_id":"60f9e5fdb753010b9fff46e3","study_id":"60edd13110225f80f9f3709b","session_id":"6196c2e75567666ff6165521","condition":"full-information","relevant_dimensions":["antennae","legs"],"bee_group":{"antennae":"A","wings":"X","pattern":"X","legs":"F"},"bonus":0.06},{"rt":11638.5,"stimulus":"bees-with-color/bee-A1SF.svg","response":1,"trial_type":"image-button-response","trial_index":141,"time_elapsed":1231353,"internal_node_id":"0.0-6.0-0.5","subject_id":"60f9e5fdb753010b9fff46e3","study_id":"60edd13110225f80f9f3709b","session_id":"6196c2e75567666ff6165521","condition":"full-information","relevant_dimensions":["antennae","legs"],"bee_group":{"antennae":"A","wings":"X","pattern":"X","legs":"F"},"bonus":0.06},{"rt":6776.199999988079,"stimulus":"bees-with-color/bee-A2SM.svg","response":0,"trial_type":"image-button-response","trial_index":142,"time_elapsed":1238133,"internal_node_id":"0.0-6.0-0.6","subject_id":"60f9e5fdb753010b9fff46e3","study_id":"60edd13110225f80f9f3709b","session_id":"6196c2e75567666ff6165521","condition":"full-information","relevant_dimensions":["antennae","legs"],"bee_group":{"antennae":"A","wings":"X","pattern":"X","legs":"F"},"bonus":0.06},{"rt":9986.799999952316,"stimulus":"bees-with-color/bee-A2DM.svg","response":1,"trial_type":"image-button-response","trial_index":143,"time_elapsed":1248124,"internal_node_id":"0.0-6.0-0.7","subject_id":"60f9e5fdb753010b9fff46e3","study_id":"60edd13110225f80f9f3709b","session_id":"6196c2e75567666ff6165521","condition":"full-information","relevant_dimensions":["antennae","legs"],"bee_group":{"antennae":"A","wings":"X","pattern":"X","legs":"F"},"bonus":0.06},{"rt":7461.900000035763,"stimulus":"bees-with-color/bee-B2DM.svg","response":1,"trial_type":"image-button-response","trial_index":144,"time_elapsed":1255591,"internal_node_id":"0.0-6.0-0.8","subject_id":"60f9e5fdb753010b9fff46e3","study_id":"60edd13110225f80f9f3709b","session_id":"6196c2e75567666ff6165521","condition":"full-information","relevant_dimensions":["antennae","legs"],"bee_group":{"antennae":"A","wings":"X","pattern":"X","legs":"F"},"bonus":0.06},{"rt":9924.800000011921,"stimulus":"bees-with-color/bee-B1SM.svg","response":0,"trial_type":"image-button-response","trial_index":145,"time_elapsed":1265520,"internal_node_id":"0.0-6.0-0.9","subject_id":"60f9e5fdb753010b9fff46e3","study_id":"60edd13110225f80f9f3709b","session_id":"6196c2e75567666ff6165521","condition":"full-information","relevant_dimensions":["antennae","legs"],"bee_group":{"antennae":"A","wings":"X","pattern":"X","legs":"F"},"bonus":0.06},{"rt":64315.90000003576,"stimulus":"bees-with-color/bee-B2DF.svg","response":1,"trial_type":"image-button-response","trial_index":146,"time_elapsed":1329839,"internal_node_id":"0.0-6.0-0.10","subject_id":"60f9e5fdb753010b9fff46e3","study_id":"60edd13110225f80f9f3709b","session_id":"6196c2e75567666ff6165521","condition":"full-information","relevant_dimensions":["antennae","legs"],"bee_group":{"antennae":"A","wings":"X","pattern":"X","legs":"F"},"bonus":0.06},{"rt":11212.599999964237,"stimulus":"bees-with-color/bee-B2SM.svg","response":0,"trial_type":"image-button-response","trial_index":147,"time_elapsed":1341056,"internal_node_id":"0.0-6.0-0.11","subject_id":"60f9e5fdb753010b9fff46e3","study_id":"60edd13110225f80f9f3709b","session_id":"6196c2e75567666ff6165521","condition":"full-information","relevant_dimensions":["antennae","legs"],"bee_group":{"antennae":"A","wings":"X","pattern":"X","legs":"F"},"bonus":0.06},{"rt":18033.100000023842,"stimulus":"bees-with-color/bee-A2SF.svg","response":0,"trial_type":"image-button-response","trial_index":148,"time_elapsed":1359094,"internal_node_id":"0.0-6.0-0.12","subject_id":"60f9e5fdb753010b9fff46e3","study_id":"60edd13110225f80f9f3709b","session_id":"6196c2e75567666ff6165521","condition":"full-information","relevant_dimensions":["antennae","legs"],"bee_group":{"antennae":"A","wings":"X","pattern":"X","legs":"F"},"bonus":0.06},{"rt":13952.699999988079,"stimulus":"bees-with-color/bee-A1DM.svg","response":0,"trial_type":"image-button-response","trial_index":149,"time_elapsed":1373051,"internal_node_id":"0.0-6.0-0.13","subject_id":"60f9e5fdb753010b9fff46e3","study_id":"60edd13110225f80f9f3709b","session_id":"6196c2e75567666ff6165521","condition":"full-information","relevant_dimensions":["antennae","legs"],"bee_group":{"antennae":"A","wings":"X","pattern":"X","legs":"F"},"bonus":0.06},{"rt":9243.600000023842,"stimulus":"bees-with-color/bee-B1DM.svg","response":1,"trial_type":"image-button-response","trial_index":150,"time_elapsed":1382302,"internal_node_id":"0.0-6.0-0.14","subject_id":"60f9e5fdb753010b9fff46e3","study_id":"60edd13110225f80f9f3709b","session_id":"6196c2e75567666ff6165521","condition":"full-information","relevant_dimensions":["antennae","legs"],"bee_group":{"antennae":"A","wings":"X","pattern":"X","legs":"F"},"bonus":0.06},{"rt":5668.799999952316,"stimulus":"bees-with-color/bee-A2DF.svg","response":0,"trial_type":"image-button-response","trial_index":151,"time_elapsed":1387975,"internal_node_id":"0.0-6.0-0.15","subject_id":"60f9e5fdb753010b9fff46e3","study_id":"60edd13110225f80f9f3709b","session_id":"6196c2e75567666ff6165521","condition":"full-information","relevant_dimensions":["antennae","legs"],"bee_group":{"antennae":"A","wings":"X","pattern":"X","legs":"F"},"bonus":0.06},{"rt":11774.099999964237,"stimulus":"bees-with-color/bee-B1SM.svg","response":0,"trial_type":"image-button-response","trial_index":152,"time_elapsed":1399753,"internal_node_id":"0.0-6.0-0.16","subject_id":"60f9e5fdb753010b9fff46e3","study_id":"60edd13110225f80f9f3709b","session_id":"6196c2e75567666ff6165521","condition":"full-information","relevant_dimensions":["antennae","legs"],"bee_group":{"antennae":"A","wings":"X","pattern":"X","legs":"F"},"bonus":0.06},{"rt":7410.400000035763,"stimulus":"bees-with-color/bee-A1DM.svg","response":0,"trial_type":"image-button-response","trial_index":153,"time_elapsed":1407167,"internal_node_id":"0.0-6.0-0.17","subject_id":"60f9e5fdb753010b9fff46e3","study_id":"60edd13110225f80f9f3709b","session_id":"6196c2e75567666ff6165521","condition":"full-information","relevant_dimensions":["antennae","legs"],"bee_group":{"antennae":"A","wings":"X","pattern":"X","legs":"F"},"bonus":0.06},{"rt":6666.5,"stimulus":"bees-with-color/bee-B1DF.svg","response":0,"trial_type":"image-button-response","trial_index":154,"time_elapsed":1413838,"internal_node_id":"0.0-6.0-0.18","subject_id":"60f9e5fdb753010b9fff46e3","study_id":"60edd13110225f80f9f3709b","session_id":"6196c2e75567666ff6165521","condition":"full-information","relevant_dimensions":["antennae","legs"],"bee_group":{"antennae":"A","wings":"X","pattern":"X","legs":"F"},"bonus":0.06},{"rt":10340.200000047684,"stimulus":"bees-with-color/bee-A1DF.svg","response":1,"trial_type":"image-button-response","trial_index":155,"time_elapsed":1424182,"internal_node_id":"0.0-6.0-0.19","subject_id":"60f9e5fdb753010b9fff46e3","study_id":"60edd13110225f80f9f3709b","session_id":"6196c2e75567666ff6165521","condition":"full-information","relevant_dimensions":["antennae","legs"],"bee_group":{"antennae":"A","wings":"X","pattern":"X","legs":"F"},"bonus":0.06},{"rt":7226.400000035763,"stimulus":"bees-with-color/bee-A2SM.svg","response":0,"trial_type":"image-button-response","trial_index":156,"time_elapsed":1431412,"internal_node_id":"0.0-6.0-0.20","subject_id":"60f9e5fdb753010b9fff46e3","study_id":"60edd13110225f80f9f3709b","session_id":"6196c2e75567666ff6165521","condition":"full-information","relevant_dimensions":["antennae","legs"],"bee_group":{"antennae":"A","wings":"X","pattern":"X","legs":"F"},"bonus":0.06},{"rt":11111.800000011921,"stimulus":"bees-with-color/bee-A2SF.svg","response":0,"trial_type":"image-button-response","trial_index":157,"time_elapsed":1442527,"internal_node_id":"0.0-6.0-0.21","subject_id":"60f9e5fdb753010b9fff46e3","study_id":"60edd13110225f80f9f3709b","session_id":"6196c2e75567666ff6165521","condition":"full-information","relevant_dimensions":["antennae","legs"],"bee_group":{"antennae":"A","wings":"X","pattern":"X","legs":"F"},"bonus":0.06},{"rt":14836.800000011921,"stimulus":"bees-with-color/bee-B2SM.svg","response":0,"trial_type":"image-button-response","trial_index":158,"time_elapsed":1457367,"internal_node_id":"0.0-6.0-0.22","subject_id":"60f9e5fdb753010b9fff46e3","study_id":"60edd13110225f80f9f3709b","session_id":"6196c2e75567666ff6165521","condition":"full-information","relevant_dimensions":["antennae","legs"],"bee_group":{"antennae":"A","wings":"X","pattern":"X","legs":"F"},"bonus":0.06},{"rt":12206.800000011921,"stimulus":"bees-with-color/bee-A2DM.svg","response":1,"trial_type":"image-button-response","trial_index":159,"time_elapsed":1469578,"internal_node_id":"0.0-6.0-0.23","subject_id":"60f9e5fdb753010b9fff46e3","study_id":"60edd13110225f80f9f3709b","session_id":"6196c2e75567666ff6165521","condition":"full-information","relevant_dimensions":["antennae","legs"],"bee_group":{"antennae":"A","wings":"X","pattern":"X","legs":"F"},"bonus":0.06},{"rt":19555,"stimulus":"bees-with-color/bee-A1SF.svg","response":1,"trial_type":"image-button-response","trial_index":160,"time_elapsed":1489136,"internal_node_id":"0.0-6.0-0.24","subject_id":"60f9e5fdb753010b9fff46e3","study_id":"60edd13110225f80f9f3709b","session_id":"6196c2e75567666ff6165521","condition":"full-information","relevant_dimensions":["antennae","legs"],"bee_group":{"antennae":"A","wings":"X","pattern":"X","legs":"F"},"bonus":0.06},{"rt":6542.599999964237,"stimulus":"bees-with-color/b