[{"success":true,"trial_type":"fullscreen","trial_index":0,"time_elapsed":3638,"internal_node_id":"0.0-0.0","subject_id":"5f1d476fe89111648aa22948","study_id":"60edd13110225f80f9f3709b","session_id":"6196c4a2ca45e5a3e80a9955","condition":"contingent","relevant_dimensions":["antennae","legs"],"bee_group":{"antennae":"B","wings":"X","pattern":"X","legs":"M"},"bonus":1.300000000000001},{"success":true,"timeout":false,"failed_images":[],"failed_audio":[],"failed_video":[],"trial_type":"preload","trial_index":1,"time_elapsed":5221,"internal_node_id":"0.0-1.0","subject_id":"5f1d476fe89111648aa22948","study_id":"60edd13110225f80f9f3709b","session_id":"6196c4a2ca45e5a3e80a9955","condition":"contingent","relevant_dimensions":["antennae","legs"],"bee_group":{"antennae":"B","wings":"X","pattern":"X","legs":"M"},"bonus":1.300000000000001},{"rt":4222.39999999851,"stimulus":"Welcome! Press any key to begin.","response":" ","trial_type":"html-keyboard-response","trial_index":2,"time_elapsed":9444,"internal_node_id":"0.0-2.0","subject_id":"5f1d476fe89111648aa22948","study_id":"60edd13110225f80f9f3709b","session_id":"6196c4a2ca45e5a3e80a9955","condition":"contingent","relevant_dimensions":["antennae","legs"],"bee_group":{"antennae":"B","wings":"X","pattern":"X","legs":"M"},"bonus":1.300000000000001},{"view_history":[{"page_index":0,"viewing_time":3427.599999997765},{"page_index":1,"viewing_time":8919.800000000745},{"page_index":2,"viewing_time":11024.10000000149},{"page_index":3,"viewing_time":12143.89999999851},{"page_index":4,"viewing_time":4736},{"page_index":5,"viewing_time":7431.900000002235},{"page_index":6,"viewing_time":6735.89999999851},{"page_index":7,"viewing_time":8696.300000000745},{"page_index":8,"viewing_time":3935.5},{"page_index":9,"viewing_time":4608.39999999851},{"page_index":10,"viewing_time":3271.900000002235},{"page_index":11,"viewing_time":7536.29999999702},{"page_index":12,"viewing_time":16663.60000000149},{"page_index":13,"viewing_time":1800.1000000014901},{"page_index":14,"viewing_time":2040}],"rt":102971.5,"trial_type":"instructions","trial_index":3,"time_elapsed":112417,"internal_node_id":"0.0-3.0-0.0","subject_id":"5f1d476fe89111648aa22948","study_id":"60edd13110225f80f9f3709b","session_id":"6196c4a2ca45e5a3e80a9955","condition":"contingent","relevant_dimensions":["antennae","legs"],"bee_group":{"antennae":"B","wings":"X","pattern":"X","legs":"M"},"bonus":1.300000000000001},{"rt":14461.800000000745,"response":{"Q0":["Two or six legs","Stripes or spots on body","Single or double wings","Antennae or no antennae"]},"question_order":[0],"trial_type":"survey-multi-select","trial_index":4,"time_elapsed":126881,"internal_node_id":"0.0-3.0-1.0","subject_id":"5f1d476fe89111648aa22948","study_id":"60edd13110225f80f9f3709b","session_id":"6196c4a2ca45e5a3e80a9955","condition":"contingent","relevant_dimensions":["antennae","legs"],"bee_group":{"antennae":"B","wings":"X","pattern":"X","legs":"M"},"correct":true,"bonus":1.300000000000001},{"rt":26686.39999999851,"response":{"Q1":"No.","Q2":"Based on the four features of the bee.","Q3":"You do not learn if it was friendly or dangerous, and do not alter your bonus."},"question_order":[0,1,2],"trial_type":"survey-multi-choice","trial_index":5,"time_elapsed":153569,"internal_node_id":"0.0-3.0-2.0","subject_id":"5f1d476fe89111648aa22948","study_id":"60edd13110225f80f9f3709b","session_id":"6196c4a2ca45e5a3e80a9955","condition":"contingent","relevant_dimensions":["antennae","legs"],"bee_group":{"antennae":"B","wings":"X","pattern":"X","legs":"M"},"correct":true,"bonus":1.300000000000001},{"rt":3918.800000000745,"stimulus":"<p>Congrats, you got everything right<br>When you're ready, click the button below to continue to the experiment.</p>","response":0,"trial_type":"html-button-response","trial_index":6,"time_elapsed":157489,"internal_node_id":"0.0-3.0-3.0","subject_id":"5f1d476fe89111648aa22948","study_id":"60edd13110225f80f9f3709b","session_id":"6196c4a2ca45e5a3e80a9955","condition":"contingent","relevant_dimensions":["antennae","legs"],"bee_group":{"antennae":"B","wings":"X","pattern":"X","legs":"M"},"bonus":1.300000000000001},{"rt":8598.39999999851,"stimulus":"bees-with-color/bee-B2DF.svg","response":0,"trial_type":"image-button-response","trial_index":7,"time_elapsed":166089,"internal_node_id":"0.0-4.0-0.0","subject_id":"5f1d476fe89111648aa22948","study_id":"60edd13110225f80f9f3709b","session_id":"6196c4a2ca45e5a3e80a9955","condition":"contingent","relevant_dimensions":["antennae","legs"],"bee_group":{"antennae":"B","wings":"X","pattern":"X","legs":"M"},"action":"harvest","summary":"good-harvest","bonus":1.300000000000001},{"rt":16797.800000000745,"stimulus":"\n                    <p><b>Action: <em>harvest</em></b></p>\n                    <p>This is the bee that you just saw.</p>\n                    <img src=\"bees-with-color/bee-B2DF.svg\" width=\"200\">\n                    <p><span class=\"greenText\"><b>Successful harvest!</b></span><br>Your pay has increased by $0.02. Your bonus pay is now $0.56.</p>\n            ","response":0,"trial_type":"html-button-response","trial_index":8,"time_elapsed":182888,"internal_node_id":"0.0-4.0-1.0","subject_id":"5f1d476fe89111648aa22948","study_id":"60edd13110225f80f9f3709b","session_id":"6196c4a2ca45e5a3e80a9955","condition":"contingent","relevant_dimensions":["antennae","legs"],"bee_group":{"antennae":"B","wings":"X","pattern":"X","legs":"M"},"bonus":1.300000000000001},{"rt":9542.89999999851,"stimulus":"bees-with-color/bee-B2SF.svg","response":0,"trial_type":"image-button-response","trial_index":9,"time_elapsed":192432,"internal_node_id":"0.0-4.0-0.1","subject_id":"5f1d476fe89111648aa22948","study_id":"60edd13110225f80f9f3709b","session_id":"6196c4a2ca45e5a3e80a9955","condition":"contingent","relevant_dimensions":["antennae","legs"],"bee_group":{"antennae":"B","wings":"X","pattern":"X","legs":"M"},"action":"harvest","summary":"good-harvest","bonus":1.300000000000001},{"rt":9727,"stimulus":"\n                    <p><b>Action: <em>harvest</em></b></p>\n                    <p>This is the bee that you just saw.</p>\n                    <img src=\"bees-with-color/bee-B2SF.svg\" width=\"200\">\n                    <p><span class=\"greenText\"><b>Successful harvest!</b></span><br>Your pay has increased by $0.02. Your bonus pay is now $0.58.</p>\n            ","response":0,"trial_type":"html-button-response","trial_index":10,"time_elapsed":202161,"internal_node_id":"0.0-4.0-1.1","subject_id":"5f1d476fe89111648aa22948","study_id":"60edd13110225f80f9f3709b","session_id":"6196c4a2ca45e5a3e80a9955","condition":"contingent","relevant_dimensions":["antennae","legs"],"bee_group":{"antennae":"B","wings":"X","pattern":"X","legs":"M"},"bonus":1.300000000000001},{"rt":3950.60000000149,"stimulus":"bees-with-color/bee-A2DM.svg","response":1,"trial_type":"image-button-response","trial_index":11,"time_elapsed":206113,"internal_node_id":"0.0-4.0-0.2","subject_id":"5f1d476fe89111648aa22948","study_id":"60edd13110225f80f9f3709b","session_id":"6196c4a2ca45e5a3e80a9955","condition":"contingent","relevant_dimensions":["antennae","legs"],"bee_group":{"antennae":"B","wings":"X","pattern":"X","legs":"M"},"action":"avoid","summary":"bad-avoid","bonus":1.300000000000001},{"rt":7735.199999999255,"stimulus":"\n                    <p><b>Action: <em>avoid</em></b></p>\n                    <p>This is the bee that you just saw.</p>\n                    <img src=\"bees-with-color/bee-A2DM.svg\" width=\"200\">\n                    <p><br>Your bonus pay is unchanged, and remains at $0.58.</p>\n            ","response":0,"trial_type":"html-button-response","trial_index":12,"time_elapsed":213848,"internal_node_id":"0.0-4.0-1.2","subject_id":"5f1d476fe89111648aa22948","study_id":"60edd13110225f80f9f3709b","session_id":"6196c4a2ca45e5a3e80a9955","condition":"contingent","relevant_dimensions":["antennae","legs"],"bee_group":{"antennae":"B","wings":"X","pattern":"X","legs":"M"},"bonus":1.300000000000001},{"rt":6414.699999999255,"stimulus":"bees-with-color/bee-A2DF.svg","response":0,"trial_type":"image-button-response","trial_index":13,"time_elapsed":220264,"internal_node_id":"0.0-4.0-0.3","subject_id":"5f1d476fe89111648aa22948","study_id":"60edd13110225f80f9f3709b","session_id":"6196c4a2ca45e5a3e80a9955","condition":"contingent","relevant_dimensions":["antennae","legs"],"bee_group":{"antennae":"B","wings":"X","pattern":"X","legs":"M"},"action":"harvest","summary":"good-harvest","bonus":1.300000000000001},{"rt":6895.300000000745,"stimulus":"\n                    <p><b>Action: <em>harvest</em></b></p>\n                    <p>This is the bee that you just saw.</p>\n                    <img src=\"bees-with-color/bee-A2DF.svg\" width=\"200\">\n                    <p><span class=\"greenText\"><b>Successful harvest!</b></span><br>Your pay has increased by $0.02. Your bonus pay is now $0.60.</p>\n            ","response":0,"trial_type":"html-button-response","trial_index":14,"time_elapsed":227161,"internal_node_id":"0.0-4.0-1.3","subject_id":"5f1d476fe89111648aa22948","study_id":"60edd13110225f80f9f3709b","session_id":"6196c4a2ca45e5a3e80a9955","condition":"contingent","relevant_dimensions":["antennae","legs"],"bee_group":{"antennae":"B","wings":"X","pattern":"X","legs":"M"},"bonus":1.300000000000001},{"rt":6559,"stimulus":"bees-with-color/bee-B1SF.svg","response":0,"trial_type":"image-button-response","trial_index":15,"time_elapsed":233721,"internal_node_id":"0.0-4.0-0.4","subject_id":"5f1d476fe89111648aa22948","study_id":"60edd13110225f80f9f3709b","session_id":"6196c4a2ca45e5a3e80a9955","condition":"contingent","relevant_dimensions":["antennae","legs"],"bee_group":{"antennae":"B","wings":"X","pattern":"X","legs":"M"},"action":"harvest","summary":"good-harvest","bonus":1.300000000000001},{"rt":2855.300000000745,"stimulus":"\n                    <p><b>Action: <em>harvest</em></b></p>\n                    <p>This is the bee that you just saw.</p>\n                    <img src=\"bees-with-color/bee-B1SF.svg\" width=\"200\">\n                    <p><span class=\"greenText\"><b>Successful harvest!</b></span><br>Your pay has increased by $0.02. Your bonus pay is now $0.62.</p>\n            ","response":0,"trial_type":"html-button-response","trial_index":16,"time_elapsed":236577,"internal_node_id":"0.0-4.0-1.4","subject_id":"5f1d476fe89111648aa22948","study_id":"60edd13110225f80f9f3709b","session_id":"6196c4a2ca45e5a3e80a9955","condition":"contingent","relevant_dimensions":["antennae","legs"],"bee_group":{"antennae":"B","wings":"X","pattern":"X","legs":"M"},"bonus":1.300000000000001},{"rt":8534.89999999851,"stimulus":"bees-with-color/bee-A1DF.svg","response":0,"trial_type":"image-button-response","trial_index":17,"time_elapsed":245113,"internal_node_id":"0.0-4.0-0.5","subject_id":"5f1d476fe89111648aa22948","study_id":"60edd13110225f80f9f3709b","session_id":"6196c4a2ca45e5a3e80a9955","condition":"contingent","relevant_dimensions":["antennae","legs"],"bee_group":{"antennae":"B","wings":"X","pattern":"X","legs":"M"},"action":"harvest","summary":"good-harvest","bonus":1.300000000000001},{"rt":2479.300000000745,"stimulus":"\n                    <p><b>Action: <em>harvest</em></b></p>\n                    <p>This is the bee that you just saw.</p>\n                    <img src=\"bees-with-color/bee-A1DF.svg\" width=\"200\">\n                    <p><span class=\"greenText\"><b>Successful harvest!</b></span><br>Your pay has increased by $0.02. Your bonus pay is now $0.64.</p>\n            ","response":0,"trial_type":"html-button-response","trial_index":18,"time_elapsed":247593,"internal_node_id":"0.0-4.0-1.5","subject_id":"5f1d476fe89111648aa22948","study_id":"60edd13110225f80f9f3709b","session_id":"6196c4a2ca45e5a3e80a9955","condition":"contingent","relevant_dimensions":["antennae","legs"],"bee_group":{"antennae":"B","wings":"X","pattern":"X","legs":"M"},"bonus":1.300000000000001},{"rt":8702.699999999255,"stimulus":"bees-with-color/bee-B2SM.svg","response":0,"trial_type":"image-button-response","trial_index":19,"time_elapsed":256297,"internal_node_id":"0.0-4.0-0.6","subject_id":"5f1d476fe89111648aa22948","study_id":"60edd13110225f80f9f3709b","session_id":"6196c4a2ca45e5a3e80a9955","condition":"contingent","relevant_dimensions":["antennae","legs"],"bee_group":{"antennae":"B","wings":"X","pattern":"X","legs":"M"},"action":"harvest","summary":"bad-harvest","bonus":1.300000000000001},{"rt":5943.199999999255,"stimulus":"\n                    <p><b>Action: <em>harvest</em></b></p>\n                    <p>This is the bee that you just saw.</p>\n                    <img src=\"bees-with-color/bee-B2SM.svg\" width=\"200\">\n                    <p><span class=\"redText\">Bad choice, the bee was angry.</span><br><b>You have been stung!</b><br>Your pay has been decreased by $0.10. Your bonus pay is now $0.54.</p>\n            ","response":0,"trial_type":"html-button-response","trial_index":20,"time_elapsed":262241,"internal_node_id":"0.0-4.0-1.6","subject_id":"5f1d476fe89111648aa22948","study_id":"60edd13110225f80f9f3709b","session_id":"6196c4a2ca45e5a3e80a9955","condition":"contingent","relevant_dimensions":["antennae","legs"],"bee_group":{"antennae":"B","wings":"X","pattern":"X","legs":"M"},"bonus":1.300000000000001},{"rt":5174.89999999851,"stimulus":"bees-with-color/bee-B2DM.svg","response":1,"trial_type":"image-button-response","trial_index":21,"time_elapsed":267417,"internal_node_id":"0.0-4.0-0.7","subject_id":"5f1d476fe89111648aa22948","study_id":"60edd13110225f80f9f3709b","session_id":"6196c4a2ca45e5a3e80a9955","condition":"contingent","relevant_dimensions":["antennae","legs"],"bee_group":{"antennae":"B","wings":"X","pattern":"X","legs":"M"},"action":"avoid","summary":"good-avoid","bonus":1.300000000000001},{"rt":2047.1000000014901,"stimulus":"\n                    <p><b>Action: <em>avoid</em></b></p>\n                    <p>This is the bee that you just saw.</p>\n                    <img src=\"bees-with-color/bee-B2DM.svg\" width=\"200\">\n                    <p><br>Your bonus pay is unchanged, and remains at $0.54.</p>\n            ","response":0,"trial_type":"html-button-response","trial_index":22,"time_elapsed":269465,"internal_node_id":"0.0-4.0-1.7","subject_id":"5f1d476fe89111648aa22948","study_id":"60edd13110225f80f9f3709b","session_id":"6196c4a2ca45e5a3e80a9955","condition":"contingent","relevant_dimensions":["antennae","legs"],"bee_group":{"antennae":"B","wings":"X","pattern":"X","legs":"M"},"bonus":1.300000000000001},{"rt":3742.699999999255,"stimulus":"bees-with-color/bee-B1DF.svg","response":0,"trial_type":"image-button-response","trial_index":23,"time_elapsed":273209,"internal_node_id":"0.0-4.0-0.8","subject_id":"5f1d476fe89111648aa22948","study_id":"60edd13110225f80f9f3709b","session_id":"6196c4a2ca45e5a3e80a9955","condition":"contingent","relevant_dimensions":["antennae","legs"],"bee_group":{"antennae":"B","wings":"X","pattern":"X","legs":"M"},"action":"harvest","summary":"good-harvest","bonus":1.300000000000001},{"rt":2119.199999999255,"stimulus":"\n                    <p><b>Action: <em>harvest</em></b></p>\n                    <p>This is the bee that you just saw.</p>\n                    <img src=\"bees-with-color/bee-B1DF.svg\" width=\"200\">\n                    <p><span class=\"greenText\"><b>Successful harvest!</b></span><br>Your pay has increased by $0.02. Your bonus pay is now $0.56.</p>\n            ","response":0,"trial_type":"html-button-response","trial_index":24,"time_elapsed":275329,"internal_node_id":"0.0-4.0-1.8","subject_id":"5f1d476fe89111648aa22948","study_id":"60edd13110225f80f9f3709b","session_id":"6196c4a2ca45e5a3e80a9955","condition":"contingent","relevant_dimensions":["antennae","legs"],"bee_group":{"antennae":"B","wings":"X","pattern":"X","legs":"M"},"bonus":1.300000000000001},{"rt":6319,"stimulus":"bees-with-color/bee-A1DM.svg","response":1,"trial_type":"image-button-response","trial_index":25,"time_elapsed":281649,"internal_node_id":"0.0-4.0-0.9","subject_id":"5f1d476fe89111648aa22948","study_id":"60edd13110225f80f9f3709b","session_id":"6196c4a2ca45e5a3e80a9955","condition":"contingent","relevant_dimensions":["antennae","legs"],"bee_group":{"antennae":"B","wings":"X","pattern":"X","legs":"M"},"action":"avoid","summary":"bad-avoid","bonus":1.300000000000001},{"rt":3463.300000000745,"stimulus":"\n                    <p><b>Action: <em>avoid</em></b></p>\n                    <p>This is the bee that you just saw.</p>\n                    <img src=\"bees-with-color/bee-A1DM.svg\" width=\"200\">\n                    <p><br>Your bonus pay is unchanged, and remains at $0.56.</p>\n            ","response":0,"trial_type":"html-button-response","trial_index":26,"time_elapsed":285112,"internal_node_id":"0.0-4.0-1.9","subject_id":"5f1d476fe89111648aa22948","study_id":"60edd13110225f80f9f3709b","session_id":"6196c4a2ca45e5a3e80a9955","condition":"contingent","relevant_dimensions":["antennae","legs"],"bee_group":{"antennae":"B","wings":"X","pattern":"X","legs":"M"},"bonus":1.300000000000001},{"rt":6911.199999999255,"stimulus":"bees-with-color/bee-A2SM.svg","response":1,"trial_type":"image-button-response","trial_index":27,"time_elapsed":292024,"internal_node_id":"0.0-4.0-0.10","subject_id":"5f1d476fe89111648aa22948","study_id":"60edd13110225f80f9f3709b","session_id":"6196c4a2ca45e5a3e80a9955","condition":"contingent","relevant_dimensions":["antennae","legs"],"bee_group":{"antennae":"B","wings":"X","pattern":"X","legs":"M"},"action":"avoid","summary":"bad-avoid","bonus":1.300000000000001},{"rt":2047.1000000014901,"stimulus":"\n                    <p><b>Action: <em>avoid</em></b></p>\n                    <p>This is the bee that you just saw.</p>\n                    <img src=\"bees-with-color/bee-A2SM.svg\" width=\"200\">\n                    <p><br>Your bonus pay is unchanged, and remains at $0.56.</p>\n            ","response":0,"trial_type":"html-button-response","trial_index":28,"time_elapsed":294072,"internal_node_id":"0.0-4.0-1.10","subject_id":"5f1d476fe89111648aa22948","study_id":"60edd13110225f80f9f3709b","session_id":"6196c4a2ca45e5a3e80a9955","condition":"contingent","relevant_dimensions":["antennae","legs"],"bee_group":{"antennae":"B","wings":"X","pattern":"X","legs":"M"},"bonus":1.300000000000001},{"rt":2927,"stimulus":"bees-with-color/bee-A2SF.svg","response":0,"trial_type":"image-button-response","trial_index":29,"time_elapsed":297000,"internal_node_id":"0.0-4.0-0.11","subject_id":"5f1d476fe89111648aa22948","study_id":"60edd13110225f80f9f3709b","session_id":"6196c4a2ca45e5a3e80a9955","condition":"contingent","relevant_dimensions":["antennae","legs"],"bee_group":{"antennae":"B","wings":"X","pattern":"X","legs":"M"},"action":"harvest","summary":"good-harvest","bonus":1.300000000000001},{"rt":1991.300000000745,"stimulus":"\n                    <p><b>Action: <em>harvest</em></b></p>\n                    <p>This is the bee that you just saw.</p>\n                    <img src=\"bees-with-color/bee-A2SF.svg\" width=\"200\">\n                    <p><span class=\"greenText\"><b>Successful harvest!</b></span><br>Your pay has increased by $0.02. Your bonus pay is now $0.58.</p>\n            ","response":0,"trial_type":"html-button-response","trial_index":30,"time_elapsed":298992,"internal_node_id":"0.0-4.0-1.11","subject_id":"5f1d476fe89111648aa22948","study_id":"60edd13110225f80f9f3709b","session_id":"6196c4a2ca45e5a3e80a9955","condition":"contingent","relevant_dimensions":["antennae","legs"],"bee_group":{"antennae":"B","wings":"X","pattern":"X","legs":"M"},"bonus":1.300000000000001},{"rt":7351,"stimulus":"bees-with-color/bee-B1SM.svg","response":0,"trial_type":"image-button-response","trial_index":31,"time_elapsed":306344,"internal_node_id":"0.0-4.0-0.12","subject_id":"5f1d476fe89111648aa22948","study_id":"60edd13110225f80f9f3709b","session_id":"6196c4a2ca45e5a3e80a9955","condition":"contingent","relevant_dimensions":["antennae","legs"],"bee_group":{"antennae":"B","wings":"X","pattern":"X","legs":"M"},"action":"harvest","summary":"bad-harvest","bonus":1.300000000000001},{"rt":1615.0999999977648,"stimulus":"\n                    <p><b>Action: <em>harvest</em></b></p>\n                    <p>This is the bee that you just saw.</p>\n                    <img src=\"bees-with-color/bee-B1SM.svg\" width=\"200\">\n                    <p><span class=\"redText\">Bad choice, the bee was angry.</span><br><b>You have been stung!</b><br>Your pay has been decreased by $0.10. Your bonus pay is now $0.48.</p>\n            ","response":0,"trial_type":"html-button-response","trial_index":32,"time_elapsed":307960,"internal_node_id":"0.0-4.0-1.12","subject_id":"5f1d476fe89111648aa22948","study_id":"60edd13110225f80f9f3709b","session_id":"6196c4a2ca45e5a3e80a9955","condition":"contingent","relevant_dimensions":["antennae","legs"],"bee_group":{"antennae":"B","wings":"X","pattern":"X","legs":"M"},"bonus":1.300000000000001},{"rt":3318.900000002235,"stimulus":"bees-with-color/bee-A1SM.svg","response":1,"trial_type":"image-button-response","trial_index":33,"time_elapsed":311280,"internal_node_id":"0.0-4.0-0.13","subject_id":"5f1d476fe89111648aa22948","study_id":"60edd13110225f80f9f3709b","session_id":"6196c4a2ca45e5a3e80a9955","condition":"contingent","relevant_dimensions":["antennae","legs"],"bee_group":{"antennae":"B","wings":"X","pattern":"X","legs":"M"},"action":"avoid","summary":"bad-avoid","bonus":1.300000000000001},{"rt":1943.300000000745,"stimulus":"\n                    <p><b>Action: <em>avoid</em></b></p>\n                    <p>This is the bee that you just saw.</p>\n                    <img src=\"bees-with-color/bee-A1SM.svg\" width=\"200\">\n                    <p><br>Your bonus pay is unchanged, and remains at $0.48.</p>\n            ","response":0,"trial_type":"html-button-response","trial_index":34,"time_elapsed":313224,"internal_node_id":"0.0-4.0-1.13","subject_id":"5f1d476fe89111648aa22948","study_id":"60edd13110225f80f9f3709b","session_id":"6196c4a2ca45e5a3e80a9955","condition":"contingent","relevant_dimensions":["antennae","legs"],"bee_group":{"antennae":"B","wings":"X","pattern":"X","legs":"M"},"bonus":1.300000000000001},{"rt":2167.10000000149,"stimulus":"bees-with-color/bee-A1SF.svg","response":0,"trial_type":"image-button-response","trial_index":35,"time_elapsed":315392,"internal_node_id":"0.0-4.0-0.14","subject_id":"5f1d476fe89111648aa22948","study_id":"60edd13110225f80f9f3709b","session_id":"6196c4a2ca45e5a3e80a9955","condition":"contingent","relevant_dimensions":["antennae","legs"],"bee_group":{"antennae":"B","wings":"X","pattern":"X","legs":"M"},"action":"harvest","summary":"good-harvest","bonus":1.300000000000001},{"rt":2543.300000000745,"stimulus":"\n                    <p><b>Action: <em>harvest</em></b></p>\n                    <p>This is the bee that you just saw.</p>\n                    <img src=\"bees-with-color/bee-A1SF.svg\" width=\"200\">\n                    <p><span class=\"greenText\"><b>Successful harvest!</b></span><br>Your pay has increased by $0.02. Your bonus pay is now $0.50.</p>\n            ","response":0,"trial_type":"html-button-response","trial_index":36,"time_elapsed":317936,"internal_node_id":"0.0-4.0-1.14","subject_id":"5f1d476fe89111648aa22948","study_id":"60edd13110225f80f9f3709b","session_id":"6196c4a2ca45e5a3e80a9955","condition":"contingent","relevant_dimensions":["antennae","legs"],"bee_group":{"antennae":"B","wings":"X","pattern":"X","legs":"M"},"bonus":1.300000000000001},{"rt":2143.10000000149,"stimulus":"bees-with-color/bee-B1DM.svg","response":1,"trial_type":"image-button-response","trial_index":37,"time_elapsed":320080,"internal_node_id":"0.0-4.0-0.15","subject_id":"5f1d476fe89111648aa22948","study_id":"60edd13110225f80f9f3709b","session_id":"6196c4a2ca45e5a3e80a9955","condition":"contingent","relevant_dimensions":["antennae","legs"],"bee_group":{"antennae":"B","wings":"X","pattern":"X","legs":"M"},"action":"avoid","summary":"good-avoid","bonus":1.300000000000001},{"rt":2855.199999999255,"stimulus":"\n                    <p><b>Action: <em>avoid</em></b></p>\n                    <p>This is the bee that you just saw.</p>\n                    <img src=\"bees-with-color/bee-B1DM.svg\" width=\"200\">\n                    <p><br>Your bonus pay is unchanged, and remains at $0.50.</p>\n            ","response":0,"trial_type":"html-button-response","trial_index":38,"time_elapsed":322936,"internal_node_id":"0.0-4.0-1.15","subject_id":"5f1d476fe89111648aa22948","study_id":"60edd13110225f80f9f3709b","session_id":"6196c4a2ca45e5a3e80a9955","condition":"contingent","relevant_dimensions":["antennae","legs"],"bee_group":{"antennae":"B","wings":"X","pattern":"X","legs":"M"},"bonus":1.300000000000001},{"rt":2071,"stimulus":"bees-with-color/bee-B1DF.svg","response":0,"trial_type":"image-button-response","trial_index":39,"time_elapsed":325008,"internal_node_id":"0.0-4.0-0.16","subject_id":"5f1d476fe89111648aa22948","study_id":"60edd13110225f80f9f3709b","session_id":"6196c4a2ca45e5a3e80a9955","condition":"contingent","relevant_dimensions":["antennae","legs"],"bee_group":{"antennae":"B","wings":"X","pattern":"X","legs":"M"},"action":"harvest","summary":"good-harvest","bonus":1.300000000000001},{"rt":1719.300000000745,"stimulus":"\n                    <p><b>Action: <em>harvest</em></b></p>\n                    <p>This is the bee that you just saw.</p>\n                    <img src=\"bees-with-color/bee-B1DF.svg\" width=\"200\">\n                    <p><span class=\"greenText\"><b>Successful harvest!</b></span><br>Your pay has increased by $0.02. Your bonus pay is now $0.52.</p>\n            ","response":0,"trial_type":"html-button-response","trial_index":40,"time_elapsed":326728,"internal_node_id":"0.0-4.0-1.16","subject_id":"5f1d476fe89111648aa22948","study_id":"60edd13110225f80f9f3709b","session_id":"6196c4a2ca45e5a3e80a9955","condition":"contingent","relevant_dimensions":["antennae","legs"],"bee_group":{"antennae":"B","wings":"X","pattern":"X","legs":"M"},"bonus":1.300000000000001},{"rt":3014.800000000745,"stimulus":"bees-with-color/bee-B1SM.svg","response":1,"trial_type":"image-button-response","trial_index":41,"time_elapsed":329744,"internal_node_id":"0.0-4.0-0.17","subject_id":"5f1d476fe89111648aa22948","study_id":"60edd13110225f80f9f3709b","session_id":"6196c4a2ca45e5a3e80a9955","condition":"contingent","relevant_dimensions":["antennae","legs"],"bee_group":{"antennae":"B","wings":"X","pattern":"X","legs":"M"},"action":"avoid","summary":"good-avoid","bonus":1.300000000000001},{"rt":2247.5,"stimulus":"\n                    <p><b>Action: <em>avoid</em></b></p>\n                    <p>This is the bee that you just saw.</p>\n                    <img src=\"bees-with-color/bee-B1SM.svg\" width=\"200\">\n                    <p><br>Your bonus pay is unchanged, and remains at $0.52.</p>\n            ","response":0,"trial_type":"html-button-response","trial_index":42,"time_elapsed":331992,"internal_node_id":"0.0-4.0-1.17","subject_id":"5f1d476fe89111648aa22948","study_id":"60edd13110225f80f9f3709b","session_id":"6196c4a2ca45e5a3e80a9955","condition":"contingent","relevant_dimensions":["antennae","legs"],"bee_group":{"antennae":"B","wings":"X","pattern":"X","legs":"M"},"bonus":1.300000000000001},{"rt":1751.300000000745,"stimulus":"bees-with-color/bee-B2DM.svg","response":1,"trial_type":"image-button-response","trial_index":43,"time_elapsed":333744,"internal_node_id":"0.0-4.0-0.18","subject_id":"5f1d476fe89111648aa22948","study_id":"60edd13110225f80f9f3709b","session_id":"6196c4a2ca45e5a3e80a9955","condition":"contingent","relevant_dimensions":["antennae","legs"],"bee_group":{"antennae":"B","wings":"X","pattern":"X","legs":"M"},"action":"avoid","summary":"good-avoid","bonus":1.300000000000001},{"rt":1959.199999999255,"stimulus":"\n                    <p><b>Action: <em>avoid</em></b></p>\n                    <p>This is the bee that you just saw.</p>\n                    <img src=\"bees-with-color/bee-B2DM.svg\" width=\"200\">\n                    <p><br>Your bonus pay is unchanged, and remains at $0.52.</p>\n            ","response":0,"trial_type":"html-button-response","trial_index":44,"time_elapsed":335704,"internal_node_id":"0.0-4.0-1.18","subject_id":"5f1d476fe89111648aa22948","study_id":"60edd13110225f80f9f3709b","session_id":"6196c4a2ca45e5a3e80a9955","condition":"contingent","relevant_dimensions":["antennae","legs"],"bee_group":{"antennae":"B","wings":"X","pattern":"X","legs":"M"},"bonus":1.300000000000001},{"rt":1847.0999999977648,"stimulus":"bees-with-color/bee-B2SF.svg","response":0,"trial_type":"image-button-response","trial_index":45,"time_elapsed":337552,"internal_node_id":"0.0-4.0-0.19","subject_id":"5f1d476fe89111648aa22948","study_id":"60edd13110225f80f9f3709b","session_id":"6196c4a2ca45e5a3e80a9955","condition":"contingent","relevant_dimensions":["antennae","legs"],"bee_group":{"antennae":"B","wings":"X","pattern":"X","legs":"M"},"action":"harvest","summary":"good-harvest","bonus":1.300000000000001},{"rt":1583.199999999255,"stimulus":"\n                    <p><b>Action: <em>harvest</em></b></p>\n                    <p>This is the bee that you just saw.</p>\n                    <img src=\"bees-with-color/bee-B2SF.svg\" width=\"200\">\n                    <p><span class=\"greenText\"><b>Successful harvest!</b></span><br>Your pay has increased by $0.02. Your bonus pay is now $0.54.</p>\n            ","response":0,"trial_type":"html-button-response","trial_index":46,"time_elapsed":339136,"internal_node_id":"0.0-4.0-1.19","subject_id":"5f1d476fe89111648aa22948","study_id":"60edd13110225f80f9f3709b","session_id":"6196c4a2ca45e5a3e80a9955","condition":"contingent","relevant_dimensions":["antennae","legs"],"bee_group":{"antennae":"B","wings":"X","pattern":"X","legs":"M"},"bonus":1.300000000000001},{"rt":1919.1000000014901,"stimulus":"bees-with-color/bee-A1DM.svg","response":1,"trial_type":"image-button-response","trial_index":47,"time_elapsed":341056,"internal_node_id":"0.0-4.0-0.20","subject_id":"5f1d476fe89111648aa22948","study_id":"60edd13110225f80f9f3709b","session_id":"6196c4a2ca45e5a3e80a9955","condition":"contingent","relevant_dimensions":["antennae","legs"],"bee_group":{"antennae":"B","wings":"X","pattern":"X","legs":"M"},"action":"avoid","summary":"bad-avoid","bonus":1.300000000000001},{"rt":1911.0999999977648,"stimulus":"\n                    <p><b>Action: <em>avoid</em></b></p>\n                    <p>This is the bee that you just saw.</p>\n                    <img src=\"bees-with-color/bee-A1DM.svg\" width=\"200\">\n                    <p><br>Your bonus pay is unchanged, and remains at $0.54.</p>\n            ","response":0,"trial_type":"html-button-response","trial_index":48,"time_elapsed":342968,"internal_node_id":"0.0-4.0-1.20","subject_id":"5f1d476fe89111648aa22948","study_id":"60edd13110225f80f9f3709b","session_id":"6196c4a2ca45e5a3e80a9955","condition":"contingent","relevant_dimensions":["antennae","legs"],"bee_group":{"antennae":"B","wings":"X","pattern":"X","legs":"M"},"bonus":1.300000000000001},{"rt":2135,"stimulus":"bees-with-color/bee-B2DF.svg","response":0,"trial_type":"image-button-response","trial_index":49,"time_elapsed":345104,"internal_node_id":"0.0-4.0-0.21","subject_id":"5f1d476fe89111648aa22948","study_id":"60edd13110225f80f9f3709b","session_id":"6196c4a2ca45e5a3e80a9955","condition":"contingent","relevant_dimensions":["antennae","legs"],"bee_group":{"antennae":"B","wings":"X","pattern":"X","legs":"M"},"action":"harvest","summary":"good-harvest","bonus":1.300000000000001},{"rt":1567.300000000745,"stimulus":"\n                    <p><b>Action: <em>harvest</em></b></p>\n                    <p>This is the bee that you just saw.</p>\n                    <img src=\"bees-with-color/bee-B2DF.svg\" width=\"200\">\n                    <p><span class=\"greenText\"><b>Successful harvest!</b></span><br>Your pay has increased by $0.02. Your bonus pay is now $0.56.</p>\n            ","response":0,"trial_type":"html-button-response","trial_index":50,"time_elapsed":346672,"internal_node_id":"0.0-4.0-1.21","subject_id":"5f1d476fe89111648aa22948","study_id":"60edd13110225f80f9f3709b","session_id":"6196c4a2ca45e5a3e80a9955","condition":"contingent","relevant_dimensions":["antennae","legs"],"bee_group":{"antennae":"B","wings":"X","pattern":"X","legs":"M"},"bonus":1.300000000000001},{"rt":1903.1000000014901,"stimulus":"bees-with-color/bee-A2DM.svg","response":1,"trial_type":"image-button-response","trial_index":51,"time_elapsed":348576,"internal_node_id":"0.0-4.0-0.22","subject_id":"5f1d476fe89111648aa22948","study_id":"60edd13110225f80f9f3709b","session_id":"6196c4a2ca45e5a3e80a9955","condition":"contingent","relevant_dimensions":["antennae","legs"],"bee_group":{"antennae":"B","wings":"X","pattern":"X","legs":"M"},"action":"avoid","summary":"bad-avoid","bonus":1.300000000000001},{"rt":2343.10000000149,"stimulus":"\n                    <p><b>Action: <em>avoid</em></b></p>\n                    <p>This is the bee that you just saw.</p>\n                    <img src=\"bees-with-color/bee-A2DM.svg\" width=\"200\">\n                    <p><br>Your bonus pay is unchanged, and remains at $0.56.</p>\n            ","response":0,"trial_type":"html-button-response","trial_index":52,"time_elapsed":350920,"internal_node_id":"0.0-4.0-1.22","subject_id":"5f1d476fe89111648aa22948","study_id":"60edd13110225f80f9f3709b","session_id":"6196c4a2ca45e5a3e80a9955","condition":"contingent","relevant_dimensions":["antennae","legs"],"bee_group":{"antennae":"B","wings":"X","pattern":"X","legs":"M"},"bonus":1.300000000000001},{"rt":1503.300000000745,"stimulus":"bees-with-color/bee-B1SF.svg","response":0,"trial_type":"image-button-response","trial_index":53,"time_elapsed":352424,"internal_node_id":"0.0-4.0-0.23","subject_id":"5f1d476fe89111648aa22948","study_id":"60edd13110225f80f9f3709b","session_id":"6196c4a2ca45e5a3e80a9955","condition":"contingent","relevant_dimensions":["antennae","legs"],"bee_group":{"antennae":"B","wings":"X","pattern":"X","legs":"M"},"action":"harvest","summary":"good-harvest","bonus":1.300000000000001},{"rt":2183.300000000745,"stimulus":"\n                    <p><b>Action: <em>harvest</em></b></p>\n                    <p>This is the bee that you just saw.</p>\n                    <img src=\"bees-with-color/bee-B1SF.svg\" width=\"200\">\n                    <p><span class=\"greenText\"><b>Successful harvest!</b></span><br>Your pay has increased by $0.02. Your bonus pay is now $0.58.</p>\n            ","response":0,"trial_type":"html-button-response","trial_index":54,"time_elapsed":354608,"internal_node_id":"0.0-4.0-1.23","subject_id":"5f1d476fe89111648aa22948","study_id":"60edd13110225f80f9f3709b","session_id":"6196c4a2ca45e5a3e80a9955","condition":"contingent","relevant_dimensions":["antennae","legs"],"bee_group":{"antennae":"B","wings":"X","pattern":"X","legs":"M"},"bonus":1.300000000000001},{"rt":1431.0999999977648,"stimulus":"bees-with-color/bee-A1SM.svg","response":1,"trial_type":"image-button-response","trial_index":55,"time_elapsed":356040,"internal_node_id":"0.0-4.0-0.24","subject_id":"5f1d476fe89111648aa22948","study_id":"60edd13110225f80f9f3709b","session_id":"6196c4a2ca45e5a3e80a9955","condition":"contingent","relevant_dimensions":["antennae","legs"],"bee_group":{"antennae":"B","wings":"X","pattern":"X","legs":"M"},"action":"avoid","summary":"bad-avoid","bonus":1.300000000000001},{"rt":1895.199999999255,"stimulus":"\n                    <p><b>Action: <em>avoid</em></b></p>\n                    <p>This is the bee that you just saw.</p>\n                    <img src=\"bees-with-color/bee-A1SM.svg\" width=\"200\">\n                    <p><br>Your bonus pay is unchanged, and remains at $0.58.</p>\n            ","response":0,"trial_type":"html-button-response","trial_index":56,"time_elapsed":357936,"internal_node_id":"0.0-4.0-1.24","subject_id":"5f1d476fe89111648aa22948","study_id":"60edd13110225f80f9f3709b","session_id":"6196c4a2ca45e5a3e80a9955","condition":"contingent","relevant_dimensions":["antennae","legs"],"bee_group":{"antennae":"B","wings":"X","pattern":"X","legs":"M"},"bonus":1.300000000000001},{"rt":2735.10000000149,"stimulus":"bees-with-color/bee-A2SM.svg","response":1,"trial_type":"image-button-response","trial_index":57,"time_elapsed":360672,"internal_node_id":"0.0-4.0-0.25","subject_id":"5f1d476fe89111648aa22948","study_id":"60edd13110225f80f9f3709b","session_id":"6196c4a2ca45e5a3e80a9955","condition":"contingent","relevant_dimensions":["antennae","legs"],"bee_group":{"antennae":"B","wings":"X","pattern":"X","legs":"M"},"action":"avoid","summary":"bad-avoid","bonus":1.300000000000001},{"rt":2495.199999999255,"stimulus":"\n                    <p><b>Action: <em>avoid</em></b></p>\n                    <p>This is the bee that you just saw.</p>\n                    <img src=\"bees-with-color/bee-A2SM.svg\" width=\"200\">\n                    <p><br>Your bonus pay is unchanged, and remains at $0.58.</p>\n            ","response":0,"trial_type":"html-button-response","trial_index":58,"time_elapsed":363168,"internal_node_id":"0.0-4.0-1.25","subject_id":"5f1d476fe89111648aa22948","study_id":"60edd13110225f80f9f3709b","session_id":"6196c4a2ca45e5a3e80a9955","condition":"contingent","relevant_dimensions":["antennae","legs"],"bee_group":{"antennae":"B","wings":"X","pattern":"X","legs":"M"},"bonus":1.300000000000001},{"rt":2975.099999997765,"stimulus":"bees-with-color/bee-A1SF.svg","response":0,"trial_type":"image-button-response","trial_index":59,"time_elapsed":366144,"internal_node_id":"0.0-4.0-0.26","subject_id":"5f1d476fe89111648aa22948","study_id":"60edd13110225f80f9f3709b","session_id":"6196c4a2ca45e5a3e80a9955","condition":"contingent","relevant_dimensions":["antennae","legs"],"bee_group":{"antennae":"B","wings":"X","pattern":"X","legs":"M"},"action":"harvest","summary":"good-harvest","bonus":1.300000000000001},{"rt":1703.199999999255,"stimulus":"\n                    <p><b>Action: <em>harvest</em></b></p>\n                    <p>This is the bee that you just saw.</p>\n                    <img src=\"bees-with-color/bee-A1SF.svg\" width=\"200\">\n                    <p><span class=\"greenText\"><b>Successful harvest!</b></span><br>Your pay has increased by $0.02. Your bonus pay is now $0.60.</p>\n            ","response":0,"trial_type":"html-button-response","trial_index":60,"time_elapsed":367848,"internal_node_id":"0.0-4.0-1.26","subject_id":"5f1d476fe89111648aa22948","study_id":"60edd13110225f80f9f3709b","session_id":"6196c4a2ca45e5a3e80a9955","condition":"contingent","relevant_dimensions":["antennae","legs"],"bee_group":{"antennae":"B","wings":"X","pattern":"X","legs":"M"},"bonus":1.300000000000001},{"rt":1831.1000000014901,"stimulus":"bees-with-color/bee-A1DF.svg","response":0,"trial_type":"image-button-response","trial_index":61,"time_elapsed":369680,"internal_node_id":"0.0-4.0-0.27","subject_id":"5f1d476fe89111648aa22948","study_id":"60edd13110225f80f9f3709b","session_id":"6196c4a2ca45e5a3e80a9955","condition":"contingent","relevant_dimensions":["antennae","legs"],"bee_group":{"antennae":"B","wings":"X","pattern":"X","legs":"M"},"action":"harvest","summary":"good-harvest","bonus":1.300000000000001},{"rt":1999.300000000745,"stimulus":"\n                    <p><b>Action: <em>harvest</em></b></p>\n                    <p>This is the bee that you just saw.</p>\n                    <img src=\"bees-with-color/bee-A1DF.svg\" width=\"200\">\n                    <p><span class=\"greenText\"><b>Successful harvest!</b></span><br>Your pay has increased by $0.02. Your bonus pay is now $0.62.</p>\n            ","response":0,"trial_type":"html-button-response","trial_index":62,"time_elapsed":371680,"internal_node_id":"0.0-4.0-1.27","subject_id":"5f1d476fe89111648aa22948","study_id":"60edd13110225f80f9f3709b","session_id":"6196c4a2ca45e5a3e80a9955","condition":"contingent","relevant_dimensions":["antennae","legs"],"bee_group":{"antennae":"B","wings":"X","pattern":"X","legs":"M"},"bonus":1.300000000000001},{"rt":1590.800000000745,"stimulus":"bees-with-color/bee-A2DF.svg","response":0,"trial_type":"image-button-response","trial_index":63,"time_elapsed":373272,"internal_node_id":"0.0-4.0-0.28","subject_id":"5f1d476fe89111648aa22948","study_id":"60edd13110225f80f9f3709b","session_id":"6196c4a2ca45e5a3e80a9955","condition":"contingent","relevant_dimensions":["antennae","legs"],"bee_group":{"antennae":"B","wings":"X","pattern":"X","legs":"M"},"action":"harvest","summary":"good-harvest","bonus":1.300000000000001},{"rt":1615.4000000022352,"stimulus":"\n                    <p><b>Action: <em>harvest</em></b></p>\n                    <p>This is the bee that you just saw.</p>\n                    <img src=\"bees-with-color/bee-A2DF.svg\" width=\"200\">\n                    <p><span class=\"greenText\"><b>Successful harvest!</b></span><br>Your pay has increased by $0.02. Your bonus pay is now $0.64.</p>\n            ","response":0,"trial_type":"html-button-response","trial_index":64,"time_elapsed":374888,"internal_node_id":"0.0-4.0-1.28","subject_id":"5f1d476fe89111648aa22948","study_id":"60edd13110225f80f9f3709b","session_id":"6196c4a2ca45e5a3e80a9955","condition":"contingent","relevant_dimensions":["antennae","legs"],"bee_group":{"antennae":"B","wings":"X","pattern":"X","legs":"M"},"bonus":1.300000000000001},{"rt":2839.300000000745,"stimulus":"bees-with-color/bee-B1DM.svg","response":1,"trial_type":"image-button-response","trial_index":65,"time_elapsed":377728,"internal_node_id":"0.0-4.0-0.29","subject_id":"5f1d476fe89111648aa22948","study_id":"60edd13110225f80f9f3709b","session_id":"6196c4a2ca45e5a3e80a9955","condition":"contingent","relevant_dimensions":["antennae","legs"],"bee_group":{"antennae":"B","wings":"X","pattern":"X","legs":"M"},"action":"avoid","summary":"good-avoid","bonus":1.300000000000001},{"rt":1663.300000000745,"stimulus":"\n                    <p><b>Action: <em>avoid</em></b></p>\n                    <p>This is the bee that you just saw.</p>\n                    <img src=\"bees-with-color/bee-B1DM.svg\" width=\"200\">\n                    <p><br>Your bonus pay is unchanged, and remains at $0.64.</p>\n            ","response":0,"trial_type":"html-button-response","trial_index":66,"time_elapsed":379392,"internal_node_id":"0.0-4.0-1.29","subject_id":"5f1d476fe89111648aa22948","study_id":"60edd13110225f80f9f3709b","session_id":"6196c4a2ca45e5a3e80a9955","condition":"contingent","relevant_dimensions":["antennae","legs"],"bee_group":{"antennae":"B","wings":"X","pattern":"X","legs":"M"},"bonus":1.300000000000001},{"rt":2039.0999999977648,"stimulus":"bees-with-color/bee-A2SF.svg","response":0,"trial_type":"image-button-response","trial_index":67,"time_elapsed":381432,"internal_node_id":"0.0-4.0-0.30","subject_id":"5f1d476fe89111648aa22948","study_id":"60edd13110225f80f9f3709b","session_id":"6196c4a2ca45e5a3e80a9955","condition":"contingent","relevant_dimensions":["antennae","legs"],"bee_group":{"antennae":"B","wings":"X","pattern":"X","legs":"M"},"action":"harvest","summary":"good-harvest","bonus":1.300000000000001},{"rt":1863.2000000029802,"stimulus":"\n                    <p><b>Action: <em>harvest</em></b></p>\n                    <p>This is the bee that you just saw.</p>\n                    <img src=\"bees-with-color/bee-A2SF.svg\" width=\"200\">\n                    <p><span class=\"greenText\"><b>Successful harvest!</b></span><br>Your pay has increased by $0.02. Your bonus pay is now $0.66.</p>\n            ","response":0,"trial_type":"html-button-response","trial_index":68,"time_elapsed":383296,"internal_node_id":"0.0-4.0-1.30","subject_id":"5f1d476fe89111648aa22948","study_id":"60edd13110225f80f9f3709b","session_id":"6196c4a2ca45e5a3e80a9955","condition":"contingent","relevant_dimensions":["antennae","legs"],"bee_group":{"antennae":"B","wings":"X","pattern":"X","legs":"M"},"bonus":1.300000000000001},{"rt":1791,"stimulus":"bees-with-color/bee-B2SM.svg","response":1,"trial_type":"image-button-response","trial_index":69,"time_elapsed":385088,"internal_node_id":"0.0-4.0-0.31","subject_id":"5f1d476fe89111648aa22948","study_id":"60edd13110225f80f9f3709b","session_id":"6196c4a2ca45e5a3e80a9955","condition":"contingent","relevant_dimensions":["antennae","legs"],"bee_group":{"antennae":"B","wings":"X","pattern":"X","legs":"M"},"action":"avoid","summary":"good-avoid","bonus":1.300000000000001},{"rt":1167.300000000745,"stimulus":"\n                    <p><b>Action: <em>avoid</em></b></p>\n                    <p>This is the bee that you just saw.</p>\n                    <img src=\"bees-with-color/bee-B2SM.svg\" width=\"200\">\n                    <p><br>Your bonus pay is unchanged, and remains at $0.66.</p>\n            ","response":0,"trial_type":"html-button-response","trial_index":70,"time_elapsed":386256,"internal_node_id":"0.0-4.0-1.31","subject_id":"5f1d476fe89111648aa22948","study_id":"60edd13110225f80f9f3709b","session_id":"6196c4a2ca45e5a3e80a9955","condition":"contingent","relevant_dimensions":["antennae","legs"],"bee_group":{"antennae":"B","wings":"X","pattern":"X","legs":"M"},"bonus":1.300000000000001},{"rt":1374.8999999985099,"stimulus":"bees-with-color/bee-A2SF.svg","response":0,"trial_type":"image-button-response","trial_index":71,"time_elapsed":387632,"internal_node_id":"0.0-4.0-0.32","subject_id":"5f1d476fe89111648aa22948","study_id":"60edd13110225f80f9f3709b","session_id":"6196c4a2ca45e5a3e80a9955","condition":"contingent","relevant_dimensions":["antennae","legs"],"bee_group":{"antennae":"B","wings":"X","pattern":"X","legs":"M"},"action":"harvest","summary":"good-harvest","bonus":1.300000000000001},{"rt":1751.199999999255,"stimulus":"\n                    <p><b>Action: <em>harvest</em></b></p>\n                    <p>This is the bee that you just saw.</p>\n                    <img src=\"bees-with-color/bee-A2SF.svg\" width=\"200\">\n                    <p><span class=\"greenText\"><b>Successful harvest!</b></span><br>Your pay has increased by $0.02. Your bonus pay is now $0.68.</p>\n            ","response":0,"trial_type":"html-button-response","trial_index":72,"time_elapsed":389384,"internal_node_id":"0.0-4.0-1.32","subject_id":"5f1d476fe89111648aa22948","study_id":"60edd13110225f80f9f3709b","session_id":"6196c4a2ca45e5a3e80a9955","condition":"contingent","relevant_dimensions":["antennae","legs"],"bee_group":{"antennae":"B","wings":"X","pattern":"X","legs":"M"},"bonus":1.300000000000001},{"rt":1911.300000000745,"stimulus":"bees-with-color/bee-A1DM.svg","response":1,"trial_type":"image-button-response","trial_index":73,"time_elapsed":391296,"internal_node_id":"0.0-4.0-0.33","subject_id":"5f1d476fe89111648aa22948","study_id":"60edd13110225f80f9f3709b","session_id":"6196c4a2ca45e5a3e80a9955","condition":"contingent","relevant_dimensions":["antennae","legs"],"bee_group":{"antennae":"B","wings":"X","pattern":"X","legs":"M"},"action":"avoid","summary":"bad-avoid","bonus":1.300000000000001},{"rt":1519.199999999255,"stimulus":"\n                    <p><b>Action: <em>avoid</em></b></p>\n                    <p>This is the bee that you just saw.</p>\n                    <img src=\"bees-with-color/bee-A1DM.svg\" width=\"200\">\n                    <p><br>Your bonus pay is unchanged, and remains at $0.68.</p>\n            ","response":0,"trial_type":"html-button-response","trial_index":74,"time_elapsed":392816,"internal_node_id":"0.0-4.0-1.33","subject_id":"5f1d476fe89111648aa22948","study_id":"60edd13110225f80f9f3709b","session_id":"6196c4a2ca45e5a3e80a9955","condition":"contingent","relevant_dimensions":["antennae","legs"],"bee_group":{"antennae":"B","wings":"X","pattern":"X","legs":"M"},"bonus":1.300000000000001},{"rt":1743,"stimulus":"bees-with-color/bee-B2DF.svg","response":0,"trial_type":"image-button-response","trial_index":75,"time_elapsed":394560,"internal_node_id":"0.0-4.0-0.34","subject_id":"5f1d476fe89111648aa22948","study_id":"60edd13110225f80f9f3709b","session_id":"6196c4a2ca45e5a3e80a9955","condition":"contingent","relevant_dimensions":["antennae","legs"],"bee_group":{"antennae":"B","wings":"X","pattern":"X","legs":"M"},"action":"harvest","summary":"good-harvest","bonus":1.300000000000001},{"rt":1911.300000000745,"stimulus":"\n                    <p><b>Action: <em>harvest</em></b></p>\n                    <p>This is the bee that you just saw.</p>\n                    <img src=\"bees-with-color/bee-B2DF.svg\" width=\"200\">\n                    <p><span class=\"greenText\"><b>Successful harvest!</b></span><br>Your pay has increased by $0.02. Your bonus pay is now $0.70.</p>\n            ","response":0,"trial_type":"html-button-response","trial_index":76,"time_elapsed":396472,"internal_node_id":"0.0-4.0-1.34","subject_id":"5f1d476fe89111648aa22948","study_id":"60edd13110225f80f9f3709b","session_id":"6196c4a2ca45e5a3e80a9955","condition":"contingent","relevant_dimensions":["antennae","legs"],"bee_group":{"antennae":"B","wings":"X","pattern":"X","legs":"M"},"bonus":1.300000000000001},{"rt":1455.300000000745,"stimulus":"bees-with-color/bee-B1SF.svg","response":0,"trial_type":"image-button-response","trial_index":77,"time_elapsed":397928,"internal_node_id":"0.0-4.0-0.35","subject_id":"5f1d476fe89111648aa22948","study_id":"60edd13110225f80f9f3709b","session_id":"6196c4a2ca45e5a3e80a9955","condition":"contingent","relevant_dimensions":["antennae","legs"],"bee_group":{"antennae":"B","wings":"X","pattern":"X","legs":"M"},"action":"harvest","summary":"good-harvest","bonus":1.300000000000001},{"rt":1415.2000000029802,"stimulus":"\n                    <p><b>Action: <em>harvest</em></b></p>\n                    <p>This is the bee that you just saw.</p>\n                    <img src=\"bees-with-color/bee-B1SF.svg\" width=\"200\">\n                    <p><span class=\"greenText\"><b>Successful harvest!</b></span><br>Your pay has increased by $0.02. Your bonus pay is now $0.72.</p>\n            ","response":0,"trial_type":"html-button-response","trial_index":78,"time_elapsed":399344,"internal_node_id":"0.0-4.0-1.35","subject_id":"5f1d476fe89111648aa22948","study_id":"60edd13110225f80f9f3709b","session_id":"6196c4a2ca45e5a3e80a9955","condition":"contingent","relevant_dimensions":["antennae","legs"],"bee_group":{"antennae":"B","wings":"X","pattern":"X","legs":"M"},"bonus":1.300000000000001},{"rt":1367.300000000745,"stimulus":"bees-with-color/bee-B2DM.svg","response":1,"trial_type":"image-button-response","trial_index":79,"time_elapsed":400712,"internal_node_id":"0.0-4.0-0.36","subject_id":"5f1d476fe89111648aa22948","study_id":"60edd13110225f80f9f3709b","session_id":"6196c4a2ca45e5a3e80a9955","condition":"contingent","relevant_dimensions":["antennae","legs"],"bee_group":{"antennae":"B","wings":"X","pattern":"X","legs":"M"},"action":"avoid","summary":"good-avoid","bonus":1.300000000000001},{"rt":2039.2000000029802,"stimulus":"\n                    <p><b>Action: <em>avoid</em></b></p>\n                    <p>This is the bee that you just saw.</p>\n                    <img src=\"bees-with-color/bee-B2DM.svg\" width=\"200\">\n                    <p><br>Your bonus pay is unchanged, and remains at $0.72.</p>\n            ","response":0,"trial_type":"html-button-response","trial_index":80,"time_elapsed":402752,"internal_node_id":"0.0-4.0-1.36","subject_id":"5f1d476fe89111648aa22948","study_id":"60edd13110225f80f9f3709b","session_id":"6196c4a2ca45e5a3e80a9955","condition":"contingent","relevant_dimensions":["antennae","legs"],"bee_group":{"antennae":"B","wings":"X","pattern":"X","legs":"M"},"bonus":1.300000000000001},{"rt":1287.1000000014901,"stimulus":"bees-with-color/bee-A2SM.svg","response":1,"trial_type":"image-button-response","trial_index":81,"time_elapsed":404040,"internal_node_id":"0.0-4.0-0.37","subject_id":"5f1d476fe89111648aa22948","study_id":"60edd13110225f80f9f3709b","session_id":"6196c4a2ca45e5a3e80a9955","condition":"contingent","relevant_dimensions":["antennae","legs"],"bee_group":{"antennae":"B","wings":"X","pattern":"X","legs":"M"},"action":"avoid","summary":"bad-avoid","bonus":1.300000000000001},{"rt":943,"stimulus":"\n                    <p><b>Action: <em>avoid</em></b></p>\n                    <p>This is the bee that you just saw.</p>\n                    <img src=\"bees-with-color/bee-A2SM.svg\" width=\"200\">\n                    <p><br>Your bonus pay is unchanged, and remains at $0.72.</p>\n            ","response":0,"trial_type":"html-button-response","trial_index":82,"time_elapsed":404984,"internal_node_id":"0.0-4.0-1.37","subject_id":"5f1d476fe89111648aa22948","study_id":"60edd13110225f80f9f3709b","session_id":"6196c4a2ca45e5a3e80a9955","condition":"contingent","relevant_dimensions":["antennae","legs"],"bee_group":{"antennae":"B","wings":"X","pattern":"X","legs":"M"},"bonus":1.300000000000001},{"rt":1671.699999999255,"stimulus":"bees-with-color/bee-B1DF.svg","response":0,"trial_type":"image-button-response","trial_index":83,"time_elapsed":406656,"internal_node_id":"0.0-4.0-0.38","subject_id":"5f1d476fe89111648aa22948","study_id":"60edd13110225f80f9f3709b","session_id":"6196c4a2ca45e5a3e80a9955","condition":"contingent","relevant_dimensions":["antennae","legs"],"bee_group":{"antennae":"B","wings":"X","pattern":"X","legs":"M"},"action":"harvest","summary":"good-harvest","bonus":1.300000000000001},{"rt":1479.300000000745,"stimulus":"\n                    <p><b>Action: <em>harvest</em></b></p>\n                    <p>This is the bee that you just saw.</p>\n                    <img src=\"bees-with-color/bee-B1DF.svg\" width=\"200\">\n                    <p><span class=\"greenText\"><b>Successful harvest!</b></span><br>Your pay has increased by $0.02. Your bonus pay is now $0.74.</p>\n            ","response":0,"trial_type":"html-button-response","trial_index":84,"time_elapsed":408136,"internal_node_id":"0.0-4.0-1.38","subject_id":"5f1d476fe89111648aa22948","study_id":"60edd13110225f80f9f3709b","session_id":"6196c4a2ca45e5a3e80a9955","condition":"contingent","relevant_dimensions":["antennae","legs"],"bee_group":{"antennae":"B","wings":"X","pattern":"X","legs":"M"},"bonus":1.300000000000001},{"rt":1487.0999999977648,"stimulus":"bees-with-color/bee-B2SM.svg","response":1,"trial_type":"image-button-response","trial_index":85,"time_elapsed":409624,"internal_node_id":"0.0-4.0-0.39","subject_id":"5f1d476fe89111648aa22948","study_id":"60edd13110225f80f9f3709b","session_id":"6196c4a2ca45e5a3e80a9955","condition":"contingent","relevant_dimensions":["antennae","legs"],"bee_group":{"antennae":"B","wings":"X","pattern":"X","legs":"M"},"action":"avoid","summary":"good-avoid","bonus":1.300000000000001},{"rt":1047.300000000745,"stimulus":"\n                    <p><b>Action: <em>avoid</em></b></p>\n                    <p>This is the bee that you just saw.</p>\n                    <img src=\"bees-with-color/bee-B2SM.svg\" width=\"200\">\n                    <p><br>Your bonus pay is unchanged, and remains at $0.74.</p>\n            ","response":0,"trial_type":"html-button-response","trial_index":86,"time_elapsed":410673,"internal_node_id":"0.0-4.0-1.39","subject_id":"5f1d476fe89111648aa22948","study_id":"60edd13110225f80f9f3709b","session_id":"6196c4a2ca45e5a3e80a9955","condition":"contingent","relevant_dimensions":["antennae","legs"],"bee_group":{"antennae":"B","wings":"X","pattern":"X","legs":"M"},"bonus":1.300000000000001},{"rt":1103.0999999977648,"stimulus":"bees-with-color/bee-A1DF.svg","response":0,"trial_type":"image-button-response","trial_index":87,"time_elapsed":411776,"internal_node_id":"0.0-4.0-0.40","subject_id":"5f1d476fe89111648aa22948","study_id":"60edd13110225f80f9f3709b","session_id":"6196c4a2ca45e5a3e80a9955","condition":"contingent","relevant_dimensions":["antennae","legs"],"bee_group":{"antennae":"B","wings":"X","pattern":"X","legs":"M"},"action":"harvest","summary":"good-harvest","bonus":1.300000000000001},{"rt":2375.2000000029802,"stimulus":"\n                    <p><b>Action: <em>harvest</em></b></p>\n                    <p>This is the bee that you just saw.</p>\n                    <img src=\"bees-with-color/bee-A1DF.svg\" width=\"200\">\n                    <p><span class=\"greenText\"><b>Successful harvest!</b></span><br>Your pay has increased by $0.02. Your bonus pay is now $0.76.</p>\n            ","response":0,"trial_type":"html-button-response","trial_index":88,"time_elapsed":414152,"internal_node_id":"0.0-4.0-1.40","subject_id":"5f1d476fe89111648aa22948","study_id":"60edd13110225f80f9f3709b","session_id":"6196c4a2ca45e5a3e80a9955","condition":"contingent","relevant_dimensions":["antennae","legs"],"bee_group":{"antennae":"B","wings":"X","pattern":"X","legs":"M"},"bonus":1.300000000000001},{"rt":2199.300000000745,"stimulus":"bees-with-color/bee-B1SM.svg","response":1,"trial_type":"image-button-response","trial_index":89,"time_elapsed":416352,"internal_node_id":"0.0-4.0-0.41","subject_id":"5f1d476fe89111648aa22948","study_id":"60edd13110225f80f9f3709b","session_id":"6196c4a2ca45e5a3e80a9955","condition":"contingent","relevant_dimensions":["antennae","legs"],"bee_group":{"antennae":"B","wings":"X","pattern":"X","legs":"M"},"action":"avoid","summary":"good-avoid","bonus":1.300000000000001},{"rt":1727.199999999255,"stimulus":"\n                    <p><b>Action: <em>avoid</em></b></p>\n                    <p>This is the bee that you just saw.</p>\n                    <img src=\"bees-with-color/bee-B1SM.svg\" width=\"200\">\n                    <p><br>Your bonus pay is unchanged, and remains at $0.76.</p>\n            ","response":0,"trial_type":"html-button-response","trial_index":90,"time_elapsed":418081,"internal_node_id":"0.0-4.0-1.41","subject_id":"5f1d476fe89111648aa22948","study_id":"60edd13110225f80f9f3709b","session_id":"6196c4a2ca45e5a3e80a9955","condition":"contingent","relevant_dimensions":["antennae","legs"],"bee_group":{"antennae":"B","wings":"X","pattern":"X","legs":"M"},"bonus":1.300000000000001},{"rt":3494.800000000745,"stimulus":"bees-with-color/bee-B1DM.svg","response":1,"trial_type":"image-button-response","trial_index":91,"time_elapsed":421576,"internal_node_id":"0.0-4.0-0.42","subject_id":"5f1d476fe89111648aa22948","study_id":"60edd13110225f80f9f3709b","session_id":"6196c4a2ca45e5a3e80a9955","condition":"contingent","relevant_dimensions":["antennae","legs"],"bee_group":{"antennae":"B","wings":"X","pattern":"X","legs":"M"},"action":"avoid","summary":"good-avoid","bonus":1.300000000000001},{"rt":1599.300000000745,"stimulus":"\n                    <p><b>Action: <em>avoid</em></b></p>\n                    <p>This is the bee that you just saw.</p>\n                    <img src=\"bees-with-color/bee-B1DM.svg\" width=\"200\">\n                    <p><br>Your bonus pay is unchanged, and remains at $0.76.</p>\n            ","response":0,"trial_type":"html-button-response","trial_index":92,"time_elapsed":423176,"internal_node_id":"0.0-4.0-1.42","subject_id":"5f1d476fe89111648aa22948","study_id":"60edd13110225f80f9f3709b","session_id":"6196c4a2ca45e5a3e80a9955","condition":"contingent","relevant_dimensions":["antennae","legs"],"bee_group":{"antennae":"B","wings":"X","pattern":"X","legs":"M"},"bonus":1.300000000000001},{"rt":1383.0999999977648,"stimulus":"bees-with-color/bee-A2DM.svg","response":1,"trial_type":"image-button-response","trial_index":93,"time_elapsed":424560,"internal_node_id":"0.0-4.0-0.43","subject_id":"5f1d476fe89111648aa22948","study_id":"60edd13110225f80f9f3709b","session_id":"6196c4a2ca45e5a3e80a9955","condition":"contingent","relevant_dimensions":["antennae","legs"],"bee_group":{"antennae":"B","wings":"X","pattern":"X","legs":"M"},"action":"avoid","summary":"bad-avoid","bonus":1.300000000000001},{"rt":1095.2000000029802,"stimulus":"\n                    <p><b>Action: <em>avoid</em></b></p>\n                    <p>This is the bee that you just saw.</p>\n                    <img src=\"bees-with-color/bee-A2DM.svg\" width=\"200\">\n                    <p><br>Your bonus pay is unchanged, and remains at $0.76.</p>\n            ","response":0,"trial_type":"html-button-response","trial_index":94,"time_elapsed":425656,"internal_node_id":"0.0-4.0-1.43","subject_id":"5f1d476fe89111648aa22948","study_id":"60edd13110225f80f9f3709b","session_id":"6196c4a2ca45e5a3e80a9955","condition":"contingent","relevant_dimensions":["antennae","legs"],"bee_group":{"antennae":"B","wings":"X","pattern":"X","legs":"M"},"bonus":1.300000000000001},{"rt":1535.1000000014901,"stimulus":"bees-with-color/bee-A1SM.svg","response":1,"trial_type":"image-button-response","trial_index":95,"time_elapsed":427192,"internal_node_id":"0.0-4.0-0.44","subject_id":"5f1d476fe89111648aa22948","study_id":"60edd13110225f80f9f3709b","session_id":"6196c4a2ca45e5a3e80a9955","condition":"contingent","relevant_dimensions":["antennae","legs"],"bee_group":{"antennae":"B","wings":"X","pattern":"X","legs":"M"},"action":"avoid","summary":"bad-avoid","bonus":1.300000000000001},{"rt":1551.3999999985099,"stimulus":"\n                    <p><b>Action: <em>avoid</em></b></p>\n                    <p>This is the bee that you just saw.</p>\n                    <img src=\"bees-with-color/bee-A1SM.svg\" width=\"200\">\n                    <p><br>Your bonus pay is unchanged, and remains at $0.76.</p>\n            ","response":0,"trial_type":"html-button-response","trial_index":96,"time_elapsed":428744,"internal_node_id":"0.0-4.0-1.44","subject_id":"5f1d476fe89111648aa22948","study_id":"60edd13110225f80f9f3709b","session_id":"6196c4a2ca45e5a3e80a9955","condition":"contingent","relevant_dimensions":["antennae","legs"],"bee_group":{"antennae":"B","wings":"X","pattern":"X","legs":"M"},"bonus":1.300000000000001},{"rt":1543.1000000014901,"stimulus":"bees-with-color/bee-A1SF.svg","response":0,"trial_type":"image-button-response","trial_index":97,"time_elapsed":430288,"internal_node_id":"0.0-4.0-0.45","subject_id":"5f1d476fe89111648aa22948","study_id":"60edd13110225f80f9f3709b","session_id":"6196c4a2ca45e5a3e80a9955","condition":"contingent","relevant_dimensions":["antennae","legs"],"bee_group":{"antennae":"B","wings":"X","pattern":"X","legs":"M"},"action":"harvest","summary":"good-harvest","bonus":1.300000000000001},{"rt":1799.300000000745,"stimulus":"\n                    <p><b>Action: <em>harvest</em></b></p>\n                    <p>This is the bee that you just saw.</p>\n                    <img src=\"bees-with-color/bee-A1SF.svg\" width=\"200\">\n                    <p><span class=\"greenText\"><b>Successful harvest!</b></span><br>Your pay has increased by $0.02. Your bonus pay is now $0.78.</p>\n            ","response":0,"trial_type":"html-button-response","trial_index":98,"time_elapsed":432088,"internal_node_id":"0.0-4.0-1.45","subject_id":"5f1d476fe89111648aa22948","study_id":"60edd13110225f80f9f3709b","session_id":"6196c4a2ca45e5a3e80a9955","condition":"contingent","relevant_dimensions":["antennae","legs"],"bee_group":{"antennae":"B","wings":"X","pattern":"X","legs":"M"},"bonus":1.300000000000001},{"rt":1871.300000000745,"stimulus":"bees-with-color/bee-A2DF.svg","response":0,"trial_type":"image-button-response","trial_index":99,"time_elapsed":433960,"internal_node_id":"0.0-4.0-0.46","subject_id":"5f1d476fe89111648aa22948","study_id":"60edd13110225f80f9f3709b","session_id":"6196c4a2ca45e5a3e80a9955","condition":"contingent","relevant_dimensions":["antennae","legs"],"bee_group":{"antennae":"B","wings":"X","pattern":"X","legs":"M"},"action":"harvest","summary":"good-harvest","bonus":1.300000000000001},{"rt":1383.300000000745,"stimulus":"\n                    <p><b>Action: <em>harvest</em></b></p>\n                    <p>This is the bee that you just saw.</p>\n                    <img src=\"bees-with-color/bee-A2DF.svg\" width=\"200\">\n                    <p><span class=\"greenText\"><b>Successful harvest!</b></span><br>Your pay has increased by $0.02. Your bonus pay is now $0.80.</p>\n            ","response":0,"trial_type":"html-button-response","trial_index":100,"time_elapsed":435344,"internal_node_id":"0.0-4.0-1.46","subject_id":"5f1d476fe89111648aa22948","study_id":"60edd13110225f80f9f3709b","session_id":"6196c4a2ca45e5a3e80a9955","condition":"contingent","relevant_dimensions":["antennae","legs"],"bee_group":{"antennae":"B","wings":"X","pattern":"X","legs":"M"},"bonus":1.300000000000001},{"rt":1687,"stimulus":"bees-with-color/bee-B2SF.svg","response":0,"trial_type":"image-button-response","trial_index":101,"time_elapsed":437032,"internal_node_id":"0.0-4.0-0.47","subject_id":"5f1d476fe89111648aa22948","study_id":"60edd13110225f80f9f3709b","session_id":"6196c4a2ca45e5a3e80a9955","condition":"contingent","relevant_dimensions":["antennae","legs"],"bee_group":{"antennae":"B","wings":"X","pattern":"X","legs":"M"},"action":"harvest","summary":"good-harvest","bonus":1.300000000000001},{"rt":1119.300000000745,"stimulus":"\n                    <p><b>Action: <em>harvest</em></b></p>\n                    <p>This is the bee that you just saw.</p>\n                    <img src=\"bees-with-color/bee-B2SF.svg\" width=\"200\">\n                    <p><span class=\"greenText\"><b>Successful harvest!</b></span><br>Your pay has increased by $0.02. Your bonus pay is now $0.82.</p>\n            ","response":0,"trial_type":"html-button-response","trial_index":102,"time_elapsed":438152,"internal_node_id":"0.0-4.0-1.47","subject_id":"5f1d476fe89111648aa22948","study_id":"60edd13110225f80f9f3709b","session_id":"6196c4a2ca45e5a3e80a9955","condition":"contingent","relevant_dimensions":["antennae","legs"],"bee_group":{"antennae":"B","wings":"X","pattern":"X","legs":"M"},"bonus":1.300000000000001},{"rt":1199.4000000022352,"stimulus":"bees-with-color/bee-A2DM.svg","response":1,"trial_type":"image-button-response","trial_index":103,"time_elapsed":439352,"internal_node_id":"0.0-4.0-0.48","subject_id":"5f1d476fe89111648aa22948","study_id":"60edd13110225f80f9f3709b","session_id":"6196c4a2ca45e5a3e80a9955","condition":"contingent","relevant_dimensions":["antennae","legs"],"bee_group":{"antennae":"B","wings":"X","pattern":"X","legs":"M"},"action":"avoid","summary":"bad-avoid","bonus":1.300000000000001},{"rt":999.3000000007451,"stimulus":"\n                    <p><b>Action: <em>avoid</em></b></p>\n                    <p>This is the bee that you just saw.</p>\n                    <img src=\"bees-with-color/bee-A2DM.svg\" width=\"200\">\n                    <p><br>Your bonus pay is unchanged, and remains at $0.82.</p>\n            ","response":0,"trial_type":"html-button-response","trial_index":104,"time_elapsed":440352,"internal_node_id":"0.0-4.0-1.48","subject_id":"5f1d476fe89111648aa22948","study_id":"60edd13110225f80f9f3709b","session_id":"6196c4a2ca45e5a3e80a9955","condition":"contingent","relevant_dimensions":["antennae","legs"],"bee_group":{"antennae":"B","wings":"X","pattern":"X","legs":"M"},"bonus":1.300000000000001},{"rt":1615,"stimulus":"bees-with-color/bee-A1SM.svg","response":1,"trial_type":"image-button-response","trial_index":105,"time_elapsed":441968,"internal_node_id":"0.0-4.0-0.49","subject_id":"5f1d476fe89111648aa22948","study_id":"60edd13110225f80f9f3709b","session_id":"6196c4a2ca45e5a3e80a9955","condition":"contingent","relevant_dimensions":["antennae","legs"],"bee_group":{"antennae":"B","wings":"X","pattern":"X","legs":"M"},"action":"avoid","summary":"bad-avoid","bonus":1.300000000000001},{"rt":1015.3000000007451,"stimulus":"\n                    <p><b>Action: <em>avoid</em></b></p>\n                    <p>This is the bee that you just saw.</p>\n                    <img src=\"bees-with-color/bee-A1SM.svg\" width=\"200\">\n                    <p><br>Your bonus pay is unchanged, and remains at $0.82.</p>\n            ","response":0,"trial_type":"html-button-response","trial_index":106,"time_elapsed":442984,"internal_node_id":"0.0-4.0-1.49","subject_id":"5f1d476fe89111648aa22948","study_id":"60edd13110225f80f9f3709b","session_id":"6196c4a2ca45e5a3e80a9955","condition":"contingent","relevant_dimensions":["antennae","legs"],"bee_group":{"antennae":"B","wings":"X","pattern":"X","legs":"M"},"bonus":1.300000000000001},{"rt":1095.300000000745,"stimulus":"bees-with-color/bee-B1DM.svg","response":1,"trial_type":"image-button-response","trial_index":107,"time_elapsed":444080,"internal_node_id":"0.0-4.0-0.50","subject_id":"5f1d476fe89111648aa22948","study_id":"60edd13110225f80f9f3709b","session_id":"6196c4a2ca45e5a3e80a9955","condition":"contingent","relevant_dimensions":["antennae","legs"],"bee_group":{"antennae":"B","wings":"X","pattern":"X","legs":"M"},"action":"avoid","summary":"good-avoid","bonus":1.300000000000001},{"rt":927.3000000007451,"stimulus":"\n                    <p><b>Action: <em>avoid</em></b></p>\n                    <p>This is the bee that you just saw.</p>\n                    <img src=\"bees-with-color/bee-B1DM.svg\" width=\"200\">\n                    <p><br>Your bonus pay is unchanged, and remains at $0.82.</p>\n            ","response":0,"trial_type":"html-button-response","trial_index":108,"time_elapsed":445008,"internal_node_id":"0.0-4.0-1.50","subject_id":"5f1d476fe89111648aa22948","study_id":"60edd13110225f80f9f3709b","session_id":"6196c4a2ca45e5a3e80a9955","condition":"contingent","relevant_dimensions":["antennae","legs"],"bee_group":{"antennae":"B","wings":"X","pattern":"X","legs":"M"},"bonus":1.300000000000001},{"rt":2239.10000000149,"stimulus":"bees-with-color/bee-A2SM.svg","response":1,"trial_type":"image-button-response","trial_index":109,"time_elapsed":447248,"internal_node_id":"0.0-4.0-0.51","subject_id":"5f1d476fe89111648aa22948","study_id":"60edd13110225f80f9f3709b","session_id":"6196c4a2ca45e5a3e80a9955","condition":"contingent","relevant_dimensions":["antennae","legs"],"bee_group":{"antennae":"B","wings":"X","pattern":"X","legs":"M"},"action":"avoid","summary":"bad-avoid","bonus":1.300000000000001},{"rt":1111.199999999255,"stimulus":"\n                    <p><b>Action: <em>avoid</em></b></p>\n                    <p>This is the bee that you just saw.</p>\n                    <img src=\"bees-with-color/bee-A2SM.svg\" width=\"200\">\n                    <p><br>Your bonus pay is unchanged, and remains at $0.82.</p>\n            ","response":0,"trial_type":"html-button-response","trial_index":110,"time_elapsed":448360,"internal_node_id":"0.0-4.0-1.51","subject_id":"5f1d476fe89111648aa22948","study_id":"60edd13110225f80f9f3709b","session_id":"6196c4a2ca45e5a3e80a9955","condition":"contingent","relevant_dimensions":["antennae","legs"],"bee_group":{"antennae":"B","wings":"X","pattern":"X","legs":"M"},"bonus":1.300000000000001},{"rt":1599.2999999970198,"stimulus":"bees-with-color/bee-A2SF.svg","response":0,"trial_type":"image-button-response","trial_index":111,"time_elapsed":449960,"internal_node_id":"0.0-4.0-0.52","subject_id":"5f1d476fe89111648aa22948","study_id":"60edd13110225f80f9f3709b","session_id":"6196c4a2ca45e5a3e80a9955","condition":"contingent","relevant_dimensions":["antennae","legs"],"bee_group":{"antennae":"B","wings":"X","pattern":"X","legs":"M"},"action":"harvest","summary":"good-harvest","bonus":1.300000000000001},{"rt":1263.3999999985099,"stimulus":"\n                    <p><b>Action: <em>harvest</em></b></p>\n                    <p>This is the bee that you just saw.</p>\n                    <img src=\"bees-with-color/bee-A2SF.svg\" width=\"200\">\n                    <p><span class=\"greenText\"><b>Successful harvest!</b></span><br>Your pay has increased by $0.02. Your bonus pay is now $0.84.</p>\n            ","response":0,"trial_type":"html-button-response","trial_index":112,"time_elapsed":451224,"internal_node_id":"0.0-4.0-1.52","subject_id":"5f1d476fe89111648aa22948","study_id":"60edd13110225f80f9f3709b","session_id":"6196c4a2ca45e5a3e80a9955","condition":"contingent","relevant_dimensions":["antennae","legs"],"bee_group":{"antennae":"B","wings":"X","pattern":"X","legs":"M"},"bonus":1.300000000000001},{"rt":1487.199999999255,"stimulus":"bees-with-color/bee-A1DM.svg","response":1,"trial_type":"image-button-response","trial_index":113,"time_elapsed":452712,"internal_node_id":"0.0-4.0-0.53","subject_id":"5f1d476fe89111648aa22948","study_id":"60edd13110225f80f9f3709b","session_id":"6196c4a2ca45e5a3e80a9955","condition":"contingent","relevant_dimensions":["antennae","legs"],"bee_group":{"antennae":"B","wings":"X","pattern":"X","legs":"M"},"action":"avoid","summary":"bad-avoid","bonus":1.300000000000001},{"rt":839.5,"stimulus":"\n                    <p><b>Action: <em>avoid</em></b></p>\n                    <p>This is the bee that you just saw.</p>\n                    <img src=\"bees-with-color/bee-A1DM.svg\" width=\"200\">\n                    <p><br>Your bonus pay is unchanged, and remains at $0.84.</p>\n            ","response":0,"trial_type":"html-button-response","trial_index":114,"time_elapsed":453552,"internal_node_id":"0.0-4.0-1.53","subject_id":"5f1d476fe89111648aa22948","study_id":"60edd13110225f80f9f3709b","session_id":"6196c4a2ca45e5a3e80a9955","condition":"contingent","relevant_dimensions":["antennae","legs"],"bee_group":{"antennae":"B","wings":"X","pattern":"X","legs":"M"},"bonus":1.300000000000001},{"rt":1231.300000000745,"stimulus":"bees-with-color/bee-A1DF.svg","response":0,"trial_type":"image-button-response","trial_index":115,"time_elapsed":454784,"internal_node_id":"0.0-4.0-0.54","subject_id":"5f1d476fe89111648aa22948","study_id":"60edd13110225f80f9f3709b","session_id":"6196c4a2ca45e5a3e80a9955","condition":"contingent","relevant_dimensions":["antennae","legs"],"bee_group":{"antennae":"B","wings":"X","pattern":"X","legs":"M"},"action":"harvest","summary":"good-harvest","bonus":1.300000000000001},{"rt":1519.0999999977648,"stimulus":"\n                    <p><b>Action: <em>harvest</em></b></p>\n                    <p>This is the bee that you just saw.</p>\n                    <img src=\"bees-with-color/bee-A1DF.svg\" width=\"200\">\n                    <p><span class=\"greenText\"><b>Successful harvest!</b></span><br>Your pay has increased by $0.02. Your bonus pay is now $0.86.</p>\n            ","response":0,"trial_type":"html-button-response","trial_index":116,"time_elapsed":456304,"internal_node_id":"0.0-4.0-1.54","subject_id":"5f1d476fe89111648aa22948","study_id":"60edd13110225f80f9f3709b","session_id":"6196c4a2ca45e5a3e80a9955","condition":"contingent","relevant_dimensions":["antennae","legs"],"bee_group":{"antennae":"B","wings":"X","pattern":"X","legs":"M"},"bonus":1.300000000000001},{"rt":1471.1000000014901,"stimulus":"bees-with-color/bee-B2DM.svg","response":1,"trial_type":"image-button-response","trial_index":117,"time_elapsed":457776,"internal_node_id":"0.0-4.0-0.55","subject_id":"5f1d476fe89111648aa22948","study_id":"60edd13110225f80f9f3709b","session_id":"6196c4a2ca45e5a3e80a9955","condition":"contingent","relevant_dimensions":["antennae","legs"],"bee_group":{"antennae":"B","wings":"X","pattern":"X","legs":"M"},"action":"avoid","summary":"good-avoid","bonus":1.300000000000001},{"rt":1367.0999999977648,"stimulus":"\n                    <p><b>Action: <em>avoid</em></b></p>\n                    <p>This is the bee that you just saw.</p>\n                    <img src=\"bees-with-color/bee-B2DM.svg\" width=\"200\">\n                    <p><br>Your bonus pay is unchanged, and remains at $0.86.</p>\n            ","response":0,"trial_type":"html-button-response","trial_index":118,"time_elapsed":459144,"internal_node_id":"0.0-4.0-1.55","subject_id":"5f1d476fe89111648aa22948","study_id":"60edd13110225f80f9f3709b","session_id":"6196c4a2ca45e5a3e80a9955","condition":"contingent","relevant_dimensions":["antennae","legs"],"bee_group":{"antennae":"B","wings":"X","pattern":"X","legs":"M"},"bonus":1.300000000000001},{"rt":1615.3999999985099,"stimulus":"bees-with-color/bee-B2SM.svg","response":1,"trial_type":"image-button-response","trial_index":119,"time_elapsed":460760,"internal_node_id":"0.0-4.0-0.56","subject_id":"5f1d476fe89111648aa22948","study_id":"60edd13110225f80f9f3709b","session_id":"6196c4a2ca45e5a3e80a9955","condition":"contingent","relevant_dimensions":["antennae","legs"],"bee_group":{"antennae":"B","wings":"X","pattern":"X","legs":"M"},"action":"avoid","summary":"good-avoid","bonus":1.300000000000001},{"rt":1199.3999999985099,"stimulus":"\n                    <p><b>Action: <em>avoid</em></b></p>\n                    <p>This is the bee that you just saw.</p>\n                    <img src=\"bees-with-color/bee-B2SM.svg\" width=\"200\">\n                    <p><br>Your bonus pay is unchanged, and remains at $0.86.</p>\n            ","response":0,"trial_type":"html-button-response","trial_index":120,"time_elapsed":461960,"internal_node_id":"0.0-4.0-1.56","subject_id":"5f1d476fe89111648aa22948","study_id":"60edd13110225f80f9f3709b","session_id":"6196c4a2ca45e5a3e80a9955","condition":"contingent","relevant_dimensions":["antennae","legs"],"bee_group":{"antennae":"B","wings":"X","pattern":"X","legs":"M"},"bonus":1.300000000000001},{"rt":1143.3999999985099,"stimulus":"bees-with-color/bee-B2DF.svg","response":0,"trial_type":"image-button-response","trial_index":121,"time_elapsed":463104,"internal_node_id":"0.0-4.0-0.57","subject_id":"5f1d476fe89111648aa22948","study_id":"60edd13110225f80f9f3709b","session_id":"6196c4a2ca45e5a3e80a9955","condition":"contingent","relevant_dimensions":["antennae","legs"],"bee_group":{"antennae":"B","wings":"X","pattern":"X","legs":"M"},"action":"harvest","summary":"good-harvest","bonus":1.300000000000001},{"rt":1463.300000000745,"stimulus":"\n                    <p><b>Action: <em>harvest</em></b></p>\n                    <p>This is the bee that you just saw.</p>\n                    <img src=\"bees-with-color/bee-B2DF.svg\" width=\"200\">\n                    <p><span class=\"greenText\"><b>Successful harvest!</b></span><br>Your pay has increased by $0.02. Your bonus pay is now $0.88.</p>\n            ","response":0,"trial_type":"html-button-response","trial_index":122,"time_elapsed":464568,"internal_node_id":"0.0-4.0-1.57","subject_id":"5f1d476fe89111648aa22948","study_id":"60edd13110225f80f9f3709b","session_id":"6196c4a2ca45e5a3e80a9955","condition":"contingent","relevant_dimensions":["antennae","legs"],"bee_group":{"antennae":"B","wings":"X","pattern":"X","legs":"M"},"bonus":1.300000000000001},{"rt":1399,"stimulus":"bees-with-color/bee-B1SF.svg","response":0,"trial_type":"image-button-response","trial_index":123,"time_elapsed":465968,"internal_node_id":"0.0-4.0-0.58","subject_id":"5f1d476fe89111648aa22948","study_id":"60edd13110225f80f9f3709b","session_id":"6196c4a2ca45e5a3e80a9955","condition":"contingent","relevant_dimensions":["antennae","legs"],"bee_group":{"antennae":"B","wings":"X","pattern":"X","legs":"M"},"action":"harvest","summary":"good-harvest","bonus":1.300000000000001},{"rt":1871.1000000014901,"stimulus":"\n                    <p><b>Action: <em>harvest</em></b></p>\n                    <p>This is the bee that you just saw.</p>\n                    <img src=\"bees-with-color/bee-B1SF.svg\" width=\"200\">\n                    <p><span class=\"greenText\"><b>Successful harvest!</b></span><br>Your pay has increased by $0.02. Your bonus pay is now $0.90.</p>\n            ","response":0,"trial_type":"html-button-response","trial_index":124,"time_elapsed":467840,"internal_node_id":"0.0-4.0-1.58","subject_id":"5f1d476fe89111648aa22948","study_id":"60edd13110225f80f9f3709b","session_id":"6196c4a2ca45e5a3e80a9955","condition":"contingent","relevant_dimensions":["antennae","legs"],"bee_group":{"antennae":"B","wings":"X","pattern":"X","legs":"M"},"bonus":1.300000000000001},{"rt":1895.699999999255,"stimulus":"bees-with-color/bee-A2DF.svg","response":0,"trial_type":"image-button-response","trial_index":125,"time_elapsed":469736,"internal_node_id":"0.0-4.0-0.59","subject_id":"5f1d476fe89111648aa22948","study_id":"60edd13110225f80f9f3709b","session_id":"6196c4a2ca45e5a3e80a9955","condition":"contingent","relevant_dimensions":["antennae","legs"],"bee_group":{"antennae":"B","wings":"X","pattern":"X","legs":"M"},"action":"harvest","summary":"good-harvest","bonus":1.300000000000001},{"rt":1335.300000000745,"stimulus":"\n                    <p><b>Action: <em>harvest</em></b></p>\n                    <p>This is the bee that you just saw.</p>\n                    <img src=\"bees-with-color/bee-A2DF.svg\" width=\"200\">\n                    <p><span class=\"greenText\"><b>Successful harvest!</b></span><br>Your pay has increased by $0.02. Your bonus pay is now $0.92.</p>\n            ","response":0,"trial_type":"html-button-response","trial_index":126,"time_elapsed":471072,"internal_node_id":"0.0-4.0-1.59","subject_id":"5f1d476fe89111648aa22948","study_id":"60edd13110225f80f9f3709b","session_id":"6196c4a2ca45e5a3e80a9955","condition":"contingent","relevant_dimensions":["antennae","legs"],"bee_group":{"antennae":"B","wings":"X","pattern":"X","legs":"M"},"bonus":1.300000000000001},{"rt":1439,"stimulus":"bees-with-color/bee-A1SF.svg","response":0,"trial_type":"image-button-response","trial_index":127,"time_elapsed":472512,"internal_node_id":"0.0-4.0-0.60","subject_id":"5f1d476fe89111648aa22948","study_id":"60edd13110225f80f9f3709b","session_id":"6196c4a2ca45e5a3e80a9955","condition":"contingent","relevant_dimensions":["antennae","legs"],"bee_group":{"antennae":"B","wings":"X","pattern":"X","legs":"M"},"action":"harvest","summary":"good-harvest","bonus":1.300000000000001},{"rt":1583.300000000745,"stimulus":"\n                    <p><b>Action: <em>harvest</em></b></p>\n                    <p>This is the bee that you just saw.</p>\n                    <img src=\"bees-with-color/bee-A1SF.svg\" width=\"200\">\n                    <p><span class=\"greenText\"><b>Successful harvest!</b></span><br>Your pay has increased by $0.02. Your bonus pay is now $0.94.</p>\n            ","response":0,"trial_type":"html-button-response","trial_index":128,"time_elapsed":474096,"internal_node_id":"0.0-4.0-1.60","subject_id":"5f1d476fe89111648aa22948","study_id":"60edd13110225f80f9f3709b","session_id":"6196c4a2ca45e5a3e80a9955","condition":"contingent","relevant_dimensions":["antennae","legs"],"bee_group":{"antennae":"B","wings":"X","pattern":"X","legs":"M"},"bonus":1.300000000000001},{"rt":1391.199999999255,"stimulus":"bees-with-color/bee-B1DF.svg","response":0,"trial_type":"image-button-response","trial_index":129,"time_elapsed":475488,"internal_node_id":"0.0-4.0-0.61","subject_id":"5f1d476fe89111648aa22948","study_id":"60edd13110225f80f9f3709b","session_id":"6196c4a2ca45e5a3e80a9955","condition":"contingent","relevant_dimensions":["antennae","legs"],"bee_group":{"antennae":"B","wings":"X","pattern":"X","legs":"M"},"action":"harvest","summary":"good-harvest","bonus":1.300000000000001},{"rt":943.4000000022352,"stimulus":"\n                    <p><b>Action: <em>harvest</em></b></p>\n                    <p>This is the bee that you just saw.</p>\n                    <img src=\"bees-with-color/bee-B1DF.svg\" width=\"200\">\n                    <p><span class=\"greenText\"><b>Successful harvest!</b></span><br>Your pay has increased by $0.02. Your bonus pay is now $0.96.</p>\n            ","response":0,"trial_type":"html-button-response","trial_index":130,"time_elapsed":476432,"internal_node_id":"0.0-4.0-1.61","subject_id":"5f1d476fe89111648aa22948","study_id":"60edd13110225f80f9f3709b","session_id":"6196c4a2ca45e5a3e80a9955","condition":"contingent","relevant_dimensions":["antennae","legs"],"bee_group":{"antennae":"B","wings":"X","pattern":"X","legs":"M"},"bonus":1.300000000000001},{"rt":1399,"stimulus":"bees-with-color/bee-B1SM.svg","response":1,"trial_type":"image-button-response","trial_index":131,"time_elapsed":477832,"internal_node_id":"0.0-4.0-0.62","subject_id":"5f1d476fe89111648aa22948","study_id":"60edd13110225f80f9f3709b","session_id":"6196c4a2ca45e5a3e80a9955","condition":"contingent","relevant_dimensions":["antennae","legs"],"bee_group":{"antennae":"B","wings":"X","pattern":"X","legs":"M"},"action":"avoid","summary":"good-avoid","bonus":1.300000000000001},{"rt":1503.300000000745,"stimulus":"\n                    <p><b>Action: <em>avoid</em></b></p>\n                    <p>This is the bee that you just saw.</p>\n                    <img src=\"bees-with-color/bee-B1SM.svg\" width=\"200\">\n                    <p><br>Your bonus pay is unchanged, and remains at $0.96.</p>\n            ","response":0,"trial_type":"html-button-response","trial_index":132,"time_elapsed":479336,"internal_node_id":"0.0-4.0-1.62","subject_id":"5f1d476fe89111648aa22948","study_id":"60edd13110225f80f9f3709b","session_id":"6196c4a2ca45e5a3e80a9955","condition":"contingent","relevant_dimensions":["antennae","legs"],"bee_group":{"antennae":"B","wings":"X","pattern":"X","legs":"M"},"bonus":1.300000000000001},{"rt":1767.0999999977648,"stimulus":"bees-with-color/bee-B2SF.svg","response":0,"trial_type":"image-button-response","trial_index":133,"time_elapsed":481104,"internal_node_id":"0.0-4.0-0.63","subject_id":"5f1d476fe89111648aa22948","study_id":"60edd13110225f80f9f3709b","session_id":"6196c4a2ca45e5a3e80a9955","condition":"contingent","relevant_dimensions":["antennae","legs"],"bee_group":{"antennae":"B","wings":"X","pattern":"X","legs":"M"},"action":"harvest","summary":"good-harvest","bonus":1.300000000000001},{"rt":1455.3999999985099,"stimulus":"\n                    <p><b>Action: <em>harvest</em></b></p>\n                    <p>This is the bee that you just saw.</p>\n                    <img src=\"bees-with-color/bee-B2SF.svg\" width=\"200\">\n                    <p><span class=\"greenText\"><b>Successful harvest!</b></span><br>Your pay has increased by $0.02. Your bonus pay is now $0.98.</p>\n            ","response":0,"trial_type":"html-button-response","trial_index":134,"time_elapsed":482560,"internal_node_id":"0.0-4.0-1.63","subject_id":"5f1d476fe89111648aa22948","study_id":"60edd13110225f80f9f3709b","session_id":"6196c4a2ca45e5a3e80a9955","condition":"contingent","relevant_dimensions":["antennae","legs"],"bee_group":{"antennae":"B","wings":"X","pattern":"X","legs":"M"},"bonus":1.300000000000001},{"rt":11634.10000000149,"stimulus":"You have completed the first part of this experiment.<br><br>You will now begin a shorter second part, in which you will receive no feedback.<br>The same rules regarding bonus pay apply.<br><br>Press any key to begin.","response":"h","trial_type":"html-keyboard-response","trial_index":135,"time_elapsed":494195,"internal_node_id":"0.0-5.0","subject_id":"5f1d476fe89111648aa22948","study_id":"60edd13110225f80f9f3709b","session_id":"6196c4a2ca45e5a3e80a9955","condition":"contingent","relevant_dimensions":["antennae","legs"],"bee_group":{"antennae":"B","wings":"X","pattern":"X","legs":"M"},"bonus":1.300000000000001},{"rt":3161.7999999970198,"stimulus":"bees-with-color/bee-B2DF.svg","response":0,"trial_type":"image-button-response","trial_index":136,"time_elapsed":497376,"internal_node_id":"0.0-6.0-0.0","subject_id":"5f1d476fe89111648aa22948","study_id":"60edd13110225f80f9f3709b","session_id":"6196c4a2ca45e5a3e80a9955","condition":"contingent","relevant_dimensions":["antennae","legs"],"bee_group":{"antennae":"B","wings":"X","pattern":"X","legs":"M"},"bonus":1.300000000000001},{"rt":1614.8999999985099,"stimulus":"bees-with-color/bee-B1SM.svg","response":1,"trial_type":"image-button-response","trial_index":137,"time_elapsed":498992,"internal_node_id":"0.0-6.0-0.1","subject_id":"5f1d476fe89111648aa22948","study_id":"60edd13110225f80f9f3709b","session_id":"6196c4a2ca45e5a3e80a9955","condition":"contingent","relevant_dimensions":["antennae","legs"],"bee_group":{"antennae":"B","wings":"X","pattern":"X","legs":"M"},"bonus":1.300000000000001},{"rt":1198.800000000745,"stimulus":"bees-with-color/bee-A2SF.svg","response":0,"trial_type":"image-button-response","trial_index":138,"time_elapsed":500192,"internal_node_id":"0.0-6.0-0.2","subject_id":"5f1d476fe89111648aa22948","study_id":"60edd13110225f80f9f3709b","session_id":"6196c4a2ca45e5a3e80a9955","condition":"contingent","relevant_dimensions":["antennae","legs"],"bee_group":{"antennae":"B","wings":"X","pattern":"X","legs":"M"},"bonus":1.300000000000001},{"rt":1007.0999999977648,"stimulus":"bees-with-color/bee-A2DM.svg","response":1,"trial_type":"image-button-response","trial_index":139,"time_elapsed":501200,"internal_node_id":"0.0-6.0-0.3","subject_id":"5f1d476fe89111648aa22948","study_id":"60edd13110225f80f9f3709b","session_id":"6196c4a2ca45e5a3e80a9955","condition":"contingent","relevant_dimensions":["antennae","legs"],"bee_group":{"antennae":"B","wings":"X","pattern":"X","legs":"M"},"bonus":1.300000000000001},{"rt":1046.5999999977648,"stimulus":"bees-with-color/bee-B1DM.svg","response":1,"trial_type":"image-button-response","trial_index":140,"time_elapsed":502248,"internal_node_id":"0.0-6.0-0.4","subject_id":"5f1d476fe89111648aa22948","study_id":"60edd13110225f80f9f3709b","session_id":"6196c4a2ca45e5a3e80a9955","condition":"contingent","relevant_dimensions":["antennae","legs"],"bee_group":{"antennae":"B","wings":"X","pattern":"X","legs":"M"},"bonus":1.300000000000001},{"rt":935.3000000007451,"stimulus":"bees-with-color/bee-A2SM.svg","response":1,"trial_type":"image-button-response","trial_index":141,"time_elapsed":503184,"internal_node_id":"0.0-6.0-0.5","subject_id":"5f1d476fe89111648aa22948","study_id":"60edd13110225f80f9f3709b","session_id":"6196c4a2ca45e5a3e80a9955","condition":"contingent","relevant_dimensions":["antennae","legs"],"bee_group":{"antennae":"B","wings":"X","pattern":"X","legs":"M"},"bonus":1.300000000000001},{"rt":942.6000000014901,"stimulus":"bees-with-color/bee-A2DF.svg","response":0,"trial_type":"image-button-response","trial_index":142,"time_elapsed":504128,"internal_node_id":"0.0-6.0-0.6","subject_id":"5f1d476fe89111648aa22948","study_id":"60edd13110225f80f9f3709b","session_id":"6196c4a2ca45e5a3e80a9955","condition":"contingent","relevant_dimensions":["antennae","legs"],"bee_group":{"antennae":"B","wings":"X","pattern":"X","legs":"M"},"bonus":1.300000000000001},{"rt":1103,"stimulus":"bees-with-color/bee-B1DF.svg","response":0,"trial_type":"image-button-response","trial_index":143,"time_elapsed":505232,"internal_node_id":"0.0-6.0-0.7","subject_id":"5f1d476fe89111648aa22948","study_id":"60edd13110225f80f9f3709b","session_id":"6196c4a2ca45e5a3e80a9955","condition":"contingent","relevant_dimensions":["antennae","legs"],"bee_group":{"antennae":"B","wings":"X","pattern":"X","legs":"M"},"bonus":1.300000000000001},{"rt":982.6999999992549,"stimulus":"bees-with-color/bee-A1SM.svg","response":1,"trial_type":"image-button-response","trial_index":144,"time_elapsed":506216,"internal_node_id":"0.0-6.0-0.8","subject_id":"5f1d476fe89111648aa22948","study_id":"60edd13110225f80f9f3709b","session_id":"6196c4a2ca45e5a3e80a9955","condition":"contingent","relevant_dimensions":["antennae","legs"],"bee_group":{"antennae":"B","wings":"X","pattern":"X","legs":"M"},"bonus":1.300000000000001},{"rt":1046.8999999985099,"stimulus":"bees-with-color/bee-B1SF.svg","response":0,"trial_type":"image-button-response","trial_index":145,"time_elapsed":507264,"internal_node_id":"0.0-6.0-0.9","subject_id":"5f1d476fe89111648aa22948","study_id":"60edd13110225f80f9f3709b","session_id":"6196c4a2ca45e5a3e80a9955","condition":"contingent","relevant_dimensions":["antennae","legs"],"bee_group":{"antennae":"B","wings":"X","pattern":"X","legs":"M"},"bonus":1.300000000000001},{"rt":1382.7999999970198,"stimulus":"bees-with-color/bee-A1SF.svg","response":0,"trial_type":"image-button-response","trial_index":146,"time_elapsed":508648,"internal_node_id":"0.0-6.0-0.10","subject_id":"5f1d476fe89111648aa22948","study_id":"60edd13110225f80f9f3709b","session_id":"6196c4a2ca45e5a3e80a9955","condition":"contingent","relevant_dimensions":["antennae","legs"],"bee_group":{"antennae":"B","wings":"X","pattern":"X","legs":"M"},"bonus":1.300000000000001},{"rt":1526.699999999255,"stimulus":"bees-with-color/bee-A1DM.svg","response":1,"trial_type":"image-button-response","trial_index":147,"time_elapsed":510176,"internal_node_id":"0.0-6.0-0.11","subject_id":"5f1d476fe89111648aa22948","study_id":"60edd13110225f80f9f3709b","session_id":"6196c4a2ca45e5a3e80a9955","condition":"contingent","relevant_dimensions":["antennae","legs"],"bee_group":{"antennae":"B","wings":"X","pattern":"X","legs":"M"},"bonus":1.300000000000001},{"rt":1175,"stimulus":"bees-with-color/bee-B2SF.svg","response":0,"trial_type":"image-button-response","trial_index":148,"time_elapsed":511352,"internal_node_id":"0.0-6.0-0.12","subject_id":"5f1d476fe89111648aa22948","study_id":"60edd13110225f80f9f3709b","session_id":"6196c4a2ca45e5a3e80a9955","condition":"contingent","relevant_dimensions":["antennae","legs"],"bee_group":{"antennae":"B","wings":"X","pattern":"X","legs":"M"},"bonus":1.300000000000001},{"rt":1367,"stimulus":"bees-with-color/bee-B2SM.svg","response":1,"trial_type":"image-button-response","trial_index":149,"time_elapsed":512720,"internal_node_id":"0.0-6.0-0.13","subject_id":"5f1d476fe89111648aa22948","study_id":"60edd13110225f80f9f3709b","session_id":"6196c4a2ca45e5a3e80a9955","condition":"contingent","relevant_dimensions":["antennae","legs"],"bee_group":{"antennae":"B","wings":"X","pattern":"X","legs":"M"},"bonus":1.300000000000001},{"rt":1134.6000000014901,"stimulus":"bees-with-color/bee-A1DF.svg","response":0,"trial_type":"image-button-response","trial_index":150,"time_elapsed":513856,"internal_node_id":"0.0-6.0-0.14","subject_id":"5f1d476fe89111648aa22948","study_id":"60edd13110225f80f9f3709b","session_id":"6196c4a2ca45e5a3e80a9955","condition":"contingent","relevant_dimensions":["antennae","legs"],"bee_group":{"antennae":"B","wings":"X","pattern":"X","legs":"M"},"bonus":1.300000000000001},{"rt":1262.8999999985099,"stimulus":"bees-with-color/bee-B2DM.svg","response":1,"trial_type":"image-button-response","trial_index":151,"time_elapsed":515120,"internal_node_id":"0.0-6.0-0.15","subject_id":"5f1d476fe89111648aa22948","study_id":"60edd13110225f80f9f3709b","session_id":"6196c4a2ca45e5a3e80a9955","condition":"contingent","relevant_dimensions":["antennae","legs"],"bee_group":{"antennae":"B","wings":"X","pattern":"X","legs":"M"},"bonus":1.300000000000001},{"rt":1174.9000000022352,"stimulus":"bees-with-color/bee-A2DM.svg","response":1,"trial_type":"image-button-response","trial_index":152,"time_elapsed":516296,"internal_node_id":"0.0-6.0-0.16","subject_id":"5f1d476fe89111648aa22948","study_id":"60edd13110225f80f9f3709b","session_id":"6196c4a2ca45e5a3e80a9955","condition":"contingent","relevant_dimensions":["antennae","legs"],"bee_group":{"antennae":"B","wings":"X","pattern":"X","legs":"M"},"bonus":1.300000000000001},{"rt":1006.9000000022352,"stimulus":"bees-with-color/bee-A1DF.svg","response":0,"trial_type":"image-button-response","trial_index":153,"time_elapsed":517304,"internal_node_id":"0.0-6.0-0.17","subject_id":"5f1d476fe89111648aa22948","study_id":"60edd13110225f80f9f3709b","session_id":"6196c4a2ca45e5a3e80a9955","condition":"contingent","relevant_dimensions":["antennae","legs"],"bee_group":{"antennae":"B","wings":"X","pattern":"X","legs":"M"},"bonus":1.300000000000001},{"rt":1103.0999999977648,"stimulus":"bees-with-color/bee-A1SM.svg","response":1,"trial_type":"image-button-response","trial_index":154,"time_elapsed":518408,"internal_node_id":"0.0-6.0-0.18","subject_id":"5f1d476fe89111648aa22948","study_id":"60edd13110225f80f9f3709b","session_id":"6196c4a2ca45e5a3e80a9955","condition":"contingent","relevant_dimensions":["antennae","legs"],"bee_group":{"antennae":"B","wings":"X","pattern":"X","legs":"M"},"bonus":1.300000000000001},{"rt":1519,"stimulus":"bees-with-color/bee-A2DF.svg","response":0,"trial_type":"image-button-response","trial_index":155,"time_elapsed":519927,"internal_node_id":"0.0-6.0-0.19","subject_id":"5f1d476fe89111648aa22948","study_id":"60edd13110225f80f9f3709b","session_id":"6196c4a2ca45e5a3e80a9955","condition":"contingent","relevant_dimensions":["antennae","legs"],"bee_group":{"antennae":"B","wings":"X","pattern":"X","legs":"M"},"bonus":1.300000000000001},{"rt":2079.60000000149,"stimulus":"bees-with-color/bee-A1DM.svg","response":1,"trial_type":"image-button-response","trial_index":156,"time_elapsed":522008,"internal_node_id":"0.0-6.0-0.20","subject_id":"5f1d476fe89111648aa22948","study_id":"60edd13110225f80f9f3709b","session_id":"6196c4a2ca45e5a3e80a9955","condition":"contingent","relevant_dimensions":["antennae","legs"],"bee_group":{"antennae":"B","wings":"X","pattern":"X","legs":"M"},"bonus":1.300000000000001},{"rt":2103,"stimulus":"bees-with-color/bee-A2SM.svg","response":1,"trial_type":"image-button-response","trial_index":157,"time_elapsed":524112,"internal_node_id":"0.0-6.0-0.21","subject_id":"5f1d476fe89111648aa22948","study_id":"60edd13110225f80f9f3709b","session_id":"6196c4a2ca45e5a3e80a9955","condition":"contingent","relevant_dimensions":["antennae","legs"],"bee_group":{"antennae":"B","wings":"X","pattern":"X","legs":"M"},"bonus":1.300000000000001},{"rt":1239.199999999255,"stimulus":"bees-with-color/bee-B1SM.svg","response":1,"trial_type":"image-button-response","trial_index":158,"time_elapsed":525352,"internal_node_id":"0.0-6.0-0.22","subject_id":"5f1d476fe89111648aa22948","study_id":"60edd13110225f80f9f3709b","session_id":"6196c4a2ca45e5a3e80a9955","condition":"contingent","relevant_dimensions":["antennae","legs"],"bee_group":{"antennae":"B","wings":"X","pattern":"X","legs":"M"},"bonus":1.300000000000001},{"rt":1231.0999999977648,"stimulus":"bees-with-color/bee-B2SM.svg","response":1,"trial_type":"image-button-response","trial_index":159,"time_elapsed":526584,"internal_node_id":"0.0-6.0-0.23","subject_id":"5f1d476fe89111648aa22948","study_id":"60edd13110225f80f9f3709b","session_id":"6196c4a2ca45e5a3e80a9955","condition":"contingent","relevant_dimensions":["antennae","legs"],"bee_group":{"antennae":"B","wings":"X","pattern":"X","legs":"M"},"bonus":1.300000000000001},{"rt":1111.1000000014901,"stimulus":"bees-with-color/bee-B2SF.svg","response":0,"trial_type":"image-button-response","trial_index":160,"time_elapsed":527696,"internal_node_id":"0.0-6.0-0.24","subject_id":"5f1d476fe89111648aa22948","study_id":"60edd13110225f80f9f3709b","session_id":"6196c4a2ca45e5a3e80a9955","condition":"contingent","relevant_dimensions":["antennae","legs"],"bee_group":{"antennae":"B","wings":"X","pattern":"X","legs":"M"},"bonus":1.300000000000001},{"rt":599,"stimulus":"bees-with-color/bee-A1SF.svg","response":0,"trial_type":"image-button-response","trial_index":161,"time_elapsed":528296,"internal_node_id":"0.0-6.0-0.25","subject_id":"5f1d476fe89111648aa22948","study_id":"60edd13110225f80f9f3709b","session_id":"6196c4a2ca45e5a3e80a9955","condition":"contingent","relevant_dimensions":["antennae","legs"],"bee_group":{"antennae":"B","wings":"X","pattern":"X","legs":"M"},"bonus":1.300000000000001},{"rt":951.2000000029802,"stimulus":"bees-with-color/bee-B1DF.svg","response":0,"trial_type":"image-button-response","trial_index":162,"time_elapsed":529248,"internal_node_id":"0.0-6.0-0.26","subject_id":"5f1d476fe89111648aa22948","study_id":"60edd13110225f80f9f3709b","session_id":"6196c4a2ca45e5a3e80a9955","condition":"contingent","relevant_dimensions":["antennae","legs"],"bee_group":{"antennae":"B","wings":"X","pattern":"X","legs":"M"},"bonus":1.300000000000001},{"rt":991,"stimulus":"bees-with-color/bee-B2DM.svg","response":1,"trial_type":"image-button-response","trial_index":163,"time_elapsed":530240,"internal_node_id":"0.0-6.0-0.27","subject_id":"5f1d476fe89111648aa22948","study_id":"60edd13110225f80f9f3709b","session_id":"6196c4a2ca45e5a3e80a9955","condition":"contingent","relevant_dimensions":["antennae","legs"],"bee_group":{"antennae":"B","wings":"X","pattern":"X","legs":"M"},"bonus":1.300000000000001},{"rt":959.1999999992549,"stimulus":"bees-with-color/bee-A2SF.svg","response":0,"trial_type":"image-button-response","trial_index":164,"time_elapsed":531200,"internal_node_id":"0.0-6.0-0.28","subject_id":"5f1d476fe89111648aa22948","study_id":"60edd13110225f80f9f3709b","session_id":"6196c4a2ca45e5a3