[{"success":true,"trial_type":"fullscreen","trial_index":0,"time_elapsed":272921,"internal_node_id":"0.0-0.0","subject_id":"6136cf83be527a683b8c0b95","study_id":"60edd13110225f80f9f3709b","session_id":"6196c703e8e11fd02af08640","condition":"full-information","relevant_dimensions":["antennae","wings"],"bee_group":{"antennae":"A","wings":"2","pattern":"X","legs":"X"},"bonus":1.2600000000000011},{"success":true,"timeout":false,"failed_images":[],"failed_audio":[],"failed_video":[],"trial_type":"preload","trial_index":1,"time_elapsed":274390,"internal_node_id":"0.0-1.0","subject_id":"6136cf83be527a683b8c0b95","study_id":"60edd13110225f80f9f3709b","session_id":"6196c703e8e11fd02af08640","condition":"full-information","relevant_dimensions":["antennae","wings"],"bee_group":{"antennae":"A","wings":"2","pattern":"X","legs":"X"},"bonus":1.2600000000000011},{"rt":4923.39999999851,"stimulus":"Welcome! Press any key to begin.","response":" ","trial_type":"html-keyboard-response","trial_index":2,"time_elapsed":279314,"internal_node_id":"0.0-2.0","subject_id":"6136cf83be527a683b8c0b95","study_id":"60edd13110225f80f9f3709b","session_id":"6196c703e8e11fd02af08640","condition":"full-information","relevant_dimensions":["antennae","wings"],"bee_group":{"antennae":"A","wings":"2","pattern":"X","legs":"X"},"bonus":1.2600000000000011},{"view_history":[{"page_index":0,"viewing_time":6957.099999997765},{"page_index":1,"viewing_time":16823.900000002235},{"page_index":2,"viewing_time":39727.89999999851},{"page_index":3,"viewing_time":40263.900000002235},{"page_index":4,"viewing_time":5672.39999999851},{"page_index":5,"viewing_time":17559.800000000745},{"page_index":6,"viewing_time":35303.800000000745},{"page_index":7,"viewing_time":5679.89999999851},{"page_index":8,"viewing_time":3600.10000000149},{"page_index":9,"viewing_time":4208},{"page_index":10,"viewing_time":11944},{"page_index":11,"viewing_time":26935.79999999702},{"page_index":12,"viewing_time":9080.10000000149},{"page_index":13,"viewing_time":3096},{"page_index":14,"viewing_time":4208}],"rt":231061,"trial_type":"instructions","trial_index":3,"time_elapsed":510376,"internal_node_id":"0.0-3.0-0.0","subject_id":"6136cf83be527a683b8c0b95","study_id":"60edd13110225f80f9f3709b","session_id":"6196c703e8e11fd02af08640","condition":"full-information","relevant_dimensions":["antennae","wings"],"bee_group":{"antennae":"A","wings":"2","pattern":"X","legs":"X"},"bonus":1.2600000000000011},{"rt":17765.29999999702,"response":{"Q0":["Two or six legs","Stripes or spots on body","Single or double wings","Antennae or no antennae"]},"question_order":[0],"trial_type":"survey-multi-select","trial_index":4,"time_elapsed":528144,"internal_node_id":"0.0-3.0-1.0","subject_id":"6136cf83be527a683b8c0b95","study_id":"60edd13110225f80f9f3709b","session_id":"6196c703e8e11fd02af08640","condition":"full-information","relevant_dimensions":["antennae","wings"],"bee_group":{"antennae":"A","wings":"2","pattern":"X","legs":"X"},"correct":true,"bonus":1.2600000000000011},{"rt":33868.800000000745,"response":{"Q1":"No.","Q2":"Based on the four features of the bee.","Q3":"You learn if it was friendly or dangerous, but do not alter your bonus."},"question_order":[0,1,2],"trial_type":"survey-multi-choice","trial_index":5,"time_elapsed":562016,"internal_node_id":"0.0-3.0-2.0","subject_id":"6136cf83be527a683b8c0b95","study_id":"60edd13110225f80f9f3709b","session_id":"6196c703e8e11fd02af08640","condition":"full-information","relevant_dimensions":["antennae","wings"],"bee_group":{"antennae":"A","wings":"2","pattern":"X","legs":"X"},"correct":true,"bonus":1.2600000000000011},{"rt":106277,"stimulus":"<p>Congrats, you got everything right<br>When you're ready, click the button below to continue to the experiment.</p>","response":0,"trial_type":"html-button-response","trial_index":6,"time_elapsed":668296,"internal_node_id":"0.0-3.0-3.0","subject_id":"6136cf83be527a683b8c0b95","study_id":"60edd13110225f80f9f3709b","session_id":"6196c703e8e11fd02af08640","condition":"full-information","relevant_dimensions":["antennae","wings"],"bee_group":{"antennae":"A","wings":"2","pattern":"X","legs":"X"},"bonus":1.2600000000000011},{"rt":62485.79999999702,"stimulus":"bees-with-color/bee-B2DM.svg","response":0,"trial_type":"image-button-response","trial_index":7,"time_elapsed":730784,"internal_node_id":"0.0-4.0-0.0","subject_id":"6136cf83be527a683b8c0b95","study_id":"60edd13110225f80f9f3709b","session_id":"6196c703e8e11fd02af08640","condition":"full-information","relevant_dimensions":["antennae","wings"],"bee_group":{"antennae":"A","wings":"2","pattern":"X","legs":"X"},"action":"harvest","summary":"good-harvest","bonus":1.2600000000000011},{"rt":76325.69999999925,"stimulus":"\n                    <p><b>Action: <em>harvest</em></b></p>\n                    <p>This is the bee that you just saw.</p>\n                    <img src=\"bees-with-color/bee-B2DM.svg\" width=\"200\">\n                    <p><span class=\"greenText\"><b>Successful harvest!</b></span><br>Your pay has increased by $0.02. Your bonus pay is now $0.56.</p>\n            ","response":0,"trial_type":"html-button-response","trial_index":8,"time_elapsed":807111,"internal_node_id":"0.0-4.0-1.0","subject_id":"6136cf83be527a683b8c0b95","study_id":"60edd13110225f80f9f3709b","session_id":"6196c703e8e11fd02af08640","condition":"full-information","relevant_dimensions":["antennae","wings"],"bee_group":{"antennae":"A","wings":"2","pattern":"X","legs":"X"},"bonus":1.2600000000000011},{"rt":18502.300000000745,"stimulus":"bees-with-color/bee-A2SF.svg","response":0,"trial_type":"image-button-response","trial_index":9,"time_elapsed":825615,"internal_node_id":"0.0-4.0-0.1","subject_id":"6136cf83be527a683b8c0b95","study_id":"60edd13110225f80f9f3709b","session_id":"6196c703e8e11fd02af08640","condition":"full-information","relevant_dimensions":["antennae","wings"],"bee_group":{"antennae":"A","wings":"2","pattern":"X","legs":"X"},"action":"harvest","summary":"bad-harvest","bonus":1.2600000000000011},{"rt":31694.70000000298,"stimulus":"\n                    <p><b>Action: <em>harvest</em></b></p>\n                    <p>This is the bee that you just saw.</p>\n                    <img src=\"bees-with-color/bee-A2SF.svg\" width=\"200\">\n                    <p><span class=\"redText\">Bad choice, the bee was angry.</span><br><b>You have been stung!</b><br>Your pay has been decreased by $0.10. Your bonus pay is now $0.46.</p>\n            ","response":0,"trial_type":"html-button-response","trial_index":10,"time_elapsed":857311,"internal_node_id":"0.0-4.0-1.1","subject_id":"6136cf83be527a683b8c0b95","study_id":"60edd13110225f80f9f3709b","session_id":"6196c703e8e11fd02af08640","condition":"full-information","relevant_dimensions":["antennae","wings"],"bee_group":{"antennae":"A","wings":"2","pattern":"X","legs":"X"},"bonus":1.2600000000000011},{"rt":9742.39999999851,"stimulus":"bees-with-color/bee-A1SM.svg","response":0,"trial_type":"image-button-response","trial_index":11,"time_elapsed":867055,"internal_node_id":"0.0-4.0-0.2","subject_id":"6136cf83be527a683b8c0b95","study_id":"60edd13110225f80f9f3709b","session_id":"6196c703e8e11fd02af08640","condition":"full-information","relevant_dimensions":["antennae","wings"],"bee_group":{"antennae":"A","wings":"2","pattern":"X","legs":"X"},"action":"harvest","summary":"good-harvest","bonus":1.2600000000000011},{"rt":38814.699999999255,"stimulus":"\n                    <p><b>Action: <em>harvest</em></b></p>\n                    <p>This is the bee that you just saw.</p>\n                    <img src=\"bees-with-color/bee-A1SM.svg\" width=\"200\">\n                    <p><span class=\"greenText\"><b>Successful harvest!</b></span><br>Your pay has increased by $0.02. Your bonus pay is now $0.48.</p>\n            ","response":0,"trial_type":"html-button-response","trial_index":12,"time_elapsed":905871,"internal_node_id":"0.0-4.0-1.2","subject_id":"6136cf83be527a683b8c0b95","study_id":"60edd13110225f80f9f3709b","session_id":"6196c703e8e11fd02af08640","condition":"full-information","relevant_dimensions":["antennae","wings"],"bee_group":{"antennae":"A","wings":"2","pattern":"X","legs":"X"},"bonus":1.2600000000000011},{"rt":14126.79999999702,"stimulus":"bees-with-color/bee-B1DF.svg","response":0,"trial_type":"image-button-response","trial_index":13,"time_elapsed":919999,"internal_node_id":"0.0-4.0-0.3","subject_id":"6136cf83be527a683b8c0b95","study_id":"60edd13110225f80f9f3709b","session_id":"6196c703e8e11fd02af08640","condition":"full-information","relevant_dimensions":["antennae","wings"],"bee_group":{"antennae":"A","wings":"2","pattern":"X","legs":"X"},"action":"harvest","summary":"good-harvest","bonus":1.2600000000000011},{"rt":18134.800000000745,"stimulus":"\n                    <p><b>Action: <em>harvest</em></b></p>\n                    <p>This is the bee that you just saw.</p>\n                    <img src=\"bees-with-color/bee-B1DF.svg\" width=\"200\">\n                    <p><span class=\"greenText\"><b>Successful harvest!</b></span><br>Your pay has increased by $0.02. Your bonus pay is now $0.50.</p>\n            ","response":0,"trial_type":"html-button-response","trial_index":14,"time_elapsed":938135,"internal_node_id":"0.0-4.0-1.3","subject_id":"6136cf83be527a683b8c0b95","study_id":"60edd13110225f80f9f3709b","session_id":"6196c703e8e11fd02af08640","condition":"full-information","relevant_dimensions":["antennae","wings"],"bee_group":{"antennae":"A","wings":"2","pattern":"X","legs":"X"},"bonus":1.2600000000000011},{"rt":22998.60000000149,"stimulus":"bees-with-color/bee-B2DF.svg","response":1,"trial_type":"image-button-response","trial_index":15,"time_elapsed":961135,"internal_node_id":"0.0-4.0-0.4","subject_id":"6136cf83be527a683b8c0b95","study_id":"60edd13110225f80f9f3709b","session_id":"6196c703e8e11fd02af08640","condition":"full-information","relevant_dimensions":["antennae","wings"],"bee_group":{"antennae":"A","wings":"2","pattern":"X","legs":"X"},"action":"avoid","summary":"bad-avoid","bonus":1.2600000000000011},{"rt":23246.89999999851,"stimulus":"\n                    <p><b>Action: <em>avoid</em></b></p>\n                    <p>This is the bee that you just saw.</p>\n                    <img src=\"bees-with-color/bee-B2DF.svg\" width=\"200\">\n                    <p><span class=\"redText\">Bad choice,</span> the bee was friendly.<br>Your bonus pay is unchanged, and remains at $0.50.</p>\n            ","response":0,"trial_type":"html-button-response","trial_index":16,"time_elapsed":984383,"internal_node_id":"0.0-4.0-1.4","subject_id":"6136cf83be527a683b8c0b95","study_id":"60edd13110225f80f9f3709b","session_id":"6196c703e8e11fd02af08640","condition":"full-information","relevant_dimensions":["antennae","wings"],"bee_group":{"antennae":"A","wings":"2","pattern":"X","legs":"X"},"bonus":1.2600000000000011},{"rt":12750.199999999255,"stimulus":"bees-with-color/bee-A1DM.svg","response":0,"trial_type":"image-button-response","trial_index":17,"time_elapsed":997135,"internal_node_id":"0.0-4.0-0.5","subject_id":"6136cf83be527a683b8c0b95","study_id":"60edd13110225f80f9f3709b","session_id":"6196c703e8e11fd02af08640","condition":"full-information","relevant_dimensions":["antennae","wings"],"bee_group":{"antennae":"A","wings":"2","pattern":"X","legs":"X"},"action":"harvest","summary":"good-harvest","bonus":1.2600000000000011},{"rt":5678.900000002235,"stimulus":"\n                    <p><b>Action: <em>harvest</em></b></p>\n                    <p>This is the bee that you just saw.</p>\n                    <img src=\"bees-with-color/bee-A1DM.svg\" width=\"200\">\n                    <p><span class=\"greenText\"><b>Successful harvest!</b></span><br>Your pay has increased by $0.02. Your bonus pay is now $0.52.</p>\n            ","response":0,"trial_type":"html-button-response","trial_index":18,"time_elapsed":1002815,"internal_node_id":"0.0-4.0-1.5","subject_id":"6136cf83be527a683b8c0b95","study_id":"60edd13110225f80f9f3709b","session_id":"6196c703e8e11fd02af08640","condition":"full-information","relevant_dimensions":["antennae","wings"],"bee_group":{"antennae":"A","wings":"2","pattern":"X","legs":"X"},"bonus":1.2600000000000011},{"rt":21038.39999999851,"stimulus":"bees-with-color/bee-A2DM.svg","response":1,"trial_type":"image-button-response","trial_index":19,"time_elapsed":1023855,"internal_node_id":"0.0-4.0-0.6","subject_id":"6136cf83be527a683b8c0b95","study_id":"60edd13110225f80f9f3709b","session_id":"6196c703e8e11fd02af08640","condition":"full-information","relevant_dimensions":["antennae","wings"],"bee_group":{"antennae":"A","wings":"2","pattern":"X","legs":"X"},"action":"avoid","summary":"good-avoid","bonus":1.2600000000000011},{"rt":24062.800000000745,"stimulus":"\n                    <p><b>Action: <em>avoid</em></b></p>\n                    <p>This is the bee that you just saw.</p>\n                    <img src=\"bees-with-color/bee-A2DM.svg\" width=\"200\">\n                    <p><span class=\"greenText\">Good choice!</span>  This bee would have stung you.<br>Your bonus pay is unchanged, and remains at $0.52.</p>\n            ","response":0,"trial_type":"html-button-response","trial_index":20,"time_elapsed":1047919,"internal_node_id":"0.0-4.0-1.6","subject_id":"6136cf83be527a683b8c0b95","study_id":"60edd13110225f80f9f3709b","session_id":"6196c703e8e11fd02af08640","condition":"full-information","relevant_dimensions":["antennae","wings"],"bee_group":{"antennae":"A","wings":"2","pattern":"X","legs":"X"},"bonus":1.2600000000000011},{"rt":23686.699999999255,"stimulus":"bees-with-color/bee-B1SF.svg","response":1,"trial_type":"image-button-response","trial_index":21,"time_elapsed":1071607,"internal_node_id":"0.0-4.0-0.7","subject_id":"6136cf83be527a683b8c0b95","study_id":"60edd13110225f80f9f3709b","session_id":"6196c703e8e11fd02af08640","condition":"full-information","relevant_dimensions":["antennae","wings"],"bee_group":{"antennae":"A","wings":"2","pattern":"X","legs":"X"},"action":"avoid","summary":"bad-avoid","bonus":1.2600000000000011},{"rt":41774.5,"stimulus":"\n                    <p><b>Action: <em>avoid</em></b></p>\n                    <p>This is the bee that you just saw.</p>\n                    <img src=\"bees-with-color/bee-B1SF.svg\" width=\"200\">\n                    <p><span class=\"redText\">Bad choice,</span> the bee was friendly.<br>Your bonus pay is unchanged, and remains at $0.52.</p>\n            ","response":0,"trial_type":"html-button-response","trial_index":22,"time_elapsed":1113383,"internal_node_id":"0.0-4.0-1.7","subject_id":"6136cf83be527a683b8c0b95","study_id":"60edd13110225f80f9f3709b","session_id":"6196c703e8e11fd02af08640","condition":"full-information","relevant_dimensions":["antennae","wings"],"bee_group":{"antennae":"A","wings":"2","pattern":"X","legs":"X"},"bonus":1.2600000000000011},{"rt":14822.300000000745,"stimulus":"bees-with-color/bee-A2DF.svg","response":1,"trial_type":"image-button-response","trial_index":23,"time_elapsed":1128207,"internal_node_id":"0.0-4.0-0.8","subject_id":"6136cf83be527a683b8c0b95","study_id":"60edd13110225f80f9f3709b","session_id":"6196c703e8e11fd02af08640","condition":"full-information","relevant_dimensions":["antennae","wings"],"bee_group":{"antennae":"A","wings":"2","pattern":"X","legs":"X"},"action":"avoid","summary":"good-avoid","bonus":1.2600000000000011},{"rt":22934.89999999851,"stimulus":"\n                    <p><b>Action: <em>avoid</em></b></p>\n                    <p>This is the bee that you just saw.</p>\n                    <img src=\"bees-with-color/bee-A2DF.svg\" width=\"200\">\n                    <p><span class=\"greenText\">Good choice!</span>  This bee would have stung you.<br>Your bonus pay is unchanged, and remains at $0.52.</p>\n            ","response":0,"trial_type":"html-button-response","trial_index":24,"time_elapsed":1151143,"internal_node_id":"0.0-4.0-1.8","subject_id":"6136cf83be527a683b8c0b95","study_id":"60edd13110225f80f9f3709b","session_id":"6196c703e8e11fd02af08640","condition":"full-information","relevant_dimensions":["antennae","wings"],"bee_group":{"antennae":"A","wings":"2","pattern":"X","legs":"X"},"bonus":1.2600000000000011},{"rt":36246.800000000745,"stimulus":"bees-with-color/bee-B1DM.svg","response":1,"trial_type":"image-button-response","trial_index":25,"time_elapsed":1187391,"internal_node_id":"0.0-4.0-0.9","subject_id":"6136cf83be527a683b8c0b95","study_id":"60edd13110225f80f9f3709b","session_id":"6196c703e8e11fd02af08640","condition":"full-information","relevant_dimensions":["antennae","wings"],"bee_group":{"antennae":"A","wings":"2","pattern":"X","legs":"X"},"action":"avoid","summary":"bad-avoid","bonus":1.2600000000000011},{"rt":25806.79999999702,"stimulus":"\n                    <p><b>Action: <em>avoid</em></b></p>\n                    <p>This is the bee that you just saw.</p>\n                    <img src=\"bees-with-color/bee-B1DM.svg\" width=\"200\">\n                    <p><span class=\"redText\">Bad choice,</span> the bee was friendly.<br>Your bonus pay is unchanged, and remains at $0.52.</p>\n            ","response":0,"trial_type":"html-button-response","trial_index":26,"time_elapsed":1213198,"internal_node_id":"0.0-4.0-1.9","subject_id":"6136cf83be527a683b8c0b95","study_id":"60edd13110225f80f9f3709b","session_id":"6196c703e8e11fd02af08640","condition":"full-information","relevant_dimensions":["antennae","wings"],"bee_group":{"antennae":"A","wings":"2","pattern":"X","legs":"X"},"bonus":1.2600000000000011},{"rt":19774.89999999851,"stimulus":"bees-with-color/bee-A1DF.svg","response":1,"trial_type":"image-button-response","trial_index":27,"time_elapsed":1232975,"internal_node_id":"0.0-4.0-0.10","subject_id":"6136cf83be527a683b8c0b95","study_id":"60edd13110225f80f9f3709b","session_id":"6196c703e8e11fd02af08640","condition":"full-information","relevant_dimensions":["antennae","wings"],"bee_group":{"antennae":"A","wings":"2","pattern":"X","legs":"X"},"action":"avoid","summary":"bad-avoid","bonus":1.2600000000000011},{"rt":24614.89999999851,"stimulus":"\n                    <p><b>Action: <em>avoid</em></b></p>\n                    <p>This is the bee that you just saw.</p>\n                    <img src=\"bees-with-color/bee-A1DF.svg\" width=\"200\">\n                    <p><span class=\"redText\">Bad choice,</span> the bee was friendly.<br>Your bonus pay is unchanged, and remains at $0.52.</p>\n            ","response":0,"trial_type":"html-button-response","trial_index":28,"time_elapsed":1257591,"internal_node_id":"0.0-4.0-1.10","subject_id":"6136cf83be527a683b8c0b95","study_id":"60edd13110225f80f9f3709b","session_id":"6196c703e8e11fd02af08640","condition":"full-information","relevant_dimensions":["antennae","wings"],"bee_group":{"antennae":"A","wings":"2","pattern":"X","legs":"X"},"bonus":1.2600000000000011},{"rt":25550.599999997765,"stimulus":"bees-with-color/bee-A2SM.svg","response":0,"trial_type":"image-button-response","trial_index":29,"time_elapsed":1283143,"internal_node_id":"0.0-4.0-0.11","subject_id":"6136cf83be527a683b8c0b95","study_id":"60edd13110225f80f9f3709b","session_id":"6196c703e8e11fd02af08640","condition":"full-information","relevant_dimensions":["antennae","wings"],"bee_group":{"antennae":"A","wings":"2","pattern":"X","legs":"X"},"action":"harvest","summary":"bad-harvest","bonus":1.2600000000000011},{"rt":17526.5,"stimulus":"\n                    <p><b>Action: <em>harvest</em></b></p>\n                    <p>This is the bee that you just saw.</p>\n                    <img src=\"bees-with-color/bee-A2SM.svg\" width=\"200\">\n                    <p><span class=\"redText\">Bad choice, the bee was angry.</span><br><b>You have been stung!</b><br>Your pay has been decreased by $0.10. Your bonus pay is now $0.42.</p>\n            ","response":0,"trial_type":"html-button-response","trial_index":30,"time_elapsed":1300671,"internal_node_id":"0.0-4.0-1.11","subject_id":"6136cf83be527a683b8c0b95","study_id":"60edd13110225f80f9f3709b","session_id":"6196c703e8e11fd02af08640","condition":"full-information","relevant_dimensions":["antennae","wings"],"bee_group":{"antennae":"A","wings":"2","pattern":"X","legs":"X"},"bonus":1.2600000000000011},{"rt":33142.699999999255,"stimulus":"bees-with-color/bee-B2SF.svg","response":0,"trial_type":"image-button-response","trial_index":31,"time_elapsed":1333814,"internal_node_id":"0.0-4.0-0.12","subject_id":"6136cf83be527a683b8c0b95","study_id":"60edd13110225f80f9f3709b","session_id":"6196c703e8e11fd02af08640","condition":"full-information","relevant_dimensions":["antennae","wings"],"bee_group":{"antennae":"A","wings":"2","pattern":"X","legs":"X"},"action":"harvest","summary":"good-harvest","bonus":1.2600000000000011},{"rt":16295,"stimulus":"\n                    <p><b>Action: <em>harvest</em></b></p>\n                    <p>This is the bee that you just saw.</p>\n                    <img src=\"bees-with-color/bee-B2SF.svg\" width=\"200\">\n                    <p><span class=\"greenText\"><b>Successful harvest!</b></span><br>Your pay has increased by $0.02. Your bonus pay is now $0.44.</p>\n            ","response":0,"trial_type":"html-button-response","trial_index":32,"time_elapsed":1350110,"internal_node_id":"0.0-4.0-1.12","subject_id":"6136cf83be527a683b8c0b95","study_id":"60edd13110225f80f9f3709b","session_id":"6196c703e8e11fd02af08640","condition":"full-information","relevant_dimensions":["antennae","wings"],"bee_group":{"antennae":"A","wings":"2","pattern":"X","legs":"X"},"bonus":1.2600000000000011},{"rt":25310.800000000745,"stimulus":"bees-with-color/bee-A1SF.svg","response":1,"trial_type":"image-button-response","trial_index":33,"time_elapsed":1375422,"internal_node_id":"0.0-4.0-0.13","subject_id":"6136cf83be527a683b8c0b95","study_id":"60edd13110225f80f9f3709b","session_id":"6196c703e8e11fd02af08640","condition":"full-information","relevant_dimensions":["antennae","wings"],"bee_group":{"antennae":"A","wings":"2","pattern":"X","legs":"X"},"action":"avoid","summary":"bad-avoid","bonus":1.2600000000000011},{"rt":21919,"stimulus":"\n                    <p><b>Action: <em>avoid</em></b></p>\n                    <p>This is the bee that you just saw.</p>\n                    <img src=\"bees-with-color/bee-A1SF.svg\" width=\"200\">\n                    <p><span class=\"redText\">Bad choice,</span> the bee was friendly.<br>Your bonus pay is unchanged, and remains at $0.44.</p>\n            ","response":0,"trial_type":"html-button-response","trial_index":34,"time_elapsed":1397342,"internal_node_id":"0.0-4.0-1.13","subject_id":"6136cf83be527a683b8c0b95","study_id":"60edd13110225f80f9f3709b","session_id":"6196c703e8e11fd02af08640","condition":"full-information","relevant_dimensions":["antennae","wings"],"bee_group":{"antennae":"A","wings":"2","pattern":"X","legs":"X"},"bonus":1.2600000000000011},{"rt":13782.400000002235,"stimulus":"bees-with-color/bee-B2SM.svg","response":0,"trial_type":"image-button-response","trial_index":35,"time_elapsed":1411126,"internal_node_id":"0.0-4.0-0.14","subject_id":"6136cf83be527a683b8c0b95","study_id":"60edd13110225f80f9f3709b","session_id":"6196c703e8e11fd02af08640","condition":"full-information","relevant_dimensions":["antennae","wings"],"bee_group":{"antennae":"A","wings":"2","pattern":"X","legs":"X"},"action":"harvest","summary":"good-harvest","bonus":1.2600000000000011},{"rt":20662.900000002235,"stimulus":"\n                    <p><b>Action: <em>harvest</em></b></p>\n                    <p>This is the bee that you just saw.</p>\n                    <img src=\"bees-with-color/bee-B2SM.svg\" width=\"200\">\n                    <p><span class=\"greenText\"><b>Successful harvest!</b></span><br>Your pay has increased by $0.02. Your bonus pay is now $0.46.</p>\n            ","response":0,"trial_type":"html-button-response","trial_index":36,"time_elapsed":1431790,"internal_node_id":"0.0-4.0-1.14","subject_id":"6136cf83be527a683b8c0b95","study_id":"60edd13110225f80f9f3709b","session_id":"6196c703e8e11fd02af08640","condition":"full-information","relevant_dimensions":["antennae","wings"],"bee_group":{"antennae":"A","wings":"2","pattern":"X","legs":"X"},"bonus":1.2600000000000011},{"rt":30510.699999999255,"stimulus":"bees-with-color/bee-B1SM.svg","response":1,"trial_type":"image-button-response","trial_index":37,"time_elapsed":1462302,"internal_node_id":"0.0-4.0-0.15","subject_id":"6136cf83be527a683b8c0b95","study_id":"60edd13110225f80f9f3709b","session_id":"6196c703e8e11fd02af08640","condition":"full-information","relevant_dimensions":["antennae","wings"],"bee_group":{"antennae":"A","wings":"2","pattern":"X","legs":"X"},"action":"avoid","summary":"bad-avoid","bonus":1.2600000000000011},{"rt":27670.70000000298,"stimulus":"\n                    <p><b>Action: <em>avoid</em></b></p>\n                    <p>This is the bee that you just saw.</p>\n                    <img src=\"bees-with-color/bee-B1SM.svg\" width=\"200\">\n                    <p><span class=\"redText\">Bad choice,</span> the bee was friendly.<br>Your bonus pay is unchanged, and remains at $0.46.</p>\n            ","response":0,"trial_type":"html-button-response","trial_index":38,"time_elapsed":1489974,"internal_node_id":"0.0-4.0-1.15","subject_id":"6136cf83be527a683b8c0b95","study_id":"60edd13110225f80f9f3709b","session_id":"6196c703e8e11fd02af08640","condition":"full-information","relevant_dimensions":["antennae","wings"],"bee_group":{"antennae":"A","wings":"2","pattern":"X","legs":"X"},"bonus":1.2600000000000011},{"rt":17854.800000000745,"stimulus":"bees-with-color/bee-A2SF.svg","response":1,"trial_type":"image-button-response","trial_index":39,"time_elapsed":1507830,"internal_node_id":"0.0-4.0-0.16","subject_id":"6136cf83be527a683b8c0b95","study_id":"60edd13110225f80f9f3709b","session_id":"6196c703e8e11fd02af08640","condition":"full-information","relevant_dimensions":["antennae","wings"],"bee_group":{"antennae":"A","wings":"2","pattern":"X","legs":"X"},"action":"avoid","summary":"good-avoid","bonus":1.2600000000000011},{"rt":16727.10000000149,"stimulus":"\n                    <p><b>Action: <em>avoid</em></b></p>\n                    <p>This is the bee that you just saw.</p>\n                    <img src=\"bees-with-color/bee-A2SF.svg\" width=\"200\">\n                    <p><span class=\"greenText\">Good choice!</span>  This bee would have stung you.<br>Your bonus pay is unchanged, and remains at $0.46.</p>\n            ","response":0,"trial_type":"html-button-response","trial_index":40,"time_elapsed":1524558,"internal_node_id":"0.0-4.0-1.16","subject_id":"6136cf83be527a683b8c0b95","study_id":"60edd13110225f80f9f3709b","session_id":"6196c703e8e11fd02af08640","condition":"full-information","relevant_dimensions":["antennae","wings"],"bee_group":{"antennae":"A","wings":"2","pattern":"X","legs":"X"},"bonus":1.2600000000000011},{"rt":58494.79999999702,"stimulus":"bees-with-color/bee-A1DF.svg","response":0,"trial_type":"image-button-response","trial_index":41,"time_elapsed":1583054,"internal_node_id":"0.0-4.0-0.17","subject_id":"6136cf83be527a683b8c0b95","study_id":"60edd13110225f80f9f3709b","session_id":"6196c703e8e11fd02af08640","condition":"full-information","relevant_dimensions":["antennae","wings"],"bee_group":{"antennae":"A","wings":"2","pattern":"X","legs":"X"},"action":"harvest","summary":"good-harvest","bonus":1.2600000000000011},{"rt":4910.79999999702,"stimulus":"\n                    <p><b>Action: <em>harvest</em></b></p>\n                    <p>This is the bee that you just saw.</p>\n                    <img src=\"bees-with-color/bee-A1DF.svg\" width=\"200\">\n                    <p><span class=\"greenText\"><b>Successful harvest!</b></span><br>Your pay has increased by $0.02. Your bonus pay is now $0.48.</p>\n            ","response":0,"trial_type":"html-button-response","trial_index":42,"time_elapsed":1587966,"internal_node_id":"0.0-4.0-1.17","subject_id":"6136cf83be527a683b8c0b95","study_id":"60edd13110225f80f9f3709b","session_id":"6196c703e8e11fd02af08640","condition":"full-information","relevant_dimensions":["antennae","wings"],"bee_group":{"antennae":"A","wings":"2","pattern":"X","legs":"X"},"bonus":1.2600000000000011},{"rt":39358.79999999702,"stimulus":"bees-with-color/bee-B2DF.svg","response":0,"trial_type":"image-button-response","trial_index":43,"time_elapsed":1627326,"internal_node_id":"0.0-4.0-0.18","subject_id":"6136cf83be527a683b8c0b95","study_id":"60edd13110225f80f9f3709b","session_id":"6196c703e8e11fd02af08640","condition":"full-information","relevant_dimensions":["antennae","wings"],"bee_group":{"antennae":"A","wings":"2","pattern":"X","legs":"X"},"action":"harvest","summary":"good-harvest","bonus":1.2600000000000011},{"rt":21222.699999999255,"stimulus":"\n                    <p><b>Action: <em>harvest</em></b></p>\n                    <p>This is the bee that you just saw.</p>\n                    <img src=\"bees-with-color/bee-B2DF.svg\" width=\"200\">\n                    <p><span class=\"greenText\"><b>Successful harvest!</b></span><br>Your pay has increased by $0.02. Your bonus pay is now $0.50.</p>\n            ","response":0,"trial_type":"html-button-response","trial_index":44,"time_elapsed":1648550,"internal_node_id":"0.0-4.0-1.18","subject_id":"6136cf83be527a683b8c0b95","study_id":"60edd13110225f80f9f3709b","session_id":"6196c703e8e11fd02af08640","condition":"full-information","relevant_dimensions":["antennae","wings"],"bee_group":{"antennae":"A","wings":"2","pattern":"X","legs":"X"},"bonus":1.2600000000000011},{"rt":59782.300000000745,"stimulus":"bees-with-color/bee-B1DM.svg","response":0,"trial_type":"image-button-response","trial_index":45,"time_elapsed":1708334,"internal_node_id":"0.0-4.0-0.19","subject_id":"6136cf83be527a683b8c0b95","study_id":"60edd13110225f80f9f3709b","session_id":"6196c703e8e11fd02af08640","condition":"full-information","relevant_dimensions":["antennae","wings"],"bee_group":{"antennae":"A","wings":"2","pattern":"X","legs":"X"},"action":"harvest","summary":"good-harvest","bonus":1.2600000000000011},{"rt":1551,"stimulus":"\n                    <p><b>Action: <em>harvest</em></b></p>\n                    <p>This is the bee that you just saw.</p>\n                    <img src=\"bees-with-color/bee-B1DM.svg\" width=\"200\">\n                    <p><span class=\"greenText\"><b>Successful harvest!</b></span><br>Your pay has increased by $0.02. Your bonus pay is now $0.52.</p>\n            ","response":0,"trial_type":"html-button-response","trial_index":46,"time_elapsed":1709886,"internal_node_id":"0.0-4.0-1.19","subject_id":"6136cf83be527a683b8c0b95","study_id":"60edd13110225f80f9f3709b","session_id":"6196c703e8e11fd02af08640","condition":"full-information","relevant_dimensions":["antennae","wings"],"bee_group":{"antennae":"A","wings":"2","pattern":"X","legs":"X"},"bonus":1.2600000000000011},{"rt":43887.10000000149,"stimulus":"bees-with-color/bee-B2SF.svg","response":0,"trial_type":"image-button-response","trial_index":47,"time_elapsed":1753774,"internal_node_id":"0.0-4.0-0.20","subject_id":"6136cf83be527a683b8c0b95","study_id":"60edd13110225f80f9f3709b","session_id":"6196c703e8e11fd02af08640","condition":"full-information","relevant_dimensions":["antennae","wings"],"bee_group":{"antennae":"A","wings":"2","pattern":"X","legs":"X"},"action":"harvest","summary":"good-harvest","bonus":1.2600000000000011},{"rt":2918.5,"stimulus":"\n                    <p><b>Action: <em>harvest</em></b></p>\n                    <p>This is the bee that you just saw.</p>\n                    <img src=\"bees-with-color/bee-B2SF.svg\" width=\"200\">\n                    <p><span class=\"greenText\"><b>Successful harvest!</b></span><br>Your pay has increased by $0.02. Your bonus pay is now $0.54.</p>\n            ","response":0,"trial_type":"html-button-response","trial_index":48,"time_elapsed":1756694,"internal_node_id":"0.0-4.0-1.20","subject_id":"6136cf83be527a683b8c0b95","study_id":"60edd13110225f80f9f3709b","session_id":"6196c703e8e11fd02af08640","condition":"full-information","relevant_dimensions":["antennae","wings"],"bee_group":{"antennae":"A","wings":"2","pattern":"X","legs":"X"},"bonus":1.2600000000000011},{"rt":45503.10000000149,"stimulus":"bees-with-color/bee-A2DF.svg","response":1,"trial_type":"image-button-response","trial_index":49,"time_elapsed":1802198,"internal_node_id":"0.0-4.0-0.21","subject_id":"6136cf83be527a683b8c0b95","study_id":"60edd13110225f80f9f3709b","session_id":"6196c703e8e11fd02af08640","condition":"full-information","relevant_dimensions":["antennae","wings"],"bee_group":{"antennae":"A","wings":"2","pattern":"X","legs":"X"},"action":"avoid","summary":"good-avoid","bonus":1.2600000000000011},{"rt":25974.70000000298,"stimulus":"\n                    <p><b>Action: <em>avoid</em></b></p>\n                    <p>This is the bee that you just saw.</p>\n                    <img src=\"bees-with-color/bee-A2DF.svg\" width=\"200\">\n                    <p><span class=\"greenText\">Good choice!</span>  This bee would have stung you.<br>Your bonus pay is unchanged, and remains at $0.54.</p>\n            ","response":0,"trial_type":"html-button-response","trial_index":50,"time_elapsed":1828174,"internal_node_id":"0.0-4.0-1.21","subject_id":"6136cf83be527a683b8c0b95","study_id":"60edd13110225f80f9f3709b","session_id":"6196c703e8e11fd02af08640","condition":"full-information","relevant_dimensions":["antennae","wings"],"bee_group":{"antennae":"A","wings":"2","pattern":"X","legs":"X"},"bonus":1.2600000000000011},{"rt":14422.70000000298,"stimulus":"bees-with-color/bee-A1SM.svg","response":0,"trial_type":"image-button-response","trial_index":51,"time_elapsed":1842598,"internal_node_id":"0.0-4.0-0.22","subject_id":"6136cf83be527a683b8c0b95","study_id":"60edd13110225f80f9f3709b","session_id":"6196c703e8e11fd02af08640","condition":"full-information","relevant_dimensions":["antennae","wings"],"bee_group":{"antennae":"A","wings":"2","pattern":"X","legs":"X"},"action":"harvest","summary":"good-harvest","bonus":1.2600000000000011},{"rt":1247.1000000014901,"stimulus":"\n                    <p><b>Action: <em>harvest</em></b></p>\n                    <p>This is the bee that you just saw.</p>\n                    <img src=\"bees-with-color/bee-A1SM.svg\" width=\"200\">\n                    <p><span class=\"greenText\"><b>Successful harvest!</b></span><br>Your pay has increased by $0.02. Your bonus pay is now $0.56.</p>\n            ","response":0,"trial_type":"html-button-response","trial_index":52,"time_elapsed":1843846,"internal_node_id":"0.0-4.0-1.22","subject_id":"6136cf83be527a683b8c0b95","study_id":"60edd13110225f80f9f3709b","session_id":"6196c703e8e11fd02af08640","condition":"full-information","relevant_dimensions":["antennae","wings"],"bee_group":{"antennae":"A","wings":"2","pattern":"X","legs":"X"},"bonus":1.2600000000000011},{"rt":30606.699999999255,"stimulus":"bees-with-color/bee-B1SM.svg","response":1,"trial_type":"image-button-response","trial_index":53,"time_elapsed":1874454,"internal_node_id":"0.0-4.0-0.23","subject_id":"6136cf83be527a683b8c0b95","study_id":"60edd13110225f80f9f3709b","session_id":"6196c703e8e11fd02af08640","condition":"full-information","relevant_dimensions":["antennae","wings"],"bee_group":{"antennae":"A","wings":"2","pattern":"X","legs":"X"},"action":"avoid","summary":"bad-avoid","bonus":1.2600000000000011},{"rt":29767,"stimulus":"\n                    <p><b>Action: <em>avoid</em></b></p>\n                    <p>This is the bee that you just saw.</p>\n                    <img src=\"bees-with-color/bee-B1SM.svg\" width=\"200\">\n                    <p><span class=\"redText\">Bad choice,</span> the bee was friendly.<br>Your bonus pay is unchanged, and remains at $0.56.</p>\n            ","response":0,"trial_type":"html-button-response","trial_index":54,"time_elapsed":1904222,"internal_node_id":"0.0-4.0-1.23","subject_id":"6136cf83be527a683b8c0b95","study_id":"60edd13110225f80f9f3709b","session_id":"6196c703e8e11fd02af08640","condition":"full-information","relevant_dimensions":["antennae","wings"],"bee_group":{"antennae":"A","wings":"2","pattern":"X","legs":"X"},"bonus":1.2600000000000011},{"rt":12358.800000000745,"stimulus":"bees-with-color/bee-B1DF.svg","response":0,"trial_type":"image-button-response","trial_index":55,"time_elapsed":1916582,"internal_node_id":"0.0-4.0-0.24","subject_id":"6136cf83be527a683b8c0b95","study_id":"60edd13110225f80f9f3709b","session_id":"6196c703e8e11fd02af08640","condition":"full-information","relevant_dimensions":["antennae","wings"],"bee_group":{"antennae":"A","wings":"2","pattern":"X","legs":"X"},"action":"harvest","summary":"good-harvest","bonus":1.2600000000000011},{"rt":1502.800000000745,"stimulus":"\n                    <p><b>Action: <em>harvest</em></b></p>\n                    <p>This is the bee that you just saw.</p>\n                    <img src=\"bees-with-color/bee-B1DF.svg\" width=\"200\">\n                    <p><span class=\"greenText\"><b>Successful harvest!</b></span><br>Your pay has increased by $0.02. Your bonus pay is now $0.58.</p>\n            ","response":0,"trial_type":"html-button-response","trial_index":56,"time_elapsed":1918086,"internal_node_id":"0.0-4.0-1.24","subject_id":"6136cf83be527a683b8c0b95","study_id":"60edd13110225f80f9f3709b","session_id":"6196c703e8e11fd02af08640","condition":"full-information","relevant_dimensions":["antennae","wings"],"bee_group":{"antennae":"A","wings":"2","pattern":"X","legs":"X"},"bonus":1.2600000000000011},{"rt":58150.599999997765,"stimulus":"bees-with-color/bee-B2DM.svg","response":0,"trial_type":"image-button-response","trial_index":57,"time_elapsed":1976238,"internal_node_id":"0.0-4.0-0.25","subject_id":"6136cf83be527a683b8c0b95","study_id":"60edd13110225f80f9f3709b","session_id":"6196c703e8e11fd02af08640","condition":"full-information","relevant_dimensions":["antennae","wings"],"bee_group":{"antennae":"A","wings":"2","pattern":"X","legs":"X"},"action":"harvest","summary":"good-harvest","bonus":1.2600000000000011},{"rt":1902.699999999255,"stimulus":"\n                    <p><b>Action: <em>harvest</em></b></p>\n                    <p>This is the bee that you just saw.</p>\n                    <img src=\"bees-with-color/bee-B2DM.svg\" width=\"200\">\n                    <p><span class=\"greenText\"><b>Successful harvest!</b></span><br>Your pay has increased by $0.02. Your bonus pay is now $0.60.</p>\n            ","response":0,"trial_type":"html-button-response","trial_index":58,"time_elapsed":1978141,"internal_node_id":"0.0-4.0-1.25","subject_id":"6136cf83be527a683b8c0b95","study_id":"60edd13110225f80f9f3709b","session_id":"6196c703e8e11fd02af08640","condition":"full-information","relevant_dimensions":["antennae","wings"],"bee_group":{"antennae":"A","wings":"2","pattern":"X","legs":"X"},"bonus":1.2600000000000011},{"rt":19446.800000000745,"stimulus":"bees-with-color/bee-A1DM.svg","response":1,"trial_type":"image-button-response","trial_index":59,"time_elapsed":1997590,"internal_node_id":"0.0-4.0-0.26","subject_id":"6136cf83be527a683b8c0b95","study_id":"60edd13110225f80f9f3709b","session_id":"6196c703e8e11fd02af08640","condition":"full-information","relevant_dimensions":["antennae","wings"],"bee_group":{"antennae":"A","wings":"2","pattern":"X","legs":"X"},"action":"avoid","summary":"bad-avoid","bonus":1.2600000000000011},{"rt":21367,"stimulus":"\n                    <p><b>Action: <em>avoid</em></b></p>\n                    <p>This is the bee that you just saw.</p>\n                    <img src=\"bees-with-color/bee-A1DM.svg\" width=\"200\">\n                    <p><span class=\"redText\">Bad choice,</span> the bee was friendly.<br>Your bonus pay is unchanged, and remains at $0.60.</p>\n            ","response":0,"trial_type":"html-button-response","trial_index":60,"time_elapsed":2018958,"internal_node_id":"0.0-4.0-1.26","subject_id":"6136cf83be527a683b8c0b95","study_id":"60edd13110225f80f9f3709b","session_id":"6196c703e8e11fd02af08640","condition":"full-information","relevant_dimensions":["antennae","wings"],"bee_group":{"antennae":"A","wings":"2","pattern":"X","legs":"X"},"bonus":1.2600000000000011},{"rt":36934.199999999255,"stimulus":"bees-with-color/bee-A1SF.svg","response":1,"trial_type":"image-button-response","trial_index":61,"time_elapsed":2055894,"internal_node_id":"0.0-4.0-0.27","subject_id":"6136cf83be527a683b8c0b95","study_id":"60edd13110225f80f9f3709b","session_id":"6196c703e8e11fd02af08640","condition":"full-information","relevant_dimensions":["antennae","wings"],"bee_group":{"antennae":"A","wings":"2","pattern":"X","legs":"X"},"action":"avoid","summary":"bad-avoid","bonus":1.2600000000000011},{"rt":36590.599999997765,"stimulus":"\n                    <p><b>Action: <em>avoid</em></b></p>\n                    <p>This is the bee that you just saw.</p>\n                    <img src=\"bees-with-color/bee-A1SF.svg\" width=\"200\">\n                    <p><span class=\"redText\">Bad choice,</span> the bee was friendly.<br>Your bonus pay is unchanged, and remains at $0.60.</p>\n            ","response":0,"trial_type":"html-button-response","trial_index":62,"time_elapsed":2092485,"internal_node_id":"0.0-4.0-1.27","subject_id":"6136cf83be527a683b8c0b95","study_id":"60edd13110225f80f9f3709b","session_id":"6196c703e8e11fd02af08640","condition":"full-information","relevant_dimensions":["antennae","wings"],"bee_group":{"antennae":"A","wings":"2","pattern":"X","legs":"X"},"bonus":1.2600000000000011},{"rt":13886.699999999255,"stimulus":"bees-with-color/bee-A2SM.svg","response":0,"trial_type":"image-button-response","trial_index":63,"time_elapsed":2106373,"internal_node_id":"0.0-4.0-0.28","subject_id":"6136cf83be527a683b8c0b95","study_id":"60edd13110225f80f9f3709b","session_id":"6196c703e8e11fd02af08640","condition":"full-information","relevant_dimensions":["antennae","wings"],"bee_group":{"antennae":"A","wings":"2","pattern":"X","legs":"X"},"action":"harvest","summary":"bad-harvest","bonus":1.2600000000000011},{"rt":18694.70000000298,"stimulus":"\n                    <p><b>Action: <em>harvest</em></b></p>\n                    <p>This is the bee that you just saw.</p>\n                    <img src=\"bees-with-color/bee-A2SM.svg\" width=\"200\">\n                    <p><span class=\"redText\">Bad choice, the bee was angry.</span><br><b>You have been stung!</b><br>Your pay has been decreased by $0.10. Your bonus pay is now $0.50.</p>\n            ","response":0,"trial_type":"html-button-response","trial_index":64,"time_elapsed":2125069,"internal_node_id":"0.0-4.0-1.28","subject_id":"6136cf83be527a683b8c0b95","study_id":"60edd13110225f80f9f3709b","session_id":"6196c703e8e11fd02af08640","condition":"full-information","relevant_dimensions":["antennae","wings"],"bee_group":{"antennae":"A","wings":"2","pattern":"X","legs":"X"},"bonus":1.2600000000000011},{"rt":41470.60000000149,"stimulus":"bees-with-color/bee-B1SF.svg","response":0,"trial_type":"image-button-response","trial_index":65,"time_elapsed":2166541,"internal_node_id":"0.0-4.0-0.29","subject_id":"6136cf83be527a683b8c0b95","study_id":"60edd13110225f80f9f3709b","session_id":"6196c703e8e11fd02af08640","condition":"full-information","relevant_dimensions":["antennae","wings"],"bee_group":{"antennae":"A","wings":"2","pattern":"X","legs":"X"},"action":"harvest","summary":"good-harvest","bonus":1.2600000000000011},{"rt":726.8000000007451,"stimulus":"\n                    <p><b>Action: <em>harvest</em></b></p>\n                    <p>This is the bee that you just saw.</p>\n                    <img src=\"bees-with-color/bee-B1SF.svg\" width=\"200\">\n                    <p><span class=\"greenText\"><b>Successful harvest!</b></span><br>Your pay has increased by $0.02. Your bonus pay is now $0.52.</p>\n            ","response":0,"trial_type":"html-button-response","trial_index":66,"time_elapsed":2167269,"internal_node_id":"0.0-4.0-1.29","subject_id":"6136cf83be527a683b8c0b95","study_id":"60edd13110225f80f9f3709b","session_id":"6196c703e8e11fd02af08640","condition":"full-information","relevant_dimensions":["antennae","wings"],"bee_group":{"antennae":"A","wings":"2","pattern":"X","legs":"X"},"bonus":1.2600000000000011},{"rt":18574.800000000745,"stimulus":"bees-with-color/bee-B2SM.svg","response":0,"trial_type":"image-button-response","trial_index":67,"time_elapsed":2185845,"internal_node_id":"0.0-4.0-0.30","subject_id":"6136cf83be527a683b8c0b95","study_id":"60edd13110225f80f9f3709b","session_id":"6196c703e8e11fd02af08640","condition":"full-information","relevant_dimensions":["antennae","wings"],"bee_group":{"antennae":"A","wings":"2","pattern":"X","legs":"X"},"action":"harvest","summary":"good-harvest","bonus":1.2600000000000011},{"rt":758.6999999992549,"stimulus":"\n                    <p><b>Action: <em>harvest</em></b></p>\n                    <p>This is the bee that you just saw.</p>\n                    <img src=\"bees-with-color/bee-B2SM.svg\" width=\"200\">\n                    <p><span class=\"greenText\"><b>Successful harvest!</b></span><br>Your pay has increased by $0.02. Your bonus pay is now $0.54.</p>\n            ","response":0,"trial_type":"html-button-response","trial_index":68,"time_elapsed":2186605,"internal_node_id":"0.0-4.0-1.30","subject_id":"6136cf83be527a683b8c0b95","study_id":"60edd13110225f80f9f3709b","session_id":"6196c703e8e11fd02af08640","condition":"full-information","relevant_dimensions":["antennae","wings"],"bee_group":{"antennae":"A","wings":"2","pattern":"X","legs":"X"},"bonus":1.2600000000000011},{"rt":28014.60000000149,"stimulus":"bees-with-color/bee-A2DM.svg","response":0,"trial_type":"image-button-response","trial_index":69,"time_elapsed":2214621,"internal_node_id":"0.0-4.0-0.31","subject_id":"6136cf83be527a683b8c0b95","study_id":"60edd13110225f80f9f3709b","session_id":"6196c703e8e11fd02af08640","condition":"full-information","relevant_dimensions":["antennae","wings"],"bee_group":{"antennae":"A","wings":"2","pattern":"X","legs":"X"},"action":"harvest","summary":"bad-harvest","bonus":1.2600000000000011},{"rt":20998.599999997765,"stimulus":"\n                    <p><b>Action: <em>harvest</em></b></p>\n                    <p>This is the bee that you just saw.</p>\n                    <img src=\"bees-with-color/bee-A2DM.svg\" width=\"200\">\n                    <p><span class=\"redText\">Bad choice, the bee was angry.</span><br><b>You have been stung!</b><br>Your pay has been decreased by $0.10. Your bonus pay is now $0.44.</p>\n            ","response":0,"trial_type":"html-button-response","trial_index":70,"time_elapsed":2235621,"internal_node_id":"0.0-4.0-1.31","subject_id":"6136cf83be527a683b8c0b95","study_id":"60edd13110225f80f9f3709b","session_id":"6196c703e8e11fd02af08640","condition":"full-information","relevant_dimensions":["antennae","wings"],"bee_group":{"antennae":"A","wings":"2","pattern":"X","legs":"X"},"bonus":1.2600000000000011},{"rt":26062.800000000745,"stimulus":"bees-with-color/bee-B1DM.svg","response":0,"trial_type":"image-button-response","trial_index":71,"time_elapsed":2261685,"internal_node_id":"0.0-4.0-0.32","subject_id":"6136cf83be527a683b8c0b95","study_id":"60edd13110225f80f9f3709b","session_id":"6196c703e8e11fd02af08640","condition":"full-information","relevant_dimensions":["antennae","wings"],"bee_group":{"antennae":"A","wings":"2","pattern":"X","legs":"X"},"action":"harvest","summary":"good-harvest","bonus":1.2600000000000011},{"rt":3214.699999999255,"stimulus":"\n                    <p><b>Action: <em>harvest</em></b></p>\n                    <p>This is the bee that you just saw.</p>\n                    <img src=\"bees-with-color/bee-B1DM.svg\" width=\"200\">\n                    <p><span class=\"greenText\"><b>Successful harvest!</b></span><br>Your pay has increased by $0.02. Your bonus pay is now $0.46.</p>\n            ","response":0,"trial_type":"html-button-response","trial_index":72,"time_elapsed":2264901,"internal_node_id":"0.0-4.0-1.32","subject_id":"6136cf83be527a683b8c0b95","study_id":"60edd13110225f80f9f3709b","session_id":"6196c703e8e11fd02af08640","condition":"full-information","relevant_dimensions":["antennae","wings"],"bee_group":{"antennae":"A","wings":"2","pattern":"X","legs":"X"},"bonus":1.2600000000000011},{"rt":14119,"stimulus":"bees-with-color/bee-B2SM.svg","response":0,"trial_type":"image-button-response","trial_index":73,"time_elapsed":2279021,"internal_node_id":"0.0-4.0-0.33","subject_id":"6136cf83be527a683b8c0b95","study_id":"60edd13110225f80f9f3709b","session_id":"6196c703e8e11fd02af08640","condition":"full-information","relevant_dimensions":["antennae","wings"],"bee_group":{"antennae":"A","wings":"2","pattern":"X","legs":"X"},"action":"harvest","summary":"good-harvest","bonus":1.2600000000000011},{"rt":671,"stimulus":"\n                    <p><b>Action: <em>harvest</em></b></p>\n                    <p>This is the bee that you just saw.</p>\n                    <img src=\"bees-with-color/bee-B2SM.svg\" width=\"200\">\n                    <p><span class=\"greenText\"><b>Successful harvest!</b></span><br>Your pay has increased by $0.02. Your bonus pay is now $0.48.</p>\n            ","response":0,"trial_type":"html-button-response","trial_index":74,"time_elapsed":2279693,"internal_node_id":"0.0-4.0-1.33","subject_id":"6136cf83be527a683b8c0b95","study_id":"60edd13110225f80f9f3709b","session_id":"6196c703e8e11fd02af08640","condition":"full-information","relevant_dimensions":["antennae","wings"],"bee_group":{"antennae":"A","wings":"2","pattern":"X","legs":"X"},"bonus":1.2600000000000011},{"rt":8206.89999999851,"stimulus":"bees-with-color/bee-B2DF.svg","response":0,"trial_type":"image-button-response","trial_index":75,"time_elapsed":2287901,"internal_node_id":"0.0-4.0-0.34","subject_id":"6136cf83be527a683b8c0b95","study_id":"60edd13110225f80f9f3709b","session_id":"6196c703e8e11fd02af08640","condition":"full-information","relevant_dimensions":["antennae","wings"],"bee_group":{"antennae":"A","wings":"2","pattern":"X","legs":"X"},"action":"harvest","summary":"good-harvest","bonus":1.2600000000000011},{"rt":775.1000000014901,"stimulus":"\n                    <p><b>Action: <em>harvest</em></b></p>\n                    <p>This is the bee that you just saw.</p>\n                    <img src=\"bees-with-color/bee-B2DF.svg\" width=\"200\">\n                    <p><span class=\"greenText\"><b>Successful harvest!</b></span><br>Your pay has increased by $0.02. Your bonus pay is now $0.50.</p>\n            ","response":0,"trial_type":"html-button-response","trial_index":76,"time_elapsed":2288677,"internal_node_id":"0.0-4.0-1.34","subject_id":"6136cf83be527a683b8c0b95","study_id":"60edd13110225f80f9f3709b","session_id":"6196c703e8e11fd02af08640","condition":"full-information","relevant_dimensions":["antennae","wings"],"bee_group":{"antennae":"A","wings":"2","pattern":"X","legs":"X"},"bonus":1.2600000000000011},{"rt":20502.800000000745,"stimulus":"bees-with-color/bee-A2SM.svg","response":1,"trial_type":"image-button-response","trial_index":77,"time_elapsed":2309181,"internal_node_id":"0.0-4.0-0.35","subject_id":"6136cf83be527a683b8c0b95","study_id":"60edd13110225f80f9f3709b","session_id":"6196c703e8e11fd02af08640","condition":"full-information","relevant_dimensions":["antennae","wings"],"bee_group":{"antennae":"A","wings":"2","pattern":"X","legs":"X"},"action":"avoid","summary":"good-avoid","bonus":1.2600000000000011},{"rt":750.5999999977648,"stimulus":"\n                    <p><b>Action: <em>avoid</em></b></p>\n                    <p>This is the bee that you just saw.</p>\n                    <img src=\"bees-with-color/bee-A2SM.svg\" width=\"200\">\n                    <p><span class=\"greenText\">Good choice!</span>  This bee would have stung you.<br>Your bonus pay is unchanged, and remains at $0.50.</p>\n            ","response":0,"trial_type":"html-button-response","trial_index":78,"time_elapsed":2309933,"internal_node_id":"0.0-4.0-1.35","subject_id":"6136cf83be527a683b8c0b95","study_id":"60edd13110225f80f9f3709b","session_id":"6196c703e8e11fd02af08640","condition":"full-information","relevant_dimensions":["antennae","wings"],"bee_group":{"antennae":"A","wings":"2","pattern":"X","legs":"X"},"bonus":1.2600000000000011},{"rt":9390.699999999255,"stimulus":"bees-with-color/bee-A1SF.svg","response":0,"trial_type":"image-button-response","trial_index":79,"time_elapsed":2319325,"internal_node_id":"0.0-4.0-0.36","subject_id":"6136cf83be527a683b8c0b95","study_id":"60edd13110225f80f9f3709b","session_id":"6196c703e8e11fd02af08640","condition":"full-information","relevant_dimensions":["antennae","wings"],"bee_group":{"antennae":"A","wings":"2","pattern":"X","legs":"X"},"action":"harvest","summary":"good-harvest","bonus":1.2600000000000011},{"rt":702.8999999985099,"stimulus":"\n                    <p><b>Action: <em>harvest</em></b></p>\n                    <p>This is the bee that you just saw.</p>\n                    <img src=\"bees-with-color/bee-A1SF.svg\" width=\"200\">\n                    <p><span class=\"greenText\"><b>Successful harvest!</b></span><br>Your pay has increased by $0.02. Your bonus pay is now $0.52.</p>\n            ","response":0,"trial_type":"html-button-response","trial_index":80,"time_elapsed":2320029,"internal_node_id":"0.0-4.0-1.36","subject_id":"6136cf83be527a683b8c0b95","study_id":"60edd13110225f80f9f3709b","session_id":"6196c703e8e11fd02af08640","condition":"full-information","relevant_dimensions":["antennae","wings"],"bee_group":{"antennae":"A","wings":"2","pattern":"X","legs":"X"},"bonus":1.2600000000000011},{"rt":30614.60000000149,"stimulus":"bees-with-color/bee-B2DM.svg","response":0,"trial_type":"image-button-response","trial_index":81,"time_elapsed":2350645,"internal_node_id":"0.0-4.0-0.37","subject_id":"6136cf83be527a683b8c0b95","study_id":"60edd13110225f80f9f3709b","session_id":"6196c703e8e11fd02af08640","condition":"full-information","relevant_dimensions":["antennae","wings"],"bee_group":{"antennae":"A","wings":"2","pattern":"X","legs":"X"},"action":"harvest","summary":"good-harvest","bonus":1.2600000000000011},{"rt":1694.699999999255,"stimulus":"\n                    <p><b>Action: <em>harvest</em></b></p>\n                    <p>This is the bee that you just saw.</p>\n                    <img src=\"bees-with-color/bee-B2DM.svg\" width=\"200\">\n                    <p><span class=\"greenText\"><b>Successful harvest!</b></span><br>Your pay has increased by $0.02. Your bonus pay is now $0.54.</p>\n            ","response":0,"trial_type":"html-button-response","trial_index":82,"time_elapsed":2352341,"internal_node_id":"0.0-4.0-1.37","subject_id":"6136cf83be527a683b8c0b95","study_id":"60edd13110225f80f9f3709b","session_id":"6196c703e8e11fd02af08640","condition":"full-information","relevant_dimensions":["antennae","wings"],"bee_group":{"antennae":"A","wings":"2","pattern":"X","legs":"X"},"bonus":1.2600000000000011},{"rt":10646.699999999255,"stimulus":"bees-with-color/bee-A2SF.svg","response":1,"trial_type":"image-button-response","trial_index":83,"time_elapsed":2362989,"internal_node_id":"0.0-4.0-0.38","subject_id":"6136cf83be527a683b8c0b95","study_id":"60edd13110225f80f9f3709b","session_id":"6196c703e8e11fd02af08640","condition":"full-information","relevant_dimensions":["antennae","wings"],"bee_group":{"antennae":"A","wings":"2","pattern":"X","legs":"X"},"action":"avoid","summary":"good-avoid","bonus":1.2600000000000011},{"rt":926.8000000007451,"stimulus":"\n                    <p><b>Action: <em>avoid</em></b></p>\n                    <p>This is the bee that you just saw.</p>\n                    <img src=\"bees-with-color/bee-A2SF.svg\" width=\"200\">\n                    <p><span class=\"greenText\">Good choice!</span>  This bee would have stung you.<br>Your bonus pay is unchanged, and remains at $0.54.</p>\n            ","response":0,"trial_type":"html-button-response","trial_index":84,"time_elapsed":2363917,"internal_node_id":"0.0-4.0-1.38","subject_id":"6136cf83be527a683b8c0b95","study_id":"60edd13110225f80f9f3709b","session_id":"6196c703e8e11fd02af08640","condition":"full-information","relevant_dimensions":["antennae","wings"],"bee_group":{"antennae":"A","wings":"2","pattern":"X","legs":"X"},"bonus":1.2600000000000011},{"rt":27718.5,"stimulus":"bees-with-color/bee-B2SF.svg","response":0,"trial_type":"image-button-response","trial_index":85,"time_elapsed":2391637,"internal_node_id":"0.0-4.0-0.39","subject_id":"6136cf83be527a683b8c0b95","study_id":"60edd13110225f80f9f3709b","session_id":"6196c703e8e11fd02af08640","condition":"full-information","relevant_dimensions":["antennae","wings"],"bee_group":{"antennae":"A","wings":"2","pattern":"X","legs":"X"},"action":"harvest","summary":"good-harvest","bonus":1.2600000000000011},{"rt":1334.699999999255,"stimulus":"\n                    <p><b>Action: <em>harvest</em></b></p>\n                    <p>This is the bee that you just saw.</p>\n                    <img src=\"bees-with-color/bee-B2SF.svg\" width=\"200\">\n                    <p><span class=\"greenText\"><b>Successful harvest!</b></span><br>Your pay has increased by $0.02. Your bonus pay is now $0.56.</p>\n            ","response":0,"trial_type":"html-button-response","trial_index":86,"time_elapsed":2392973,"internal_node_id":"0.0-4.0-1.39","subject_id":"6136cf83be527a683b8c0b95","study_id":"60edd13110225f80f9f3709b","session_id":"6196c703e8e11fd02af08640","condition":"full-information","relevant_dimensions":["antennae","wings"],"bee_group":{"antennae":"A","wings":"2","pattern":"X","legs":"X"},"bonus":1.2600000000000011},{"rt":31686.900000002235,"stimulus":"bees-with-color/bee-B1DF.svg","response":0,"trial_type":"image-button-response","trial_index":87,"time_elapsed":2424661,"internal_node_id":"0.0-4.0-0.40","subject_id":"6136cf83be527a683b8c0b95","study_id":"60edd13110225f80f9f3709b","session_id":"6196c703e8e11fd02af08640","condition":"full-information","relevant_dimensions":["antennae","wings"],"bee_group":{"antennae":"A","wings":"2","pattern":"X","legs":"X"},"action":"harvest","summary":"good-harvest","bonus":1.2600000000000011},{"rt":1318.9000000022352,"stimulus":"\n                    <p><b>Action: <em>harvest</em></b></p>\n                    <p>This is the bee that you just saw.</p>\n                    <img src=\"bees-with-color/bee-B1DF.svg\" width=\"200\">\n                    <p><span class=\"greenText\"><b>Successful harvest!</b></span><br>Your pay has increased by $0.02. Your bonus pay is now $0.58.</p>\n            ","response":0,"trial_type":"html-button-response","trial_index":88,"time_elapsed":2425981,"internal_node_id":"0.0-4.0-1.40","subject_id":"6136cf83be527a683b8c0b95","study_id":"60edd13110225f80f9f3709b","session_id":"6196c703e8e11fd02af08640","condition":"full-information","relevant_dimensions":["antennae","wings"],"bee_group":{"antennae":"A","wings":"2","pattern":"X","legs":"X"},"bonus":1.2600000000000011},{"rt":48526.60000000149,"stimulus":"bees-with-color/bee-A1DM.svg","response":0,"trial_type":"image-button-response","trial_index":89,"time_elapsed":2474509,"internal_node_id":"0.0-4.0-0.41","subject_id":"6136cf83be527a683b8c0b95","study_id":"60edd13110225f80f9f3709b","session_id":"6196c703e8e11fd02af08640","condition":"full-information","relevant_dimensions":["antennae","wings"],"bee_group":{"antennae":"A","wings":"2","pattern":"X","legs":"X"},"action":"harvest","summary":"good-harvest","bonus":1.2600000000000011},{"rt":815.0999999977648,"stimulus":"\n                    <p><b>Action: <em>harvest</em></b></p>\n                    <p>This is the bee that you just saw.</p>\n                    <img src=\"bees-with-color/bee-A1DM.svg\" width=\"200\">\n                    <p><span class=\"greenText\"><b>Successful harvest!</b></span><br>Your pay has increased by $0.02. Your bonus pay is now $0.60.</p>\n            ","response":0,"trial_type":"html-button-response","trial_index":90,"time_elapsed":2475325,"internal_node_id":"0.0-4.0-1.41","subject_id":"6136cf83be527a683b8c0b95","study_id":"60edd13110225f80f9f3709b","session_id":"6196c703e8e11fd02af08640","condition":"full-information","relevant_dimensions":["antennae","wings"],"bee_group":{"antennae":"A","wings":"2","pattern":"X","legs":"X"},"bonus":1.2600000000000011},{"rt":30262.70000000298,"stimulus":"bees-with-color/bee-B1SM.svg","response":0,"trial_type":"image-button-response","trial_index":91,"time_elapsed":2505589,"internal_node_id":"0.0-4.0-0.42","subject_id":"6136cf83be527a683b8c0b95","study_id":"60edd13110225f80f9f3709b","session_id":"6196c703e8e11fd02af08640","condition":"full-information","relevant_dimensions":["antennae","wings"],"bee_group":{"antennae":"A","wings":"2","pattern":"X","legs":"X"},"action":"harvest","summary":"good-harvest","bonus":1.2600000000000011},{"rt":1255,"stimulus":"\n                    <p><b>Action: <em>harvest</em></b></p>\n                    <p>This is the bee that you just saw.</p>\n                    <img src=\"bees-with-color/bee-B1SM.svg\" width=\"200\">\n                    <p><span class=\"greenText\"><b>Successful harvest!</b></span><br>Your pay has increased by $0.02. Your bonus pay is now $0.62.</p>\n            ","response":0,"trial_type":"html-button-response","trial_index":92,"time_elapsed":2506845,"internal_node_id":"0.0-4.0-1.42","subject_id":"6136cf83be527a683b8c0b95","study_id":"60edd13110225f80f9f3709b","session_id":"6196c703e8e11fd02af08640","condition":"full-information","relevant_dimensions":["antennae","wings"],"bee_group":{"antennae":"A","wings":"2","pattern":"X","legs":"X"},"bonus":1.2600000000000011},{"rt":28870.60000000149,"stimulus":"bees-with-color/bee-A1DF.svg","response":0,"trial_type":"image-button-response","trial_index":93,"time_elapsed":2535717,"internal_node_id":"0.0-4.0-0.43","subject_id":"6136cf83be527a683b8c0b95","study_id":"60edd13110225f80f9f3709b","session_id":"6196c703e8e11fd02af08640","condition":"full-information","relevant_dimensions":["antennae","wings"],"bee_group":{"antennae":"A","wings":"2","pattern":"X","legs":"X"},"action":"harvest","summary":"good-harvest","bonus":1.2600000000000011},{"rt":902.3000000007451,"stimulus":"\n                    <p><b>Action: <em>harvest</em></b></p>\n                    <p>This is the bee that you just saw.</p>\n                    <img src=\"bees-with-color/bee-A1DF.svg\" width=\"200\">\n                    <p><span class=\"greenText\"><b>Successful harvest!</b></span><br>Your pay has increased by $0.02. Your bonus pay is now $0.64.</p>\n            ","response":0,"trial_type":"html-button-response","trial_index":94,"time_elapsed":2536621,"internal_node_id":"0.0-4.0-1.43","subject_id":"6136cf83be527a683b8c0b95","study_id":"60edd13110225f80f9f3709b","session_id":"6196c703e8e11fd02af08640","condition":"full-information","relevant_dimensions":["antennae","wings"],"bee_group":{"antennae":"A","wings":"2","pattern":"X","legs":"X"},"bonus":1.2600000000000011},{"rt":17958.60000000149,"stimulus":"bees-with-color/bee-A1SM.svg","response":0,"trial_type":"image-button-response","trial_index":95,"time_elapsed":2554581,"internal_node_id":"0.0-4.0-0.44","subject_id":"6136cf83be527a683b8c0b95","study_id":"60edd13110225f80f9f3709b","session_id":"6196c703e8e11fd02af08640","condition":"full-information","relevant_dimensions":["antennae","wings"],"bee_group":{"antennae":"A","wings":"2","pattern":"X","legs":"X"},"action":"harvest","summary":"good-harvest","bonus":1.2600000000000011},{"rt":806.6000000014901,"stimulus":"\n                    <p><b>Action: <em>harvest</em></b></p>\n                    <p>This is the bee that you just saw.</p>\n                    <img src=\"bees-with-color/bee-A1SM.svg\" width=\"200\">\n                    <p><span class=\"greenText\"><b>Successful harvest!</b></span><br>Your pay has increased by $0.02. Your bonus pay is now $0.66.</p>\n            ","response":0,"trial_type":"html-button-response","trial_index":96,"time_elapsed":2555389,"internal_node_id":"0.0-4.0-1.44","subject_id":"6136cf83be527a683b8c0b95","study_id":"60edd13110225f80f9f3709b","session_id":"6196c703e8e11fd02af08640","condition":"full-information","relevant_dimensions":["antennae","wings"],"bee_group":{"antennae":"A","wings":"2","pattern":"X","legs":"X"},"bonus":1.2600000000000011},{"rt":17854.599999997765,"stimulus":"bees-with-color/bee-A2DM.svg","response":1,"trial_type":"image-button-response","trial_index":97,"time_elapsed":2573245,"internal_node_id":"0.0-4.0-0.45","subject_id":"6136cf83be527a683b8c0b95","study_id":"60edd13110225f80f9f3709b","session_id":"6196c703e8e11fd02af08640","condition":"full-information","relevant_dimensions":["antennae","wings"],"bee_group":{"antennae":"A","wings":"2","pattern":"X","legs":"X"},"action":"avoid","summary":"good-avoid","bonus":1.2600000000000011},{"rt":1006.8999999985099,"stimulus":"\n                    <p><b>Action: <em>avoid</em></b></p>\n                    <p>This is the bee that you just saw.</p>\n                    <img src=\"bees-with-color/bee-A2DM.svg\" width=\"200\">\n                    <p><span class=\"greenText\">Good choice!</span>  This bee would have stung you.<br>Your bonus pay is unchanged, and remains at $0.66.</p>\n            ","response":0,"trial_type":"html-button-response","trial_index":98,"time_elapsed":2574253,"internal_node_id":"0.0-4.0-1.45","subject_id":"6136cf83be527a683b8c0b95","study_id":"60edd13110225f80f9f3709b","session_id":"6196c703e8e11fd02af08640","condition":"full-information","relevant_dimensions":["antennae","wings"],"bee_group":{"antennae":"A","wings":"2","pattern":"X","legs":"X"},"bonus":1.2600000000000011},{"rt":51854.79999999702,"stimulus":"bees-with-color/bee-B1SF.svg","response":1,"trial_type":"image-button-response","trial_index":99,"time_elapsed":2626108,"internal_node_id":"0.0-4.0-0.46","subject_id":"6136cf83be527a683b8c0b95","study_id":"60edd13110225f80f9f3709b","session_id":"6196c703e8e11fd02af08640","condition":"full-information","relevant_dimensions":["antennae","wings"],"bee_group":{"antennae":"A","wings":"2","pattern":"X","legs":"X"},"action":"avoid","summary":"bad-avoid","bonus":1.2600000000000011},{"rt":879,"stimulus":"\n                    <p><b>Action: <em>avoid</em></b></p>\n                    <p>This is the bee that you just saw.</p>\n                    <img src=\"bees-with-color/bee-B1SF.svg\" width=\"200\">\n                    <p><span class=\"redText\">Bad choice,</span> the bee was friendly.<br>Your bonus pay is unchanged, and remains at $0.66.</p>\n            ","response":0,"trial_type":"html-button-response","trial_index":100,"time_elapsed":2626989,"internal_node_id":"0.0-4.0-1.46","subject_id":"6136cf83be527a683b8c0b95","study_id":"60edd13110225f80f9f3709b","session_id":"6196c703e8e11fd02af08640","condition":"full-information","relevant_dimensions":["antennae","wings"],"bee_group":{"antennae":"A","wings":"2","pattern":"X","legs":"X"},"bonus":1.2600000000000011},{"rt":69006.79999999702,"stimulus":"bees-with-color/bee-A2DF.svg","response":1,"trial_type":"image-button-response","trial_index":101,"time_elapsed":2695997,"internal_node_id":"0.0-4.0-0.47","subject_id":"6136cf83be527a683b8c0b95","study_id":"60edd13110225f80f9f3709b","session_id":"6196c703e8e11fd02af08640","condition":"full-information","relevant_dimensions":["antennae","wings"],"bee_group":{"antennae":"A","wings":"2","pattern":"X","legs":"X"},"action":"avoid","summary":"good-avoid","bonus":1.2600000000000011},{"rt":806.6999999992549,"stimulus":"\n                    <p><b>Action: <em>avoid</em></b></p>\n                    <p>This is the bee that you just saw.</p>\n                    <img src=\"bees-with-color/bee-A2DF.svg\" width=\"200\">\n                    <p><span class=\"greenText\">Good choice!</span>  This bee would have stung you.<br>Your bonus pay is unchanged, and remains at $0.66.</p>\n            ","response":0,"trial_type":"html-button-response","trial_index":102,"time_elapsed":2696804,"internal_node_id":"0.0-4.0-1.47","subject_id":"6136cf83be527a683b8c0b95","study_id":"60edd13110225f80f9f3709b","session_id":"6196c703e8e11fd02af08640","condition":"full-information","relevant_dimensions":["antennae","wings"],"bee_group":{"antennae":"A","wings":"2","pattern":"X","legs":"X"},"bonus":1.2600000000000011},{"rt":11614.79999999702,"stimulus":"bees-with-color/bee-A2SF.svg","response":1,"trial_type":"image-button-response","trial_index":103,"time_elapsed":2708421,"internal_node_id":"0.0-4.0-0.48","subject_id":"6136cf83be527a683b8c0b95","study_id":"60edd13110225f80f9f3709b","session_id":"6196c703e8e11fd02af08640","condition":"full-information","relevant_dimensions":["antennae","wings"],"bee_group":{"antennae":"A","wings":"2","pattern":"X","legs":"X"},"action":"avoid","summary":"good-avoid","bonus":1.2600000000000011},{"rt":910.8000000007451,"stimulus":"\n                    <p><b>Action: <em>avoid</em></b></p>\n                    <p>This is the bee that you just saw.</p>\n                    <img src=\"bees-with-color/bee-A2SF.svg\" width=\"200\">\n                    <p><span class=\"greenText\">Good choice!</span>  This bee would have stung you.<br>Your bonus pay is unchanged, and remains at $0.66.</p>\n            ","response":0,"trial_type":"html-button-response","trial_index":104,"time_elapsed":2709332,"internal_node_id":"0.0-4.0-1.48","subject_id":"6136cf83be527a683b8c0b95","study_id":"60edd13110225f80f9f3709b","session_id":"6196c703e8e11fd02af08640","condition":"full-information","relevant_dimensions":["antennae","wings"],"bee_group":{"antennae":"A","wings":"2","pattern":"X","legs":"X"},"bonus":1.2600000000000011},{"rt":108494.5,"stimulus":"bees-with-color/bee-A1SM.svg","response":0,"trial_type":"image-button-response","trial_index":105,"time_elapsed":2817828,"internal_node_id":"0.0-4.0-0.49","subject_id":"6136cf83be527a683b8c0b95","study_id":"60edd13110225f80f9f3709b","session_id":"6196c703e8e11fd02af08640","condition":"full-information","relevant_dimensions":["antennae","wings"],"bee_group":{"antennae":"A","wings":"2","pattern":"X","legs":"X"},"action":"harvest","summary":"good-harvest","bonus":1.2600000000000011},{"rt":647.0999999977648,"stimulus":"\n                    <p><b>Action: <em>harvest</em></b></p>\n                    <p>This is the bee that you just saw.</p>\n                    <img src=\"bees-with-color/bee-A1SM.svg\" width=\"200\">\n                    <p><span class=\"greenText\"><b>Successful harvest!</b></span><br>Your pay has increased by $0.02. Your bonus pay is now $0.68.</p>\n            ","response":0,"trial_type":"html-button-response","trial_index":106,"time_elapsed":2818476,"internal_node_id":"0.0-4.0-1.49","subject_id":"6136cf83be527a683b8c0b95","study_id":"60edd13110225f80f9f3709b","session_id":"6196c703e8e11fd02af08640","condition":"full-information","relevant_dimensions":["antennae","wings"],"bee_group":{"antennae":"A","wings":"2","pattern":"X","legs":"X"},"bonus":1.2600000000000011},{"rt":13182.70000000298,"stimulus":"bees-with-color/bee-A1DM.svg","response":1,"trial_type":"image-button-response","trial_index":107,"time_elapsed":2831660,"internal_node_id":"0.0-4.0-0.50","subject_id":"6136cf83be527a683b8c0b95","study_id":"60edd13110225f80f9f3709b","session_id":"6196c703e8e11fd02af08640","condition":"full-information","relevant_dimensions":["antennae","wings"],"bee_group":{"antennae":"A","wings":"2","pattern":"X","legs":"X"},"action":"avoid","summary":"bad-avoid","bonus":1.2600000000000011},{"rt":1575,"stimulus":"\n                    <p><b>Action: <em>avoid</em></b></p>\n                    <p>This is the bee that you just saw.</p>\n                    <img src=\"bees-with-color/bee-A1DM.svg\" width=\"200\">\n                    <p><span class=\"redText\">Bad choice,</span> the bee was friendly.<br>Your bonus pay is unchanged, and remains at $0.68.</p>\n            ","response":0,"trial_type":"html-button-response","trial_index":108,"time_elapsed":2833236,"internal_node_id":"0.0-4.0-1.50","subject_id":"6136cf83be527a683b8c0b95","study_id":"60edd13110225f80f9f3709b","session_id":"6196c703e8e11fd02af08640","condition":"full-information","relevant_dimensions":["antennae","wings"],"bee_group":{"antennae":"A","wings":"2","pattern":"X","legs":"X"},"bonus":1.2600000000000011},{"rt":19398.699999999255,"stimulus":"bees-with-color/bee-B2DM.svg","response":0,"trial_type":"image-button-response","trial_index":109,"time_elapsed":2852636,"internal_node_id":"0.0-4.0-0.51","subject_id":"6136cf83be527a683b8c0b95","study_id":"60edd13110225f80f9f3709b","session_id":"6196c703e8e11fd02af08640","condition":"full-information","relevant_dimensions":["antennae","wings"],"bee_group":{"antennae":"A","wings":"2","pattern":"X","legs":"X"},"action":"harvest","summary":"good-harvest","bonus":1.2600000000000011},{"rt":663.3000000007451,"stimulus":"\n                    <p><b>Action: <em>harvest</em></b></p>\n                    <p>This is the bee that you just saw.</p>\n                    <img src=\"bees-with-color/bee-B2DM.svg\" width=\"200\">\n                    <p><span class=\"greenText\"><b>Successful harvest!</b></span><br>Your pay has increased by $0.02. Your bonus pay is now $0.70.</p>\n            ","response":0,"trial_type":"html-button-response","trial_index":110,"time_elapsed":2853300,"internal_node_id":"0.0-4.0-1.51","subject_id":"6136cf83be527a683b8c0b95","study_id":"60edd13110225f80f9f3709b","session_id":"6196c703e8e11fd02af08640","condition":"full-information","relevant_dimensions":["antennae","wings"],"bee_group":{"antennae":"A","wings":"2","pattern":"X","legs":"X"},"bonus":1.2600000000000011},{"rt":11790.60000000149,"stimulus":"bees-with-color/bee-B2DF.svg","response":0,"trial_type":"image-button-response","trial_index":111,"time_elapsed":2865092,"internal_node_id":"0.0-4.0-0.52","subject_id":"6136cf83be527a683b8c0b95","study_id":"60edd13110225f80f9f3709b","session_id":"6196c703e8e11fd02af08640","condition":"full-information","relevant_dimensions":["antennae","wings"],"bee_group":{"antennae":"A","wings":"2","pattern":"X","legs":"X"},"action":"harvest","summary":"good-harvest","bonus":1.2600000000000011},{"rt":910.8999999985099,"stimulus":"\n                    <p><b>Action: <em>harvest</em></b></p>\n                    <p>This is the bee that you just saw.</p>\n                    <img src=\"bees-with-color/bee-B2DF.svg\" width=\"200\">\n                    <p><span class=\"greenText\"><b>Successful harvest!</b></span><br>Your pay has increased by $0.02. Your bonus pay is now $0.72.</p>\n            ","response":0,"trial_type":"html-button-response","trial_index":112,"time_elapsed":2866004,"internal_node_id":"0.0-4.0-1.52","subject_id":"6136cf83be527a683b8c0b95","study_id":"60edd13110225f80f9f3709b","session_id":"6196c703e8e11fd02af08640","condition":"full-information","relevant_dimensions":["antennae","wings"],"bee_group":{"antennae":"A","wings":"2","pattern":"X","legs":"X"},"bonus":1.2600000000000011},{"rt":7870.699999999255,"stimulus":"bees-with-color/bee-A2DF.svg","response":1,"trial_type":"image-button-response","trial_index":113,"time_elapsed":2873876,"internal_node_id":"0.0-4.0-0.53","subject_id":"6136cf83be527a683b8c0b95","study_id":"60edd13110225f80f9f3709b","session_id":"6196c703e8e11fd02af08640","condition":"full-information","relevant_dimensions":["antennae","wings"],"bee_group":{"antennae":"A","wings":"2","pattern":"X","legs":"X"},"action":"avoid","summary":"good-avoid","bonus":1.2600000000000011},{"rt":3542.800000000745,"stimulus":"\n                    <p><b>Action: <em>avoid</em></b></p>\n                    <p>This is the bee that you just saw.</p>\n                    <img src=\"bees-with-color/bee-A2DF.svg\" width=\"200\">\n                    <p><span class=\"greenText\">Good choice!</span>  This bee would have stung you.<br>Your bonus pay is unchanged, and remains at $0.72.</p>\n            ","response":0,"trial_type":"html-button-response","trial_index":114,"time_elapsed":2877420,"internal_node_id":"0.0-4.0-1.53","subject_id":"6136cf83be527a683b8c0b95","study_id":"60edd13110225f80f9f3709b","session_id":"6196c703e8e11fd02af08640","condition":"full-information","relevant_dimensions":["antennae","wings"],"bee_group":{"antennae":"A","wings":"2","pattern":"X","legs":"X"},"bonus":1.2600000000000011},{"rt":18622.5,"stimulus":"bees-with-color/bee-B1SM.svg","response":0,"trial_type":"image-button-response","trial_index":115,"time_elapsed":2896044,"internal_node_id":"0.0-4.0-0.54","subject_id":"6136cf83be527a683b8c0b95","study_id":"60edd13110225f80f9f3709b","session_id":"6196c703e8e11fd02af08640","condition":"full-information","relevant_dimensions":["antennae","wings"],"bee_group":{"antennae":"A","wings":"2","pattern":"X","legs":"X"},"action":"harvest","summary":"good-harvest","bonus":1.2600000000000011},{"rt":766.9000000022352,"stimulus":"\n                    <p><b>Action: <em>harvest</em></b></p>\n                    <p>This is the bee that you just saw.</p>\n                    <img src=\"bees-with-color/bee-B1SM.svg\" width=\"200\">\n                    <p><span class=\"greenText\"><b>Successful harvest!</b></span><br>Your pay has increased by $0.02. Your bonus pay is now $0.74.</p>\n            ","response":0,"trial_type":"html-button-response","trial_index":116,"time_elapsed":2896812,"internal_node_id":"0.0-4.0-1.54","subject_id":"6136cf83be527a683b8c0b95","study_id":"60edd13110225f80f9f3709b","session_id":"6196c703e8e11fd02af08640","condition":"full-information","relevant_dimensions":["antennae","wings"],"bee_group":{"antennae":"A","wings":"2","pattern":"X","legs":"X"},"bonus":1.2600000000000011},{"rt":8262.60000000149,"stimulus":"bees-with-color/bee-B2SM.svg","response":0,"trial_type":"image-button-response","trial_index":117,"time_elapsed":2905076,"internal_node_id":"0.0-4.0-0.55","subject_id":"6136cf83be527a683b8c0b95","study_id":"60edd13110225f80f9f3709b","session_id":"6196c703e8e11fd02af08640","condition":"full-information","relevant_dimensions":["antennae","wings"],"bee_group":{"antennae":"A","wings":"2","pattern":"X","legs":"X"},"action":"harvest","summary":"good-harvest","bonus":1.2600000000000011},{"rt":695.1000000014901,"stimulus":"\n                    <p><b>Action: <em>harvest</em></b></p>\n                    <p>This is the bee that you just saw.</p>\n                    <img src=\"bees-with-color/bee-B2SM.svg\" width=\"200\">\n                    <p><span class=\"greenText\"><b>Successful harvest!</b></span><br>Your pay has increased by $0.02. Your bonus pay is now $0.76.</p>\n            ","response":0,"trial_type":"html-button-response","trial_index":118,"time_elapsed":2905772,"internal_node_id":"0.0-4.0-1.55","subject_id":"6136cf83be527a683b8c0b95","study_id":"60edd13110225f80f9f3709b","session_id":"6196c703e8e11fd02af08640","condition":"full-information","relevant_dimensions":["antennae","wings"],"bee_group":{"antennae":"A","wings":"2","pattern":"X","legs":"X"},"bonus":1.2600000000000011},{"rt":20766.89999999851,"stimulus":"bees-with-color/bee-B1SF.svg","response":0,"trial_type":"image-button-response","trial_index":119,"time_elapsed":2926540,"internal_node_id":"0.0-4.0-0.56","subject_id":"6136cf83be527a683b8c0b95","study_id":"60edd13110225f80f9f3709b","session_id":"6196c703e8e11fd02af08640","condition":"full-information","relevant_dimensions":["antennae","wings"],"bee_group":{"antennae":"A","wings":"2","pattern":"X","legs":"X"},"action":"harvest","summary":"good-harvest","bonus":1.2600000000000011},{"rt":630.7999999970198,"stimulus":"\n                    <p><b>Action: <em>harvest</em></b></p>\n                    <p>This is the bee that you just saw.</p>\n                    <img src=\"bees-with-color/bee-B1SF.svg\" width=\"200\">\n                    <p><span class=\"greenText\"><b>Successful harvest!</b></span><br>Your pay has increased by $0.02. Your bonus pay is now $0.78.</p>\n            ","response":0,"trial_type":"html-button-response","trial_index":120,"time_elapsed":2927172,"internal_node_id":"0.0-4.0-1.56","subject_id":"6136cf83be527a683b8c0b95","study_id":"60edd13110225f80f9f3709b","session_id":"6196c703e8e11fd02af08640","condition":"full-information","relevant_dimensions":["antennae","wings"],"bee_group":{"antennae":"A","wings":"2","pattern":"X","legs":"X"},"bonus":1.2600000000000011},{"rt":13542.800000000745,"stimulus":"bees-with-color/bee-B1DF.svg","response":0,"trial_type":"image-button-response","trial_index":121,"time_elapsed":2940716,"internal_node_id":"0.0-4.0-0.57","subject_id":"6136cf83be527a683b8c0b95","study_id":"60edd13110225f80f9f3709b","session_id":"6196c703e8e11fd02af08640","condition":"full-information","relevant_dimensions":["antennae","wings"],"bee_group":{"antennae":"A","wings":"2","pattern":"X","legs":"X"},"action":"harvest","summary":"good-harvest","bonus":1.2600000000000011},{"rt":726.8999999985099,"stimulus":"\n                    <p><b>Action: <em>harvest</em></b></p>\n                    <p>This is the bee that you just saw.</p>\n                    <img src=\"bees-with-color/bee-B1DF.svg\" width=\"200\">\n                    <p><span class=\"greenText\"><b>Successful harvest!</b></span><br>Your pay has increased by $0.02. Your bonus pay is now $0.80.</p>\n            ","response":0,"trial_type":"html-button-response","trial_index":122,"time_elapsed":2941444,"internal_node_id":"0.0-4.0-1.57","subject_id":"6136cf83be527a683b8c0b95","study_id":"60edd13110225f80f9f3709b","session_id":"6196c703e8e11fd02af08640","condition":"full-information","relevant_dimensions":["antennae","wings"],"bee_group":{"antennae":"A","wings":"2","pattern":"X","legs":"X"},"bonus":1.2600000000000011},{"rt":7622.699999999255,"stimulus":"bees-with-color/bee-A2SM.svg","response":1,"trial_type":"image-button-response","trial_index":123,"time_elapsed":2949068,"internal_node_id":"0.0-4.0-0.58","subject_id":"6136cf83be527a683b8c0b95","study_id":"60edd13110225f80f9f3709b","session_id":"6196c703e8e11fd02af08640","condition":"full-information","relevant_dimensions":["antennae","wings"],"bee_group":{"antennae":"A","wings":"2","pattern":"X","legs":"X"},"action":"avoid","summary":"good-avoid","bonus":1.2600000000000011},{"rt":718.6999999992549,"stimulus":"\n                    <p><b>Action: <em>avoid</em></b></p>\n                    <p>This is the bee that you just saw.</p>\n                    <img src=\"bees-with-color/bee-A2SM.svg\" width=\"200\">\n                    <p><span class=\"greenText\">Good choice!</span>  This bee would have stung you.<br>Your bonus pay is unchanged, and remains at $0.80.</p>\n            ","response":0,"trial_type":"html-button-response","trial_index":124,"time_elapsed":2949788,"internal_node_id":"0.0-4.0-1.58","subject_id":"6136cf83be527a683b8c0b95","study_id":"60edd13110225f80f9f3709b","session_id":"6196c703e8e11fd02af08640","condition":"full-information","relevant_dimensions":["antennae","wings"],"bee_group":{"antennae":"A","wings":"2","pattern":"X","legs":"X"},"bonus":1.2600000000000011},{"rt":27686.79999999702,"stimulus":"bees-with-color/bee-A1DF.svg","response":0,"trial_type":"image-button-response","trial_index":125,"time_elapsed":2977476,"internal_node_id":"0.0-4.0-0.59","subject_id":"6136cf83be527a683b8c0b95","study_id":"60edd13110225f80f9f3709b","session_id":"6196c703e8e11fd02af08640","condition":"full-information","relevant_dimensions":["antennae","wings"],"bee_group":{"antennae":"A","wings":"2","pattern":"X","legs":"X"},"action":"harvest","summary":"good-harvest","bonus":1.2600000000000011},{"rt":598.8999999985099,"stimulus":"\n                    <p><b>Action: <em>harvest</em></b></p>\n                    <p>This is the bee that you just saw.</p>\n                    <img src=\"bees-with-color/bee-A1DF.svg\" width=\"200\">\n                    <p><span class=\"greenText\"><b>Successful harvest!</b></span><br>Your pay has increased by $0.02. Your bonus pay is now $0.82.</p>\n            ","response":0,"trial_type":"html-button-response","trial_index":126,"time_elapsed":2978076,"internal_node_id":"0.0-4.0-1.59","subject_id":"6136cf83be527a683b8c0b95","study_id":"60edd13110225f80f9f3709b","session_id":"6196c703e8e11fd02af08640","condition":"full-information","relevant_dimensions":["antennae","wings"],"bee_group":{"antennae":"A","wings":"2","pattern":"X","legs":"X"},"bonus":1.2600000000000011},{"rt":15574.79999999702,"stimulus":"bees-with-color/bee-B1DM.svg","response":0,"trial_type":"image-button-response","trial_index":127,"time_elapsed":2993652,"internal_node_id":"0.0-4.0-0.60","subject_id":"6136cf83be527a683b8c0b95","study_id":"60edd13110225f80f9f3709b","session_id":"6196c703e8e11fd02af08640","condition":"full-information","relevant_dimensions":["antennae","wings"],"bee_group":{"antennae":"A","wings":"2","pattern":"X","legs":"X"},"action":"harvest","summary":"good-harvest","bonus":1.2600000000000011},{"rt":582.7999999970198,"stimulus":"\n                    <p><b>Action: <em>harvest</em></b></p>\n                    <p>This is the bee that you just saw.</p>\n                    <img src=\"bees-with-color/bee-B1DM.svg\" width=\"200\">\n                    <p><span class=\"greenText\"><b>Successful harvest!</b></span><br>Your pay has increased by $0.02. Your bonus pay is now $0.84.</p>\n            ","response":0,"trial_type":"html-button-response","trial_index":128,"time_elapsed":2994236,"internal_node_id":"0.0-4.0-1.60","subject_id":"6136cf83be527a683b8c0b95","study_id":"60edd13110225f80f9f3709b","session_id":"6196c703e8e11fd02af08640","condition":"full-information","relevant_dimensions":["antennae","wings"],"bee_group":{"antennae":"A","wings":"2","pattern":"X","legs":"X"},"bonus":1.2600000000000011},{"rt":35006.60000000149,"stimulus":"bees-with-color/bee-B2SF.svg","response":0,"trial_type":"image-button-response","trial_index":129,"time_elapsed":3029244,"internal_node_id":"0.0-4.0-0.61","subject_id":"6136cf83be527a683b8c0b95","study_id":"60edd13110225f80f9f3709b","session_id":"6196c703e8e11fd02af08640","condition":"full-information","relevant_dimensions":["antennae","wings"],"bee_group":{"antennae":"A","wings":"2","pattern":"X","legs":"X"},"action":"harvest","summary":"good-harvest","bonus":1.2600000000000011},{"rt":623,"stimulus":"\n                    <p><b>Action: <em>harvest</em></b></p>\n                    <p>This is the bee that you just saw.</p>\n                    <img src=\"bees-with-color/bee-B2SF.svg\" width=\"200\">\n                    <p><span class=\"greenText\"><b>Successful harvest!</b></span><br>Your pay has increased by $0.02. Your bonus pay is now $0.86.</p>\n            ","response":0,"trial_type":"html-button-response","trial_index":130,"time_elapsed":3029868,"internal_node_id":"0.0-4.0-1.61","subject_id":"6136cf83be527a683b8c0b95","study_id":"60edd13110225f80f9f3709b","session_id":"6196c703e8e11fd02af08640","condition":"full-information","relevant_dimensions":["antennae","wings"],"bee_group":{"antennae":"A","wings":"2","pattern":"X","legs":"X"},"bonus":1.2600000000000011},{"rt":42270.699999999255,"stimulus":"bees-with-color/bee-A2DM.svg","response":1,"trial_type":"image-button-response","trial_index":131,"time_elapsed":3072140,"internal_node_id":"0.0-4.0-0.62","subject_id":"6136cf83be527a683b8c0b95","study_id":"60edd13110225f80f9f3709b","session_id":"6196c703e8e11fd02af08640","condition":"full-information","relevant_dimensions":["antennae","wings"],"bee_group":{"antennae":"A","wings":"2","pattern":"X","legs":"X"},"action":"avoid","summary":"good-avoid","bonus":1.2600000000000011},{"rt":822.5,"stimulus":"\n                    <p><b>Action: <em>avoid</em></b></p>\n                    <p>This is the bee that you just saw.</p>\n                    <img src=\"bees-with-color/bee-A2DM.svg\" width=\"200\">\n                    <p><span class=\"greenText\">Good choice!</span>  This bee would have stung you.<br>Your bonus pay is unchanged, and remains at $0.86.</p>\n            ","response":0,"trial_type":"html-button-response","trial_index":132,"time_elapsed":3072964,"internal_node_id":"0.0-4.0-1.62","subject_id":"6136cf83be527a683b8c0b95","study_id":"60edd13110225f80f9f3709b","session_id":"6196c703e8e11fd02af08640","condition":"full-information","relevant_dimensions":["antennae","wings"],"bee_group":{"antennae":"A","wings":"2","pattern":"X","legs":"X"},"bonus":1.2600000000000011},{"rt":16950.800000000745,"stimulus":"bees-with-color/bee-A1SF.svg","response":0,"trial_type":"image-button-response","trial_index":133,"time_elapsed":3089916,"internal_node_id":"0.0-4.0-0.63","subject_id":"6136cf83be527a683b8c0b95","study_id":"60edd13110225f80f9f3709b","session_id":"6196c703e8e11fd02af08640","condition":"full-information","relevant_dimensions":["antennae","wings"],"bee_group":{"antennae":"A","wings":"2","pattern":"X","legs":"X"},"action":"harvest","summary":"good-harvest","bonus":1.2600000000000011},{"rt":670.6999999992549,"stimulus":"\n                    <p><b>Action: <em>harvest</em></b></p>\n                    <p>This is the bee that you just saw.</p>\n                    <img src=\"bees-with-color/bee-A1SF.svg\" width=\"200\">\n                    <p><span class=\"greenText\"><b>Successful harvest!</b></span><br>Your pay has increased by $0.02. Your bonus pay is now $0.88.</p>\n            ","response":0,"trial_type":"html-button-response","trial_index":134,"time_elapsed":3090588,"internal_node_id":"0.0-4.0-1.63","subject_id":"6136cf83be527a683b8c0b95","study_id":"60edd13110225f80f9f3709b","session_id":"6196c703e8e11fd02af08640","condition":"full-information","relevant_dimensions":["antennae","wings"],"bee_group":{"antennae":"A","wings":"2","pattern":"X","legs":"X"},"bonus":1.2600000000000011},{"rt":1184.9000000022352,"stimulus":"You have completed the first part of this experiment.<br><br>You will now begin a shorter second part, in which you will receive no feedback.<br>The same rules regarding bonus pay apply.<br><br>Press any key to begin.","response":" ","trial_type":"html-keyboard-response","trial_index":135,"time_elapsed":3091774,"internal_node_id":"0.0-5.0","subject_id":"6136cf83be527a683b8c0b95","study_id":"60edd13110225f80f9f3709b","session_id":"6196c703e8e11fd02af08640","condition":"full-information","relevant_dimensions":["antennae","wings"],"bee_group":{"antennae":"A","wings":"2","pattern":"X","legs":"X"},"bonus":1.2600000000000011},{"rt":24009.39999999851,"stimulus":"bees-with-color/bee-A2SF.svg","response":1,"trial_type":"image-button-response","trial_index":136,"time_elapsed":3115788,"internal_node_id":"0.0-6.0-0.0","subject_id":"6136cf83be527a683b8c0b95","study_id":"60edd13110225f80f9f3709b","session_id":"6196c703e8e11fd02af08640","condition":"full-information","relevant_dimensions":["antennae","wings"],"bee_group":{"antennae":"A","wings":"2","pattern":"X","legs":"X"},"bonus":1.2600000000000011},{"rt":11422.400000002235,"stimulus":"bees-with-color/bee-B2DF.svg","response":0,"trial_type":"image-button-response","trial_index":137,"time_elapsed":3127212,"internal_node_id":"0.0-6.0-0.1","subject_id":"6136cf83be527a683b8c0b95","study_id":"60edd13110225f80f9f3709b","session_id":"6196c703e8e11fd02af08640","condition":"full-information","relevant_dimensions":["antennae","wings"],"bee_group":{"antennae":"A","wings":"2","pattern":"X","legs":"X"},"bonus":1.2600000000000011},{"rt":5838.20000000298,"stimulus":"bees-with-color/bee-B1DF.svg","response":0,"trial_type":"image-button-response","trial_index":138,"time_elapsed":3133052,"internal_node_id":"0.0-6.0-0.2","subject_id":"6136cf83be527a683b8c0b95","study_id":"60edd13110225f80f9f3709b","session_id":"6196c703e8e11fd02af08640","condition":"full-information","relevant_dimensions":["antennae","wings"],"bee_group":{"antennae":"A","wings":"2","pattern":"X","legs":"X"},"bonus":1.2600000000000011},{"rt":12910.300000000745,"stimulus":"bees-with-color/bee-B1SM.svg","response":0,"trial_type":"image-button-response","trial_index":139,"time_elapsed":3145964,"internal_node_id":"0.0-6.0-0.3","subject_id":"6136cf83be527a683b8c0b95","study_id":"60edd13110225f80f9f3709b","session_id":"6196c703e8e11fd02af08640","condition":"full-information","relevant_dimensions":["antennae","wings"],"bee_group":{"antennae":"A","wings":"2","pattern":"X","legs":"X"},"bonus":1.2600000000000011},{"rt":15462.39999999851,"stimulus":"bees-with-color/bee-A2DF.svg","response":0,"trial_type":"image-button-response","trial_index":140,"time_elapsed":3161428,"internal_node_id":"0.0-6.0-0.4","subject_id":"6136cf83be527a683b8c0b95","study_id":"60edd13110225f80f9f3709b","session_id":"6196c703e8e11fd02af08640","condition":"full-information","relevant_dimensions":["antennae","wings"],"bee_group":{"antennae":"A","wings":"2","pattern":"X","legs":"X"},"bonus":1.2600000000000011},{"rt":18086.300000000745,"stimulus":"bees-with-color/bee-B1SF.svg","response":0,"trial_type":"image-button-response","trial_index":141,"time_elapsed":3179516,"internal_node_id":"0.0-6.0-0.5","subject_id":"6136cf83be527a683b8c0b95","study_id":"60edd13110225f80f9f3709b","session_id":"6196c703e8e11fd02af08640","condition":"full-information","relevant_dimensions":["antennae","wings"],"bee_group":{"antennae":"A","wings":"2","pattern":"X","legs":"X"},"bonus":1.2600000000000011},{"rt":8534.39999999851,"stimulus":"bees-with-color/bee-B2DM.svg","response":0,"trial_type":"image-button-response","trial_index":142,"time_elapsed":3188052,"internal_node_id":"0.0-6.0-0.6","subject_id":"6136cf83be527a683b8c0b95","study_id":"60edd13110225f80f9f3709b","session_id":"6196c703e8e11fd02af08640","condition":"full-information","relevant_dimensions":["antennae","wings"],"bee_group":{"antennae":"A","wings":"2","pattern":"X","legs":"X"},"bonus":1.2600000000000011},{"rt":12766.400000002235,"stimulus":"bees-with-color/bee-A1SF.svg","response":0,"trial_type":"image-button-response","trial_index":143,"time_elapsed":3200820,"internal_node_id":"0.0-6.0-0.7","subject_id":"6136cf83be527a683b8c0b95","study_id":"60edd13110225f80f9f3709b","session_id":"6196c703e8e11fd02af08640","condition":"full-information","relevant_dimensions":["antennae","wings"],"bee_group":{"antennae":"A","wings":"2","pattern":"X","legs":"X"},"bonus":1.2600000000000011},{"rt":13862.300000000745,"stimulus":"bees-with-color/bee-B1DM.svg","response":0,"trial_type":"image-button-response","trial_index":144,"time_elapsed":3214684,"internal_node_id":"0.0-6.0-0.8","subject_id":"6136cf83be527a683b8c0b95","study_id":"60edd13110225f80f9f3709b","session_id":"6196c703e8e11fd02af08640","condition":"full-information","relevant_dimensions":["antennae","wings"],"bee_group":{"antennae":"A","wings":"2","pattern":"X","legs":"X"},"bonus":1.2600000000000011},{"rt":18150.5,"stimulus":"bees-with-color/bee-A1DF.svg","response":0,"trial_type":"image-button-response","trial_index":145,"time_elapsed":3232836,"internal_node_id":"0.0-6.0-0.9","subject_id":"6136cf83be527a683b8c0b95","study_id":"60edd13110225f80f9f3709b","session_id":"6196c703e8e11fd02af08640","condition":"full-information","relevant_dimensions":["antennae","wings"],"bee_group":{"antennae":"A","wings":"2","pattern":"X","legs":"X"},"bonus":1.2600000000000011},{"rt":21774.300000000745,"stimulus":"bees-with-color/bee-B2SM.svg","response":0,"trial_type":"image-button-response","trial_index":146,"time_elapsed":3254612,"internal_node_id":"0.0-6.0-0.10","subject_id":"6136cf83be527a683b8c0b95","study_id":"60edd13110225f80f9f3709b","session_id":"6196c703e8e11fd02af08640","condition":"full-information","relevant_dimensions":["antennae","wings"],"bee_group":{"antennae":"A","wings":"2","pattern":"X","legs":"X"},"bonus":1.2600000000000011},{"rt":26054.39999999851,"stimulus":"bees-with-color/bee-A1DM.svg","response":0,"trial_type":"image-button-response","trial_index":147,"time_elapsed":3280668,"internal_node_id":"0.0-6.0-0.11","subject_id":"6136cf83be527a683b8c0b95","study_id":"60edd13110225f80f9f3709b","session_id":"6196c703e8e11fd02af08640","condition":"full-information","relevant_dimensions":["antennae","wings"],"bee_group":{"antennae":"A","wings":"2","pattern":"X","legs":"X"},"bonus":1.2600000000000011},{"rt":10662.29999999702,"stimulus":"bees-with-color/bee-A1SM.svg","response":0,"trial_type":"image-button-response","trial_index":148,"time_elapsed":3291332,"internal_node_id":"0.0-6.0-0.12","subject_id":"6136cf83be527a683b8c0b95","study_id":"60edd13110225f80f9f3709b","session_id":"6196c703e8e11fd02af08640","condition":"full-information","relevant_dimensions":["antennae","wings"],"bee_group":{"antennae":"A","wings":"2","pattern":"X","legs":"X"},"bonus":1.2600000000000011},{"rt":8254.39999999851,"stimulus":"bees-with-color/bee-A2SM.svg","response":1,"trial_type":"image-button-response","trial_index":149,"time_elapsed":3299588,"internal_node_id":"0.0-6.0-0.13","subject_id":"6136cf83be527a683b8c0b95","study_id":"60edd13110225f80f9f3709b","session_id":"6196c703e8e11fd02af08640","condition":"full-information","relevant_dimensions":["antennae","wings"],"bee_group":{"antennae":"A","wings":"2","pattern":"X","legs":"X"},"bonus":1.2600000000000011},{"rt":19222.199999999255,"stimulus":"bees-with-color/bee-B2SF.svg","response":0,"trial_type":"image-button-response","trial_index":150,"time_elapsed":3318812,"internal_node_id":"0.0-6.0-0.14","subject_id":"6136cf83be527a683b8c0b95","study_id":"60edd13110225f80f9f3709b","session_id":"6196c703e8e11fd02af08640","condition":"full-information","relevant_dimensions":["antennae","wings"],"bee_group":{"antennae":"A","wings":"2","pattern":"X","legs":"X"},"bonus":1.2600000000000011},{"rt":10230.29999999702,"stimulus":"bees-with-color/bee-A2DM.svg","response":1,"trial_type":"image-button-response","trial_index":151,"time_elapsed":3329043,"internal_node_id":"0.0-6.0-0.15","subject_id":"6136cf83be527a683b8c0b95","study_id":"60edd13110225f80f9f3709b","session_id":"6196c703e8e11fd02af08640","condition":"full-information","relevant_dimensions":["antennae","wings"],"bee_group":{"antennae":"A","wings":"2","pattern":"X","legs":"X"},"bonus":1.2600000000000011},{"rt":10062.5,"stimulus":"bees-with-color/bee-A2SF.svg","response":1,"trial_type":"image-button-response","trial_index":152,"time_elapsed":3339107,"internal_node_id":"0.0-6.0-0.16","subject_id":"6136cf83be527a683b8c0b95","study_id":"60edd13110225f80f9f3709b","session_id":"6196c703e8e11fd02af08640","condition":"full-information","relevant_dimensions":["antennae","wings"],"bee_group":{"antennae":"A","wings":"2","pattern":"X","legs":"X"},"bonus":1.2600000000000011},{"rt":20366.699999999255,"stimulus":"bees-with-color/bee-B2DM.svg","response":0,"trial_type":"image-button-response","trial_index":153,"time_elapsed":3359475,"internal_node_id":"0.0-6.0-0.17","subject_id":"6136cf83be527a683b8c0b95","study_id":"60edd13110225f80f9f3709b","session_id":"6196c703e8e11fd02af08640","condition":"full-information","relevant_dimensions":["antennae","wings"],"bee_group":{"antennae":"A","wings":"2","pattern":"X","legs":"X"},"bonus":1.2600000000000011},{"rt":19142.39999999851,"stimulus":"bees-with-color/bee-A1DF.svg","response":0,"trial_type":"image-button-response","trial_index":154,"time_elapsed":3378619,"internal_node_id":"0.0-6.0-0.18","subject_id":"6136cf83be527a683b8c0b95","study_id":"60edd13110225f80f9f3709b","session_id":"6196c703e8e11fd02af08640","condition":"full-information","relevant_dimensions":["antennae","wings"],"bee_group":{"antennae":"A","wings":"2","pattern":"X","legs":"X"},"bonus":1.2600000000000011},{"rt":21550.60000000149,"stimulus":"bees-with-color/bee-A2DF.svg","response":1,"trial_type":"image-button-response","trial_index":155,"time_elapsed":3400171,"internal_node_id":"0.0-6.0-0.19","subject_id":"6136cf83be527a683b8c0b95","study_id":"60edd13110225f80f9f3709b","session_id":"6196c703e8e11fd02af08640","condition":"full-information","relevant_dimensions":["antennae","wings"],"bee_group":{"antennae":"A","wings":"2","pattern":"X","legs":"X"},"bonus":1.2600000000000011},{"rt":6750.5,"stimulus":"bees-with-color/bee-B2DF.svg","response":0,"trial_type":"image-button-response","trial_index":156,"time_elapsed":3406923,"internal_node_id":"0.0-6.0-0.20","subject_id":"6136cf83be527a683b8c0b95","study_id":"60edd13110225f80f9f3709b","session_id":"6196c703e8e11fd02af08640","condition":"full-information","relevant_dimensions":["antennae","