[{"success":true,"trial_type":"fullscreen","trial_index":0,"time_elapsed":6529,"internal_node_id":"0.0-0.0","subject_id":"5b116068160a2e0001acb494","study_id":"60edd13110225f80f9f3709b","session_id":"6196ba8256bb117e1dd8fbef","condition":"full-information","relevant_dimensions":["antennae","legs"],"bee_group":{"antennae":"A","wings":"X","pattern":"X","legs":"F"},"bonus":1.0800000000000012},{"success":true,"timeout":false,"failed_images":[],"failed_audio":[],"failed_video":[],"trial_type":"preload","trial_index":1,"time_elapsed":8217,"internal_node_id":"0.0-1.0","subject_id":"5b116068160a2e0001acb494","study_id":"60edd13110225f80f9f3709b","session_id":"6196ba8256bb117e1dd8fbef","condition":"full-information","relevant_dimensions":["antennae","legs"],"bee_group":{"antennae":"A","wings":"X","pattern":"X","legs":"F"},"bonus":1.0800000000000012},{"rt":3459,"stimulus":"Welcome! Press any key to begin.","response":" ","trial_type":"html-keyboard-response","trial_index":2,"time_elapsed":11680,"internal_node_id":"0.0-2.0","subject_id":"5b116068160a2e0001acb494","study_id":"60edd13110225f80f9f3709b","session_id":"6196ba8256bb117e1dd8fbef","condition":"full-information","relevant_dimensions":["antennae","legs"],"bee_group":{"antennae":"A","wings":"X","pattern":"X","legs":"F"},"bonus":1.0800000000000012},{"view_history":[{"page_index":0,"viewing_time":5428.100000023842},{"page_index":1,"viewing_time":22584.600000023842},{"page_index":2,"viewing_time":26932},{"page_index":3,"viewing_time":23047.899999976158},{"page_index":4,"viewing_time":7635.699999988079},{"page_index":5,"viewing_time":9856.300000011921},{"page_index":6,"viewing_time":15348},{"page_index":7,"viewing_time":16563.899999976158},{"page_index":8,"viewing_time":16403.900000035763},{"page_index":9,"viewing_time":14088.199999988079},{"page_index":10,"viewing_time":9471.800000011921},{"page_index":11,"viewing_time":18992.19999998808},{"page_index":12,"viewing_time":41303.80000001192},{"page_index":13,"viewing_time":3595.800000011921},{"page_index":14,"viewing_time":2872.2999999523163}],"rt":234124.80000001192,"trial_type":"instructions","trial_index":3,"time_elapsed":245802,"internal_node_id":"0.0-3.0-0.0","subject_id":"5b116068160a2e0001acb494","study_id":"60edd13110225f80f9f3709b","session_id":"6196ba8256bb117e1dd8fbef","condition":"full-information","relevant_dimensions":["antennae","legs"],"bee_group":{"antennae":"A","wings":"X","pattern":"X","legs":"F"},"bonus":1.0800000000000012},{"rt":25164.80000001192,"response":{"Q0":["Two or six legs","Single or double wings","Antennae or no antennae"]},"question_order":[0],"trial_type":"survey-multi-select","trial_index":4,"time_elapsed":270971,"internal_node_id":"0.0-3.0-1.0","subject_id":"5b116068160a2e0001acb494","study_id":"60edd13110225f80f9f3709b","session_id":"6196ba8256bb117e1dd8fbef","condition":"full-information","relevant_dimensions":["antennae","legs"],"bee_group":{"antennae":"A","wings":"X","pattern":"X","legs":"F"},"correct":false,"bonus":1.0800000000000012},{"rt":30390.399999976158,"response":{"Q1":"No.","Q2":"Based on the four features of the bee.","Q3":"You learn if it was friendly or dangerous, but do not alter your bonus."},"question_order":[0,1,2],"trial_type":"survey-multi-choice","trial_index":5,"time_elapsed":301355,"internal_node_id":"0.0-3.0-2.0","subject_id":"5b116068160a2e0001acb494","study_id":"60edd13110225f80f9f3709b","session_id":"6196ba8256bb117e1dd8fbef","condition":"full-information","relevant_dimensions":["antennae","legs"],"bee_group":{"antennae":"A","wings":"X","pattern":"X","legs":"F"},"correct":true,"bonus":1.0800000000000012},{"rt":3583.800000011921,"stimulus":"<p>You did not answer all comprehension questions correctly.<br>Press <b>continue</b> to review the instructions again.</p>","response":0,"trial_type":"html-button-response","trial_index":6,"time_elapsed":304944,"internal_node_id":"0.0-3.0-3.0","subject_id":"5b116068160a2e0001acb494","study_id":"60edd13110225f80f9f3709b","session_id":"6196ba8256bb117e1dd8fbef","condition":"full-information","relevant_dimensions":["antennae","legs"],"bee_group":{"antennae":"A","wings":"X","pattern":"X","legs":"F"},"bonus":1.0800000000000012},{"view_history":[{"page_index":0,"viewing_time":6678.199999988079},{"page_index":1,"viewing_time":12888.100000023842},{"page_index":2,"viewing_time":25560.19999998808},{"page_index":3,"viewing_time":15059.800000011921},{"page_index":4,"viewing_time":14063.899999976158},{"page_index":5,"viewing_time":11792.5},{"page_index":6,"viewing_time":15480.400000035763},{"page_index":7,"viewing_time":8107.199999988079},{"page_index":8,"viewing_time":10864},{"page_index":9,"viewing_time":11288.5},{"page_index":10,"viewing_time":8395.5},{"page_index":11,"viewing_time":13823.899999976158},{"page_index":12,"viewing_time":8743.600000023842},{"page_index":13,"viewing_time":1508.3999999761581},{"page_index":14,"viewing_time":1639.5}],"rt":165894.39999997616,"trial_type":"instructions","trial_index":7,"time_elapsed":470851,"internal_node_id":"0.0-3.0-4.0-0.0","subject_id":"5b116068160a2e0001acb494","study_id":"60edd13110225f80f9f3709b","session_id":"6196ba8256bb117e1dd8fbef","condition":"full-information","relevant_dimensions":["antennae","legs"],"bee_group":{"antennae":"A","wings":"X","pattern":"X","legs":"F"},"bonus":1.0800000000000012},{"rt":47789.30000001192,"response":{"Q0":["Two or six legs","Stripes or spots on body","Single or double wings","Antennae or no antennae"]},"question_order":[0],"trial_type":"survey-multi-select","trial_index":8,"time_elapsed":518643,"internal_node_id":"0.0-3.0-4.0-1.0","subject_id":"5b116068160a2e0001acb494","study_id":"60edd13110225f80f9f3709b","session_id":"6196ba8256bb117e1dd8fbef","condition":"full-information","relevant_dimensions":["antennae","legs"],"bee_group":{"antennae":"A","wings":"X","pattern":"X","legs":"F"},"correct":true,"bonus":1.0800000000000012},{"rt":20043.899999976158,"response":{"Q1":"No.","Q2":"Based on the four features of the bee.","Q3":"You learn if it was friendly or dangerous, but do not alter your bonus."},"question_order":[0,1,2],"trial_type":"survey-multi-choice","trial_index":9,"time_elapsed":538686,"internal_node_id":"0.0-3.0-4.0-2.0","subject_id":"5b116068160a2e0001acb494","study_id":"60edd13110225f80f9f3709b","session_id":"6196ba8256bb117e1dd8fbef","condition":"full-information","relevant_dimensions":["antennae","legs"],"bee_group":{"antennae":"A","wings":"X","pattern":"X","legs":"F"},"correct":true,"bonus":1.0800000000000012},{"rt":2251.399999976158,"stimulus":"<p>Congrats, you got everything right<br>When you're ready, click the button below to continue to the experiment.</p>","response":0,"trial_type":"html-button-response","trial_index":10,"time_elapsed":540942,"internal_node_id":"0.0-3.0-4.0-3.0","subject_id":"5b116068160a2e0001acb494","study_id":"60edd13110225f80f9f3709b","session_id":"6196ba8256bb117e1dd8fbef","condition":"full-information","relevant_dimensions":["antennae","legs"],"bee_group":{"antennae":"A","wings":"X","pattern":"X","legs":"F"},"bonus":1.0800000000000012},{"rt":6752.699999988079,"stimulus":"bees-with-color/bee-B1DM.svg","response":0,"trial_type":"image-button-response","trial_index":11,"time_elapsed":547697,"internal_node_id":"0.0-4.0-0.0","subject_id":"5b116068160a2e0001acb494","study_id":"60edd13110225f80f9f3709b","session_id":"6196ba8256bb117e1dd8fbef","condition":"full-information","relevant_dimensions":["antennae","legs"],"bee_group":{"antennae":"A","wings":"X","pattern":"X","legs":"F"},"action":"harvest","summary":"good-harvest","bonus":1.0800000000000012},{"rt":14993.5,"stimulus":"\n                    <p><b>Action: <em>harvest</em></b></p>\n                    <p>This is the bee that you just saw.</p>\n                    <img src=\"bees-with-color/bee-B1DM.svg\" width=\"200\">\n                    <p><span class=\"greenText\"><b>Successful harvest!</b></span><br>Your pay has increased by $0.02. Your bonus pay is now $0.56.</p>\n            ","response":0,"trial_type":"html-button-response","trial_index":12,"time_elapsed":562697,"internal_node_id":"0.0-4.0-1.0","subject_id":"5b116068160a2e0001acb494","study_id":"60edd13110225f80f9f3709b","session_id":"6196ba8256bb117e1dd8fbef","condition":"full-information","relevant_dimensions":["antennae","legs"],"bee_group":{"antennae":"A","wings":"X","pattern":"X","legs":"F"},"bonus":1.0800000000000012},{"rt":6130,"stimulus":"bees-with-color/bee-A1SF.svg","response":0,"trial_type":"image-button-response","trial_index":13,"time_elapsed":568829,"internal_node_id":"0.0-4.0-0.1","subject_id":"5b116068160a2e0001acb494","study_id":"60edd13110225f80f9f3709b","session_id":"6196ba8256bb117e1dd8fbef","condition":"full-information","relevant_dimensions":["antennae","legs"],"bee_group":{"antennae":"A","wings":"X","pattern":"X","legs":"F"},"action":"harvest","summary":"bad-harvest","bonus":1.0800000000000012},{"rt":23747,"stimulus":"\n                    <p><b>Action: <em>harvest</em></b></p>\n                    <p>This is the bee that you just saw.</p>\n                    <img src=\"bees-with-color/bee-A1SF.svg\" width=\"200\">\n                    <p><span class=\"redText\">Bad choice, the bee was angry.</span><br><b>You have been stung!</b><br>Your pay has been decreased by $0.10. Your bonus pay is now $0.46.</p>\n            ","response":0,"trial_type":"html-button-response","trial_index":14,"time_elapsed":592577,"internal_node_id":"0.0-4.0-1.1","subject_id":"5b116068160a2e0001acb494","study_id":"60edd13110225f80f9f3709b","session_id":"6196ba8256bb117e1dd8fbef","condition":"full-information","relevant_dimensions":["antennae","legs"],"bee_group":{"antennae":"A","wings":"X","pattern":"X","legs":"F"},"bonus":1.0800000000000012},{"rt":2529.899999976158,"stimulus":"bees-with-color/bee-A2SF.svg","response":1,"trial_type":"image-button-response","trial_index":15,"time_elapsed":595110,"internal_node_id":"0.0-4.0-0.2","subject_id":"5b116068160a2e0001acb494","study_id":"60edd13110225f80f9f3709b","session_id":"6196ba8256bb117e1dd8fbef","condition":"full-information","relevant_dimensions":["antennae","legs"],"bee_group":{"antennae":"A","wings":"X","pattern":"X","legs":"F"},"action":"avoid","summary":"good-avoid","bonus":1.0800000000000012},{"rt":28894.599999964237,"stimulus":"\n                    <p><b>Action: <em>avoid</em></b></p>\n                    <p>This is the bee that you just saw.</p>\n                    <img src=\"bees-with-color/bee-A2SF.svg\" width=\"200\">\n                    <p><span class=\"greenText\">Good choice!</span>  This bee would have stung you.<br>Your bonus pay is unchanged, and remains at $0.46.</p>\n            ","response":0,"trial_type":"html-button-response","trial_index":16,"time_elapsed":624002,"internal_node_id":"0.0-4.0-1.2","subject_id":"5b116068160a2e0001acb494","study_id":"60edd13110225f80f9f3709b","session_id":"6196ba8256bb117e1dd8fbef","condition":"full-information","relevant_dimensions":["antennae","legs"],"bee_group":{"antennae":"A","wings":"X","pattern":"X","legs":"F"},"bonus":1.0800000000000012},{"rt":2361.699999988079,"stimulus":"bees-with-color/bee-A1DM.svg","response":0,"trial_type":"image-button-response","trial_index":17,"time_elapsed":626366,"internal_node_id":"0.0-4.0-0.3","subject_id":"5b116068160a2e0001acb494","study_id":"60edd13110225f80f9f3709b","session_id":"6196ba8256bb117e1dd8fbef","condition":"full-information","relevant_dimensions":["antennae","legs"],"bee_group":{"antennae":"A","wings":"X","pattern":"X","legs":"F"},"action":"harvest","summary":"good-harvest","bonus":1.0800000000000012},{"rt":5465.800000011921,"stimulus":"\n                    <p><b>Action: <em>harvest</em></b></p>\n                    <p>This is the bee that you just saw.</p>\n                    <img src=\"bees-with-color/bee-A1DM.svg\" width=\"200\">\n                    <p><span class=\"greenText\"><b>Successful harvest!</b></span><br>Your pay has increased by $0.02. Your bonus pay is now $0.48.</p>\n            ","response":0,"trial_type":"html-button-response","trial_index":18,"time_elapsed":631834,"internal_node_id":"0.0-4.0-1.3","subject_id":"5b116068160a2e0001acb494","study_id":"60edd13110225f80f9f3709b","session_id":"6196ba8256bb117e1dd8fbef","condition":"full-information","relevant_dimensions":["antennae","legs"],"bee_group":{"antennae":"A","wings":"X","pattern":"X","legs":"F"},"bonus":1.0800000000000012},{"rt":3313.699999988079,"stimulus":"bees-with-color/bee-B2DM.svg","response":1,"trial_type":"image-button-response","trial_index":19,"time_elapsed":635150,"internal_node_id":"0.0-4.0-0.4","subject_id":"5b116068160a2e0001acb494","study_id":"60edd13110225f80f9f3709b","session_id":"6196ba8256bb117e1dd8fbef","condition":"full-information","relevant_dimensions":["antennae","legs"],"bee_group":{"antennae":"A","wings":"X","pattern":"X","legs":"F"},"action":"avoid","summary":"bad-avoid","bonus":1.0800000000000012},{"rt":12486.600000023842,"stimulus":"\n                    <p><b>Action: <em>avoid</em></b></p>\n                    <p>This is the bee that you just saw.</p>\n                    <img src=\"bees-with-color/bee-B2DM.svg\" width=\"200\">\n                    <p><span class=\"redText\">Bad choice,</span> the bee was friendly.<br>Your bonus pay is unchanged, and remains at $0.48.</p>\n            ","response":0,"trial_type":"html-button-response","trial_index":20,"time_elapsed":647638,"internal_node_id":"0.0-4.0-1.4","subject_id":"5b116068160a2e0001acb494","study_id":"60edd13110225f80f9f3709b","session_id":"6196ba8256bb117e1dd8fbef","condition":"full-information","relevant_dimensions":["antennae","legs"],"bee_group":{"antennae":"A","wings":"X","pattern":"X","legs":"F"},"bonus":1.0800000000000012},{"rt":5261.600000023842,"stimulus":"bees-with-color/bee-B1SM.svg","response":1,"trial_type":"image-button-response","trial_index":21,"time_elapsed":652902,"internal_node_id":"0.0-4.0-0.5","subject_id":"5b116068160a2e0001acb494","study_id":"60edd13110225f80f9f3709b","session_id":"6196ba8256bb117e1dd8fbef","condition":"full-information","relevant_dimensions":["antennae","legs"],"bee_group":{"antennae":"A","wings":"X","pattern":"X","legs":"F"},"action":"avoid","summary":"bad-avoid","bonus":1.0800000000000012},{"rt":7317.5,"stimulus":"\n                    <p><b>Action: <em>avoid</em></b></p>\n                    <p>This is the bee that you just saw.</p>\n                    <img src=\"bees-with-color/bee-B1SM.svg\" width=\"200\">\n                    <p><span class=\"redText\">Bad choice,</span> the bee was friendly.<br>Your bonus pay is unchanged, and remains at $0.48.</p>\n            ","response":0,"trial_type":"html-button-response","trial_index":22,"time_elapsed":660222,"internal_node_id":"0.0-4.0-1.5","subject_id":"5b116068160a2e0001acb494","study_id":"60edd13110225f80f9f3709b","session_id":"6196ba8256bb117e1dd8fbef","condition":"full-information","relevant_dimensions":["antennae","legs"],"bee_group":{"antennae":"A","wings":"X","pattern":"X","legs":"F"},"bonus":1.0800000000000012},{"rt":3650,"stimulus":"bees-with-color/bee-B1SF.svg","response":1,"trial_type":"image-button-response","trial_index":23,"time_elapsed":663875,"internal_node_id":"0.0-4.0-0.6","subject_id":"5b116068160a2e0001acb494","study_id":"60edd13110225f80f9f3709b","session_id":"6196ba8256bb117e1dd8fbef","condition":"full-information","relevant_dimensions":["antennae","legs"],"bee_group":{"antennae":"A","wings":"X","pattern":"X","legs":"F"},"action":"avoid","summary":"bad-avoid","bonus":1.0800000000000012},{"rt":7338.200000047684,"stimulus":"\n                    <p><b>Action: <em>avoid</em></b></p>\n                    <p>This is the bee that you just saw.</p>\n                    <img src=\"bees-with-color/bee-B1SF.svg\" width=\"200\">\n                    <p><span class=\"redText\">Bad choice,</span> the bee was friendly.<br>Your bonus pay is unchanged, and remains at $0.48.</p>\n            ","response":0,"trial_type":"html-button-response","trial_index":24,"time_elapsed":671215,"internal_node_id":"0.0-4.0-1.6","subject_id":"5b116068160a2e0001acb494","study_id":"60edd13110225f80f9f3709b","session_id":"6196ba8256bb117e1dd8fbef","condition":"full-information","relevant_dimensions":["antennae","legs"],"bee_group":{"antennae":"A","wings":"X","pattern":"X","legs":"F"},"bonus":1.0800000000000012},{"rt":6161.300000011921,"stimulus":"bees-with-color/bee-A2DM.svg","response":1,"trial_type":"image-button-response","trial_index":25,"time_elapsed":677379,"internal_node_id":"0.0-4.0-0.7","subject_id":"5b116068160a2e0001acb494","study_id":"60edd13110225f80f9f3709b","session_id":"6196ba8256bb117e1dd8fbef","condition":"full-information","relevant_dimensions":["antennae","legs"],"bee_group":{"antennae":"A","wings":"X","pattern":"X","legs":"F"},"action":"avoid","summary":"bad-avoid","bonus":1.0800000000000012},{"rt":13466.100000023842,"stimulus":"\n                    <p><b>Action: <em>avoid</em></b></p>\n                    <p>This is the bee that you just saw.</p>\n                    <img src=\"bees-with-color/bee-A2DM.svg\" width=\"200\">\n                    <p><span class=\"redText\">Bad choice,</span> the bee was friendly.<br>Your bonus pay is unchanged, and remains at $0.48.</p>\n            ","response":0,"trial_type":"html-button-response","trial_index":26,"time_elapsed":690847,"internal_node_id":"0.0-4.0-1.7","subject_id":"5b116068160a2e0001acb494","study_id":"60edd13110225f80f9f3709b","session_id":"6196ba8256bb117e1dd8fbef","condition":"full-information","relevant_dimensions":["antennae","legs"],"bee_group":{"antennae":"A","wings":"X","pattern":"X","legs":"F"},"bonus":1.0800000000000012},{"rt":2932.800000011921,"stimulus":"bees-with-color/bee-A2SM.svg","response":0,"trial_type":"image-button-response","trial_index":27,"time_elapsed":693782,"internal_node_id":"0.0-4.0-0.8","subject_id":"5b116068160a2e0001acb494","study_id":"60edd13110225f80f9f3709b","session_id":"6196ba8256bb117e1dd8fbef","condition":"full-information","relevant_dimensions":["antennae","legs"],"bee_group":{"antennae":"A","wings":"X","pattern":"X","legs":"F"},"action":"harvest","summary":"good-harvest","bonus":1.0800000000000012},{"rt":3638.800000011921,"stimulus":"\n                    <p><b>Action: <em>harvest</em></b></p>\n                    <p>This is the bee that you just saw.</p>\n                    <img src=\"bees-with-color/bee-A2SM.svg\" width=\"200\">\n                    <p><span class=\"greenText\"><b>Successful harvest!</b></span><br>Your pay has increased by $0.02. Your bonus pay is now $0.50.</p>\n            ","response":0,"trial_type":"html-button-response","trial_index":28,"time_elapsed":697422,"internal_node_id":"0.0-4.0-1.8","subject_id":"5b116068160a2e0001acb494","study_id":"60edd13110225f80f9f3709b","session_id":"6196ba8256bb117e1dd8fbef","condition":"full-information","relevant_dimensions":["antennae","legs"],"bee_group":{"antennae":"A","wings":"X","pattern":"X","legs":"F"},"bonus":1.0800000000000012},{"rt":2898.399999976158,"stimulus":"bees-with-color/bee-B2SM.svg","response":1,"trial_type":"image-button-response","trial_index":29,"time_elapsed":700323,"internal_node_id":"0.0-4.0-0.9","subject_id":"5b116068160a2e0001acb494","study_id":"60edd13110225f80f9f3709b","session_id":"6196ba8256bb117e1dd8fbef","condition":"full-information","relevant_dimensions":["antennae","legs"],"bee_group":{"antennae":"A","wings":"X","pattern":"X","legs":"F"},"action":"avoid","summary":"bad-avoid","bonus":1.0800000000000012},{"rt":3586.099999964237,"stimulus":"\n                    <p><b>Action: <em>avoid</em></b></p>\n                    <p>This is the bee that you just saw.</p>\n                    <img src=\"bees-with-color/bee-B2SM.svg\" width=\"200\">\n                    <p><span class=\"redText\">Bad choice,</span> the bee was friendly.<br>Your bonus pay is unchanged, and remains at $0.50.</p>\n            ","response":0,"trial_type":"html-button-response","trial_index":30,"time_elapsed":703911,"internal_node_id":"0.0-4.0-1.9","subject_id":"5b116068160a2e0001acb494","study_id":"60edd13110225f80f9f3709b","session_id":"6196ba8256bb117e1dd8fbef","condition":"full-information","relevant_dimensions":["antennae","legs"],"bee_group":{"antennae":"A","wings":"X","pattern":"X","legs":"F"},"bonus":1.0800000000000012},{"rt":5184.899999976158,"stimulus":"bees-with-color/bee-B2SF.svg","response":1,"trial_type":"image-button-response","trial_index":31,"time_elapsed":709098,"internal_node_id":"0.0-4.0-0.10","subject_id":"5b116068160a2e0001acb494","study_id":"60edd13110225f80f9f3709b","session_id":"6196ba8256bb117e1dd8fbef","condition":"full-information","relevant_dimensions":["antennae","legs"],"bee_group":{"antennae":"A","wings":"X","pattern":"X","legs":"F"},"action":"avoid","summary":"bad-avoid","bonus":1.0800000000000012},{"rt":4066.5,"stimulus":"\n                    <p><b>Action: <em>avoid</em></b></p>\n                    <p>This is the bee that you just saw.</p>\n                    <img src=\"bees-with-color/bee-B2SF.svg\" width=\"200\">\n                    <p><span class=\"redText\">Bad choice,</span> the bee was friendly.<br>Your bonus pay is unchanged, and remains at $0.50.</p>\n            ","response":0,"trial_type":"html-button-response","trial_index":32,"time_elapsed":713166,"internal_node_id":"0.0-4.0-1.10","subject_id":"5b116068160a2e0001acb494","study_id":"60edd13110225f80f9f3709b","session_id":"6196ba8256bb117e1dd8fbef","condition":"full-information","relevant_dimensions":["antennae","legs"],"bee_group":{"antennae":"A","wings":"X","pattern":"X","legs":"F"},"bonus":1.0800000000000012},{"rt":2706.199999988079,"stimulus":"bees-with-color/bee-A1SM.svg","response":0,"trial_type":"image-button-response","trial_index":33,"time_elapsed":715875,"internal_node_id":"0.0-4.0-0.11","subject_id":"5b116068160a2e0001acb494","study_id":"60edd13110225f80f9f3709b","session_id":"6196ba8256bb117e1dd8fbef","condition":"full-information","relevant_dimensions":["antennae","legs"],"bee_group":{"antennae":"A","wings":"X","pattern":"X","legs":"F"},"action":"harvest","summary":"good-harvest","bonus":1.0800000000000012},{"rt":3101.2000000476837,"stimulus":"\n                    <p><b>Action: <em>harvest</em></b></p>\n                    <p>This is the bee that you just saw.</p>\n                    <img src=\"bees-with-color/bee-A1SM.svg\" width=\"200\">\n                    <p><span class=\"greenText\"><b>Successful harvest!</b></span><br>Your pay has increased by $0.02. Your bonus pay is now $0.52.</p>\n            ","response":0,"trial_type":"html-button-response","trial_index":34,"time_elapsed":718983,"internal_node_id":"0.0-4.0-1.11","subject_id":"5b116068160a2e0001acb494","study_id":"60edd13110225f80f9f3709b","session_id":"6196ba8256bb117e1dd8fbef","condition":"full-information","relevant_dimensions":["antennae","legs"],"bee_group":{"antennae":"A","wings":"X","pattern":"X","legs":"F"},"bonus":1.0800000000000012},{"rt":2213.800000011921,"stimulus":"bees-with-color/bee-A2DF.svg","response":0,"trial_type":"image-button-response","trial_index":35,"time_elapsed":721199,"internal_node_id":"0.0-4.0-0.12","subject_id":"5b116068160a2e0001acb494","study_id":"60edd13110225f80f9f3709b","session_id":"6196ba8256bb117e1dd8fbef","condition":"full-information","relevant_dimensions":["antennae","legs"],"bee_group":{"antennae":"A","wings":"X","pattern":"X","legs":"F"},"action":"harvest","summary":"bad-harvest","bonus":1.0800000000000012},{"rt":3542.2999999523163,"stimulus":"\n                    <p><b>Action: <em>harvest</em></b></p>\n                    <p>This is the bee that you just saw.</p>\n                    <img src=\"bees-with-color/bee-A2DF.svg\" width=\"200\">\n                    <p><span class=\"redText\">Bad choice, the bee was angry.</span><br><b>You have been stung!</b><br>Your pay has been decreased by $0.10. Your bonus pay is now $0.42.</p>\n            ","response":0,"trial_type":"html-button-response","trial_index":36,"time_elapsed":724744,"internal_node_id":"0.0-4.0-1.12","subject_id":"5b116068160a2e0001acb494","study_id":"60edd13110225f80f9f3709b","session_id":"6196ba8256bb117e1dd8fbef","condition":"full-information","relevant_dimensions":["antennae","legs"],"bee_group":{"antennae":"A","wings":"X","pattern":"X","legs":"F"},"bonus":1.0800000000000012},{"rt":5189.600000023842,"stimulus":"bees-with-color/bee-B2DF.svg","response":1,"trial_type":"image-button-response","trial_index":37,"time_elapsed":729936,"internal_node_id":"0.0-4.0-0.13","subject_id":"5b116068160a2e0001acb494","study_id":"60edd13110225f80f9f3709b","session_id":"6196ba8256bb117e1dd8fbef","condition":"full-information","relevant_dimensions":["antennae","legs"],"bee_group":{"antennae":"A","wings":"X","pattern":"X","legs":"F"},"action":"avoid","summary":"bad-avoid","bonus":1.0800000000000012},{"rt":2330.699999988079,"stimulus":"\n                    <p><b>Action: <em>avoid</em></b></p>\n                    <p>This is the bee that you just saw.</p>\n                    <img src=\"bees-with-color/bee-B2DF.svg\" width=\"200\">\n                    <p><span class=\"redText\">Bad choice,</span> the bee was friendly.<br>Your bonus pay is unchanged, and remains at $0.42.</p>\n            ","response":0,"trial_type":"html-button-response","trial_index":38,"time_elapsed":732267,"internal_node_id":"0.0-4.0-1.13","subject_id":"5b116068160a2e0001acb494","study_id":"60edd13110225f80f9f3709b","session_id":"6196ba8256bb117e1dd8fbef","condition":"full-information","relevant_dimensions":["antennae","legs"],"bee_group":{"antennae":"A","wings":"X","pattern":"X","legs":"F"},"bonus":1.0800000000000012},{"rt":2530.2999999523163,"stimulus":"bees-with-color/bee-B1DF.svg","response":0,"trial_type":"image-button-response","trial_index":39,"time_elapsed":734799,"internal_node_id":"0.0-4.0-0.14","subject_id":"5b116068160a2e0001acb494","study_id":"60edd13110225f80f9f3709b","session_id":"6196ba8256bb117e1dd8fbef","condition":"full-information","relevant_dimensions":["antennae","legs"],"bee_group":{"antennae":"A","wings":"X","pattern":"X","legs":"F"},"action":"harvest","summary":"good-harvest","bonus":1.0800000000000012},{"rt":7462.199999988079,"stimulus":"\n                    <p><b>Action: <em>harvest</em></b></p>\n                    <p>This is the bee that you just saw.</p>\n                    <img src=\"bees-with-color/bee-B1DF.svg\" width=\"200\">\n                    <p><span class=\"greenText\"><b>Successful harvest!</b></span><br>Your pay has increased by $0.02. Your bonus pay is now $0.44.</p>\n            ","response":0,"trial_type":"html-button-response","trial_index":40,"time_elapsed":742263,"internal_node_id":"0.0-4.0-1.14","subject_id":"5b116068160a2e0001acb494","study_id":"60edd13110225f80f9f3709b","session_id":"6196ba8256bb117e1dd8fbef","condition":"full-information","relevant_dimensions":["antennae","legs"],"bee_group":{"antennae":"A","wings":"X","pattern":"X","legs":"F"},"bonus":1.0800000000000012},{"rt":3378.199999988079,"stimulus":"bees-with-color/bee-A1DF.svg","response":0,"trial_type":"image-button-response","trial_index":41,"time_elapsed":745643,"internal_node_id":"0.0-4.0-0.15","subject_id":"5b116068160a2e0001acb494","study_id":"60edd13110225f80f9f3709b","session_id":"6196ba8256bb117e1dd8fbef","condition":"full-information","relevant_dimensions":["antennae","legs"],"bee_group":{"antennae":"A","wings":"X","pattern":"X","legs":"F"},"action":"harvest","summary":"bad-harvest","bonus":1.0800000000000012},{"rt":2402.899999976158,"stimulus":"\n                    <p><b>Action: <em>harvest</em></b></p>\n                    <p>This is the bee that you just saw.</p>\n                    <img src=\"bees-with-color/bee-A1DF.svg\" width=\"200\">\n                    <p><span class=\"redText\">Bad choice, the bee was angry.</span><br><b>You have been stung!</b><br>Your pay has been decreased by $0.10. Your bonus pay is now $0.34.</p>\n            ","response":0,"trial_type":"html-button-response","trial_index":42,"time_elapsed":748048,"internal_node_id":"0.0-4.0-1.15","subject_id":"5b116068160a2e0001acb494","study_id":"60edd13110225f80f9f3709b","session_id":"6196ba8256bb117e1dd8fbef","condition":"full-information","relevant_dimensions":["antennae","legs"],"bee_group":{"antennae":"A","wings":"X","pattern":"X","legs":"F"},"bonus":1.0800000000000012},{"rt":1785.699999988079,"stimulus":"bees-with-color/bee-A1SF.svg","response":1,"trial_type":"image-button-response","trial_index":43,"time_elapsed":749836,"internal_node_id":"0.0-4.0-0.16","subject_id":"5b116068160a2e0001acb494","study_id":"60edd13110225f80f9f3709b","session_id":"6196ba8256bb117e1dd8fbef","condition":"full-information","relevant_dimensions":["antennae","legs"],"bee_group":{"antennae":"A","wings":"X","pattern":"X","legs":"F"},"action":"avoid","summary":"good-avoid","bonus":1.0800000000000012},{"rt":2498.5,"stimulus":"\n                    <p><b>Action: <em>avoid</em></b></p>\n                    <p>This is the bee that you just saw.</p>\n                    <img src=\"bees-with-color/bee-A1SF.svg\" width=\"200\">\n                    <p><span class=\"greenText\">Good choice!</span>  This bee would have stung you.<br>Your bonus pay is unchanged, and remains at $0.34.</p>\n            ","response":0,"trial_type":"html-button-response","trial_index":44,"time_elapsed":752336,"internal_node_id":"0.0-4.0-1.16","subject_id":"5b116068160a2e0001acb494","study_id":"60edd13110225f80f9f3709b","session_id":"6196ba8256bb117e1dd8fbef","condition":"full-information","relevant_dimensions":["antennae","legs"],"bee_group":{"antennae":"A","wings":"X","pattern":"X","legs":"F"},"bonus":1.0800000000000012},{"rt":3489.399999976158,"stimulus":"bees-with-color/bee-B2DF.svg","response":0,"trial_type":"image-button-response","trial_index":45,"time_elapsed":755827,"internal_node_id":"0.0-4.0-0.17","subject_id":"5b116068160a2e0001acb494","study_id":"60edd13110225f80f9f3709b","session_id":"6196ba8256bb117e1dd8fbef","condition":"full-information","relevant_dimensions":["antennae","legs"],"bee_group":{"antennae":"A","wings":"X","pattern":"X","legs":"F"},"action":"harvest","summary":"good-harvest","bonus":1.0800000000000012},{"rt":2386.600000023842,"stimulus":"\n                    <p><b>Action: <em>harvest</em></b></p>\n                    <p>This is the bee that you just saw.</p>\n                    <img src=\"bees-with-color/bee-B2DF.svg\" width=\"200\">\n                    <p><span class=\"greenText\"><b>Successful harvest!</b></span><br>Your pay has increased by $0.02. Your bonus pay is now $0.36.</p>\n            ","response":0,"trial_type":"html-button-response","trial_index":46,"time_elapsed":758216,"internal_node_id":"0.0-4.0-1.17","subject_id":"5b116068160a2e0001acb494","study_id":"60edd13110225f80f9f3709b","session_id":"6196ba8256bb117e1dd8fbef","condition":"full-information","relevant_dimensions":["antennae","legs"],"bee_group":{"antennae":"A","wings":"X","pattern":"X","legs":"F"},"bonus":1.0800000000000012},{"rt":4605.600000023842,"stimulus":"bees-with-color/bee-B2SM.svg","response":0,"trial_type":"image-button-response","trial_index":47,"time_elapsed":762823,"internal_node_id":"0.0-4.0-0.18","subject_id":"5b116068160a2e0001acb494","study_id":"60edd13110225f80f9f3709b","session_id":"6196ba8256bb117e1dd8fbef","condition":"full-information","relevant_dimensions":["antennae","legs"],"bee_group":{"antennae":"A","wings":"X","pattern":"X","legs":"F"},"action":"harvest","summary":"good-harvest","bonus":1.0800000000000012},{"rt":3090.600000023842,"stimulus":"\n                    <p><b>Action: <em>harvest</em></b></p>\n                    <p>This is the bee that you just saw.</p>\n                    <img src=\"bees-with-color/bee-B2SM.svg\" width=\"200\">\n                    <p><span class=\"greenText\"><b>Successful harvest!</b></span><br>Your pay has increased by $0.02. Your bonus pay is now $0.38.</p>\n            ","response":0,"trial_type":"html-button-response","trial_index":48,"time_elapsed":765916,"internal_node_id":"0.0-4.0-1.18","subject_id":"5b116068160a2e0001acb494","study_id":"60edd13110225f80f9f3709b","session_id":"6196ba8256bb117e1dd8fbef","condition":"full-information","relevant_dimensions":["antennae","legs"],"bee_group":{"antennae":"A","wings":"X","pattern":"X","legs":"F"},"bonus":1.0800000000000012},{"rt":4630,"stimulus":"bees-with-color/bee-A2SM.svg","response":1,"trial_type":"image-button-response","trial_index":49,"time_elapsed":770548,"internal_node_id":"0.0-4.0-0.19","subject_id":"5b116068160a2e0001acb494","study_id":"60edd13110225f80f9f3709b","session_id":"6196ba8256bb117e1dd8fbef","condition":"full-information","relevant_dimensions":["antennae","legs"],"bee_group":{"antennae":"A","wings":"X","pattern":"X","legs":"F"},"action":"avoid","summary":"bad-avoid","bonus":1.0800000000000012},{"rt":2810.5,"stimulus":"\n                    <p><b>Action: <em>avoid</em></b></p>\n                    <p>This is the bee that you just saw.</p>\n                    <img src=\"bees-with-color/bee-A2SM.svg\" width=\"200\">\n                    <p><span class=\"redText\">Bad choice,</span> the bee was friendly.<br>Your bonus pay is unchanged, and remains at $0.38.</p>\n            ","response":0,"trial_type":"html-button-response","trial_index":50,"time_elapsed":773359,"internal_node_id":"0.0-4.0-1.19","subject_id":"5b116068160a2e0001acb494","study_id":"60edd13110225f80f9f3709b","session_id":"6196ba8256bb117e1dd8fbef","condition":"full-information","relevant_dimensions":["antennae","legs"],"bee_group":{"antennae":"A","wings":"X","pattern":"X","legs":"F"},"bonus":1.0800000000000012},{"rt":2154.5,"stimulus":"bees-with-color/bee-B2DM.svg","response":0,"trial_type":"image-button-response","trial_index":51,"time_elapsed":775515,"internal_node_id":"0.0-4.0-0.20","subject_id":"5b116068160a2e0001acb494","study_id":"60edd13110225f80f9f3709b","session_id":"6196ba8256bb117e1dd8fbef","condition":"full-information","relevant_dimensions":["antennae","legs"],"bee_group":{"antennae":"A","wings":"X","pattern":"X","legs":"F"},"action":"harvest","summary":"good-harvest","bonus":1.0800000000000012},{"rt":2946.800000011921,"stimulus":"\n                    <p><b>Action: <em>harvest</em></b></p>\n                    <p>This is the bee that you just saw.</p>\n                    <img src=\"bees-with-color/bee-B2DM.svg\" width=\"200\">\n                    <p><span class=\"greenText\"><b>Successful harvest!</b></span><br>Your pay has increased by $0.02. Your bonus pay is now $0.40.</p>\n            ","response":0,"trial_type":"html-button-response","trial_index":52,"time_elapsed":778462,"internal_node_id":"0.0-4.0-1.20","subject_id":"5b116068160a2e0001acb494","study_id":"60edd13110225f80f9f3709b","session_id":"6196ba8256bb117e1dd8fbef","condition":"full-information","relevant_dimensions":["antennae","legs"],"bee_group":{"antennae":"A","wings":"X","pattern":"X","legs":"F"},"bonus":1.0800000000000012},{"rt":4694.199999988079,"stimulus":"bees-with-color/bee-A1SM.svg","response":0,"trial_type":"image-button-response","trial_index":53,"time_elapsed":783158,"internal_node_id":"0.0-4.0-0.21","subject_id":"5b116068160a2e0001acb494","study_id":"60edd13110225f80f9f3709b","session_id":"6196ba8256bb117e1dd8fbef","condition":"full-information","relevant_dimensions":["antennae","legs"],"bee_group":{"antennae":"A","wings":"X","pattern":"X","legs":"F"},"action":"harvest","summary":"good-harvest","bonus":1.0800000000000012},{"rt":2738.300000011921,"stimulus":"\n                    <p><b>Action: <em>harvest</em></b></p>\n                    <p>This is the bee that you just saw.</p>\n                    <img src=\"bees-with-color/bee-A1SM.svg\" width=\"200\">\n                    <p><span class=\"greenText\"><b>Successful harvest!</b></span><br>Your pay has increased by $0.02. Your bonus pay is now $0.42.</p>\n            ","response":0,"trial_type":"html-button-response","trial_index":54,"time_elapsed":785898,"internal_node_id":"0.0-4.0-1.21","subject_id":"5b116068160a2e0001acb494","study_id":"60edd13110225f80f9f3709b","session_id":"6196ba8256bb117e1dd8fbef","condition":"full-information","relevant_dimensions":["antennae","legs"],"bee_group":{"antennae":"A","wings":"X","pattern":"X","legs":"F"},"bonus":1.0800000000000012},{"rt":6933.800000011921,"stimulus":"bees-with-color/bee-A2SF.svg","response":1,"trial_type":"image-button-response","trial_index":55,"time_elapsed":792834,"internal_node_id":"0.0-4.0-0.22","subject_id":"5b116068160a2e0001acb494","study_id":"60edd13110225f80f9f3709b","session_id":"6196ba8256bb117e1dd8fbef","condition":"full-information","relevant_dimensions":["antennae","legs"],"bee_group":{"antennae":"A","wings":"X","pattern":"X","legs":"F"},"action":"avoid","summary":"good-avoid","bonus":1.0800000000000012},{"rt":4334.699999988079,"stimulus":"\n                    <p><b>Action: <em>avoid</em></b></p>\n                    <p>This is the bee that you just saw.</p>\n                    <img src=\"bees-with-color/bee-A2SF.svg\" width=\"200\">\n                    <p><span class=\"greenText\">Good choice!</span>  This bee would have stung you.<br>Your bonus pay is unchanged, and remains at $0.42.</p>\n            ","response":0,"trial_type":"html-button-response","trial_index":56,"time_elapsed":797170,"internal_node_id":"0.0-4.0-1.22","subject_id":"5b116068160a2e0001acb494","study_id":"60edd13110225f80f9f3709b","session_id":"6196ba8256bb117e1dd8fbef","condition":"full-information","relevant_dimensions":["antennae","legs"],"bee_group":{"antennae":"A","wings":"X","pattern":"X","legs":"F"},"bonus":1.0800000000000012},{"rt":2850,"stimulus":"bees-with-color/bee-A2DM.svg","response":0,"trial_type":"image-button-response","trial_index":57,"time_elapsed":800022,"internal_node_id":"0.0-4.0-0.23","subject_id":"5b116068160a2e0001acb494","study_id":"60edd13110225f80f9f3709b","session_id":"6196ba8256bb117e1dd8fbef","condition":"full-information","relevant_dimensions":["antennae","legs"],"bee_group":{"antennae":"A","wings":"X","pattern":"X","legs":"F"},"action":"harvest","summary":"good-harvest","bonus":1.0800000000000012},{"rt":3250.199999988079,"stimulus":"\n                    <p><b>Action: <em>harvest</em></b></p>\n                    <p>This is the bee that you just saw.</p>\n                    <img src=\"bees-with-color/bee-A2DM.svg\" width=\"200\">\n                    <p><span class=\"greenText\"><b>Successful harvest!</b></span><br>Your pay has increased by $0.02. Your bonus pay is now $0.44.</p>\n            ","response":0,"trial_type":"html-button-response","trial_index":58,"time_elapsed":803274,"internal_node_id":"0.0-4.0-1.23","subject_id":"5b116068160a2e0001acb494","study_id":"60edd13110225f80f9f3709b","session_id":"6196ba8256bb117e1dd8fbef","condition":"full-information","relevant_dimensions":["antennae","legs"],"bee_group":{"antennae":"A","wings":"X","pattern":"X","legs":"F"},"bonus":1.0800000000000012},{"rt":2546.300000011921,"stimulus":"bees-with-color/bee-B1DM.svg","response":0,"trial_type":"image-button-response","trial_index":59,"time_elapsed":805822,"internal_node_id":"0.0-4.0-0.24","subject_id":"5b116068160a2e0001acb494","study_id":"60edd13110225f80f9f3709b","session_id":"6196ba8256bb117e1dd8fbef","condition":"full-information","relevant_dimensions":["antennae","legs"],"bee_group":{"antennae":"A","wings":"X","pattern":"X","legs":"F"},"action":"harvest","summary":"good-harvest","bonus":1.0800000000000012},{"rt":2666.199999988079,"stimulus":"\n                    <p><b>Action: <em>harvest</em></b></p>\n                    <p>This is the bee that you just saw.</p>\n                    <img src=\"bees-with-color/bee-B1DM.svg\" width=\"200\">\n                    <p><span class=\"greenText\"><b>Successful harvest!</b></span><br>Your pay has increased by $0.02. Your bonus pay is now $0.46.</p>\n            ","response":0,"trial_type":"html-button-response","trial_index":60,"time_elapsed":808490,"internal_node_id":"0.0-4.0-1.24","subject_id":"5b116068160a2e0001acb494","study_id":"60edd13110225f80f9f3709b","session_id":"6196ba8256bb117e1dd8fbef","condition":"full-information","relevant_dimensions":["antennae","legs"],"bee_group":{"antennae":"A","wings":"X","pattern":"X","legs":"F"},"bonus":1.0800000000000012},{"rt":2249.800000011921,"stimulus":"bees-with-color/bee-B2SF.svg","response":0,"trial_type":"image-button-response","trial_index":61,"time_elapsed":810742,"internal_node_id":"0.0-4.0-0.25","subject_id":"5b116068160a2e0001acb494","study_id":"60edd13110225f80f9f3709b","session_id":"6196ba8256bb117e1dd8fbef","condition":"full-information","relevant_dimensions":["antennae","legs"],"bee_group":{"antennae":"A","wings":"X","pattern":"X","legs":"F"},"action":"harvest","summary":"good-harvest","bonus":1.0800000000000012},{"rt":2241.5,"stimulus":"\n                    <p><b>Action: <em>harvest</em></b></p>\n                    <p>This is the bee that you just saw.</p>\n                    <img src=\"bees-with-color/bee-B2SF.svg\" width=\"200\">\n                    <p><span class=\"greenText\"><b>Successful harvest!</b></span><br>Your pay has increased by $0.02. Your bonus pay is now $0.48.</p>\n            ","response":0,"trial_type":"html-button-response","trial_index":62,"time_elapsed":812986,"internal_node_id":"0.0-4.0-1.25","subject_id":"5b116068160a2e0001acb494","study_id":"60edd13110225f80f9f3709b","session_id":"6196ba8256bb117e1dd8fbef","condition":"full-information","relevant_dimensions":["antennae","legs"],"bee_group":{"antennae":"A","wings":"X","pattern":"X","legs":"F"},"bonus":1.0800000000000012},{"rt":1754.3999999761581,"stimulus":"bees-with-color/bee-B1SM.svg","response":0,"trial_type":"image-button-response","trial_index":63,"time_elapsed":814743,"internal_node_id":"0.0-4.0-0.26","subject_id":"5b116068160a2e0001acb494","study_id":"60edd13110225f80f9f3709b","session_id":"6196ba8256bb117e1dd8fbef","condition":"full-information","relevant_dimensions":["antennae","legs"],"bee_group":{"antennae":"A","wings":"X","pattern":"X","legs":"F"},"action":"harvest","summary":"good-harvest","bonus":1.0800000000000012},{"rt":2482.100000023842,"stimulus":"\n                    <p><b>Action: <em>harvest</em></b></p>\n                    <p>This is the bee that you just saw.</p>\n                    <img src=\"bees-with-color/bee-B1SM.svg\" width=\"200\">\n                    <p><span class=\"greenText\"><b>Successful harvest!</b></span><br>Your pay has increased by $0.02. Your bonus pay is now $0.50.</p>\n            ","response":0,"trial_type":"html-button-response","trial_index":64,"time_elapsed":817226,"internal_node_id":"0.0-4.0-1.26","subject_id":"5b116068160a2e0001acb494","study_id":"60edd13110225f80f9f3709b","session_id":"6196ba8256bb117e1dd8fbef","condition":"full-information","relevant_dimensions":["antennae","legs"],"bee_group":{"antennae":"A","wings":"X","pattern":"X","legs":"F"},"bonus":1.0800000000000012},{"rt":1598.7999999523163,"stimulus":"bees-with-color/bee-B1SF.svg","response":0,"trial_type":"image-button-response","trial_index":65,"time_elapsed":818826,"internal_node_id":"0.0-4.0-0.27","subject_id":"5b116068160a2e0001acb494","study_id":"60edd13110225f80f9f3709b","session_id":"6196ba8256bb117e1dd8fbef","condition":"full-information","relevant_dimensions":["antennae","legs"],"bee_group":{"antennae":"A","wings":"X","pattern":"X","legs":"F"},"action":"harvest","summary":"good-harvest","bonus":1.0800000000000012},{"rt":1994.0999999642372,"stimulus":"\n                    <p><b>Action: <em>harvest</em></b></p>\n                    <p>This is the bee that you just saw.</p>\n                    <img src=\"bees-with-color/bee-B1SF.svg\" width=\"200\">\n                    <p><span class=\"greenText\"><b>Successful harvest!</b></span><br>Your pay has increased by $0.02. Your bonus pay is now $0.52.</p>\n            ","response":0,"trial_type":"html-button-response","trial_index":66,"time_elapsed":820822,"internal_node_id":"0.0-4.0-1.27","subject_id":"5b116068160a2e0001acb494","study_id":"60edd13110225f80f9f3709b","session_id":"6196ba8256bb117e1dd8fbef","condition":"full-information","relevant_dimensions":["antennae","legs"],"bee_group":{"antennae":"A","wings":"X","pattern":"X","legs":"F"},"bonus":1.0800000000000012},{"rt":4535.099999964237,"stimulus":"bees-with-color/bee-A1DM.svg","response":0,"trial_type":"image-button-response","trial_index":67,"time_elapsed":825358,"internal_node_id":"0.0-4.0-0.28","subject_id":"5b116068160a2e0001acb494","study_id":"60edd13110225f80f9f3709b","session_id":"6196ba8256bb117e1dd8fbef","condition":"full-information","relevant_dimensions":["antennae","legs"],"bee_group":{"antennae":"A","wings":"X","pattern":"X","legs":"F"},"action":"harvest","summary":"good-harvest","bonus":1.0800000000000012},{"rt":1694.199999988079,"stimulus":"\n                    <p><b>Action: <em>harvest</em></b></p>\n                    <p>This is the bee that you just saw.</p>\n                    <img src=\"bees-with-color/bee-A1DM.svg\" width=\"200\">\n                    <p><span class=\"greenText\"><b>Successful harvest!</b></span><br>Your pay has increased by $0.02. Your bonus pay is now $0.54.</p>\n            ","response":0,"trial_type":"html-button-response","trial_index":68,"time_elapsed":827054,"internal_node_id":"0.0-4.0-1.28","subject_id":"5b116068160a2e0001acb494","study_id":"60edd13110225f80f9f3709b","session_id":"6196ba8256bb117e1dd8fbef","condition":"full-information","relevant_dimensions":["antennae","legs"],"bee_group":{"antennae":"A","wings":"X","pattern":"X","legs":"F"},"bonus":1.0800000000000012},{"rt":1866.5,"stimulus":"bees-with-color/bee-A1DF.svg","response":0,"trial_type":"image-button-response","trial_index":69,"time_elapsed":828922,"internal_node_id":"0.0-4.0-0.29","subject_id":"5b116068160a2e0001acb494","study_id":"60edd13110225f80f9f3709b","session_id":"6196ba8256bb117e1dd8fbef","condition":"full-information","relevant_dimensions":["antennae","legs"],"bee_group":{"antennae":"A","wings":"X","pattern":"X","legs":"F"},"action":"harvest","summary":"bad-harvest","bonus":1.0800000000000012},{"rt":20322.19999998808,"stimulus":"\n                    <p><b>Action: <em>harvest</em></b></p>\n                    <p>This is the bee that you just saw.</p>\n                    <img src=\"bees-with-color/bee-A1DF.svg\" width=\"200\">\n                    <p><span class=\"redText\">Bad choice, the bee was angry.</span><br><b>You have been stung!</b><br>Your pay has been decreased by $0.10. Your bonus pay is now $0.44.</p>\n            ","response":0,"trial_type":"html-button-response","trial_index":70,"time_elapsed":849241,"internal_node_id":"0.0-4.0-1.29","subject_id":"5b116068160a2e0001acb494","study_id":"60edd13110225f80f9f3709b","session_id":"6196ba8256bb117e1dd8fbef","condition":"full-information","relevant_dimensions":["antennae","legs"],"bee_group":{"antennae":"A","wings":"X","pattern":"X","legs":"F"},"bonus":1.0800000000000012},{"rt":2305.699999988079,"stimulus":"bees-with-color/bee-A2DF.svg","response":0,"trial_type":"image-button-response","trial_index":71,"time_elapsed":851549,"internal_node_id":"0.0-4.0-0.30","subject_id":"5b116068160a2e0001acb494","study_id":"60edd13110225f80f9f3709b","session_id":"6196ba8256bb117e1dd8fbef","condition":"full-information","relevant_dimensions":["antennae","legs"],"bee_group":{"antennae":"A","wings":"X","pattern":"X","legs":"F"},"action":"harvest","summary":"bad-harvest","bonus":1.0800000000000012},{"rt":5458.199999988079,"stimulus":"\n                    <p><b>Action: <em>harvest</em></b></p>\n                    <p>This is the bee that you just saw.</p>\n                    <img src=\"bees-with-color/bee-A2DF.svg\" width=\"200\">\n                    <p><span class=\"redText\">Bad choice, the bee was angry.</span><br><b>You have been stung!</b><br>Your pay has been decreased by $0.10. Your bonus pay is now $0.34.</p>\n            ","response":0,"trial_type":"html-button-response","trial_index":72,"time_elapsed":857009,"internal_node_id":"0.0-4.0-1.30","subject_id":"5b116068160a2e0001acb494","study_id":"60edd13110225f80f9f3709b","session_id":"6196ba8256bb117e1dd8fbef","condition":"full-information","relevant_dimensions":["antennae","legs"],"bee_group":{"antennae":"A","wings":"X","pattern":"X","legs":"F"},"bonus":1.0800000000000012},{"rt":1621.5,"stimulus":"bees-with-color/bee-B1DF.svg","response":0,"trial_type":"image-button-response","trial_index":73,"time_elapsed":858632,"internal_node_id":"0.0-4.0-0.31","subject_id":"5b116068160a2e0001acb494","study_id":"60edd13110225f80f9f3709b","session_id":"6196ba8256bb117e1dd8fbef","condition":"full-information","relevant_dimensions":["antennae","legs"],"bee_group":{"antennae":"A","wings":"X","pattern":"X","legs":"F"},"action":"harvest","summary":"good-harvest","bonus":1.0800000000000012},{"rt":2161.900000035763,"stimulus":"\n                    <p><b>Action: <em>harvest</em></b></p>\n                    <p>This is the bee that you just saw.</p>\n                    <img src=\"bees-with-color/bee-B1DF.svg\" width=\"200\">\n                    <p><span class=\"greenText\"><b>Successful harvest!</b></span><br>Your pay has increased by $0.02. Your bonus pay is now $0.36.</p>\n            ","response":0,"trial_type":"html-button-response","trial_index":74,"time_elapsed":860796,"internal_node_id":"0.0-4.0-1.31","subject_id":"5b116068160a2e0001acb494","study_id":"60edd13110225f80f9f3709b","session_id":"6196ba8256bb117e1dd8fbef","condition":"full-information","relevant_dimensions":["antennae","legs"],"bee_group":{"antennae":"A","wings":"X","pattern":"X","legs":"F"},"bonus":1.0800000000000012},{"rt":1842.699999988079,"stimulus":"bees-with-color/bee-B1DM.svg","response":0,"trial_type":"image-button-response","trial_index":75,"time_elapsed":862641,"internal_node_id":"0.0-4.0-0.32","subject_id":"5b116068160a2e0001acb494","study_id":"60edd13110225f80f9f3709b","session_id":"6196ba8256bb117e1dd8fbef","condition":"full-information","relevant_dimensions":["antennae","legs"],"bee_group":{"antennae":"A","wings":"X","pattern":"X","legs":"F"},"action":"harvest","summary":"good-harvest","bonus":1.0800000000000012},{"rt":1222.2999999523163,"stimulus":"\n                    <p><b>Action: <em>harvest</em></b></p>\n                    <p>This is the bee that you just saw.</p>\n                    <img src=\"bees-with-color/bee-B1DM.svg\" width=\"200\">\n                    <p><span class=\"greenText\"><b>Successful harvest!</b></span><br>Your pay has increased by $0.02. Your bonus pay is now $0.38.</p>\n            ","response":0,"trial_type":"html-button-response","trial_index":76,"time_elapsed":863864,"internal_node_id":"0.0-4.0-1.32","subject_id":"5b116068160a2e0001acb494","study_id":"60edd13110225f80f9f3709b","session_id":"6196ba8256bb117e1dd8fbef","condition":"full-information","relevant_dimensions":["antennae","legs"],"bee_group":{"antennae":"A","wings":"X","pattern":"X","legs":"F"},"bonus":1.0800000000000012},{"rt":8987,"stimulus":"bees-with-color/bee-B2SF.svg","response":0,"trial_type":"image-button-response","trial_index":77,"time_elapsed":872853,"internal_node_id":"0.0-4.0-0.33","subject_id":"5b116068160a2e0001acb494","study_id":"60edd13110225f80f9f3709b","session_id":"6196ba8256bb117e1dd8fbef","condition":"full-information","relevant_dimensions":["antennae","legs"],"bee_group":{"antennae":"A","wings":"X","pattern":"X","legs":"F"},"action":"harvest","summary":"good-harvest","bonus":1.0800000000000012},{"rt":1674,"stimulus":"\n                    <p><b>Action: <em>harvest</em></b></p>\n                    <p>This is the bee that you just saw.</p>\n                    <img src=\"bees-with-color/bee-B2SF.svg\" width=\"200\">\n                    <p><span class=\"greenText\"><b>Successful harvest!</b></span><br>Your pay has increased by $0.02. Your bonus pay is now $0.40.</p>\n            ","response":0,"trial_type":"html-button-response","trial_index":78,"time_elapsed":874528,"internal_node_id":"0.0-4.0-1.33","subject_id":"5b116068160a2e0001acb494","study_id":"60edd13110225f80f9f3709b","session_id":"6196ba8256bb117e1dd8fbef","condition":"full-information","relevant_dimensions":["antennae","legs"],"bee_group":{"antennae":"A","wings":"X","pattern":"X","legs":"F"},"bonus":1.0800000000000012},{"rt":4846.600000023842,"stimulus":"bees-with-color/bee-A1DM.svg","response":0,"trial_type":"image-button-response","trial_index":79,"time_elapsed":879376,"internal_node_id":"0.0-4.0-0.34","subject_id":"5b116068160a2e0001acb494","study_id":"60edd13110225f80f9f3709b","session_id":"6196ba8256bb117e1dd8fbef","condition":"full-information","relevant_dimensions":["antennae","legs"],"bee_group":{"antennae":"A","wings":"X","pattern":"X","legs":"F"},"action":"harvest","summary":"good-harvest","bonus":1.0800000000000012},{"rt":1874.699999988079,"stimulus":"\n                    <p><b>Action: <em>harvest</em></b></p>\n                    <p>This is the bee that you just saw.</p>\n                    <img src=\"bees-with-color/bee-A1DM.svg\" width=\"200\">\n                    <p><span class=\"greenText\"><b>Successful harvest!</b></span><br>Your pay has increased by $0.02. Your bonus pay is now $0.42.</p>\n            ","response":0,"trial_type":"html-button-response","trial_index":80,"time_elapsed":881253,"internal_node_id":"0.0-4.0-1.34","subject_id":"5b116068160a2e0001acb494","study_id":"60edd13110225f80f9f3709b","session_id":"6196ba8256bb117e1dd8fbef","condition":"full-information","relevant_dimensions":["antennae","legs"],"bee_group":{"antennae":"A","wings":"X","pattern":"X","legs":"F"},"bonus":1.0800000000000012},{"rt":5994.300000011921,"stimulus":"bees-with-color/bee-B2DM.svg","response":0,"trial_type":"image-button-response","trial_index":81,"time_elapsed":887249,"internal_node_id":"0.0-4.0-0.35","subject_id":"5b116068160a2e0001acb494","study_id":"60edd13110225f80f9f3709b","session_id":"6196ba8256bb117e1dd8fbef","condition":"full-information","relevant_dimensions":["antennae","legs"],"bee_group":{"antennae":"A","wings":"X","pattern":"X","legs":"F"},"action":"harvest","summary":"good-harvest","bonus":1.0800000000000012},{"rt":1582.2999999523163,"stimulus":"\n                    <p><b>Action: <em>harvest</em></b></p>\n                    <p>This is the bee that you just saw.</p>\n                    <img src=\"bees-with-color/bee-B2DM.svg\" width=\"200\">\n                    <p><span class=\"greenText\"><b>Successful harvest!</b></span><br>Your pay has increased by $0.02. Your bonus pay is now $0.44.</p>\n            ","response":0,"trial_type":"html-button-response","trial_index":82,"time_elapsed":888833,"internal_node_id":"0.0-4.0-1.35","subject_id":"5b116068160a2e0001acb494","study_id":"60edd13110225f80f9f3709b","session_id":"6196ba8256bb117e1dd8fbef","condition":"full-information","relevant_dimensions":["antennae","legs"],"bee_group":{"antennae":"A","wings":"X","pattern":"X","legs":"F"},"bonus":1.0800000000000012},{"rt":2506,"stimulus":"bees-with-color/bee-A1SF.svg","response":0,"trial_type":"image-button-response","trial_index":83,"time_elapsed":891341,"internal_node_id":"0.0-4.0-0.36","subject_id":"5b116068160a2e0001acb494","study_id":"60edd13110225f80f9f3709b","session_id":"6196ba8256bb117e1dd8fbef","condition":"full-information","relevant_dimensions":["antennae","legs"],"bee_group":{"antennae":"A","wings":"X","pattern":"X","legs":"F"},"action":"harvest","summary":"bad-harvest","bonus":1.0800000000000012},{"rt":12097.699999988079,"stimulus":"\n                    <p><b>Action: <em>harvest</em></b></p>\n                    <p>This is the bee that you just saw.</p>\n                    <img src=\"bees-with-color/bee-A1SF.svg\" width=\"200\">\n                    <p><span class=\"redText\">Bad choice, the bee was angry.</span><br><b>You have been stung!</b><br>Your pay has been decreased by $0.10. Your bonus pay is now $0.34.</p>\n            ","response":0,"trial_type":"html-button-response","trial_index":84,"time_elapsed":903441,"internal_node_id":"0.0-4.0-1.36","subject_id":"5b116068160a2e0001acb494","study_id":"60edd13110225f80f9f3709b","session_id":"6196ba8256bb117e1dd8fbef","condition":"full-information","relevant_dimensions":["antennae","legs"],"bee_group":{"antennae":"A","wings":"X","pattern":"X","legs":"F"},"bonus":1.0800000000000012},{"rt":1542.300000011921,"stimulus":"bees-with-color/bee-B1DF.svg","response":0,"trial_type":"image-button-response","trial_index":85,"time_elapsed":904985,"internal_node_id":"0.0-4.0-0.37","subject_id":"5b116068160a2e0001acb494","study_id":"60edd13110225f80f9f3709b","session_id":"6196ba8256bb117e1dd8fbef","condition":"full-information","relevant_dimensions":["antennae","legs"],"bee_group":{"antennae":"A","wings":"X","pattern":"X","legs":"F"},"action":"harvest","summary":"good-harvest","bonus":1.0800000000000012},{"rt":2313.300000011921,"stimulus":"\n                    <p><b>Action: <em>harvest</em></b></p>\n                    <p>This is the bee that you just saw.</p>\n                    <img src=\"bees-with-color/bee-B1DF.svg\" width=\"200\">\n                    <p><span class=\"greenText\"><b>Successful harvest!</b></span><br>Your pay has increased by $0.02. Your bonus pay is now $0.36.</p>\n            ","response":0,"trial_type":"html-button-response","trial_index":86,"time_elapsed":907301,"internal_node_id":"0.0-4.0-1.37","subject_id":"5b116068160a2e0001acb494","study_id":"60edd13110225f80f9f3709b","session_id":"6196ba8256bb117e1dd8fbef","condition":"full-information","relevant_dimensions":["antennae","legs"],"bee_group":{"antennae":"A","wings":"X","pattern":"X","legs":"F"},"bonus":1.0800000000000012},{"rt":6878.899999976158,"stimulus":"bees-with-color/bee-B2SM.svg","response":0,"trial_type":"image-button-response","trial_index":87,"time_elapsed":914181,"internal_node_id":"0.0-4.0-0.38","subject_id":"5b116068160a2e0001acb494","study_id":"60edd13110225f80f9f3709b","session_id":"6196ba8256bb117e1dd8fbef","condition":"full-information","relevant_dimensions":["antennae","legs"],"bee_group":{"antennae":"A","wings":"X","pattern":"X","legs":"F"},"action":"harvest","summary":"good-harvest","bonus":1.0800000000000012},{"rt":2810.5,"stimulus":"\n                    <p><b>Action: <em>harvest</em></b></p>\n                    <p>This is the bee that you just saw.</p>\n                    <img src=\"bees-with-color/bee-B2SM.svg\" width=\"200\">\n                    <p><span class=\"greenText\"><b>Successful harvest!</b></span><br>Your pay has increased by $0.02. Your bonus pay is now $0.38.</p>\n            ","response":0,"trial_type":"html-button-response","trial_index":88,"time_elapsed":916993,"internal_node_id":"0.0-4.0-1.38","subject_id":"5b116068160a2e0001acb494","study_id":"60edd13110225f80f9f3709b","session_id":"6196ba8256bb117e1dd8fbef","condition":"full-information","relevant_dimensions":["antennae","legs"],"bee_group":{"antennae":"A","wings":"X","pattern":"X","legs":"F"},"bonus":1.0800000000000012},{"rt":5102.199999988079,"stimulus":"bees-with-color/bee-A1DF.svg","response":1,"trial_type":"image-button-response","trial_index":89,"time_elapsed":922097,"internal_node_id":"0.0-4.0-0.39","subject_id":"5b116068160a2e0001acb494","study_id":"60edd13110225f80f9f3709b","session_id":"6196ba8256bb117e1dd8fbef","condition":"full-information","relevant_dimensions":["antennae","legs"],"bee_group":{"antennae":"A","wings":"X","pattern":"X","legs":"F"},"action":"avoid","summary":"good-avoid","bonus":1.0800000000000012},{"rt":2602.300000011921,"stimulus":"\n                    <p><b>Action: <em>avoid</em></b></p>\n                    <p>This is the bee that you just saw.</p>\n                    <img src=\"bees-with-color/bee-A1DF.svg\" width=\"200\">\n                    <p><span class=\"greenText\">Good choice!</span>  This bee would have stung you.<br>Your bonus pay is unchanged, and remains at $0.38.</p>\n            ","response":0,"trial_type":"html-button-response","trial_index":90,"time_elapsed":924701,"internal_node_id":"0.0-4.0-1.39","subject_id":"5b116068160a2e0001acb494","study_id":"60edd13110225f80f9f3709b","session_id":"6196ba8256bb117e1dd8fbef","condition":"full-information","relevant_dimensions":["antennae","legs"],"bee_group":{"antennae":"A","wings":"X","pattern":"X","legs":"F"},"bonus":1.0800000000000012},{"rt":6677.799999952316,"stimulus":"bees-with-color/bee-B1SF.svg","response":0,"trial_type":"image-button-response","trial_index":91,"time_elapsed":931381,"internal_node_id":"0.0-4.0-0.40","subject_id":"5b116068160a2e0001acb494","study_id":"60edd13110225f80f9f3709b","session_id":"6196ba8256bb117e1dd8fbef","condition":"full-information","relevant_dimensions":["antennae","legs"],"bee_group":{"antennae":"A","wings":"X","pattern":"X","legs":"F"},"action":"harvest","summary":"good-harvest","bonus":1.0800000000000012},{"rt":1809.8999999761581,"stimulus":"\n                    <p><b>Action: <em>harvest</em></b></p>\n                    <p>This is the bee that you just saw.</p>\n                    <img src=\"bees-with-color/bee-B1SF.svg\" width=\"200\">\n                    <p><span class=\"greenText\"><b>Successful harvest!</b></span><br>Your pay has increased by $0.02. Your bonus pay is now $0.40.</p>\n            ","response":0,"trial_type":"html-button-response","trial_index":92,"time_elapsed":933193,"internal_node_id":"0.0-4.0-1.40","subject_id":"5b116068160a2e0001acb494","study_id":"60edd13110225f80f9f3709b","session_id":"6196ba8256bb117e1dd8fbef","condition":"full-information","relevant_dimensions":["antennae","legs"],"bee_group":{"antennae":"A","wings":"X","pattern":"X","legs":"F"},"bonus":1.0800000000000012},{"rt":5749.600000023842,"stimulus":"bees-with-color/bee-A2DF.svg","response":1,"trial_type":"image-button-response","trial_index":93,"time_elapsed":938945,"internal_node_id":"0.0-4.0-0.41","subject_id":"5b116068160a2e0001acb494","study_id":"60edd13110225f80f9f3709b","session_id":"6196ba8256bb117e1dd8fbef","condition":"full-information","relevant_dimensions":["antennae","legs"],"bee_group":{"antennae":"A","wings":"X","pattern":"X","legs":"F"},"action":"avoid","summary":"good-avoid","bonus":1.0800000000000012},{"rt":1651,"stimulus":"\n                    <p><b>Action: <em>avoid</em></b></p>\n                    <p>This is the bee that you just saw.</p>\n                    <img src=\"bees-with-color/bee-A2DF.svg\" width=\"200\">\n                    <p><span class=\"greenText\">Good choice!</span>  This bee would have stung you.<br>Your bonus pay is unchanged, and remains at $0.40.</p>\n            ","response":0,"trial_type":"html-button-response","trial_index":94,"time_elapsed":940598,"internal_node_id":"0.0-4.0-1.41","subject_id":"5b116068160a2e0001acb494","study_id":"60edd13110225f80f9f3709b","session_id":"6196ba8256bb117e1dd8fbef","condition":"full-information","relevant_dimensions":["antennae","legs"],"bee_group":{"antennae":"A","wings":"X","pattern":"X","legs":"F"},"bonus":1.0800000000000012},{"rt":10280.699999988079,"stimulus":"bees-with-color/bee-B1SM.svg","response":0,"trial_type":"image-button-response","trial_index":95,"time_elapsed":950881,"internal_node_id":"0.0-4.0-0.42","subject_id":"5b116068160a2e0001acb494","study_id":"60edd13110225f80f9f3709b","session_id":"6196ba8256bb117e1dd8fbef","condition":"full-information","relevant_dimensions":["antennae","legs"],"bee_group":{"antennae":"A","wings":"X","pattern":"X","legs":"F"},"action":"harvest","summary":"good-harvest","bonus":1.0800000000000012},{"rt":1410.5,"stimulus":"\n                    <p><b>Action: <em>harvest</em></b></p>\n                    <p>This is the bee that you just saw.</p>\n                    <img src=\"bees-with-color/bee-B1SM.svg\" width=\"200\">\n                    <p><span class=\"greenText\"><b>Successful harvest!</b></span><br>Your pay has increased by $0.02. Your bonus pay is now $0.42.</p>\n            ","response":0,"trial_type":"html-button-response","trial_index":96,"time_elapsed":952293,"internal_node_id":"0.0-4.0-1.42","subject_id":"5b116068160a2e0001acb494","study_id":"60edd13110225f80f9f3709b","session_id":"6196ba8256bb117e1dd8fbef","condition":"full-information","relevant_dimensions":["antennae","legs"],"bee_group":{"antennae":"A","wings":"X","pattern":"X","legs":"F"},"bonus":1.0800000000000012},{"rt":3648.899999976158,"stimulus":"bees-with-color/bee-A1SM.svg","response":0,"trial_type":"image-button-response","trial_index":97,"time_elapsed":955945,"internal_node_id":"0.0-4.0-0.43","subject_id":"5b116068160a2e0001acb494","study_id":"60edd13110225f80f9f3709b","session_id":"6196ba8256bb117e1dd8fbef","condition":"full-information","relevant_dimensions":["antennae","legs"],"bee_group":{"antennae":"A","wings":"X","pattern":"X","legs":"F"},"action":"harvest","summary":"good-harvest","bonus":1.0800000000000012},{"rt":1470.800000011921,"stimulus":"\n                    <p><b>Action: <em>harvest</em></b></p>\n                    <p>This is the bee that you just saw.</p>\n                    <img src=\"bees-with-color/bee-A1SM.svg\" width=\"200\">\n                    <p><span class=\"greenText\"><b>Successful harvest!</b></span><br>Your pay has increased by $0.02. Your bonus pay is now $0.44.</p>\n            ","response":0,"trial_type":"html-button-response","trial_index":98,"time_elapsed":957415,"internal_node_id":"0.0-4.0-1.43","subject_id":"5b116068160a2e0001acb494","study_id":"60edd13110225f80f9f3709b","session_id":"6196ba8256bb117e1dd8fbef","condition":"full-information","relevant_dimensions":["antennae","legs"],"bee_group":{"antennae":"A","wings":"X","pattern":"X","legs":"F"},"bonus":1.0800000000000012},{"rt":7586.599999964237,"stimulus":"bees-with-color/bee-A2SM.svg","response":0,"trial_type":"image-button-response","trial_index":99,"time_elapsed":965003,"internal_node_id":"0.0-4.0-0.44","subject_id":"5b116068160a2e0001acb494","study_id":"60edd13110225f80f9f3709b","session_id":"6196ba8256bb117e1dd8fbef","condition":"full-information","relevant_dimensions":["antennae","legs"],"bee_group":{"antennae":"A","wings":"X","pattern":"X","legs":"F"},"action":"harvest","summary":"good-harvest","bonus":1.0800000000000012},{"rt":1446.6000000238419,"stimulus":"\n                    <p><b>Action: <em>harvest</em></b></p>\n                    <p>This is the bee that you just saw.</p>\n                    <img src=\"bees-with-color/bee-A2SM.svg\" width=\"200\">\n                    <p><span class=\"greenText\"><b>Successful harvest!</b></span><br>Your pay has increased by $0.02. Your bonus pay is now $0.46.</p>\n            ","response":0,"trial_type":"html-button-response","trial_index":100,"time_elapsed":966451,"internal_node_id":"0.0-4.0-1.44","subject_id":"5b116068160a2e0001acb494","study_id":"60edd13110225f80f9f3709b","session_id":"6196ba8256bb117e1dd8fbef","condition":"full-information","relevant_dimensions":["antennae","legs"],"bee_group":{"antennae":"A","wings":"X","pattern":"X","legs":"F"},"bonus":1.0800000000000012},{"rt":7837.599999964237,"stimulus":"bees-with-color/bee-A2SF.svg","response":0,"trial_type":"image-button-response","trial_index":101,"time_elapsed":974290,"internal_node_id":"0.0-4.0-0.45","subject_id":"5b116068160a2e0001acb494","study_id":"60edd13110225f80f9f3709b","session_id":"6196ba8256bb117e1dd8fbef","condition":"full-information","relevant_dimensions":["antennae","legs"],"bee_group":{"antennae":"A","wings":"X","pattern":"X","legs":"F"},"action":"harvest","summary":"bad-harvest","bonus":1.0800000000000012},{"rt":6966.699999988079,"stimulus":"\n                    <p><b>Action: <em>harvest</em></b></p>\n                    <p>This is the bee that you just saw.</p>\n                    <img src=\"bees-with-color/bee-A2SF.svg\" width=\"200\">\n                    <p><span class=\"redText\">Bad choice, the bee was angry.</span><br><b>You have been stung!</b><br>Your pay has been decreased by $0.10. Your bonus pay is now $0.36.</p>\n            ","response":0,"trial_type":"html-button-response","trial_index":102,"time_elapsed":981259,"internal_node_id":"0.0-4.0-1.45","subject_id":"5b116068160a2e0001acb494","study_id":"60edd13110225f80f9f3709b","session_id":"6196ba8256bb117e1dd8fbef","condition":"full-information","relevant_dimensions":["antennae","legs"],"bee_group":{"antennae":"A","wings":"X","pattern":"X","legs":"F"},"bonus":1.0800000000000012},{"rt":6957.699999988079,"stimulus":"bees-with-color/bee-A2DM.svg","response":1,"trial_type":"image-button-response","trial_index":103,"time_elapsed":988218,"internal_node_id":"0.0-4.0-0.46","subject_id":"5b116068160a2e0001acb494","study_id":"60edd13110225f80f9f3709b","session_id":"6196ba8256bb117e1dd8fbef","condition":"full-information","relevant_dimensions":["antennae","legs"],"bee_group":{"antennae":"A","wings":"X","pattern":"X","legs":"F"},"action":"avoid","summary":"bad-avoid","bonus":1.0800000000000012},{"rt":5726.800000011921,"stimulus":"\n                    <p><b>Action: <em>avoid</em></b></p>\n                    <p>This is the bee that you just saw.</p>\n                    <img src=\"bees-with-color/bee-A2DM.svg\" width=\"200\">\n                    <p><span class=\"redText\">Bad choice,</span> the bee was friendly.<br>Your bonus pay is unchanged, and remains at $0.36.</p>\n            ","response":0,"trial_type":"html-button-response","trial_index":104,"time_elapsed":993947,"internal_node_id":"0.0-4.0-1.46","subject_id":"5b116068160a2e0001acb494","study_id":"60edd13110225f80f9f3709b","session_id":"6196ba8256bb117e1dd8fbef","condition":"full-information","relevant_dimensions":["antennae","legs"],"bee_group":{"antennae":"A","wings":"X","pattern":"X","legs":"F"},"bonus":1.0800000000000012},{"rt":2729.400000035763,"stimulus":"bees-with-color/bee-B2DF.svg","response":0,"trial_type":"image-button-response","trial_index":105,"time_elapsed":996679,"internal_node_id":"0.0-4.0-0.47","subject_id":"5b116068160a2e0001acb494","study_id":"60edd13110225f80f9f3709b","session_id":"6196ba8256bb117e1dd8fbef","condition":"full-information","relevant_dimensions":["antennae","legs"],"bee_group":{"antennae":"A","wings":"X","pattern":"X","legs":"F"},"action":"harvest","summary":"good-harvest","bonus":1.0800000000000012},{"rt":1869.800000011921,"stimulus":"\n                    <p><b>Action: <em>harvest</em></b></p>\n                    <p>This is the bee that you just saw.</p>\n                    <img src=\"bees-with-color/bee-B2DF.svg\" width=\"200\">\n                    <p><span class=\"greenText\"><b>Successful harvest!</b></span><br>Your pay has increased by $0.02. Your bonus pay is now $0.38.</p>\n            ","response":0,"trial_type":"html-button-response","trial_index":106,"time_elapsed":998551,"internal_node_id":"0.0-4.0-1.47","subject_id":"5b116068160a2e0001acb494","study_id":"60edd13110225f80f9f3709b","session_id":"6196ba8256bb117e1dd8fbef","condition":"full-information","relevant_dimensions":["antennae","legs"],"bee_group":{"antennae":"A","wings":"X","pattern":"X","legs":"F"},"bonus":1.0800000000000012},{"rt":2754,"stimulus":"bees-with-color/bee-B2DF.svg","response":0,"trial_type":"image-button-response","trial_index":107,"time_elapsed":1001307,"internal_node_id":"0.0-4.0-0.48","subject_id":"5b116068160a2e0001acb494","study_id":"60edd13110225f80f9f3709b","session_id":"6196ba8256bb117e1dd8fbef","condition":"full-information","relevant_dimensions":["antennae","legs"],"bee_group":{"antennae":"A","wings":"X","pattern":"X","legs":"F"},"action":"harvest","summary":"good-harvest","bonus":1.0800000000000012},{"rt":2682.600000023842,"stimulus":"\n                    <p><b>Action: <em>harvest</em></b></p>\n                    <p>This is the bee that you just saw.</p>\n                    <img src=\"bees-with-color/bee-B2DF.svg\" width=\"200\">\n                    <p><span class=\"greenText\"><b>Successful harvest!</b></span><br>Your pay has increased by $0.02. Your bonus pay is now $0.40.</p>\n            ","response":0,"trial_type":"html-button-response","trial_index":108,"time_elapsed":1003991,"internal_node_id":"0.0-4.0-1.48","subject_id":"5b116068160a2e0001acb494","study_id":"60edd13110225f80f9f3709b","session_id":"6196ba8256bb117e1dd8fbef","condition":"full-information","relevant_dimensions":["antennae","legs"],"bee_group":{"antennae":"A","wings":"X","pattern":"X","legs":"F"},"bonus":1.0800000000000012},{"rt":7254.200000047684,"stimulus":"bees-with-color/bee-A1SM.svg","response":0,"trial_type":"image-button-response","trial_index":109,"time_elapsed":1011247,"internal_node_id":"0.0-4.0-0.49","subject_id":"5b116068160a2e0001acb494","study_id":"60edd13110225f80f9f3709b","session_id":"6196ba8256bb117e1dd8fbef","condition":"full-information","relevant_dimensions":["antennae","legs"],"bee_group":{"antennae":"A","wings":"X","pattern":"X","legs":"F"},"action":"harvest","summary":"good-harvest","bonus":1.0800000000000012},{"rt":1770.300000011921,"stimulus":"\n                    <p><b>Action: <em>harvest</em></b></p>\n                    <p>This is the bee that you just saw.</p>\n                    <img src=\"bees-with-color/bee-A1SM.svg\" width=\"200\">\n                    <p><span class=\"greenText\"><b>Successful harvest!</b></span><br>Your pay has increased by $0.02. Your bonus pay is now $0.42.</p>\n            ","response":0,"trial_type":"html-button-response","trial_index":110,"time_elapsed":1013019,"internal_node_id":"0.0-4.0-1.49","subject_id":"5b116068160a2e0001acb494","study_id":"60edd13110225f80f9f3709b","session_id":"6196ba8256bb117e1dd8fbef","condition":"full-information","relevant_dimensions":["antennae","legs"],"bee_group":{"antennae":"A","wings":"X","pattern":"X","legs":"F"},"bonus":1.0800000000000012},{"rt":3966.300000011921,"stimulus":"bees-with-color/bee-A1SF.svg","response":1,"trial_type":"image-button-response","trial_index":111,"time_elapsed":1016987,"internal_node_id":"0.0-4.0-0.50","subject_id":"5b116068160a2e0001acb494","study_id":"60edd13110225f80f9f3709b","session_id":"6196ba8256bb117e1dd8fbef","condition":"full-information","relevant_dimensions":["antennae","legs"],"bee_group":{"antennae":"A","wings":"X","pattern":"X","legs":"F"},"action":"avoid","summary":"good-avoid","bonus":1.0800000000000012},{"rt":2738,"stimulus":"\n                    <p><b>Action: <em>avoid</em></b></p>\n                    <p>This is the bee that you just saw.</p>\n                    <img src=\"bees-with-color/bee-A1SF.svg\" width=\"200\">\n                    <p><span class=\"greenText\">Good choice!</span>  This bee would have stung you.<br>Your bonus pay is unchanged, and remains at $0.42.</p>\n            ","response":0,"trial_type":"html-button-response","trial_index":112,"time_elapsed":1019739,"internal_node_id":"0.0-4.0-1.50","subject_id":"5b116068160a2e0001acb494","study_id":"60edd13110225f80f9f3709b","session_id":"6196ba8256bb117e1dd8fbef","condition":"full-information","relevant_dimensions":["antennae","legs"],"bee_group":{"antennae":"A","wings":"X","pattern":"X","legs":"F"},"bonus":1.0800000000000012},{"rt":6966.199999988079,"stimulus":"bees-with-color/bee-B1SM.svg","response":0,"trial_type":"image-button-response","trial_index":113,"time_elapsed":1026708,"internal_node_id":"0.0-4.0-0.51","subject_id":"5b116068160a2e0001acb494","study_id":"60edd13110225f80f9f3709b","session_id":"6196ba8256bb117e1dd8fbef","condition":"full-information","relevant_dimensions":["antennae","legs"],"bee_group":{"antennae":"A","wings":"X","pattern":"X","legs":"F"},"action":"harvest","summary":"good-harvest","bonus":1.0800000000000012},{"rt":1814.0999999642372,"stimulus":"\n                    <p><b>Action: <em>harvest</em></b></p>\n                    <p>This is the bee that you just saw.</p>\n                    <img src=\"bees-with-color/bee-B1SM.svg\" width=\"200\">\n                    <p><span class=\"greenText\"><b>Successful harvest!</b></span><br>Your pay has increased by $0.02. Your bonus pay is now $0.44.</p>\n            ","response":0,"trial_type":"html-button-response","trial_index":114,"time_elapsed":1028524,"internal_node_id":"0.0-4.0-1.51","subject_id":"5b116068160a2e0001acb494","study_id":"60edd13110225f80f9f3709b","session_id":"6196ba8256bb117e1dd8fbef","condition":"full-information","relevant_dimensions":["antennae","legs"],"bee_group":{"antennae":"A","wings":"X","pattern":"X","legs":"F"},"bonus":1.0800000000000012},{"rt":4069.699999988079,"stimulus":"bees-with-color/bee-B2DM.svg","response":0,"trial_type":"image-button-response","trial_index":115,"time_elapsed":1032595,"internal_node_id":"0.0-4.0-0.52","subject_id":"5b116068160a2e0001acb494","study_id":"60edd13110225f80f9f3709b","session_id":"6196ba8256bb117e1dd8fbef","condition":"full-information","relevant_dimensions":["antennae","legs"],"bee_group":{"antennae":"A","wings":"X","pattern":"X","legs":"F"},"action":"harvest","summary":"good-harvest","bonus":1.0800000000000012},{"rt":1610,"stimulus":"\n                    <p><b>Action: <em>harvest</em></b></p>\n                    <p>This is the bee that you just saw.</p>\n                    <img src=\"bees-with-color/bee-B2DM.svg\" width=\"200\">\n                    <p><span class=\"greenText\"><b>Successful harvest!</b></span><br>Your pay has increased by $0.02. Your bonus pay is now $0.46.</p>\n            ","response":0,"trial_type":"html-button-response","trial_index":116,"time_elapsed":1034207,"internal_node_id":"0.0-4.0-1.52","subject_id":"5b116068160a2e0001acb494","study_id":"60edd13110225f80f9f3709b","session_id":"6196ba8256bb117e1dd8fbef","condition":"full-information","relevant_dimensions":["antennae","legs"],"bee_group":{"antennae":"A","wings":"X","pattern":"X","legs":"F"},"bonus":1.0800000000000012},{"rt":2986.2999999523163,"stimulus":"bees-with-color/bee-A2DF.svg","response":1,"trial_type":"image-button-response","trial_index":117,"time_elapsed":1037195,"internal_node_id":"0.0-4.0-0.53","subject_id":"5b116068160a2e0001acb494","study_id":"60edd13110225f80f9f3709b","session_id":"6196ba8256bb117e1dd8fbef","condition":"full-information","relevant_dimensions":["antennae","legs"],"bee_group":{"antennae":"A","wings":"X","pattern":"X","legs":"F"},"action":"avoid","summary":"good-avoid","bonus":1.0800000000000012},{"rt":2593.600000023842,"stimulus":"\n                    <p><b>Action: <em>avoid</em></b></p>\n                    <p>This is the bee that you just saw.</p>\n                    <img src=\"bees-with-color/bee-A2DF.svg\" width=\"200\">\n                    <p><span class=\"greenText\">Good choice!</span>  This bee would have stung you.<br>Your bonus pay is unchanged, and remains at $0.46.</p>\n            ","response":0,"trial_type":"html-button-response","trial_index":118,"time_elapsed":1039791,"internal_node_id":"0.0-4.0-1.53","subject_id":"5b116068160a2e0001acb494","study_id":"60edd13110225f80f9f3709b","session_id":"6196ba8256bb117e1dd8fbef","condition":"full-information","relevant_dimensions":["antennae","legs"],"bee_group":{"antennae":"A","wings":"X","pattern":"X","legs":"F"},"bonus":1.0800000000000012},{"rt":8614.100000023842,"stimulus":"bees-with-color/bee-A2SM.svg","response":0,"trial_type":"image-button-response","trial_index":119,"time_elapsed":1048407,"internal_node_id":"0.0-4.0-0.54","subject_id":"5b116068160a2e0001acb494","study_id":"60edd13110225f80f9f3709b","session_id":"6196ba8256bb117e1dd8fbef","condition":"full-information","relevant_dimensions":["antennae","legs"],"bee_group":{"antennae":"A","wings":"X","pattern":"X","legs":"F"},"action":"harvest","summary":"good-harvest","bonus":1.0800000000000012},{"rt":1706.699999988079,"stimulus":"\n                    <p><b>Action: <em>harvest</em></b></p>\n                    <p>This is the bee that you just saw.</p>\n                    <img src=\"bees-with-color/bee-A2SM.svg\" width=\"200\">\n                    <p><span class=\"greenText\"><b>Successful harvest!</b></span><br>Your pay has increased by $0.02. Your bonus pay is now $0.48.</p>\n            ","response":0,"trial_type":"html-button-response","trial_index":120,"time_elapsed":1050115,"internal_node_id":"0.0-4.0-1.54","subject_id":"5b116068160a2e0001acb494","study_id":"60edd13110225f80f9f3709b","session_id":"6196ba8256bb117e1dd8fbef","condition":"full-information","relevant_dimensions":["antennae","legs"],"bee_group":{"antennae":"A","wings":"X","pattern":"X","legs":"F"},"bonus":1.0800000000000012},{"rt":4990.300000011921,"stimulus":"bees-with-color/bee-B2SF.svg","response":0,"trial_type":"image-button-response","trial_index":121,"time_elapsed":1055107,"internal_node_id":"0.0-4.0-0.55","subject_id":"5b116068160a2e0001acb494","study_id":"60edd13110225f80f9f3709b","session_id":"6196ba8256bb117e1dd8fbef","condition":"full-information","relevant_dimensions":["antennae","legs"],"bee_group":{"antennae":"A","wings":"X","pattern":"X","legs":"F"},"action":"harvest","summary":"good-harvest","bonus":1.0800000000000012},{"rt":2670.699999988079,"stimulus":"\n                    <p><b>Action: <em>harvest</em></b></p>\n                    <p>This is the bee that you just saw.</p>\n                    <img src=\"bees-with-color/bee-B2SF.svg\" width=\"200\">\n                    <p><span class=\"greenText\"><b>Successful harvest!</b></span><br>Your pay has increased by $0.02. Your bonus pay is now $0.50.</p>\n            ","response":0,"trial_type":"html-button-response","trial_index":122,"time_elapsed":1057779,"internal_node_id":"0.0-4.0-1.55","subject_id":"5b116068160a2e0001acb494","study_id":"60edd13110225f80f9f3709b","session_id":"6196ba8256bb117e1dd8fbef","condition":"full-information","relevant_dimensions":["antennae","legs"],"bee_group":{"antennae":"A","wings":"X","pattern":"X","legs":"F"},"bonus":1.0800000000000012},{"rt":9030.300000011921,"stimulus":"bees-with-color/bee-B2SM.svg","response":0,"trial_type":"image-button-response","trial_index":123,"time_elapsed":1066811,"internal_node_id":"0.0-4.0-0.56","subject_id":"5b116068160a2e0001acb494","study_id":"60edd13110225f80f9f3709b","session_id":"6196ba8256bb117e1dd8fbef","condition":"full-information","relevant_dimensions":["antennae","legs"],"bee_group":{"antennae":"A","wings":"X","pattern":"X","legs":"F"},"action":"harvest","summary":"good-harvest","bonus":1.0800000000000012},{"rt":1862.300000011921,"stimulus":"\n                    <p><b>Action: <em>harvest</em></b></p>\n                    <p>This is the bee that you just saw.</p>\n                    <img src=\"bees-with-color/bee-B2SM.svg\" width=\"200\">\n                    <p><span class=\"greenText\"><b>Successful harvest!</b></span><br>Your pay has increased by $0.02. Your bonus pay is now $0.52.</p>\n            ","response":0,"trial_type":"html-button-response","trial_index":124,"time_elapsed":1068675,"internal_node_id":"0.0-4.0-1.56","subject_id":"5b116068160a2e0001acb494","study_id":"60edd13110225f80f9f3709b","session_id":"6196ba8256bb117e1dd8fbef","condition":"full-information","relevant_dimensions":["antennae","legs"],"bee_group":{"antennae":"A","wings":"X","pattern":"X","legs":"F"},"bonus":1.0800000000000012},{"rt":4346.100000023842,"stimulus":"bees-with-color/bee-B1DF.svg","response":0,"trial_type":"image-button-response","trial_index":125,"time_elapsed":1073023,"internal_node_id":"0.0-4.0-0.57","subject_id":"5b116068160a2e0001acb494","study_id":"60edd13110225f80f9f3709b","session_id":"6196ba8256bb117e1dd8fbef","condition":"full-information","relevant_dimensions":["antennae","legs"],"bee_group":{"antennae":"A","wings":"X","pattern":"X","legs":"F"},"action":"harvest","summary":"good-harvest","bonus":1.0800000000000012},{"rt":1694.2000000476837,"stimulus":"\n                    <p><b>Action: <em>harvest</em></b></p>\n                    <p>This is the bee that you just saw.</p>\n                    <img src=\"bees-with-color/bee-B1DF.svg\" width=\"200\">\n                    <p><span class=\"greenText\"><b>Successful harvest!</b></span><br>Your pay has increased by $0.02. Your bonus pay is now $0.54.</p>\n            ","response":0,"trial_type":"html-button-response","trial_index":126,"time_elapsed":1074719,"internal_node_id":"0.0-4.0-1.57","subject_id":"5b116068160a2e0001acb494","study_id":"60edd13110225f80f9f3709b","session_id":"6196ba8256bb117e1dd8fbef","condition":"full-information","relevant_dimensions":["antennae","legs"],"bee_group":{"antennae":"A","wings":"X","pattern":"X","legs":"F"},"bonus":1.0800000000000012},{"rt":7814.199999988079,"stimulus":"bees-with-color/bee-A2DM.svg","response":0,"trial_type":"image-button-response","trial_index":127,"time_elapsed":1082522,"internal_node_id":"0.0-4.0-0.58","subject_id":"5b116068160a2e0001acb494","study_id":"60edd13110225f80f9f3709b","session_id":"6196ba8256bb117e1dd8fbef","condition":"full-information","relevant_dimensions":["antennae","legs"],"bee_group":{"antennae":"A","wings":"X","pattern":"X","legs":"F"},"action":"harvest","summary":"good-harvest","bonus":1.0800000000000012},{"rt":1938.1000000238419,"stimulus":"\n                    <p><b>Action: <em>harvest</em></b></p>\n                    <p>This is the bee that you just saw.</p>\n                    <img src=\"bees-with-color/bee-A2DM.svg\" width=\"200\">\n                    <p><span class=\"greenText\"><b>Successful harvest!</b></span><br>Your pay has increased by $0.02. Your bonus pay is now $0.56.</p>\n            ","response":0,"trial_type":"html-button-response","trial_index":128,"time_elapsed":1084462,"internal_node_id":"0.0-4.0-1.58","subject_id":"5b116068160a2e0001acb494","study_id":"60edd13110225f80f9f3709b","session_id":"6196ba8256bb117e1dd8fbef","condition":"full-information","relevant_dimensions":["antennae","legs"],"bee_group":{"antennae":"A","wings":"X","pattern":"X","legs":"F"},"bonus":1.0800000000000012},{"rt":5953.399999976158,"stimulus":"bees-with-color/bee-A2SF.svg","response":1,"trial_type":"image-button-response","trial_index":129,"time_elapsed":1090418,"internal_node_id":"0.0-4.0-0.59","subject_id":"5b116068160a2e0001acb494","study_id":"60edd13110225f80f9f3709b","session_id":"6196ba8256bb117e1dd8fbef","condition":"full-information","relevant_dimensions":["antennae","legs"],"bee_group":{"antennae":"A","wings":"X","pattern":"X","legs":"F"},"action":"avoid","summary":"good-avoid","bonus":1.0800000000000012},{"rt":1829.8999999761581,"stimulus":"\n                    <p><b>Action: <em>avoid</em></b></p>\n                    <p>This is the bee that you just saw.</p>\n                    <img src=\"bees-with-color/bee-A2SF.svg\" width=\"200\">\n                    <p><span class=\"greenText\">Good choice!</span>  This bee would have stung you.<br>Your bonus pay is unchanged, and remains at $0.56.</p>\n            ","response":0,"trial_type":"html-button-response","trial_index":130,"time_elapsed":1092249,"internal_node_id":"0.0-4.0-1.59","subject_id":"5b116068160a2e0001acb494","study_id":"60edd13110225f80f9f3709b","session_id":"6196ba8256bb117e1dd8fbef","condition":"full-information","relevant_dimensions":["antennae","legs"],"bee_group":{"antennae":"A","wings":"X","pattern":"X","legs":"F"},"bonus":1.0800000000000012},{"rt":8914.099999964237,"stimulus":"bees-with-color/bee-A1DF.svg","response":1,"trial_type":"image-button-response","trial_index":131,"time_elapsed":1101165,"internal_node_id":"0.0-4.0-0.60","subject_id":"5b116068160a2e0001acb494","study_id":"60edd13110225f80f9f3709b","session_id":"6196ba8256bb117e1dd8fbef","condition":"full-information","relevant_dimensions":["antennae","legs"],"bee_group":{"antennae":"A","wings":"X","pattern":"X","legs":"F"},"action":"avoid","summary":"good-avoid","bonus":1.0800000000000012},{"rt":1659,"stimulus":"\n                    <p><b>Action: <em>avoid</em></b></p>\n                    <p>This is the bee that you just saw.</p>\n                    <img src=\"bees-with-color/bee-A1DF.svg\" width=\"200\">\n                    <p><span class=\"greenText\">Good choice!</span>  This bee would have stung you.<br>Your bonus pay is unchanged, and remains at $0.56.</p>\n            ","response":0,"trial_type":"html-button-response","trial_index":132,"time_elapsed":1102826,"internal_node_id":"0.0-4.0-1.60","subject_id":"5b116068160a2e0001acb494","study_id":"60edd13110225f80f9f3709b","session_id":"6196ba8256bb117e1dd8fbef","condition":"full-information","relevant_dimensions":["antennae","legs"],"bee_group":{"antennae":"A","wings":"X","pattern":"X","legs":"F"},"bonus":1.0800000000000012},{"rt":6762.300000011921,"stimulus":"bees-with-color/bee-B1DM.svg","response":1,"trial_type":"image-button-response","trial_index":133,"time_elapsed":1109590,"internal_node_id":"0.0-4.0-0.61","subject_id":"5b116068160a2e0001acb494","study_id":"60edd13110225f80f9f3709b","session_id":"6196ba8256bb117e1dd8fbef","condition":"full-information","relevant_dimensions":["antennae","legs"],"bee_group":{"antennae":"A","wings":"X","pattern":"X","legs":"F"},"action":"avoid","summary":"bad-avoid","bonus":1.0800000000000012},{"rt":5013.899999976158,"stimulus":"\n                    <p><b>Action: <em>avoid</em></b></p>\n                    <p>This is the bee that you just saw.</p>\n                    <img src=\"bees-with-color/bee-B1DM.svg\" width=\"200\">\n                    <p><span class=\"redText\">Bad choice,</span> the bee was friendly.<br>Your bonus pay is unchanged, and remains at $0.56.</p>\n            ","response":0,"trial_type":"html-button-response","trial_index":134,"time_elapsed":1114605,"internal_node_id":"0.0-4.0-1.61","subject_id":"5b116068160a2e0001acb494","study_id":"60edd13110225f80f9f3709b","session_id":"6196ba8256bb117e1dd8fbef","condition":"full-information","relevant_dimensions":["antennae","legs"],"bee_group":{"antennae":"A","wings":"X","pattern":"X","legs":"F"},"bonus":1.0800000000000012},{"rt":7758.600000023842,"stimulus":"bees-with-color/bee-A1DM.svg","response":0,"trial_type":"image-button-response","trial_index":135,"time_elapsed":1122366,"internal_node_id":"0.0-4.0-0.62","subject_id":"5b116068160a2e0001acb494","study_id":"60edd13110225f80f9f3709b","session_id":"6196ba8256bb117e1dd8fbef","condition":"full-information","relevant_dimensions":["antennae","legs"],"bee_group":{"antennae":"A","wings":"X","pattern":"X","legs":"F"},"action":"harvest","summary":"good-harvest","bonus":1.0800000000000012},{"rt":2122,"stimulus":"\n                    <p><b>Action: <em>harvest</em></b></p>\n                    <p>This is the bee that you just saw.</p>\n                    <img src=\"bees-with-color/bee-A1DM.svg\" width=\"200\">\n                    <p><span class=\"greenText\"><b>Successful harvest!</b></span><br>Your pay has increased by $0.02. Your bonus pay is now $0.58.</p>\n            ","response":0,"trial_type":"html-button-response","trial_index":136,"time_elapsed":1124490,"internal_node_id":"0.0-4.0-1.62","subject_id":"5b116068160a2e0001acb494","study_id":"60edd13110225f80f9f3709b","session_id":"6196ba8256bb117e1dd8fbef","condition":"full-information","relevant_dimensions":["antennae","legs"],"bee_group":{"antennae":"A","wings":"X","pattern":"X","legs":"F"},"bonus":1.0800000000000012},{"rt":3382.2000000476837,"stimulus":"bees-with-color/bee-B1SF.svg","response":0,"trial_type":"image-button-response","trial_index":137,"time_elapsed":1127874,"internal_node_id":"0.0-4.0-0.63","subject_id":"5b116068160a2e0001acb494","study_id":"60edd13110225f80f9f3709b","session_id":"6196ba8256bb117e1dd8fbef","condition":"full-information","relevant_dimensions":["antennae","legs"],"bee_group":{"antennae":"A","wings":"X","pattern":"X","legs":"F"},"action":"harvest","summary":"good-harvest","bonus":1.0800000000000012},{"rt":7361.599999964237,"stimulus":"\n                    <p><b>Action: <em>harvest</em></b></p>\n                    <p>This is the bee that you just saw.</p>\n                    <img src=\"bees-with-color/bee-B1SF.svg\" width=\"200\">\n                    <p><span class=\"greenText\"><b>Successful harvest!</b></span><br>Your pay has increased by $0.02. Your bonus pay is now $0.60.</p>\n            ","response":0,"trial_type":"html-button-response","trial_index":138,"time_elapsed":1135238,"internal_node_id":"0.0-4.0-1.63","subject_id":"5b116068160a2e0001acb494","study_id":"60edd13110225f80f9f3709b","session_id":"6196ba8256bb117e1dd8fbef","condition":"full-information","relevant_dimensions":["antennae","legs"],"bee_group":{"antennae":"A","wings":"X","pattern":"X","legs":"F"},"bonus":1.0800000000000012},{"rt":8640,"stimulus":"You have completed the first part of this experiment.<br><br>You will now begin a shorter second part, in which you will receive no feedback.<br>The same rules regarding bonus pay apply.<br><br>Press any key to begin.","response":" ","trial_type":"html-keyboard-response","trial_index":139,"time_elapsed":1143890,"internal_node_id":"0.0-5.0","subject_id":"5b116068160a2e0001acb494","study_id":"60edd13110225f80f9f3709b","session_id":"6196ba8256bb117e1dd8fbef","condition":"full-information","relevant_dimensions":["antennae","legs"],"bee_group":{"antennae":"A","wings":"X","pattern":"X","legs":"F"},"bonus":1.0800000000000012},{"rt":8257.300000011921,"stimulus":"bees-with-color/bee-A2DF.svg","response":1,"trial_type":"image-button-response","trial_index":140,"time_elapsed":1152159,"internal_node_id":"0.0-6.0-0.0","subject_id":"5b116068160a2e0001acb494","study_id":"60edd13110225f80f9f3709b","session_id":"6196ba8256bb117e1dd8fbef","condition":"full-information","relevant_dimensions":["antennae","legs"],"bee_group":{"antennae":"A","wings":"X","pattern":"X","legs":"F"},"bonus":1.0800000000000012},{"rt":3352.699999988079,"stimulus":"bees-with-color/bee-B2SF.svg","response":0,"trial_type":"image-button-response","trial_index":141,"time_elapsed":1155515,"internal_node_id":"0.0-6.0-0.1","subject_id":"5b116068160a2e0001acb494","study_id":"60edd13110225f80f9f3709b","session_id":"6196ba8256bb117e1dd8fbef","condition":"full-information","relevant_dimensions":["antennae","legs"],"bee_group":{"antennae":"A","wings":"X","pattern":"X","legs":"F"},"bonus":1.0800000000000012},{"rt":5249.800000011921,"stimulus":"bees-with-color/bee-B2DM.svg","response":0,"trial_type":"image-button-response","trial_index":142,"time_elapsed":1160767,"internal_node_id":"0.0-6.0-0.2","subject_id":"5b116068160a2e0001acb494","study_id":"60edd13110225f80f9f3709b","session_id":"6196ba8256bb117e1dd8fbef","condition":"full-information","relevant_dimensions":["antennae","legs"],"bee_group":{"antennae":"A","wings":"X","pattern":"X","legs":"F"},"bonus":1.0800000000000012},{"rt":4325,"stimulus":"bees-with-color/bee-B1DF.svg","response":0,"trial_type":"image-button-response","trial_index":143,"time_elapsed":1165095,"internal_node_id":"0.0-6.0-0.3","subject_id":"5b116068160a2e0001acb494","study_id":"60edd13110225f80f9f3709b","session_id":"6196ba8256bb117e1dd8fbef","condition":"full-information","relevant_dimensions":["antennae","legs"],"bee_group":{"antennae":"A","wings":"X","pattern":"X","legs":"F"},"bonus":1.0800000000000012},{"rt":7181.800000011921,"stimulus":"bees-with-color/bee-B1DM.svg","response":0,"trial_type":"image-button-response","trial_index":144,"time_elapsed":1172279,"internal_node_id":"0.0-6.0-0.4","subject_id":"5b116068160a2e0001acb494","study_id":"60edd13110225f80f9f3709b","session_id":"6196ba8256bb117e1dd8fbef","condition":"full-information","relevant_dimensions":["antennae","legs"],"bee_group":{"antennae":"A","wings":"X","pattern":"X","legs":"F"},"bonus":1.0800000000000012},{"rt":4581,"stimulus":"bees-with-color/bee-A2SM.svg","response":0,"trial_type":"image-button-response","trial_index":145,"time_elapsed":1176863,"internal_node_id":"0.0-6.0-0.5","subject_id":"5b116068160a2e0001acb494","study_id":"60edd13110225f80f9f3709b","session_id":"6196ba8256bb117e1dd8fbef","condition":"full-information","relevant_dimensions":["antennae","legs"],"bee_group":{"antennae":"A","wings":"X","pattern":"X","legs":"F"},"bonus":1.0800000000000012},{"rt":9805.899999976158,"stimulus":"bees-with-color/bee-A1DF.svg","response":1,"trial_type":"image-button-response","trial_index":146,"time_elapsed":1186672,"internal_node_id":"0.0-6.0-0.6","subject_id":"5b116068160a2e0001acb494","study_id":"60edd13110225f80f9f3709b","session_id":"6196ba8256bb117e1dd8fbef","condition":"full-information","relevant_dimensions":["antennae","legs"],"bee_group":{"antennae":"A","wings":"X","pattern":"X","legs":"F"},"bonus":1.0800000000000012},{"rt":1976.199999988079,"stimulus":"bees-with-color/bee-A1DM.svg","response":0,"trial_type":"image-button-response","trial_index":147,"time_elapsed":1188652,"internal_node_id":"0.0-6.0-0.7","subject_id":"5b116068160a2e0001acb494","study_id":"60edd13110225f80f9f3709b","session_id":"6196ba8256bb117e1dd8fbef","condition":"full-information","relevant_dimensions":["antennae","legs"],"bee_group":{"antennae":"A","wings":"X","pattern":"X","legs":"F"},"bonus":1.0800000000000012},{"rt":8036.800000011921,"stimulus":"bees-with-color/bee-A1SF.svg","response":1,"trial_type":"image-button-response","trial_index":148,"time_elapsed":1196691,"internal_node_id":"0.0-6.0-0.8","subject_id":"5b116068160a2e0001acb494","study_id":"60edd13110225f80f9f3709b","session_id":"6196ba8256bb117e1dd8fbef","condition":"full-information","relevant_dimensions":["antennae","legs"],"bee_group":{"antennae":"A","wings":"X","pattern":"X","legs":"F"},"bonus":1.0800000000000012},{"rt":2345.300000011921,"stimulus":"bees-with-color/bee-B1SF.svg","response":0,"trial_type":"image-button-response","trial_index":149,"time_elapsed":1199033,"internal_node_id":"0.0-6.0-0.9","subject_id":"5b116068160a2e0001acb494","study_id":"60edd13110225f80f9f3709b","session_id":"6196ba8256bb117e1dd8fbef","condition":"full-information","relevant_dimensions":["antennae","legs"],"bee_group":{"antennae":"A","wings":"X","pattern":"X","legs":"F"},"bonus":1.0800000000000012},{"rt":6781.899999976158,"stimulus":"bees-with-color/bee-B2DF.svg","response":0,"trial_type":"image-button-response","trial_index":150,"time_elapsed":1205817,"internal_node_id":"0.0-6.0-0.10","subject_id":"5b116068160a2e0001acb494","study_id":"60edd13110225f80f9f3709b","session_id":"6196ba8256bb117e1dd8fbef","condition":"full-information","relevant_dimensions":["antennae","legs"],"bee_group":{"antennae":"A","wings":"X","pattern":"X","legs":"F"},"bonus":1.0800000000000012},{"rt":8229.399999976158,"stimulus":"bees-with-color/bee-A2SF.svg","response":1,"trial_type":"image-button-response","trial_index":151,"time_elapsed":1214049,"internal_node_id":"0.0-6.0-0.11","subject_id":"5b116068160a2e0001acb494","study_id":"60edd13110225f80f9f3709b","session_id":"6196ba8256bb117e1dd8fbef","condition":"full-information","relevant_dimensions":["antennae","legs"],"bee_group":{"antennae":"A","wings":"X","pattern":"X","legs":"F"},"bonus":1.0800000000000012},{"rt":2153.100000023842,"stimulus":"bees-with-color/bee-B2SM.svg","response":0,"trial_type":"image-button-response","trial_index":152,"time_elapsed":1216205,"internal_node_id":"0.0-6.0-0.12","subject_id":"5b116068160a2e0001acb494","study_id":"60edd13110225f80f9f3709b","session_id":"6196ba8256bb117e1dd8fbef","condition":"full-information","relevant_dimensions":["antennae","legs"],"bee_group":{"antennae":"A","wings":"X","pattern":"X","legs":"F"},"bonus":1.0800000000000012},{"rt":9209.300000011921,"stimulus":"bees-with-color/bee-A1SM.svg","response":0,"trial_type":"image-button-response","trial_index":153,"time_elapsed":1225417,"internal_node_id":"0.0-6.0-0.13","subject_id":"5b116068160a2e0001acb494","study_id":"60edd13110225f80f9f3709b","session_id":"6196ba8256bb117e1dd8fbef","condition":"full-information","relevant_dimensions":["antennae","legs"],"bee_group":{"antennae":"A","wings":"X","pattern":"X","legs":"F"},"bonus":1.0800000000000012},{"rt":1504.699999988079,"stimulus":"bees-with-color/bee-B1SM.svg","response":0,"trial_type":"image-button-response","trial_index":154,"time_elapsed":1226925,"internal_node_id":"0.0-6.0-0.14","subject_id":"5b116068160a2e0001acb494","study_id":"60edd13110225f80f9f3709b","session_id":"6196ba8256bb117e1dd8fbef","condition":"full-information","relevant_dimensions":["antennae","legs"],"bee_group":{"antennae":"A","wings":"X","pattern":"X","legs":"F"},"bonus":1.0800000000000012},{"rt":6297.800000011921,"stimulus":"bees-with-color/bee-A2DM.svg","response":0,"tr