[{"success":true,"trial_type":"fullscreen","trial_index":0,"time_elapsed":2763691,"internal_node_id":"0.0-0.0","subject_id":"5f25d8172b91b02b72277187","study_id":"60edd13110225f80f9f3709b","session_id":"6196c1f1c511dada402cdc81","condition":"full-information","relevant_dimensions":["antennae","wings"],"bee_group":{"antennae":"A","wings":"2","pattern":"X","legs":"X"},"bonus":1.0400000000000011},{"success":true,"timeout":false,"failed_images":[],"failed_audio":[],"failed_video":[],"trial_type":"preload","trial_index":1,"time_elapsed":2765758,"internal_node_id":"0.0-1.0","subject_id":"5f25d8172b91b02b72277187","study_id":"60edd13110225f80f9f3709b","session_id":"6196c1f1c511dada402cdc81","condition":"full-information","relevant_dimensions":["antennae","wings"],"bee_group":{"antennae":"A","wings":"2","pattern":"X","legs":"X"},"bonus":1.0400000000000011},{"rt":1836.7999999970198,"stimulus":"Welcome! Press any key to begin.","response":"enter","trial_type":"html-keyboard-response","trial_index":2,"time_elapsed":2767595,"internal_node_id":"0.0-2.0","subject_id":"5f25d8172b91b02b72277187","study_id":"60edd13110225f80f9f3709b","session_id":"6196c1f1c511dada402cdc81","condition":"full-information","relevant_dimensions":["antennae","wings"],"bee_group":{"antennae":"A","wings":"2","pattern":"X","legs":"X"},"bonus":1.0400000000000011},{"view_history":[{"page_index":0,"viewing_time":5576.300000000745},{"page_index":1,"viewing_time":16021},{"page_index":2,"viewing_time":14940.89999999851},{"page_index":3,"viewing_time":17809.10000000149},{"page_index":4,"viewing_time":12627.89999999851},{"page_index":5,"viewing_time":8560.10000000149},{"page_index":6,"viewing_time":12178},{"page_index":7,"viewing_time":4739},{"page_index":8,"viewing_time":5659},{"page_index":9,"viewing_time":4373.099999997765},{"page_index":10,"viewing_time":2972},{"page_index":11,"viewing_time":9407.900000002235},{"page_index":12,"viewing_time":12931.89999999851},{"page_index":13,"viewing_time":1203.199999999255},{"page_index":14,"viewing_time":3315}],"rt":132314.6000000015,"trial_type":"instructions","trial_index":3,"time_elapsed":2899911,"internal_node_id":"0.0-3.0-0.0","subject_id":"5f25d8172b91b02b72277187","study_id":"60edd13110225f80f9f3709b","session_id":"6196c1f1c511dada402cdc81","condition":"full-information","relevant_dimensions":["antennae","wings"],"bee_group":{"antennae":"A","wings":"2","pattern":"X","legs":"X"},"bonus":1.0400000000000011},{"rt":9838.699999999255,"response":{"Q0":["Two or six legs","Stripes or spots on body","Single or double wings","Antennae or no antennae"]},"question_order":[0],"trial_type":"survey-multi-select","trial_index":4,"time_elapsed":2909753,"internal_node_id":"0.0-3.0-1.0","subject_id":"5f25d8172b91b02b72277187","study_id":"60edd13110225f80f9f3709b","session_id":"6196c1f1c511dada402cdc81","condition":"full-information","relevant_dimensions":["antennae","wings"],"bee_group":{"antennae":"A","wings":"2","pattern":"X","legs":"X"},"correct":true,"bonus":1.0400000000000011},{"rt":27657.60000000149,"response":{"Q1":"No.","Q2":"Based on the four features of the bee.","Q3":"You learn if it was friendly or dangerous, but do not alter your bonus."},"question_order":[0,1,2],"trial_type":"survey-multi-choice","trial_index":5,"time_elapsed":2937418,"internal_node_id":"0.0-3.0-2.0","subject_id":"5f25d8172b91b02b72277187","study_id":"60edd13110225f80f9f3709b","session_id":"6196c1f1c511dada402cdc81","condition":"full-information","relevant_dimensions":["antennae","wings"],"bee_group":{"antennae":"A","wings":"2","pattern":"X","legs":"X"},"correct":true,"bonus":1.0400000000000011},{"rt":3481,"stimulus":"<p>Congrats, you got everything right<br>When you're ready, click the button below to continue to the experiment.</p>","response":0,"trial_type":"html-button-response","trial_index":6,"time_elapsed":2940906,"internal_node_id":"0.0-3.0-3.0","subject_id":"5f25d8172b91b02b72277187","study_id":"60edd13110225f80f9f3709b","session_id":"6196c1f1c511dada402cdc81","condition":"full-information","relevant_dimensions":["antennae","wings"],"bee_group":{"antennae":"A","wings":"2","pattern":"X","legs":"X"},"bonus":1.0400000000000011},{"rt":4214.800000000745,"stimulus":"bees-with-color/bee-B1SM.svg","response":0,"trial_type":"image-button-response","trial_index":7,"time_elapsed":2945123,"internal_node_id":"0.0-4.0-0.0","subject_id":"5f25d8172b91b02b72277187","study_id":"60edd13110225f80f9f3709b","session_id":"6196c1f1c511dada402cdc81","condition":"full-information","relevant_dimensions":["antennae","wings"],"bee_group":{"antennae":"A","wings":"2","pattern":"X","legs":"X"},"action":"harvest","summary":"good-harvest","bonus":1.0400000000000011},{"rt":1754.699999999255,"stimulus":"\n                    <p><b>Action: <em>harvest</em></b></p>\n                    <p>This is the bee that you just saw.</p>\n                    <img src=\"bees-with-color/bee-B1SM.svg\" width=\"200\">\n                    <p><span class=\"greenText\"><b>Successful harvest!</b></span><br>Your pay has increased by $0.02. Your bonus pay is now $0.56.</p>\n            ","response":0,"trial_type":"html-button-response","trial_index":8,"time_elapsed":2946879,"internal_node_id":"0.0-4.0-1.0","subject_id":"5f25d8172b91b02b72277187","study_id":"60edd13110225f80f9f3709b","session_id":"6196c1f1c511dada402cdc81","condition":"full-information","relevant_dimensions":["antennae","wings"],"bee_group":{"antennae":"A","wings":"2","pattern":"X","legs":"X"},"bonus":1.0400000000000011},{"rt":2952.699999999255,"stimulus":"bees-with-color/bee-B1SF.svg","response":0,"trial_type":"image-button-response","trial_index":9,"time_elapsed":2949833,"internal_node_id":"0.0-4.0-0.1","subject_id":"5f25d8172b91b02b72277187","study_id":"60edd13110225f80f9f3709b","session_id":"6196c1f1c511dada402cdc81","condition":"full-information","relevant_dimensions":["antennae","wings"],"bee_group":{"antennae":"A","wings":"2","pattern":"X","legs":"X"},"action":"harvest","summary":"good-harvest","bonus":1.0400000000000011},{"rt":992.5,"stimulus":"\n                    <p><b>Action: <em>harvest</em></b></p>\n                    <p>This is the bee that you just saw.</p>\n                    <img src=\"bees-with-color/bee-B1SF.svg\" width=\"200\">\n                    <p><span class=\"greenText\"><b>Successful harvest!</b></span><br>Your pay has increased by $0.02. Your bonus pay is now $0.58.</p>\n            ","response":0,"trial_type":"html-button-response","trial_index":10,"time_elapsed":2950827,"internal_node_id":"0.0-4.0-1.1","subject_id":"5f25d8172b91b02b72277187","study_id":"60edd13110225f80f9f3709b","session_id":"6196c1f1c511dada402cdc81","condition":"full-information","relevant_dimensions":["antennae","wings"],"bee_group":{"antennae":"A","wings":"2","pattern":"X","legs":"X"},"bonus":1.0400000000000011},{"rt":2367.400000002235,"stimulus":"bees-with-color/bee-B2SF.svg","response":0,"trial_type":"image-button-response","trial_index":11,"time_elapsed":2953196,"internal_node_id":"0.0-4.0-0.2","subject_id":"5f25d8172b91b02b72277187","study_id":"60edd13110225f80f9f3709b","session_id":"6196c1f1c511dada402cdc81","condition":"full-information","relevant_dimensions":["antennae","wings"],"bee_group":{"antennae":"A","wings":"2","pattern":"X","legs":"X"},"action":"harvest","summary":"good-harvest","bonus":1.0400000000000011},{"rt":1454,"stimulus":"\n                    <p><b>Action: <em>harvest</em></b></p>\n                    <p>This is the bee that you just saw.</p>\n                    <img src=\"bees-with-color/bee-B2SF.svg\" width=\"200\">\n                    <p><span class=\"greenText\"><b>Successful harvest!</b></span><br>Your pay has increased by $0.02. Your bonus pay is now $0.60.</p>\n            ","response":0,"trial_type":"html-button-response","trial_index":12,"time_elapsed":2954651,"internal_node_id":"0.0-4.0-1.2","subject_id":"5f25d8172b91b02b72277187","study_id":"60edd13110225f80f9f3709b","session_id":"6196c1f1c511dada402cdc81","condition":"full-information","relevant_dimensions":["antennae","wings"],"bee_group":{"antennae":"A","wings":"2","pattern":"X","legs":"X"},"bonus":1.0400000000000011},{"rt":1867.800000000745,"stimulus":"bees-with-color/bee-A2SF.svg","response":0,"trial_type":"image-button-response","trial_index":13,"time_elapsed":2956520,"internal_node_id":"0.0-4.0-0.3","subject_id":"5f25d8172b91b02b72277187","study_id":"60edd13110225f80f9f3709b","session_id":"6196c1f1c511dada402cdc81","condition":"full-information","relevant_dimensions":["antennae","wings"],"bee_group":{"antennae":"A","wings":"2","pattern":"X","legs":"X"},"action":"harvest","summary":"bad-harvest","bonus":1.0400000000000011},{"rt":3817,"stimulus":"\n                    <p><b>Action: <em>harvest</em></b></p>\n                    <p>This is the bee that you just saw.</p>\n                    <img src=\"bees-with-color/bee-A2SF.svg\" width=\"200\">\n                    <p><span class=\"redText\">Bad choice, the bee was angry.</span><br><b>You have been stung!</b><br>Your pay has been decreased by $0.10. Your bonus pay is now $0.50.</p>\n            ","response":0,"trial_type":"html-button-response","trial_index":14,"time_elapsed":2960338,"internal_node_id":"0.0-4.0-1.3","subject_id":"5f25d8172b91b02b72277187","study_id":"60edd13110225f80f9f3709b","session_id":"6196c1f1c511dada402cdc81","condition":"full-information","relevant_dimensions":["antennae","wings"],"bee_group":{"antennae":"A","wings":"2","pattern":"X","legs":"X"},"bonus":1.0400000000000011},{"rt":2259.7999999970198,"stimulus":"bees-with-color/bee-A1DM.svg","response":0,"trial_type":"image-button-response","trial_index":15,"time_elapsed":2962599,"internal_node_id":"0.0-4.0-0.4","subject_id":"5f25d8172b91b02b72277187","study_id":"60edd13110225f80f9f3709b","session_id":"6196c1f1c511dada402cdc81","condition":"full-information","relevant_dimensions":["antennae","wings"],"bee_group":{"antennae":"A","wings":"2","pattern":"X","legs":"X"},"action":"harvest","summary":"good-harvest","bonus":1.0400000000000011},{"rt":1059.800000000745,"stimulus":"\n                    <p><b>Action: <em>harvest</em></b></p>\n                    <p>This is the bee that you just saw.</p>\n                    <img src=\"bees-with-color/bee-A1DM.svg\" width=\"200\">\n                    <p><span class=\"greenText\"><b>Successful harvest!</b></span><br>Your pay has increased by $0.02. Your bonus pay is now $0.52.</p>\n            ","response":0,"trial_type":"html-button-response","trial_index":16,"time_elapsed":2963660,"internal_node_id":"0.0-4.0-1.4","subject_id":"5f25d8172b91b02b72277187","study_id":"60edd13110225f80f9f3709b","session_id":"6196c1f1c511dada402cdc81","condition":"full-information","relevant_dimensions":["antennae","wings"],"bee_group":{"antennae":"A","wings":"2","pattern":"X","legs":"X"},"bonus":1.0400000000000011},{"rt":1020.6000000014901,"stimulus":"bees-with-color/bee-A1SF.svg","response":0,"trial_type":"image-button-response","trial_index":17,"time_elapsed":2964682,"internal_node_id":"0.0-4.0-0.5","subject_id":"5f25d8172b91b02b72277187","study_id":"60edd13110225f80f9f3709b","session_id":"6196c1f1c511dada402cdc81","condition":"full-information","relevant_dimensions":["antennae","wings"],"bee_group":{"antennae":"A","wings":"2","pattern":"X","legs":"X"},"action":"harvest","summary":"good-harvest","bonus":1.0400000000000011},{"rt":638.0999999977648,"stimulus":"\n                    <p><b>Action: <em>harvest</em></b></p>\n                    <p>This is the bee that you just saw.</p>\n                    <img src=\"bees-with-color/bee-A1SF.svg\" width=\"200\">\n                    <p><span class=\"greenText\"><b>Successful harvest!</b></span><br>Your pay has increased by $0.02. Your bonus pay is now $0.54.</p>\n            ","response":0,"trial_type":"html-button-response","trial_index":18,"time_elapsed":2965321,"internal_node_id":"0.0-4.0-1.5","subject_id":"5f25d8172b91b02b72277187","study_id":"60edd13110225f80f9f3709b","session_id":"6196c1f1c511dada402cdc81","condition":"full-information","relevant_dimensions":["antennae","wings"],"bee_group":{"antennae":"A","wings":"2","pattern":"X","legs":"X"},"bonus":1.0400000000000011},{"rt":2710.699999999255,"stimulus":"bees-with-color/bee-A2DF.svg","response":0,"trial_type":"image-button-response","trial_index":19,"time_elapsed":2968033,"internal_node_id":"0.0-4.0-0.6","subject_id":"5f25d8172b91b02b72277187","study_id":"60edd13110225f80f9f3709b","session_id":"6196c1f1c511dada402cdc81","condition":"full-information","relevant_dimensions":["antennae","wings"],"bee_group":{"antennae":"A","wings":"2","pattern":"X","legs":"X"},"action":"harvest","summary":"bad-harvest","bonus":1.0400000000000011},{"rt":916.8000000007451,"stimulus":"\n                    <p><b>Action: <em>harvest</em></b></p>\n                    <p>This is the bee that you just saw.</p>\n                    <img src=\"bees-with-color/bee-A2DF.svg\" width=\"200\">\n                    <p><span class=\"redText\">Bad choice, the bee was angry.</span><br><b>You have been stung!</b><br>Your pay has been decreased by $0.10. Your bonus pay is now $0.44.</p>\n            ","response":0,"trial_type":"html-button-response","trial_index":20,"time_elapsed":2968951,"internal_node_id":"0.0-4.0-1.6","subject_id":"5f25d8172b91b02b72277187","study_id":"60edd13110225f80f9f3709b","session_id":"6196c1f1c511dada402cdc81","condition":"full-information","relevant_dimensions":["antennae","wings"],"bee_group":{"antennae":"A","wings":"2","pattern":"X","legs":"X"},"bonus":1.0400000000000011},{"rt":1222.0999999977648,"stimulus":"bees-with-color/bee-B1DF.svg","response":0,"trial_type":"image-button-response","trial_index":21,"time_elapsed":2970174,"internal_node_id":"0.0-4.0-0.7","subject_id":"5f25d8172b91b02b72277187","study_id":"60edd13110225f80f9f3709b","session_id":"6196c1f1c511dada402cdc81","condition":"full-information","relevant_dimensions":["antennae","wings"],"bee_group":{"antennae":"A","wings":"2","pattern":"X","legs":"X"},"action":"harvest","summary":"good-harvest","bonus":1.0400000000000011},{"rt":685,"stimulus":"\n                    <p><b>Action: <em>harvest</em></b></p>\n                    <p>This is the bee that you just saw.</p>\n                    <img src=\"bees-with-color/bee-B1DF.svg\" width=\"200\">\n                    <p><span class=\"greenText\"><b>Successful harvest!</b></span><br>Your pay has increased by $0.02. Your bonus pay is now $0.46.</p>\n            ","response":0,"trial_type":"html-button-response","trial_index":22,"time_elapsed":2970860,"internal_node_id":"0.0-4.0-1.7","subject_id":"5f25d8172b91b02b72277187","study_id":"60edd13110225f80f9f3709b","session_id":"6196c1f1c511dada402cdc81","condition":"full-information","relevant_dimensions":["antennae","wings"],"bee_group":{"antennae":"A","wings":"2","pattern":"X","legs":"X"},"bonus":1.0400000000000011},{"rt":1797.5999999977648,"stimulus":"bees-with-color/bee-B2SM.svg","response":0,"trial_type":"image-button-response","trial_index":23,"time_elapsed":2972659,"internal_node_id":"0.0-4.0-0.8","subject_id":"5f25d8172b91b02b72277187","study_id":"60edd13110225f80f9f3709b","session_id":"6196c1f1c511dada402cdc81","condition":"full-information","relevant_dimensions":["antennae","wings"],"bee_group":{"antennae":"A","wings":"2","pattern":"X","legs":"X"},"action":"harvest","summary":"good-harvest","bonus":1.0400000000000011},{"rt":693.8000000007451,"stimulus":"\n                    <p><b>Action: <em>harvest</em></b></p>\n                    <p>This is the bee that you just saw.</p>\n                    <img src=\"bees-with-color/bee-B2SM.svg\" width=\"200\">\n                    <p><span class=\"greenText\"><b>Successful harvest!</b></span><br>Your pay has increased by $0.02. Your bonus pay is now $0.48.</p>\n            ","response":0,"trial_type":"html-button-response","trial_index":24,"time_elapsed":2973354,"internal_node_id":"0.0-4.0-1.8","subject_id":"5f25d8172b91b02b72277187","study_id":"60edd13110225f80f9f3709b","session_id":"6196c1f1c511dada402cdc81","condition":"full-information","relevant_dimensions":["antennae","wings"],"bee_group":{"antennae":"A","wings":"2","pattern":"X","legs":"X"},"bonus":1.0400000000000011},{"rt":1806.7999999970198,"stimulus":"bees-with-color/bee-B1DM.svg","response":1,"trial_type":"image-button-response","trial_index":25,"time_elapsed":2975162,"internal_node_id":"0.0-4.0-0.9","subject_id":"5f25d8172b91b02b72277187","study_id":"60edd13110225f80f9f3709b","session_id":"6196c1f1c511dada402cdc81","condition":"full-information","relevant_dimensions":["antennae","wings"],"bee_group":{"antennae":"A","wings":"2","pattern":"X","legs":"X"},"action":"avoid","summary":"bad-avoid","bonus":1.0400000000000011},{"rt":1931.7999999970198,"stimulus":"\n                    <p><b>Action: <em>avoid</em></b></p>\n                    <p>This is the bee that you just saw.</p>\n                    <img src=\"bees-with-color/bee-B1DM.svg\" width=\"200\">\n                    <p><span class=\"redText\">Bad choice,</span> the bee was friendly.<br>Your bonus pay is unchanged, and remains at $0.48.</p>\n            ","response":0,"trial_type":"html-button-response","trial_index":26,"time_elapsed":2977095,"internal_node_id":"0.0-4.0-1.9","subject_id":"5f25d8172b91b02b72277187","study_id":"60edd13110225f80f9f3709b","session_id":"6196c1f1c511dada402cdc81","condition":"full-information","relevant_dimensions":["antennae","wings"],"bee_group":{"antennae":"A","wings":"2","pattern":"X","legs":"X"},"bonus":1.0400000000000011},{"rt":1603.6000000014901,"stimulus":"bees-with-color/bee-A1DF.svg","response":0,"trial_type":"image-button-response","trial_index":27,"time_elapsed":2978700,"internal_node_id":"0.0-4.0-0.10","subject_id":"5f25d8172b91b02b72277187","study_id":"60edd13110225f80f9f3709b","session_id":"6196c1f1c511dada402cdc81","condition":"full-information","relevant_dimensions":["antennae","wings"],"bee_group":{"antennae":"A","wings":"2","pattern":"X","legs":"X"},"action":"harvest","summary":"good-harvest","bonus":1.0400000000000011},{"rt":609,"stimulus":"\n                    <p><b>Action: <em>harvest</em></b></p>\n                    <p>This is the bee that you just saw.</p>\n                    <img src=\"bees-with-color/bee-A1DF.svg\" width=\"200\">\n                    <p><span class=\"greenText\"><b>Successful harvest!</b></span><br>Your pay has increased by $0.02. Your bonus pay is now $0.50.</p>\n            ","response":0,"trial_type":"html-button-response","trial_index":28,"time_elapsed":2979310,"internal_node_id":"0.0-4.0-1.10","subject_id":"5f25d8172b91b02b72277187","study_id":"60edd13110225f80f9f3709b","session_id":"6196c1f1c511dada402cdc81","condition":"full-information","relevant_dimensions":["antennae","wings"],"bee_group":{"antennae":"A","wings":"2","pattern":"X","legs":"X"},"bonus":1.0400000000000011},{"rt":1129.0999999977648,"stimulus":"bees-with-color/bee-B2DM.svg","response":1,"trial_type":"image-button-response","trial_index":29,"time_elapsed":2980440,"internal_node_id":"0.0-4.0-0.11","subject_id":"5f25d8172b91b02b72277187","study_id":"60edd13110225f80f9f3709b","session_id":"6196c1f1c511dada402cdc81","condition":"full-information","relevant_dimensions":["antennae","wings"],"bee_group":{"antennae":"A","wings":"2","pattern":"X","legs":"X"},"action":"avoid","summary":"bad-avoid","bonus":1.0400000000000011},{"rt":1236.800000000745,"stimulus":"\n                    <p><b>Action: <em>avoid</em></b></p>\n                    <p>This is the bee that you just saw.</p>\n                    <img src=\"bees-with-color/bee-B2DM.svg\" width=\"200\">\n                    <p><span class=\"redText\">Bad choice,</span> the bee was friendly.<br>Your bonus pay is unchanged, and remains at $0.50.</p>\n            ","response":0,"trial_type":"html-button-response","trial_index":30,"time_elapsed":2981678,"internal_node_id":"0.0-4.0-1.11","subject_id":"5f25d8172b91b02b72277187","study_id":"60edd13110225f80f9f3709b","session_id":"6196c1f1c511dada402cdc81","condition":"full-information","relevant_dimensions":["antennae","wings"],"bee_group":{"antennae":"A","wings":"2","pattern":"X","legs":"X"},"bonus":1.0400000000000011},{"rt":1478.1000000014901,"stimulus":"bees-with-color/bee-B2DF.svg","response":1,"trial_type":"image-button-response","trial_index":31,"time_elapsed":2983157,"internal_node_id":"0.0-4.0-0.12","subject_id":"5f25d8172b91b02b72277187","study_id":"60edd13110225f80f9f3709b","session_id":"6196c1f1c511dada402cdc81","condition":"full-information","relevant_dimensions":["antennae","wings"],"bee_group":{"antennae":"A","wings":"2","pattern":"X","legs":"X"},"action":"avoid","summary":"bad-avoid","bonus":1.0400000000000011},{"rt":1524.0999999977648,"stimulus":"\n                    <p><b>Action: <em>avoid</em></b></p>\n                    <p>This is the bee that you just saw.</p>\n                    <img src=\"bees-with-color/bee-B2DF.svg\" width=\"200\">\n                    <p><span class=\"redText\">Bad choice,</span> the bee was friendly.<br>Your bonus pay is unchanged, and remains at $0.50.</p>\n            ","response":0,"trial_type":"html-button-response","trial_index":32,"time_elapsed":2984682,"internal_node_id":"0.0-4.0-1.12","subject_id":"5f25d8172b91b02b72277187","study_id":"60edd13110225f80f9f3709b","session_id":"6196c1f1c511dada402cdc81","condition":"full-information","relevant_dimensions":["antennae","wings"],"bee_group":{"antennae":"A","wings":"2","pattern":"X","legs":"X"},"bonus":1.0400000000000011},{"rt":1651.199999999255,"stimulus":"bees-with-color/bee-A2DM.svg","response":1,"trial_type":"image-button-response","trial_index":33,"time_elapsed":2986334,"internal_node_id":"0.0-4.0-0.13","subject_id":"5f25d8172b91b02b72277187","study_id":"60edd13110225f80f9f3709b","session_id":"6196c1f1c511dada402cdc81","condition":"full-information","relevant_dimensions":["antennae","wings"],"bee_group":{"antennae":"A","wings":"2","pattern":"X","legs":"X"},"action":"avoid","summary":"good-avoid","bonus":1.0400000000000011},{"rt":3165.900000002235,"stimulus":"\n                    <p><b>Action: <em>avoid</em></b></p>\n                    <p>This is the bee that you just saw.</p>\n                    <img src=\"bees-with-color/bee-A2DM.svg\" width=\"200\">\n                    <p><span class=\"greenText\">Good choice!</span>  This bee would have stung you.<br>Your bonus pay is unchanged, and remains at $0.50.</p>\n            ","response":0,"trial_type":"html-button-response","trial_index":34,"time_elapsed":2989501,"internal_node_id":"0.0-4.0-1.13","subject_id":"5f25d8172b91b02b72277187","study_id":"60edd13110225f80f9f3709b","session_id":"6196c1f1c511dada402cdc81","condition":"full-information","relevant_dimensions":["antennae","wings"],"bee_group":{"antennae":"A","wings":"2","pattern":"X","legs":"X"},"bonus":1.0400000000000011},{"rt":788.8000000007451,"stimulus":"bees-with-color/bee-A2SM.svg","response":0,"trial_type":"image-button-response","trial_index":35,"time_elapsed":2990291,"internal_node_id":"0.0-4.0-0.14","subject_id":"5f25d8172b91b02b72277187","study_id":"60edd13110225f80f9f3709b","session_id":"6196c1f1c511dada402cdc81","condition":"full-information","relevant_dimensions":["antennae","wings"],"bee_group":{"antennae":"A","wings":"2","pattern":"X","legs":"X"},"action":"harvest","summary":"bad-harvest","bonus":1.0400000000000011},{"rt":871,"stimulus":"\n                    <p><b>Action: <em>harvest</em></b></p>\n                    <p>This is the bee that you just saw.</p>\n                    <img src=\"bees-with-color/bee-A2SM.svg\" width=\"200\">\n                    <p><span class=\"redText\">Bad choice, the bee was angry.</span><br><b>You have been stung!</b><br>Your pay has been decreased by $0.10. Your bonus pay is now $0.40.</p>\n            ","response":0,"trial_type":"html-button-response","trial_index":36,"time_elapsed":2991163,"internal_node_id":"0.0-4.0-1.14","subject_id":"5f25d8172b91b02b72277187","study_id":"60edd13110225f80f9f3709b","session_id":"6196c1f1c511dada402cdc81","condition":"full-information","relevant_dimensions":["antennae","wings"],"bee_group":{"antennae":"A","wings":"2","pattern":"X","legs":"X"},"bonus":1.0400000000000011},{"rt":918,"stimulus":"bees-with-color/bee-A1SM.svg","response":0,"trial_type":"image-button-response","trial_index":37,"time_elapsed":2992082,"internal_node_id":"0.0-4.0-0.15","subject_id":"5f25d8172b91b02b72277187","study_id":"60edd13110225f80f9f3709b","session_id":"6196c1f1c511dada402cdc81","condition":"full-information","relevant_dimensions":["antennae","wings"],"bee_group":{"antennae":"A","wings":"2","pattern":"X","legs":"X"},"action":"harvest","summary":"good-harvest","bonus":1.0400000000000011},{"rt":821,"stimulus":"\n                    <p><b>Action: <em>harvest</em></b></p>\n                    <p>This is the bee that you just saw.</p>\n                    <img src=\"bees-with-color/bee-A1SM.svg\" width=\"200\">\n                    <p><span class=\"greenText\"><b>Successful harvest!</b></span><br>Your pay has increased by $0.02. Your bonus pay is now $0.42.</p>\n            ","response":0,"trial_type":"html-button-response","trial_index":38,"time_elapsed":2992904,"internal_node_id":"0.0-4.0-1.15","subject_id":"5f25d8172b91b02b72277187","study_id":"60edd13110225f80f9f3709b","session_id":"6196c1f1c511dada402cdc81","condition":"full-information","relevant_dimensions":["antennae","wings"],"bee_group":{"antennae":"A","wings":"2","pattern":"X","legs":"X"},"bonus":1.0400000000000011},{"rt":1674.800000000745,"stimulus":"bees-with-color/bee-B1SF.svg","response":0,"trial_type":"image-button-response","trial_index":39,"time_elapsed":2994580,"internal_node_id":"0.0-4.0-0.16","subject_id":"5f25d8172b91b02b72277187","study_id":"60edd13110225f80f9f3709b","session_id":"6196c1f1c511dada402cdc81","condition":"full-information","relevant_dimensions":["antennae","wings"],"bee_group":{"antennae":"A","wings":"2","pattern":"X","legs":"X"},"action":"harvest","summary":"good-harvest","bonus":1.0400000000000011},{"rt":908.8000000007451,"stimulus":"\n                    <p><b>Action: <em>harvest</em></b></p>\n                    <p>This is the bee that you just saw.</p>\n                    <img src=\"bees-with-color/bee-B1SF.svg\" width=\"200\">\n                    <p><span class=\"greenText\"><b>Successful harvest!</b></span><br>Your pay has increased by $0.02. Your bonus pay is now $0.44.</p>\n            ","response":0,"trial_type":"html-button-response","trial_index":40,"time_elapsed":2995490,"internal_node_id":"0.0-4.0-1.16","subject_id":"5f25d8172b91b02b72277187","study_id":"60edd13110225f80f9f3709b","session_id":"6196c1f1c511dada402cdc81","condition":"full-information","relevant_dimensions":["antennae","wings"],"bee_group":{"antennae":"A","wings":"2","pattern":"X","legs":"X"},"bonus":1.0400000000000011},{"rt":2107.800000000745,"stimulus":"bees-with-color/bee-B2DM.svg","response":0,"trial_type":"image-button-response","trial_index":41,"time_elapsed":2997599,"internal_node_id":"0.0-4.0-0.17","subject_id":"5f25d8172b91b02b72277187","study_id":"60edd13110225f80f9f3709b","session_id":"6196c1f1c511dada402cdc81","condition":"full-information","relevant_dimensions":["antennae","wings"],"bee_group":{"antennae":"A","wings":"2","pattern":"X","legs":"X"},"action":"harvest","summary":"good-harvest","bonus":1.0400000000000011},{"rt":927.8000000007451,"stimulus":"\n                    <p><b>Action: <em>harvest</em></b></p>\n                    <p>This is the bee that you just saw.</p>\n                    <img src=\"bees-with-color/bee-B2DM.svg\" width=\"200\">\n                    <p><span class=\"greenText\"><b>Successful harvest!</b></span><br>Your pay has increased by $0.02. Your bonus pay is now $0.46.</p>\n            ","response":0,"trial_type":"html-button-response","trial_index":42,"time_elapsed":2998528,"internal_node_id":"0.0-4.0-1.17","subject_id":"5f25d8172b91b02b72277187","study_id":"60edd13110225f80f9f3709b","session_id":"6196c1f1c511dada402cdc81","condition":"full-information","relevant_dimensions":["antennae","wings"],"bee_group":{"antennae":"A","wings":"2","pattern":"X","legs":"X"},"bonus":1.0400000000000011},{"rt":1441,"stimulus":"bees-with-color/bee-A1DF.svg","response":0,"trial_type":"image-button-response","trial_index":43,"time_elapsed":2999970,"internal_node_id":"0.0-4.0-0.18","subject_id":"5f25d8172b91b02b72277187","study_id":"60edd13110225f80f9f3709b","session_id":"6196c1f1c511dada402cdc81","condition":"full-information","relevant_dimensions":["antennae","wings"],"bee_group":{"antennae":"A","wings":"2","pattern":"X","legs":"X"},"action":"harvest","summary":"good-harvest","bonus":1.0400000000000011},{"rt":585.8000000007451,"stimulus":"\n                    <p><b>Action: <em>harvest</em></b></p>\n                    <p>This is the bee that you just saw.</p>\n                    <img src=\"bees-with-color/bee-A1DF.svg\" width=\"200\">\n                    <p><span class=\"greenText\"><b>Successful harvest!</b></span><br>Your pay has increased by $0.02. Your bonus pay is now $0.48.</p>\n            ","response":0,"trial_type":"html-button-response","trial_index":44,"time_elapsed":3000557,"internal_node_id":"0.0-4.0-1.18","subject_id":"5f25d8172b91b02b72277187","study_id":"60edd13110225f80f9f3709b","session_id":"6196c1f1c511dada402cdc81","condition":"full-information","relevant_dimensions":["antennae","wings"],"bee_group":{"antennae":"A","wings":"2","pattern":"X","legs":"X"},"bonus":1.0400000000000011},{"rt":3222.900000002235,"stimulus":"bees-with-color/bee-B2DF.svg","response":1,"trial_type":"image-button-response","trial_index":45,"time_elapsed":3003781,"internal_node_id":"0.0-4.0-0.19","subject_id":"5f25d8172b91b02b72277187","study_id":"60edd13110225f80f9f3709b","session_id":"6196c1f1c511dada402cdc81","condition":"full-information","relevant_dimensions":["antennae","wings"],"bee_group":{"antennae":"A","wings":"2","pattern":"X","legs":"X"},"action":"avoid","summary":"bad-avoid","bonus":1.0400000000000011},{"rt":1091,"stimulus":"\n                    <p><b>Action: <em>avoid</em></b></p>\n                    <p>This is the bee that you just saw.</p>\n                    <img src=\"bees-with-color/bee-B2DF.svg\" width=\"200\">\n                    <p><span class=\"redText\">Bad choice,</span> the bee was friendly.<br>Your bonus pay is unchanged, and remains at $0.48.</p>\n            ","response":0,"trial_type":"html-button-response","trial_index":46,"time_elapsed":3004873,"internal_node_id":"0.0-4.0-1.19","subject_id":"5f25d8172b91b02b72277187","study_id":"60edd13110225f80f9f3709b","session_id":"6196c1f1c511dada402cdc81","condition":"full-information","relevant_dimensions":["antennae","wings"],"bee_group":{"antennae":"A","wings":"2","pattern":"X","legs":"X"},"bonus":1.0400000000000011},{"rt":2366.900000002235,"stimulus":"bees-with-color/bee-A1DM.svg","response":0,"trial_type":"image-button-response","trial_index":47,"time_elapsed":3007241,"internal_node_id":"0.0-4.0-0.20","subject_id":"5f25d8172b91b02b72277187","study_id":"60edd13110225f80f9f3709b","session_id":"6196c1f1c511dada402cdc81","condition":"full-information","relevant_dimensions":["antennae","wings"],"bee_group":{"antennae":"A","wings":"2","pattern":"X","legs":"X"},"action":"harvest","summary":"good-harvest","bonus":1.0400000000000011},{"rt":627,"stimulus":"\n                    <p><b>Action: <em>harvest</em></b></p>\n                    <p>This is the bee that you just saw.</p>\n                    <img src=\"bees-with-color/bee-A1DM.svg\" width=\"200\">\n                    <p><span class=\"greenText\"><b>Successful harvest!</b></span><br>Your pay has increased by $0.02. Your bonus pay is now $0.50.</p>\n            ","response":0,"trial_type":"html-button-response","trial_index":48,"time_elapsed":3007869,"internal_node_id":"0.0-4.0-1.20","subject_id":"5f25d8172b91b02b72277187","study_id":"60edd13110225f80f9f3709b","session_id":"6196c1f1c511dada402cdc81","condition":"full-information","relevant_dimensions":["antennae","wings"],"bee_group":{"antennae":"A","wings":"2","pattern":"X","legs":"X"},"bonus":1.0400000000000011},{"rt":2534.099999997765,"stimulus":"bees-with-color/bee-A2SM.svg","response":0,"trial_type":"image-button-response","trial_index":49,"time_elapsed":3010404,"internal_node_id":"0.0-4.0-0.21","subject_id":"5f25d8172b91b02b72277187","study_id":"60edd13110225f80f9f3709b","session_id":"6196c1f1c511dada402cdc81","condition":"full-information","relevant_dimensions":["antennae","wings"],"bee_group":{"antennae":"A","wings":"2","pattern":"X","legs":"X"},"action":"harvest","summary":"bad-harvest","bonus":1.0400000000000011},{"rt":662,"stimulus":"\n                    <p><b>Action: <em>harvest</em></b></p>\n                    <p>This is the bee that you just saw.</p>\n                    <img src=\"bees-with-color/bee-A2SM.svg\" width=\"200\">\n                    <p><span class=\"redText\">Bad choice, the bee was angry.</span><br><b>You have been stung!</b><br>Your pay has been decreased by $0.10. Your bonus pay is now $0.40.</p>\n            ","response":0,"trial_type":"html-button-response","trial_index":50,"time_elapsed":3011067,"internal_node_id":"0.0-4.0-1.21","subject_id":"5f25d8172b91b02b72277187","study_id":"60edd13110225f80f9f3709b","session_id":"6196c1f1c511dada402cdc81","condition":"full-information","relevant_dimensions":["antennae","wings"],"bee_group":{"antennae":"A","wings":"2","pattern":"X","legs":"X"},"bonus":1.0400000000000011},{"rt":1127.8999999985099,"stimulus":"bees-with-color/bee-A2DM.svg","response":0,"trial_type":"image-button-response","trial_index":51,"time_elapsed":3012196,"internal_node_id":"0.0-4.0-0.22","subject_id":"5f25d8172b91b02b72277187","study_id":"60edd13110225f80f9f3709b","session_id":"6196c1f1c511dada402cdc81","condition":"full-information","relevant_dimensions":["antennae","wings"],"bee_group":{"antennae":"A","wings":"2","pattern":"X","legs":"X"},"action":"harvest","summary":"bad-harvest","bonus":1.0400000000000011},{"rt":733,"stimulus":"\n                    <p><b>Action: <em>harvest</em></b></p>\n                    <p>This is the bee that you just saw.</p>\n                    <img src=\"bees-with-color/bee-A2DM.svg\" width=\"200\">\n                    <p><span class=\"redText\">Bad choice, the bee was angry.</span><br><b>You have been stung!</b><br>Your pay has been decreased by $0.10. Your bonus pay is now $0.30.</p>\n            ","response":0,"trial_type":"html-button-response","trial_index":52,"time_elapsed":3012930,"internal_node_id":"0.0-4.0-1.22","subject_id":"5f25d8172b91b02b72277187","study_id":"60edd13110225f80f9f3709b","session_id":"6196c1f1c511dada402cdc81","condition":"full-information","relevant_dimensions":["antennae","wings"],"bee_group":{"antennae":"A","wings":"2","pattern":"X","legs":"X"},"bonus":1.0400000000000011},{"rt":2511.099999997765,"stimulus":"bees-with-color/bee-B2SF.svg","response":0,"trial_type":"image-button-response","trial_index":53,"time_elapsed":3015442,"internal_node_id":"0.0-4.0-0.23","subject_id":"5f25d8172b91b02b72277187","study_id":"60edd13110225f80f9f3709b","session_id":"6196c1f1c511dada402cdc81","condition":"full-information","relevant_dimensions":["antennae","wings"],"bee_group":{"antennae":"A","wings":"2","pattern":"X","legs":"X"},"action":"harvest","summary":"good-harvest","bonus":1.0400000000000011},{"rt":585.9000000022352,"stimulus":"\n                    <p><b>Action: <em>harvest</em></b></p>\n                    <p>This is the bee that you just saw.</p>\n                    <img src=\"bees-with-color/bee-B2SF.svg\" width=\"200\">\n                    <p><span class=\"greenText\"><b>Successful harvest!</b></span><br>Your pay has increased by $0.02. Your bonus pay is now $0.32.</p>\n            ","response":0,"trial_type":"html-button-response","trial_index":54,"time_elapsed":3016029,"internal_node_id":"0.0-4.0-1.23","subject_id":"5f25d8172b91b02b72277187","study_id":"60edd13110225f80f9f3709b","session_id":"6196c1f1c511dada402cdc81","condition":"full-information","relevant_dimensions":["antennae","wings"],"bee_group":{"antennae":"A","wings":"2","pattern":"X","legs":"X"},"bonus":1.0400000000000011},{"rt":1000.6999999992549,"stimulus":"bees-with-color/bee-A1SF.svg","response":0,"trial_type":"image-button-response","trial_index":55,"time_elapsed":3017031,"internal_node_id":"0.0-4.0-0.24","subject_id":"5f25d8172b91b02b72277187","study_id":"60edd13110225f80f9f3709b","session_id":"6196c1f1c511dada402cdc81","condition":"full-information","relevant_dimensions":["antennae","wings"],"bee_group":{"antennae":"A","wings":"2","pattern":"X","legs":"X"},"action":"harvest","summary":"good-harvest","bonus":1.0400000000000011},{"rt":585.9000000022352,"stimulus":"\n                    <p><b>Action: <em>harvest</em></b></p>\n                    <p>This is the bee that you just saw.</p>\n                    <img src=\"bees-with-color/bee-A1SF.svg\" width=\"200\">\n                    <p><span class=\"greenText\"><b>Successful harvest!</b></span><br>Your pay has increased by $0.02. Your bonus pay is now $0.34.</p>\n            ","response":0,"trial_type":"html-button-response","trial_index":56,"time_elapsed":3017618,"internal_node_id":"0.0-4.0-1.24","subject_id":"5f25d8172b91b02b72277187","study_id":"60edd13110225f80f9f3709b","session_id":"6196c1f1c511dada402cdc81","condition":"full-information","relevant_dimensions":["antennae","wings"],"bee_group":{"antennae":"A","wings":"2","pattern":"X","legs":"X"},"bonus":1.0400000000000011},{"rt":1059.0999999977648,"stimulus":"bees-with-color/bee-B1SM.svg","response":0,"trial_type":"image-button-response","trial_index":57,"time_elapsed":3018678,"internal_node_id":"0.0-4.0-0.25","subject_id":"5f25d8172b91b02b72277187","study_id":"60edd13110225f80f9f3709b","session_id":"6196c1f1c511dada402cdc81","condition":"full-information","relevant_dimensions":["antennae","wings"],"bee_group":{"antennae":"A","wings":"2","pattern":"X","legs":"X"},"action":"harvest","summary":"good-harvest","bonus":1.0400000000000011},{"rt":428,"stimulus":"\n                    <p><b>Action: <em>harvest</em></b></p>\n                    <p>This is the bee that you just saw.</p>\n                    <img src=\"bees-with-color/bee-B1SM.svg\" width=\"200\">\n                    <p><span class=\"greenText\"><b>Successful harvest!</b></span><br>Your pay has increased by $0.02. Your bonus pay is now $0.36.</p>\n            ","response":0,"trial_type":"html-button-response","trial_index":58,"time_elapsed":3019107,"internal_node_id":"0.0-4.0-1.25","subject_id":"5f25d8172b91b02b72277187","study_id":"60edd13110225f80f9f3709b","session_id":"6196c1f1c511dada402cdc81","condition":"full-information","relevant_dimensions":["antennae","wings"],"bee_group":{"antennae":"A","wings":"2","pattern":"X","legs":"X"},"bonus":1.0400000000000011},{"rt":921,"stimulus":"bees-with-color/bee-B1DF.svg","response":0,"trial_type":"image-button-response","trial_index":59,"time_elapsed":3020029,"internal_node_id":"0.0-4.0-0.26","subject_id":"5f25d8172b91b02b72277187","study_id":"60edd13110225f80f9f3709b","session_id":"6196c1f1c511dada402cdc81","condition":"full-information","relevant_dimensions":["antennae","wings"],"bee_group":{"antennae":"A","wings":"2","pattern":"X","legs":"X"},"action":"harvest","summary":"good-harvest","bonus":1.0400000000000011},{"rt":418.80000000074506,"stimulus":"\n                    <p><b>Action: <em>harvest</em></b></p>\n                    <p>This is the bee that you just saw.</p>\n                    <img src=\"bees-with-color/bee-B1DF.svg\" width=\"200\">\n                    <p><span class=\"greenText\"><b>Successful harvest!</b></span><br>Your pay has increased by $0.02. Your bonus pay is now $0.38.</p>\n            ","response":0,"trial_type":"html-button-response","trial_index":60,"time_elapsed":3020449,"internal_node_id":"0.0-4.0-1.26","subject_id":"5f25d8172b91b02b72277187","study_id":"60edd13110225f80f9f3709b","session_id":"6196c1f1c511dada402cdc81","condition":"full-information","relevant_dimensions":["antennae","wings"],"bee_group":{"antennae":"A","wings":"2","pattern":"X","legs":"X"},"bonus":1.0400000000000011},{"rt":2287,"stimulus":"bees-with-color/bee-A2DF.svg","response":1,"trial_type":"image-button-response","trial_index":61,"time_elapsed":3022737,"internal_node_id":"0.0-4.0-0.27","subject_id":"5f25d8172b91b02b72277187","study_id":"60edd13110225f80f9f3709b","session_id":"6196c1f1c511dada402cdc81","condition":"full-information","relevant_dimensions":["antennae","wings"],"bee_group":{"antennae":"A","wings":"2","pattern":"X","legs":"X"},"action":"avoid","summary":"good-avoid","bonus":1.0400000000000011},{"rt":1448.9000000022352,"stimulus":"\n                    <p><b>Action: <em>avoid</em></b></p>\n                    <p>This is the bee that you just saw.</p>\n                    <img src=\"bees-with-color/bee-A2DF.svg\" width=\"200\">\n                    <p><span class=\"greenText\">Good choice!</span>  This bee would have stung you.<br>Your bonus pay is unchanged, and remains at $0.38.</p>\n            ","response":0,"trial_type":"html-button-response","trial_index":62,"time_elapsed":3024187,"internal_node_id":"0.0-4.0-1.27","subject_id":"5f25d8172b91b02b72277187","study_id":"60edd13110225f80f9f3709b","session_id":"6196c1f1c511dada402cdc81","condition":"full-information","relevant_dimensions":["antennae","wings"],"bee_group":{"antennae":"A","wings":"2","pattern":"X","legs":"X"},"bonus":1.0400000000000011},{"rt":1217.7999999970198,"stimulus":"bees-with-color/bee-A2SF.svg","response":1,"trial_type":"image-button-response","trial_index":63,"time_elapsed":3025406,"internal_node_id":"0.0-4.0-0.28","subject_id":"5f25d8172b91b02b72277187","study_id":"60edd13110225f80f9f3709b","session_id":"6196c1f1c511dada402cdc81","condition":"full-information","relevant_dimensions":["antennae","wings"],"bee_group":{"antennae":"A","wings":"2","pattern":"X","legs":"X"},"action":"avoid","summary":"good-avoid","bonus":1.0400000000000011},{"rt":744.9000000022352,"stimulus":"\n                    <p><b>Action: <em>avoid</em></b></p>\n                    <p>This is the bee that you just saw.</p>\n                    <img src=\"bees-with-color/bee-A2SF.svg\" width=\"200\">\n                    <p><span class=\"greenText\">Good choice!</span>  This bee would have stung you.<br>Your bonus pay is unchanged, and remains at $0.38.</p>\n            ","response":0,"trial_type":"html-button-response","trial_index":64,"time_elapsed":3026152,"internal_node_id":"0.0-4.0-1.28","subject_id":"5f25d8172b91b02b72277187","study_id":"60edd13110225f80f9f3709b","session_id":"6196c1f1c511dada402cdc81","condition":"full-information","relevant_dimensions":["antennae","wings"],"bee_group":{"antennae":"A","wings":"2","pattern":"X","legs":"X"},"bonus":1.0400000000000011},{"rt":853.1000000014901,"stimulus":"bees-with-color/bee-A1SM.svg","response":0,"trial_type":"image-button-response","trial_index":65,"time_elapsed":3027006,"internal_node_id":"0.0-4.0-0.29","subject_id":"5f25d8172b91b02b72277187","study_id":"60edd13110225f80f9f3709b","session_id":"6196c1f1c511dada402cdc81","condition":"full-information","relevant_dimensions":["antennae","wings"],"bee_group":{"antennae":"A","wings":"2","pattern":"X","legs":"X"},"action":"harvest","summary":"good-harvest","bonus":1.0400000000000011},{"rt":452.19999999925494,"stimulus":"\n                    <p><b>Action: <em>harvest</em></b></p>\n                    <p>This is the bee that you just saw.</p>\n                    <img src=\"bees-with-color/bee-A1SM.svg\" width=\"200\">\n                    <p><span class=\"greenText\"><b>Successful harvest!</b></span><br>Your pay has increased by $0.02. Your bonus pay is now $0.40.</p>\n            ","response":0,"trial_type":"html-button-response","trial_index":66,"time_elapsed":3027459,"internal_node_id":"0.0-4.0-1.29","subject_id":"5f25d8172b91b02b72277187","study_id":"60edd13110225f80f9f3709b","session_id":"6196c1f1c511dada402cdc81","condition":"full-information","relevant_dimensions":["antennae","wings"],"bee_group":{"antennae":"A","wings":"2","pattern":"X","legs":"X"},"bonus":1.0400000000000011},{"rt":1233.0999999977648,"stimulus":"bees-with-color/bee-B2SM.svg","response":1,"trial_type":"image-button-response","trial_index":67,"time_elapsed":3028693,"internal_node_id":"0.0-4.0-0.30","subject_id":"5f25d8172b91b02b72277187","study_id":"60edd13110225f80f9f3709b","session_id":"6196c1f1c511dada402cdc81","condition":"full-information","relevant_dimensions":["antennae","wings"],"bee_group":{"antennae":"A","wings":"2","pattern":"X","legs":"X"},"action":"avoid","summary":"bad-avoid","bonus":1.0400000000000011},{"rt":532.9000000022352,"stimulus":"\n                    <p><b>Action: <em>avoid</em></b></p>\n                    <p>This is the bee that you just saw.</p>\n                    <img src=\"bees-with-color/bee-B2SM.svg\" width=\"200\">\n                    <p><span class=\"redText\">Bad choice,</span> the bee was friendly.<br>Your bonus pay is unchanged, and remains at $0.40.</p>\n            ","response":0,"trial_type":"html-button-response","trial_index":68,"time_elapsed":3029227,"internal_node_id":"0.0-4.0-1.30","subject_id":"5f25d8172b91b02b72277187","study_id":"60edd13110225f80f9f3709b","session_id":"6196c1f1c511dada402cdc81","condition":"full-information","relevant_dimensions":["antennae","wings"],"bee_group":{"antennae":"A","wings":"2","pattern":"X","legs":"X"},"bonus":1.0400000000000011},{"rt":1218.1000000014901,"stimulus":"bees-with-color/bee-B1DM.svg","response":0,"trial_type":"image-button-response","trial_index":69,"time_elapsed":3030446,"internal_node_id":"0.0-4.0-0.31","subject_id":"5f25d8172b91b02b72277187","study_id":"60edd13110225f80f9f3709b","session_id":"6196c1f1c511dada402cdc81","condition":"full-information","relevant_dimensions":["antennae","wings"],"bee_group":{"antennae":"A","wings":"2","pattern":"X","legs":"X"},"action":"harvest","summary":"good-harvest","bonus":1.0400000000000011},{"rt":507.19999999925494,"stimulus":"\n                    <p><b>Action: <em>harvest</em></b></p>\n                    <p>This is the bee that you just saw.</p>\n                    <img src=\"bees-with-color/bee-B1DM.svg\" width=\"200\">\n                    <p><span class=\"greenText\"><b>Successful harvest!</b></span><br>Your pay has increased by $0.02. Your bonus pay is now $0.42.</p>\n            ","response":0,"trial_type":"html-button-response","trial_index":70,"time_elapsed":3030954,"internal_node_id":"0.0-4.0-1.31","subject_id":"5f25d8172b91b02b72277187","study_id":"60edd13110225f80f9f3709b","session_id":"6196c1f1c511dada402cdc81","condition":"full-information","relevant_dimensions":["antennae","wings"],"bee_group":{"antennae":"A","wings":"2","pattern":"X","legs":"X"},"bonus":1.0400000000000011},{"rt":1669,"stimulus":"bees-with-color/bee-A1SM.svg","response":0,"trial_type":"image-button-response","trial_index":71,"time_elapsed":3032624,"internal_node_id":"0.0-4.0-0.32","subject_id":"5f25d8172b91b02b72277187","study_id":"60edd13110225f80f9f3709b","session_id":"6196c1f1c511dada402cdc81","condition":"full-information","relevant_dimensions":["antennae","wings"],"bee_group":{"antennae":"A","wings":"2","pattern":"X","legs":"X"},"action":"harvest","summary":"good-harvest","bonus":1.0400000000000011},{"rt":806.0999999977648,"stimulus":"\n                    <p><b>Action: <em>harvest</em></b></p>\n                    <p>This is the bee that you just saw.</p>\n                    <img src=\"bees-with-color/bee-A1SM.svg\" width=\"200\">\n                    <p><span class=\"greenText\"><b>Successful harvest!</b></span><br>Your pay has increased by $0.02. Your bonus pay is now $0.44.</p>\n            ","response":0,"trial_type":"html-button-response","trial_index":72,"time_elapsed":3033431,"internal_node_id":"0.0-4.0-1.32","subject_id":"5f25d8172b91b02b72277187","study_id":"60edd13110225f80f9f3709b","session_id":"6196c1f1c511dada402cdc81","condition":"full-information","relevant_dimensions":["antennae","wings"],"bee_group":{"antennae":"A","wings":"2","pattern":"X","legs":"X"},"bonus":1.0400000000000011},{"rt":1858.1000000014901,"stimulus":"bees-with-color/bee-B2SM.svg","response":0,"trial_type":"image-button-response","trial_index":73,"time_elapsed":3035290,"internal_node_id":"0.0-4.0-0.33","subject_id":"5f25d8172b91b02b72277187","study_id":"60edd13110225f80f9f3709b","session_id":"6196c1f1c511dada402cdc81","condition":"full-information","relevant_dimensions":["antennae","wings"],"bee_group":{"antennae":"A","wings":"2","pattern":"X","legs":"X"},"action":"harvest","summary":"good-harvest","bonus":1.0400000000000011},{"rt":576.6999999992549,"stimulus":"\n                    <p><b>Action: <em>harvest</em></b></p>\n                    <p>This is the bee that you just saw.</p>\n                    <img src=\"bees-with-color/bee-B2SM.svg\" width=\"200\">\n                    <p><span class=\"greenText\"><b>Successful harvest!</b></span><br>Your pay has increased by $0.02. Your bonus pay is now $0.46.</p>\n            ","response":0,"trial_type":"html-button-response","trial_index":74,"time_elapsed":3035868,"internal_node_id":"0.0-4.0-1.33","subject_id":"5f25d8172b91b02b72277187","study_id":"60edd13110225f80f9f3709b","session_id":"6196c1f1c511dada402cdc81","condition":"full-information","relevant_dimensions":["antennae","wings"],"bee_group":{"antennae":"A","wings":"2","pattern":"X","legs":"X"},"bonus":1.0400000000000011},{"rt":1418.0999999977648,"stimulus":"bees-with-color/bee-A2DF.svg","response":1,"trial_type":"image-button-response","trial_index":75,"time_elapsed":3037287,"internal_node_id":"0.0-4.0-0.34","subject_id":"5f25d8172b91b02b72277187","study_id":"60edd13110225f80f9f3709b","session_id":"6196c1f1c511dada402cdc81","condition":"full-information","relevant_dimensions":["antennae","wings"],"bee_group":{"antennae":"A","wings":"2","pattern":"X","legs":"X"},"action":"avoid","summary":"good-avoid","bonus":1.0400000000000011},{"rt":705,"stimulus":"\n                    <p><b>Action: <em>avoid</em></b></p>\n                    <p>This is the bee that you just saw.</p>\n                    <img src=\"bees-with-color/bee-A2DF.svg\" width=\"200\">\n                    <p><span class=\"greenText\">Good choice!</span>  This bee would have stung you.<br>Your bonus pay is unchanged, and remains at $0.46.</p>\n            ","response":0,"trial_type":"html-button-response","trial_index":76,"time_elapsed":3037993,"internal_node_id":"0.0-4.0-1.34","subject_id":"5f25d8172b91b02b72277187","study_id":"60edd13110225f80f9f3709b","session_id":"6196c1f1c511dada402cdc81","condition":"full-information","relevant_dimensions":["antennae","wings"],"bee_group":{"antennae":"A","wings":"2","pattern":"X","legs":"X"},"bonus":1.0400000000000011},{"rt":1774.199999999255,"stimulus":"bees-with-color/bee-A1DF.svg","response":0,"trial_type":"image-button-response","trial_index":77,"time_elapsed":3039768,"internal_node_id":"0.0-4.0-0.35","subject_id":"5f25d8172b91b02b72277187","study_id":"60edd13110225f80f9f3709b","session_id":"6196c1f1c511dada402cdc81","condition":"full-information","relevant_dimensions":["antennae","wings"],"bee_group":{"antennae":"A","wings":"2","pattern":"X","legs":"X"},"action":"harvest","summary":"good-harvest","bonus":1.0400000000000011},{"rt":483.69999999925494,"stimulus":"\n                    <p><b>Action: <em>harvest</em></b></p>\n                    <p>This is the bee that you just saw.</p>\n                    <img src=\"bees-with-color/bee-A1DF.svg\" width=\"200\">\n                    <p><span class=\"greenText\"><b>Successful harvest!</b></span><br>Your pay has increased by $0.02. Your bonus pay is now $0.48.</p>\n            ","response":0,"trial_type":"html-button-response","trial_index":78,"time_elapsed":3040253,"internal_node_id":"0.0-4.0-1.35","subject_id":"5f25d8172b91b02b72277187","study_id":"60edd13110225f80f9f3709b","session_id":"6196c1f1c511dada402cdc81","condition":"full-information","relevant_dimensions":["antennae","wings"],"bee_group":{"antennae":"A","wings":"2","pattern":"X","legs":"X"},"bonus":1.0400000000000011},{"rt":3007.199999999255,"stimulus":"bees-with-color/bee-B2DM.svg","response":1,"trial_type":"image-button-response","trial_index":79,"time_elapsed":3043261,"internal_node_id":"0.0-4.0-0.36","subject_id":"5f25d8172b91b02b72277187","study_id":"60edd13110225f80f9f3709b","session_id":"6196c1f1c511dada402cdc81","condition":"full-information","relevant_dimensions":["antennae","wings"],"bee_group":{"antennae":"A","wings":"2","pattern":"X","legs":"X"},"action":"avoid","summary":"bad-avoid","bonus":1.0400000000000011},{"rt":543.5,"stimulus":"\n                    <p><b>Action: <em>avoid</em></b></p>\n                    <p>This is the bee that you just saw.</p>\n                    <img src=\"bees-with-color/bee-B2DM.svg\" width=\"200\">\n                    <p><span class=\"redText\">Bad choice,</span> the bee was friendly.<br>Your bonus pay is unchanged, and remains at $0.48.</p>\n            ","response":0,"trial_type":"html-button-response","trial_index":80,"time_elapsed":3043806,"internal_node_id":"0.0-4.0-1.36","subject_id":"5f25d8172b91b02b72277187","study_id":"60edd13110225f80f9f3709b","session_id":"6196c1f1c511dada402cdc81","condition":"full-information","relevant_dimensions":["antennae","wings"],"bee_group":{"antennae":"A","wings":"2","pattern":"X","legs":"X"},"bonus":1.0400000000000011},{"rt":1609.8999999985099,"stimulus":"bees-with-color/bee-A1DM.svg","response":0,"trial_type":"image-button-response","trial_index":81,"time_elapsed":3045417,"internal_node_id":"0.0-4.0-0.37","subject_id":"5f25d8172b91b02b72277187","study_id":"60edd13110225f80f9f3709b","session_id":"6196c1f1c511dada402cdc81","condition":"full-information","relevant_dimensions":["antennae","wings"],"bee_group":{"antennae":"A","wings":"2","pattern":"X","legs":"X"},"action":"harvest","summary":"good-harvest","bonus":1.0400000000000011},{"rt":520.6999999992549,"stimulus":"\n                    <p><b>Action: <em>harvest</em></b></p>\n                    <p>This is the bee that you just saw.</p>\n                    <img src=\"bees-with-color/bee-A1DM.svg\" width=\"200\">\n                    <p><span class=\"greenText\"><b>Successful harvest!</b></span><br>Your pay has increased by $0.02. Your bonus pay is now $0.50.</p>\n            ","response":0,"trial_type":"html-button-response","trial_index":82,"time_elapsed":3045939,"internal_node_id":"0.0-4.0-1.37","subject_id":"5f25d8172b91b02b72277187","study_id":"60edd13110225f80f9f3709b","session_id":"6196c1f1c511dada402cdc81","condition":"full-information","relevant_dimensions":["antennae","wings"],"bee_group":{"antennae":"A","wings":"2","pattern":"X","legs":"X"},"bonus":1.0400000000000011},{"rt":1818.8999999985099,"stimulus":"bees-with-color/bee-B2DF.svg","response":1,"trial_type":"image-button-response","trial_index":83,"time_elapsed":3047759,"internal_node_id":"0.0-4.0-0.38","subject_id":"5f25d8172b91b02b72277187","study_id":"60edd13110225f80f9f3709b","session_id":"6196c1f1c511dada402cdc81","condition":"full-information","relevant_dimensions":["antennae","wings"],"bee_group":{"antennae":"A","wings":"2","pattern":"X","legs":"X"},"action":"avoid","summary":"bad-avoid","bonus":1.0400000000000011},{"rt":766.6999999992549,"stimulus":"\n                    <p><b>Action: <em>avoid</em></b></p>\n                    <p>This is the bee that you just saw.</p>\n                    <img src=\"bees-with-color/bee-B2DF.svg\" width=\"200\">\n                    <p><span class=\"redText\">Bad choice,</span> the bee was friendly.<br>Your bonus pay is unchanged, and remains at $0.50.</p>\n            ","response":0,"trial_type":"html-button-response","trial_index":84,"time_elapsed":3048527,"internal_node_id":"0.0-4.0-1.38","subject_id":"5f25d8172b91b02b72277187","study_id":"60edd13110225f80f9f3709b","session_id":"6196c1f1c511dada402cdc81","condition":"full-information","relevant_dimensions":["antennae","wings"],"bee_group":{"antennae":"A","wings":"2","pattern":"X","legs":"X"},"bonus":1.0400000000000011},{"rt":1093,"stimulus":"bees-with-color/bee-A2SF.svg","response":1,"trial_type":"image-button-response","trial_index":85,"time_elapsed":3049621,"internal_node_id":"0.0-4.0-0.39","subject_id":"5f25d8172b91b02b72277187","study_id":"60edd13110225f80f9f3709b","session_id":"6196c1f1c511dada402cdc81","condition":"full-information","relevant_dimensions":["antennae","wings"],"bee_group":{"antennae":"A","wings":"2","pattern":"X","legs":"X"},"action":"avoid","summary":"good-avoid","bonus":1.0400000000000011},{"rt":636,"stimulus":"\n                    <p><b>Action: <em>avoid</em></b></p>\n                    <p>This is the bee that you just saw.</p>\n                    <img src=\"bees-with-color/bee-A2SF.svg\" width=\"200\">\n                    <p><span class=\"greenText\">Good choice!</span>  This bee would have stung you.<br>Your bonus pay is unchanged, and remains at $0.50.</p>\n            ","response":0,"trial_type":"html-button-response","trial_index":86,"time_elapsed":3050258,"internal_node_id":"0.0-4.0-1.39","subject_id":"5f25d8172b91b02b72277187","study_id":"60edd13110225f80f9f3709b","session_id":"6196c1f1c511dada402cdc81","condition":"full-information","relevant_dimensions":["antennae","wings"],"bee_group":{"antennae":"A","wings":"2","pattern":"X","legs":"X"},"bonus":1.0400000000000011},{"rt":924.1999999992549,"stimulus":"bees-with-color/bee-A2SM.svg","response":1,"trial_type":"image-button-response","trial_index":87,"time_elapsed":3051183,"internal_node_id":"0.0-4.0-0.40","subject_id":"5f25d8172b91b02b72277187","study_id":"60edd13110225f80f9f3709b","session_id":"6196c1f1c511dada402cdc81","condition":"full-information","relevant_dimensions":["antennae","wings"],"bee_group":{"antennae":"A","wings":"2","pattern":"X","legs":"X"},"action":"avoid","summary":"good-avoid","bonus":1.0400000000000011},{"rt":527,"stimulus":"\n                    <p><b>Action: <em>avoid</em></b></p>\n                    <p>This is the bee that you just saw.</p>\n                    <img src=\"bees-with-color/bee-A2SM.svg\" width=\"200\">\n                    <p><span class=\"greenText\">Good choice!</span>  This bee would have stung you.<br>Your bonus pay is unchanged, and remains at $0.50.</p>\n            ","response":0,"trial_type":"html-button-response","trial_index":88,"time_elapsed":3051711,"internal_node_id":"0.0-4.0-1.40","subject_id":"5f25d8172b91b02b72277187","study_id":"60edd13110225f80f9f3709b","session_id":"6196c1f1c511dada402cdc81","condition":"full-information","relevant_dimensions":["antennae","wings"],"bee_group":{"antennae":"A","wings":"2","pattern":"X","legs":"X"},"bonus":1.0400000000000011},{"rt":759.1000000014901,"stimulus":"bees-with-color/bee-B1SM.svg","response":0,"trial_type":"image-button-response","trial_index":89,"time_elapsed":3052471,"internal_node_id":"0.0-4.0-0.41","subject_id":"5f25d8172b91b02b72277187","study_id":"60edd13110225f80f9f3709b","session_id":"6196c1f1c511dada402cdc81","condition":"full-information","relevant_dimensions":["antennae","wings"],"bee_group":{"antennae":"A","wings":"2","pattern":"X","legs":"X"},"action":"harvest","summary":"good-harvest","bonus":1.0400000000000011},{"rt":504,"stimulus":"\n                    <p><b>Action: <em>harvest</em></b></p>\n                    <p>This is the bee that you just saw.</p>\n                    <img src=\"bees-with-color/bee-B1SM.svg\" width=\"200\">\n                    <p><span class=\"greenText\"><b>Successful harvest!</b></span><br>Your pay has increased by $0.02. Your bonus pay is now $0.52.</p>\n            ","response":0,"trial_type":"html-button-response","trial_index":90,"time_elapsed":3052976,"internal_node_id":"0.0-4.0-1.41","subject_id":"5f25d8172b91b02b72277187","study_id":"60edd13110225f80f9f3709b","session_id":"6196c1f1c511dada402cdc81","condition":"full-information","relevant_dimensions":["antennae","wings"],"bee_group":{"antennae":"A","wings":"2","pattern":"X","legs":"X"},"bonus":1.0400000000000011},{"rt":675,"stimulus":"bees-with-color/bee-B1DF.svg","response":0,"trial_type":"image-button-response","trial_index":91,"time_elapsed":3053652,"internal_node_id":"0.0-4.0-0.42","subject_id":"5f25d8172b91b02b72277187","study_id":"60edd13110225f80f9f3709b","session_id":"6196c1f1c511dada402cdc81","condition":"full-information","relevant_dimensions":["antennae","wings"],"bee_group":{"antennae":"A","wings":"2","pattern":"X","legs":"X"},"action":"harvest","summary":"good-harvest","bonus":1.0400000000000011},{"rt":512.1999999992549,"stimulus":"\n                    <p><b>Action: <em>harvest</em></b></p>\n                    <p>This is the bee that you just saw.</p>\n                    <img src=\"bees-with-color/bee-B1DF.svg\" width=\"200\">\n                    <p><span class=\"greenText\"><b>Successful harvest!</b></span><br>Your pay has increased by $0.02. Your bonus pay is now $0.54.</p>\n            ","response":0,"trial_type":"html-button-response","trial_index":92,"time_elapsed":3054165,"internal_node_id":"0.0-4.0-1.42","subject_id":"5f25d8172b91b02b72277187","study_id":"60edd13110225f80f9f3709b","session_id":"6196c1f1c511dada402cdc81","condition":"full-information","relevant_dimensions":["antennae","wings"],"bee_group":{"antennae":"A","wings":"2","pattern":"X","legs":"X"},"bonus":1.0400000000000011},{"rt":586,"stimulus":"bees-with-color/bee-B1SF.svg","response":0,"trial_type":"image-button-response","trial_index":93,"time_elapsed":3054752,"internal_node_id":"0.0-4.0-0.43","subject_id":"5f25d8172b91b02b72277187","study_id":"60edd13110225f80f9f3709b","session_id":"6196c1f1c511dada402cdc81","condition":"full-information","relevant_dimensions":["antennae","wings"],"bee_group":{"antennae":"A","wings":"2","pattern":"X","legs":"X"},"action":"harvest","summary":"good-harvest","bonus":1.0400000000000011},{"rt":458.19999999925494,"stimulus":"\n                    <p><b>Action: <em>harvest</em></b></p>\n                    <p>This is the bee that you just saw.</p>\n                    <img src=\"bees-with-color/bee-B1SF.svg\" width=\"200\">\n                    <p><span class=\"greenText\"><b>Successful harvest!</b></span><br>Your pay has increased by $0.02. Your bonus pay is now $0.56.</p>\n            ","response":0,"trial_type":"html-button-response","trial_index":94,"time_elapsed":3055211,"internal_node_id":"0.0-4.0-1.43","subject_id":"5f25d8172b91b02b72277187","study_id":"60edd13110225f80f9f3709b","session_id":"6196c1f1c511dada402cdc81","condition":"full-information","relevant_dimensions":["antennae","wings"],"bee_group":{"antennae":"A","wings":"2","pattern":"X","legs":"X"},"bonus":1.0400000000000011},{"rt":670.9000000022352,"stimulus":"bees-with-color/bee-A1SF.svg","response":0,"trial_type":"image-button-response","trial_index":95,"time_elapsed":3055883,"internal_node_id":"0.0-4.0-0.44","subject_id":"5f25d8172b91b02b72277187","study_id":"60edd13110225f80f9f3709b","session_id":"6196c1f1c511dada402cdc81","condition":"full-information","relevant_dimensions":["antennae","wings"],"bee_group":{"antennae":"A","wings":"2","pattern":"X","legs":"X"},"action":"harvest","summary":"good-harvest","bonus":1.0400000000000011},{"rt":436,"stimulus":"\n                    <p><b>Action: <em>harvest</em></b></p>\n                    <p>This is the bee that you just saw.</p>\n                    <img src=\"bees-with-color/bee-A1SF.svg\" width=\"200\">\n                    <p><span class=\"greenText\"><b>Successful harvest!</b></span><br>Your pay has increased by $0.02. Your bonus pay is now $0.58.</p>\n            ","response":0,"trial_type":"html-button-response","trial_index":96,"time_elapsed":3056320,"internal_node_id":"0.0-4.0-1.44","subject_id":"5f25d8172b91b02b72277187","study_id":"60edd13110225f80f9f3709b","session_id":"6196c1f1c511dada402cdc81","condition":"full-information","relevant_dimensions":["antennae","wings"],"bee_group":{"antennae":"A","wings":"2","pattern":"X","legs":"X"},"bonus":1.0400000000000011},{"rt":2373.099999997765,"stimulus":"bees-with-color/bee-A2DM.svg","response":1,"trial_type":"image-button-response","trial_index":97,"time_elapsed":3058694,"internal_node_id":"0.0-4.0-0.45","subject_id":"5f25d8172b91b02b72277187","study_id":"60edd13110225f80f9f3709b","session_id":"6196c1f1c511dada402cdc81","condition":"full-information","relevant_dimensions":["antennae","wings"],"bee_group":{"antennae":"A","wings":"2","pattern":"X","legs":"X"},"action":"avoid","summary":"good-avoid","bonus":1.0400000000000011},{"rt":1753,"stimulus":"\n                    <p><b>Action: <em>avoid</em></b></p>\n                    <p>This is the bee that you just saw.</p>\n                    <img src=\"bees-with-color/bee-A2DM.svg\" width=\"200\">\n                    <p><span class=\"greenText\">Good choice!</span>  This bee would have stung you.<br>Your bonus pay is unchanged, and remains at $0.58.</p>\n            ","response":0,"trial_type":"html-button-response","trial_index":98,"time_elapsed":3060448,"internal_node_id":"0.0-4.0-1.45","subject_id":"5f25d8172b91b02b72277187","study_id":"60edd13110225f80f9f3709b","session_id":"6196c1f1c511dada402cdc81","condition":"full-information","relevant_dimensions":["antennae","wings"],"bee_group":{"antennae":"A","wings":"2","pattern":"X","legs":"X"},"bonus":1.0400000000000011},{"rt":980.6999999992549,"stimulus":"bees-with-color/bee-B2SF.svg","response":1,"trial_type":"image-button-response","trial_index":99,"time_elapsed":3061430,"internal_node_id":"0.0-4.0-0.46","subject_id":"5f25d8172b91b02b72277187","study_id":"60edd13110225f80f9f3709b","session_id":"6196c1f1c511dada402cdc81","condition":"full-information","relevant_dimensions":["antennae","wings"],"bee_group":{"antennae":"A","wings":"2","pattern":"X","legs":"X"},"action":"avoid","summary":"bad-avoid","bonus":1.0400000000000011},{"rt":509.9000000022352,"stimulus":"\n                    <p><b>Action: <em>avoid</em></b></p>\n                    <p>This is the bee that you just saw.</p>\n                    <img src=\"bees-with-color/bee-B2SF.svg\" width=\"200\">\n                    <p><span class=\"redText\">Bad choice,</span> the bee was friendly.<br>Your bonus pay is unchanged, and remains at $0.58.</p>\n            ","response":0,"trial_type":"html-button-response","trial_index":100,"time_elapsed":3061941,"internal_node_id":"0.0-4.0-1.46","subject_id":"5f25d8172b91b02b72277187","study_id":"60edd13110225f80f9f3709b","session_id":"6196c1f1c511dada402cdc81","condition":"full-information","relevant_dimensions":["antennae","wings"],"bee_group":{"antennae":"A","wings":"2","pattern":"X","legs":"X"},"bonus":1.0400000000000011},{"rt":1640,"stimulus":"bees-with-color/bee-B1DM.svg","response":0,"trial_type":"image-button-response","trial_index":101,"time_elapsed":3063582,"internal_node_id":"0.0-4.0-0.47","subject_id":"5f25d8172b91b02b72277187","study_id":"60edd13110225f80f9f3709b","session_id":"6196c1f1c511dada402cdc81","condition":"full-information","relevant_dimensions":["antennae","wings"],"bee_group":{"antennae":"A","wings":"2","pattern":"X","legs":"X"},"action":"harvest","summary":"good-harvest","bonus":1.0400000000000011},{"rt":708,"stimulus":"\n                    <p><b>Action: <em>harvest</em></b></p>\n                    <p>This is the bee that you just saw.</p>\n                    <img src=\"bees-with-color/bee-B1DM.svg\" width=\"200\">\n                    <p><span class=\"greenText\"><b>Successful harvest!</b></span><br>Your pay has increased by $0.02. Your bonus pay is now $0.60.</p>\n            ","response":0,"trial_type":"html-button-response","trial_index":102,"time_elapsed":3064291,"internal_node_id":"0.0-4.0-1.47","subject_id":"5f25d8172b91b02b72277187","study_id":"60edd13110225f80f9f3709b","session_id":"6196c1f1c511dada402cdc81","condition":"full-information","relevant_dimensions":["antennae","wings"],"bee_group":{"antennae":"A","wings":"2","pattern":"X","legs":"X"},"bonus":1.0400000000000011},{"rt":626.8999999985099,"stimulus":"bees-with-color/bee-A1DM.svg","response":0,"trial_type":"image-button-response","trial_index":103,"time_elapsed":3064919,"internal_node_id":"0.0-4.0-0.48","subject_id":"5f25d8172b91b02b72277187","study_id":"60edd13110225f80f9f3709b","session_id":"6196c1f1c511dada402cdc81","condition":"full-information","relevant_dimensions":["antennae","wings"],"bee_group":{"antennae":"A","wings":"2","pattern":"X","legs":"X"},"action":"harvest","summary":"good-harvest","bonus":1.0400000000000011},{"rt":465.1000000014901,"stimulus":"\n                    <p><b>Action: <em>harvest</em></b></p>\n                    <p>This is the bee that you just saw.</p>\n                    <img src=\"bees-with-color/bee-A1DM.svg\" width=\"200\">\n                    <p><span class=\"greenText\"><b>Successful harvest!</b></span><br>Your pay has increased by $0.02. Your bonus pay is now $0.62.</p>\n            ","response":0,"trial_type":"html-button-response","trial_index":104,"time_elapsed":3065385,"internal_node_id":"0.0-4.0-1.48","subject_id":"5f25d8172b91b02b72277187","study_id":"60edd13110225f80f9f3709b","session_id":"6196c1f1c511dada402cdc81","condition":"full-information","relevant_dimensions":["antennae","wings"],"bee_group":{"antennae":"A","wings":"2","pattern":"X","legs":"X"},"bonus":1.0400000000000011},{"rt":1656.6000000014901,"stimulus":"bees-with-color/bee-B2SM.svg","response":1,"trial_type":"image-button-response","trial_index":105,"time_elapsed":3067043,"internal_node_id":"0.0-4.0-0.49","subject_id":"5f25d8172b91b02b72277187","study_id":"60edd13110225f80f9f3709b","session_id":"6196c1f1c511dada402cdc81","condition":"full-information","relevant_dimensions":["antennae","wings"],"bee_group":{"antennae":"A","wings":"2","pattern":"X","legs":"X"},"action":"avoid","summary":"bad-avoid","bonus":1.0400000000000011},{"rt":1309.1000000014901,"stimulus":"\n                    <p><b>Action: <em>avoid</em></b></p>\n                    <p>This is the bee that you just saw.</p>\n                    <img src=\"bees-with-color/bee-B2SM.svg\" width=\"200\">\n                    <p><span class=\"redText\">Bad choice,</span> the bee was friendly.<br>Your bonus pay is unchanged, and remains at $0.62.</p>\n            ","response":0,"trial_type":"html-button-response","trial_index":106,"time_elapsed":3068353,"internal_node_id":"0.0-4.0-1.49","subject_id":"5f25d8172b91b02b72277187","study_id":"60edd13110225f80f9f3709b","session_id":"6196c1f1c511dada402cdc81","condition":"full-information","relevant_dimensions":["antennae","wings"],"bee_group":{"antennae":"A","wings":"2","pattern":"X","legs":"X"},"bonus":1.0400000000000011},{"rt":4314.900000002235,"stimulus":"bees-with-color/bee-A2DF.svg","response":1,"trial_type":"image-button-response","trial_index":107,"time_elapsed":3072669,"internal_node_id":"0.0-4.0-0.50","subject_id":"5f25d8172b91b02b72277187","study_id":"60edd13110225f80f9f3709b","session_id":"6196c1f1c511dada402cdc81","condition":"full-information","relevant_dimensions":["antennae","wings"],"bee_group":{"antennae":"A","wings":"2","pattern":"X","legs":"X"},"action":"avoid","summary":"good-avoid","bonus":1.0400000000000011},{"rt":521.1999999992549,"stimulus":"\n                    <p><b>Action: <em>avoid</em></b></p>\n                    <p>This is the bee that you just saw.</p>\n                    <img src=\"bees-with-color/bee-A2DF.svg\" width=\"200\">\n                    <p><span class=\"greenText\">Good choice!</span>  This bee would have stung you.<br>Your bonus pay is unchanged, and remains at $0.62.</p>\n            ","response":0,"trial_type":"html-button-response","trial_index":108,"time_elapsed":3073191,"internal_node_id":"0.0-4.0-1.50","subject_id":"5f25d8172b91b02b72277187","study_id":"60edd13110225f80f9f3709b","session_id":"6196c1f1c511dada402cdc81","condition":"full-information","relevant_dimensions":["antennae","wings"],"bee_group":{"antennae":"A","wings":"2","pattern":"X","legs":"X"},"bonus":1.0400000000000011},{"rt":845.7999999970198,"stimulus":"bees-with-color/bee-A1DF.svg","response":0,"trial_type":"image-button-response","trial_index":109,"time_elapsed":3074038,"internal_node_id":"0.0-4.0-0.51","subject_id":"5f25d8172b91b02b72277187","study_id":"60edd13110225f80f9f3709b","session_id":"6196c1f1c511dada402cdc81","condition":"full-information","relevant_dimensions":["antennae","wings"],"bee_group":{"antennae":"A","wings":"2","pattern":"X","legs":"X"},"action":"harvest","summary":"good-harvest","bonus":1.0400000000000011},{"rt":628,"stimulus":"\n                    <p><b>Action: <em>harvest</em></b></p>\n                    <p>This is the bee that you just saw.</p>\n                    <img src=\"bees-with-color/bee-A1DF.svg\" width=\"200\">\n                    <p><span class=\"greenText\"><b>Successful harvest!</b></span><br>Your pay has increased by $0.02. Your bonus pay is now $0.64.</p>\n            ","response":0,"trial_type":"html-button-response","trial_index":110,"time_elapsed":3074667,"internal_node_id":"0.0-4.0-1.51","subject_id":"5f25d8172b91b02b72277187","study_id":"60edd13110225f80f9f3709b","session_id":"6196c1f1c511dada402cdc81","condition":"full-information","relevant_dimensions":["antennae","wings"],"bee_group":{"antennae":"A","wings":"2","pattern":"X","legs":"X"},"bonus":1.0400000000000011},{"rt":3567.199999999255,"stimulus":"bees-with-color/bee-B2DM.svg","response":0,"trial_type":"image-button-response","trial_index":111,"time_elapsed":3078235,"internal_node_id":"0.0-4.0-0.52","subject_id":"5f25d8172b91b02b72277187","study_id":"60edd13110225f80f9f3709b","session_id":"6196c1f1c511dada402cdc81","condition":"full-information","relevant_dimensions":["antennae","wings"],"bee_group":{"antennae":"A","wings":"2","pattern":"X","legs":"X"},"action":"harvest","summary":"good-harvest","bonus":1.0400000000000011},{"rt":633.1000000014901,"stimulus":"\n                    <p><b>Action: <em>harvest</em></b></p>\n                    <p>This is the bee that you just saw.</p>\n                    <img src=\"bees-with-color/bee-B2DM.svg\" width=\"200\">\n                    <p><span class=\"greenText\"><b>Successful harvest!</b></span><br>Your pay has increased by $0.02. Your bonus pay is now $0.66.</p>\n            ","response":0,"trial_type":"html-button-response","trial_index":112,"time_elapsed":3078869,"internal_node_id":"0.0-4.0-1.52","subject_id":"5f25d8172b91b02b72277187","study_id":"60edd13110225f80f9f3709b","session_id":"6196c1f1c511dada402cdc81","condition":"full-information","relevant_dimensions":["antennae","wings"],"bee_group":{"antennae":"A","wings":"2","pattern":"X","legs":"X"},"bonus":1.0400000000000011},{"rt":1362.7999999970198,"stimulus":"bees-with-color/bee-B2DF.svg","response":1,"trial_type":"image-button-response","trial_index":113,"time_elapsed":3080233,"internal_node_id":"0.0-4.0-0.53","subject_id":"5f25d8172b91b02b72277187","study_id":"60edd13110225f80f9f3709b","session_id":"6196c1f1c511dada402cdc81","condition":"full-information","relevant_dimensions":["antennae","wings"],"bee_group":{"antennae":"A","wings":"2","pattern":"X","legs":"X"},"action":"avoid","summary":"bad-avoid","bonus":1.0400000000000011},{"rt":782.0999999977648,"stimulus":"\n                    <p><b>Action: <em>avoid</em></b></p>\n                    <p>This is the bee that you just saw.</p>\n                    <img src=\"bees-with-color/bee-B2DF.svg\" width=\"200\">\n                    <p><span class=\"redText\">Bad choice,</span> the bee was friendly.<br>Your bonus pay is unchanged, and remains at $0.66.</p>\n            ","response":0,"trial_type":"html-button-response","trial_index":114,"time_elapsed":3081016,"internal_node_id":"0.0-4.0-1.53","subject_id":"5f25d8172b91b02b72277187","study_id":"60edd13110225f80f9f3709b","session_id":"6196c1f1c511dada402cdc81","condition":"full-information","relevant_dimensions":["antennae","wings"],"bee_group":{"antennae":"A","wings":"2","pattern":"X","legs":"X"},"bonus":1.0400000000000011},{"rt":2678,"stimulus":"bees-with-color/bee-A1SF.svg","response":0,"trial_type":"image-button-response","trial_index":115,"time_elapsed":3083695,"internal_node_id":"0.0-4.0-0.54","subject_id":"5f25d8172b91b02b72277187","study_id":"60edd13110225f80f9f3709b","session_id":"6196c1f1c511dada402cdc81","condition":"full-information","relevant_dimensions":["antennae","wings"],"bee_group":{"antennae":"A","wings":"2","pattern":"X","legs":"X"},"action":"harvest","summary":"good-harvest","bonus":1.0400000000000011},{"rt":448.0999999977648,"stimulus":"\n                    <p><b>Action: <em>harvest</em></b></p>\n                    <p>This is the bee that you just saw.</p>\n                    <img src=\"bees-with-color/bee-A1SF.svg\" width=\"200\">\n                    <p><span class=\"greenText\"><b>Successful harvest!</b></span><br>Your pay has increased by $0.02. Your bonus pay is now $0.68.</p>\n            ","response":0,"trial_type":"html-button-response","trial_index":116,"time_elapsed":3084144,"internal_node_id":"0.0-4.0-1.54","subject_id":"5f25d8172b91b02b72277187","study_id":"60edd13110225f80f9f3709b","session_id":"6196c1f1c511dada402cdc81","condition":"full-information","relevant_dimensions":["antennae","wings"],"bee_group":{"antennae":"A","wings":"2","pattern":"X","legs":"X"},"bonus":1.0400000000000011},{"rt":3092.7999999970198,"stimulus":"bees-with-color/bee-A2SM.svg","response":1,"trial_type":"image-button-response","trial_index":117,"time_elapsed":3087238,"internal_node_id":"0.0-4.0-0.55","subject_id":"5f25d8172b91b02b72277187","study_id":"60edd13110225f80f9f3709b","session_id":"6196c1f1c511dada402cdc81","condition":"full-information","relevant_dimensions":["antennae","wings"],"bee_group":{"antennae":"A","wings":"2","pattern":"X","legs":"X"},"action":"avoid","summary":"good-avoid","bonus":1.0400000000000011},{"rt":980,"stimulus":"\n                    <p><b>Action: <em>avoid</em></b></p>\n                    <p>This is the bee that you just saw.</p>\n                    <img src=\"bees-with-color/bee-A2SM.svg\" width=\"200\">\n                    <p><span class=\"greenText\">Good choice!</span>  This bee would have stung you.<br>Your bonus pay is unchanged, and remains at $0.68.</p>\n            ","response":0,"trial_type":"html-button-response","trial_index":118,"time_elapsed":3088219,"internal_node_id":"0.0-4.0-1.55","subject_id":"5f25d8172b91b02b72277187","study_id":"60edd13110225f80f9f3709b","session_id":"6196c1f1c511dada402cdc81","condition":"full-information","relevant_dimensions":["antennae","wings"],"bee_group":{"antennae":"A","wings":"2","pattern":"X","legs":"X"},"bonus":1.0400000000000011},{"rt":662.7999999970198,"stimulus":"bees-with-color/bee-B1SF.svg","response":0,"trial_type":"image-button-response","trial_index":119,"time_elapsed":3088883,"internal_node_id":"0.0-4.0-0.56","subject_id":"5f25d8172b91b02b72277187","study_id":"60edd13110225f80f9f3709b","session_id":"6196c1f1c511dada402cdc81","condition":"full-information","relevant_dimensions":["antennae","wings"],"bee_group":{"antennae":"A","wings":"2","pattern":"X","legs":"X"},"action":"harvest","summary":"good-harvest","bonus":1.0400000000000011},{"rt":389,"stimulus":"\n                    <p><b>Action: <em>harvest</em></b></p>\n                    <p>This is the bee that you just saw.</p>\n                    <img src=\"bees-with-color/bee-B1SF.svg\" width=\"200\">\n                    <p><span class=\"greenText\"><b>Successful harvest!</b></span><br>Your pay has increased by $0.02. Your bonus pay is now $0.70.</p>\n            ","response":0,"trial_type":"html-button-response","trial_index":120,"time_elapsed":3089273,"internal_node_id":"0.0-4.0-1.56","subject_id":"5f25d8172b91b02b72277187","study_id":"60edd13110225f80f9f3709b","session_id":"6196c1f1c511dada402cdc81","condition":"full-information","relevant_dimensions":["antennae","wings"],"bee_group":{"antennae":"A","wings":"2","pattern":"X","legs":"X"},"bonus":1.0400000000000011},{"rt":441.79999999701977,"stimulus":"bees-with-color/bee-B1DF.svg","response":0,"trial_type":"image-button-response","trial_index":121,"time_elapsed":3089716,"internal_node_id":"0.0-4.0-0.57","subject_id":"5f25d8172b91b02b72277187","study_id":"60edd13110225f80f9f3709b","session_id":"6196c1f1c511dada402cdc81","condition":"full-information","relevant_dimensions":["antennae","wings"],"bee_group":{"antennae":"A","wings":"2","pattern":"X","legs":"X"},"action":"harvest","summary":"good-harvest","bonus":1.0400000000000011},{"rt":426.9000000022352,"stimulus":"\n                    <p><b>Action: <em>harvest</em></b></p>\n                    <p>This is the bee that you just saw.</p>\n                    <img src=\"bees-with-color/bee-B1DF.svg\" width=\"200\">\n                    <p><span class=\"greenText\"><b>Successful harvest!</b></span><br>Your pay has increased by $0.02. Your bonus pay is now $0.72.</p>\n            ","response":0,"trial_type":"html-button-response","trial_index":122,"time_elapsed":3090144,"internal_node_id":"0.0-4.0-1.57","subject_id":"5f25d8172b91b02b72277187","study_id":"60edd13110225f80f9f3709b","session_id":"6196c1f1c511dada402cdc81","condition":"full-information","relevant_dimensions":["antennae","wings"],"bee_group":{"antennae":"A","wings":"2","pattern":"X","legs":"X"},"bonus":1.0400000000000011},{"rt":443.0999999977648,"stimulus":"bees-with-color/bee-B1DM.svg","response":0,"trial_type":"image-button-response","trial_index":123,"time_elapsed":3090588,"internal_node_id":"0.0-4.0-0.58","subject_id":"5f25d8172b91b02b72277187","study_id":"60edd13110225f80f9f3709b","session_id":"6196c1f1c511dada402cdc81","condition":"full-information","relevant_dimensions":["antennae","wings"],"bee_group":{"antennae":"A","wings":"2","pattern":"X","legs":"X"},"action":"harvest","summary":"good-harvest","bonus":1.0400000000000011},{"rt":395.8999999985099,"stimulus":"\n                    <p><b>Action: <em>harvest</em></b></p>\n                    <p>This is the bee that you just saw.</p>\n                    <img src=\"bees-with-color/bee-B1DM.svg\" width=\"200\">\n                    <p><span class=\"greenText\"><b>Successful harvest!</b></span><br>Your pay has increased by $0.02. Your bonus pay is now $0.74.</p>\n            ","response":0,"trial_type":"html-button-response","trial_index":124,"time_elapsed":3090985,"internal_node_id":"0.0-4.0-1.58","subject_id":"5f25d8172b91b02b72277187","study_id":"60edd13110225f80f9f3709b","session_id":"6196c1f1c511dada402cdc81","condition":"full-information","relevant_dimensions":["antennae","wings"],"bee_group":{"antennae":"A","wings":"2","pattern":"X","legs":"X"},"bonus":1.0400000000000011},{"rt":635.8999999985099,"stimulus":"bees-with-color/bee-A1SM.svg","response":0,"trial_type":"image-button-response","trial_index":125,"time_elapsed":3091622,"internal_node_id":"0.0-4.0-0.59","subject_id":"5f25d8172b91b02b72277187","study_id":"60edd13110225f80f9f3709b","session_id":"6196c1f1c511dada402cdc81","condition":"full-information","relevant_dimensions":["antennae","wings"],"bee_group":{"antennae":"A","wings":"2","pattern":"X","legs":"X"},"action":"harvest","summary":"good-harvest","bonus":1.0400000000000011},{"rt":429.8999999985099,"stimulus":"\n                    <p><b>Action: <em>harvest</em></b></p>\n                    <p>This is the bee that you just saw.</p>\n                    <img src=\"bees-with-color/bee-A1SM.svg\" width=\"200\">\n                    <p><span class=\"greenText\"><b>Successful harvest!</b></span><br>Your pay has increased by $0.02. Your bonus pay is now $0.76.</p>\n            ","response":0,"trial_type":"html-button-response","trial_index":126,"time_elapsed":3092053,"internal_node_id":"0.0-4.0-1.59","subject_id":"5f25d8172b91b02b72277187","study_id":"60edd13110225f80f9f3709b","session_id":"6196c1f1c511dada402cdc81","condition":"full-information","relevant_dimensions":["antennae","wings"],"bee_group":{"antennae":"A","wings":"2","pattern":"X","legs":"X"},"bonus":1.0400000000000011},{"rt":3571.10000000149,"stimulus":"bees-with-color/bee-A2DM.svg","response":0,"trial_type":"image-button-response","trial_index":127,"time_elapsed":3095625,"internal_node_id":"0.0-4.0-0.60","subject_id":"5f25d8172b91b02b72277187","study_id":"60edd13110225f80f9f3709b","session_id":"6196c1f1c511dada402cdc81","condition":"full-information","relevant_dimensions":["antennae","wings"],"bee_group":{"antennae":"A","wings":"2","pattern":"X","legs":"X"},"action":"harvest","summary":"bad-harvest","bonus":1.0400000000000011},{"rt":1686,"stimulus":"\n                    <p><b>Action: <em>harvest</em></b></p>\n                    <p>This is the bee that you just saw.</p>\n                    <img src=\"bees-with-color/bee-A2DM.svg\" width=\"200\">\n                    <p><span class=\"redText\">Bad choice, the bee was angry.</span><br><b>You have been stung!</b><br>Your pay has been decreased by $0.10. Your bonus pay is now $0.66.</p>\n            ","response":0,"trial_type":"html-button-response","trial_index":128,"time_elapsed":3097312,"internal_node_id":"0.0-4.0-1.60","subject_id":"5f25d8172b91b02b72277187","study_id":"60edd13110225f80f9f3709b","session_id":"6196c1f1c511dada402cdc81","condition":"full-information","relevant_dimensions":["antennae","wings"],"bee_group":{"antennae":"A","wings":"2","pattern":"X","legs":"X"},"bonus":1.0400000000000011},{"rt":2644.89999999851,"stimulus":"bees-with-color/bee-B2SF.svg","response":1,"trial_type":"image-button-response","trial_index":129,"time_elapsed":3099958,"internal_node_id":"0.0-4.0-0.61","subject_id":"5f25d8172b91b02b72277187","study_id":"60edd13110225f80f9f3709b","session_id":"6196c1f1c511dada402cdc81","condition":"full-information","relevant_dimensions":["antennae","wings"],"bee_group":{"antennae":"A","wings":"2","pattern":"X","legs":"X"},"action":"avoid","summary":"bad-avoid","bonus":1.0400000000000011},{"rt":891,"stimulus":"\n                    <p><b>Action: <em>avoid</em></b></p>\n                    <p>This is the bee that you just saw.</p>\n                    <img src=\"bees-with-color/bee-B2SF.svg\" width=\"200\">\n                    <p><span class=\"redText\">Bad choice,</span> the bee was friendly.<br>Your bonus pay is unchanged, and remains at $0.66.</p>\n            ","response":0,"trial_type":"html-button-response","trial_index":130,"time_elapsed":3100850,"internal_node_id":"0.0-4.0-1.61","subject_id":"5f25d8172b91b02b72277187","study_id":"60edd13110225f80f9f3709b","session_id":"6196c1f1c511dada402cdc81","condition":"full-information","relevant_dimensions":["antennae","wings"],"bee_group":{"antennae":"A","wings":"2","pattern":"X","legs":"X"},"bonus":1.0400000000000011},{"rt":2109.199999999255,"stimulus":"bees-with-color/bee-A2SF.svg","response":1,"trial_type":"image-button-response","trial_index":131,"time_elapsed":3102960,"internal_node_id":"0.0-4.0-0.62","subject_id":"5f25d8172b91b02b72277187","study_id":"60edd13110225f80f9f3709b","session_id":"6196c1f1c511dada402cdc81","condition":"full-information","relevant_dimensions":["antennae","wings"],"bee_group":{"antennae":"A","wings":"2","pattern":"X","legs":"X"},"action":"avoid","summary":"good-avoid","bonus":1.0400000000000011},{"rt":709,"stimulus":"\n                    <p><b>Action: <em>avoid</em></b></p>\n                    <p>This is the bee that you just saw.</p>\n                    <img src=\"bees-with-color/bee-A2SF.svg\" width=\"200\">\n                    <p><span class=\"greenText\">Good choice!</span>  This bee would have stung you.<br>Your bonus pay is unchanged, and remains at $0.66.</p>\n            ","response":0,"trial_type":"html-button-response","trial_index":132,"time_elapsed":3103670,"internal_node_id":"0.0-4.0-1.62","subject_id":"5f25d8172b91b02b72277187","study_id":"60edd13110225f80f9f3709b","session_id":"6196c1f1c511dada402cdc81","condition":"full-information","relevant_dimensions":["antennae","wings"],"bee_group":{"antennae":"A","wings":"2","pattern":"X","legs":"X"},"bonus":1.0400000000000011},{"rt":734.8999999985099,"stimulus":"bees-with-color/bee-B1SM.svg","response":0,"trial_type":"image-button-response","trial_index":133,"time_elapsed":3104406,"internal_node_id":"0.0-4.0-0.63","subject_id":"5f25d8172b91b02b72277187","study_id":"60edd13110225f80f9f3709b","session_id":"6196c1f1c511dada402cdc81","condition":"full-information","relevant_dimensions":["antennae","wings"],"bee_group":{"antennae":"A","wings":"2","pattern":"X","legs":"X"},"action":"harvest","summary":"good-harvest","bonus":1.0400000000000011},{"rt":372,"stimulus":"\n                    <p><b>Action: <em>harvest</em></b></p>\n                    <p>This is the bee that you just saw.</p>\n                    <img src=\"bees-with-color/bee-B1SM.svg\" width=\"200\">\n                    <p><span class=\"greenText\"><b>Successful harvest!</b></span><br>Your pay has increased by $0.02. Your bonus pay is now $0.68.</p>\n            ","response":0,"trial_type":"html-button-response","trial_index":134,"time_elapsed":3104779,"internal_node_id":"0.0-4.0-1.63","subject_id":"5f25d8172b91b02b72277187","study_id":"60edd13110225f80f9f3709b","session_id":"6196c1f1c511dada402cdc81","condition":"full-information","relevant_dimensions":["antennae","wings"],"bee_group":{"antennae":"A","wings":"2","pattern":"X","legs":"X"},"bonus":1.0400000000000011},{"rt":3694.800000000745,"stimulus":"You have completed the first part of this experiment.<br><br>You will now begin a shorter second part, in which you will receive no feedback.<br>The same rules regarding bonus pay apply.<br><br>Press any key to begin.","response":" ","trial_type":"html-keyboard-response","trial_index":135,"time_elapsed":3108475,"internal_node_id":"0.0-5.0","subject_id":"5f25d8172b91b02b72277187","study_id":"60edd13110225f80f9f3709b","session_id":"6196c1f1c511dada402cdc81","condition":"full-information","relevant_dimensions":["antennae","wings"],"bee_group":{"antennae":"A","wings":"2","pattern":"X","legs":"X"},"bonus":1.0400000000000011},{"rt":2621.60000000149,"stimulus":"bees-with-color/bee-A1DM.svg","response":0,"trial_type":"image-button-response","trial_index":136,"time_elapsed":3111102,"internal_node_id":"0.0-6.0-0.0","subject_id":"5f25d8172b91b02b72277187","study_id":"60edd13110225f80f9f3709b","session_id":"6196c1f1c511dada402cdc81","condition":"full-information","relevant_dimensions":["antennae","wings"],"bee_group":{"antennae":"A","wings":"2","pattern":"X","legs":"X"},"bonus":1.0400000000000011},{"rt":2385.199999999255,"stimulus":"bees-with-color/bee-B1SM.svg","response":0,"trial_type":"image-button-response","trial_index":137,"time_elapsed":3113489,"internal_node_id":"0.0-6.0-0.1","subject_id":"5f25d8172b91b02b72277187","study_id":"60edd13110225f80f9f3709b","session_id":"6196c1f1c511dada402cdc81","condition":"full-information","relevant_dimensions":["antennae","wings"],"bee_group":{"antennae":"A","wings":"2","pattern":"X","legs":"X"},"bonus":1.0400000000000011},{"rt":876.3999999985099,"stimulus":"bees-with-color/bee-B1DM.svg","response":0,"trial_type":"image-button-response","trial_index":138,"time_elapsed":3114367,"internal_node_id":"0.0-6.0-0.2","subject_id":"5f25d8172b91b02b72277187","study_id":"60edd13110225f80f9f3709b","session_id":"6196c1f1c511dada402cdc81","condition":"full-information","relevant_dimensions":["antennae","wings"],"bee_group":{"antennae":"A","wings":"2","pattern":"X","legs":"X"},"bonus":1.0400000000000011},{"rt":905.3000000007451,"stimulus":"bees-with-color/bee-B1DF.svg","response":0,"trial_type":"image-button-response","trial_index":139,"time_elapsed":3115274,"internal_node_id":"0.0-6.0-0.3","subject_id":"5f25d8172b91b02b72277187","study_id":"60edd13110225f80f9f3709b","session_id":"6196c1f1c511dada402cdc81","condition":"full-information","relevant_dimensions":["antennae","wings"],"bee_group":{"antennae":"A","wings":"2","pattern":"X","legs":"X"},"bonus":1.0400000000000011},{"rt":666.6999999992549,"stimulus":"bees-with-color/bee-B1SF.svg","response":0,"trial_type":"image-button-response","trial_index":140,"time_elapsed":3115942,"internal_node_id":"0.0-6.0-0.4","subject_id":"5f25d8172b91b02b72277187","study_id":"60edd13110225f80f9f3709b","session_id":"6196c1f1c511dada402cdc81","condition":"full-information","relevant_dimensions":["antennae","wings"],"bee_group":{"antennae":"A","wings":"2","pattern":"X","legs":"X"},"bonus":1.0400000000000011},{"rt":5993.39999999851,"stimulus":"bees-with-color/bee-A2SF.svg","response":1,"trial_type":"image-button-response","trial_index":141,"time_elapsed":3121937,"internal_node_id":"0.0-6.0-0.5","subject_id":"5f25d8172b91b02b72277187","study_id":"60edd13110225f80f9f3709b","session_id":"6196c1f1c511dada402cdc81","condition":"full-information","relevant_dimensions":["antennae","wings"],"bee_group":{"antennae":"A","wings":"2","pattern":"X","legs":"X"},"bonus":1.0400000000000011},{"rt":1616.199999999255,"stimulus":"bees-with-color/bee-B2SM.svg","response":0,"trial_type":"image-button-response","trial_index":142,"time_elapsed":3123555,"internal_node_id":"0.0-6.0-0.6","subject_id":"5f25d8172b91b02b72277187","study_id":"60edd13110225f80f9f3709b","session_id":"6196c1f1c511dada402cdc81","condition":"full-information","relevant_dimensions":["antennae","wings"],"bee_group":{"antennae":"A","wings":"2","pattern":"X","legs":"X"},"bonus":1.0400000000000011},{"rt":4104.5,"stimulus":"bees-with-color/bee-A2SM.svg","response":1,"trial_type":"image-button-response","trial_index":143,"time_elapsed":3127661,"internal_node_id":"0.0-6.0-0.7","subject_id":"5f25d8172b91b02b72277187","study_id":"60edd13110225f80f9f3709b","session_id":"6196c1f1c511dada402cdc81","condition":"full-information","relevant_dimensions":["antennae","wings"],"bee_group":{"antennae":"A","wings":"2","pattern":"X","legs":"X"},"bonus":1.0400000000000011},{"rt":2424.300000000745,"stimulus":"bees-with-color/bee-B2SF.svg","response":0,"trial_type":"image-button-response","trial_index":144,"time_elapsed":3130087,"internal_node_id":"0.0-6.0-0.8","subject_id":"5f25d8172b91b02b72277187","study_id":"60edd13110225f80f9f3709b","session_id":"6196c1f1c511dada402cdc81","condition":"full-information","relevant_dimensions":["antennae","wings"],"bee_group":{"antennae":"A","wings":"2","pattern":"X","legs":"X"},"bonus":1.0400000000000011},{"rt":643.4000000022352,"stimulus":"bees-with-color/bee-A1SF.svg","response":0,"trial_type":"image-button-response","trial_index":145,"time_elapsed":3130732,"internal_node_id":"0.0-6.0-0.9","subject_id":"5f25d8172b91b02b72277187","study_id":"60edd13110225f80f9f3709b","session_id":"6196c1f1c511dada402cdc81","condition":"full-information","relevant_dimensions":["antennae","wings"],"bee_group":{"antennae":"A","wings":"2","pattern":"X","legs":"X"},"bonus":1.0400000000000011},{"rt":3789.699999999255,"stimulus":"bees-with-color/bee-B2DM.svg","response":0,"trial_type":"image-button-response","trial_index":146,"time_elapsed":3134523,"internal_node_id":"0.0-6.0-0.10","subject_id":"5f25d8172b91b02b72277187","study_id":"60edd13110225f80f9f3709b","session_id":"6196c1f1c511dada402cdc81","condition":"full-information","relevant_dimensions":["antennae","wings"],"bee_group":{"antennae":"A","wings":"2","pattern":"X","legs":"X"},"bonus":1.0400000000000011},{"rt":2141.39999999851,"stimulus":"bees-with-color/bee-B2DF.svg","response":0,"trial_type":"image-button-response","trial_index":147,"time_elapsed":3136666,"internal_node_id":"0.0-6.0-0.11","subject_id":"5f25d8172b91b02b72277187","study_id":"60edd13110225f80f9f3709b","session_id":"6196c1f1c511dada402cdc81","condition":"full-information","relevant_dimensions":["antennae","wings"],"bee_group":{"antennae":"A","wings":"2","pattern":"X","legs":"X"},"bonus":1.0400000000000011},{"rt":665.5,"stimulus":"bees-with-color/bee-A1SM.svg","response":0,"trial_type":"image-button-response","trial_index":148,"time_elapsed":3137333,"internal_node_id":"0.0-6.0-0.12","subject_id":"5f25d8172b91b02b72277187","study_id":"60edd13110225f80f9f3709b","session_id":"6196c1f1c511dada402cdc81","condition":"full-information","relevant_dimensions":["antennae","wings"],"bee_group":{"antennae":"A","wings":"2","pattern":"X","legs":"X"},"bonus":1.0400000000000011},{"rt":2125.60000000149,"stimulus":"bees-with-color/bee-A2DF.svg","response":1,"trial_type":"image-button-response","trial_index":149,"time_elapsed":3139460,"internal_node_id":"0.0-6.0-0.13","subject_id":"5f25d8172b91b02b72277187","study_id":"60edd13110225f80f9f3709b","session_id":"6196c1f1c511dada402cdc81","condition":"full-information","relevant_dimensions":["antennae","wings"],"bee_group":{"antennae":"A","wings":"2","pattern":"X","legs":"X"},"bonus":1.0400000000000011},{"rt":1691.699999999255,"stimulus":"bees-with-color/bee-A2DM.svg","response":1,"trial_type":"image-button-response","trial_index":150,"time_elapsed":3141153,"internal_node_id":"0.0-6.0-0.14","subject_id":"5f25d8172b91b02b72277187","study_id":"60edd13110225f80f9f3709b","session_id":"6196c1f1c511dada402cdc81","condition":"full-information","relevant_dimensions":["antennae","wings"],"bee_group":{"antennae":"A","wings":"2","pattern":"X","legs":"X"},"bonus":1.0400000000000011},{"rt":1837.5,"stimulus":"bees-with-color/bee-A1DF.svg","response":0,"trial_type":"image-button-response","trial_index":151,"time_elapsed":3142992,"internal_node_id":"0.0-6.0-0.15","subject_id":"5f25d8172b91b02b72277187","study_id":"60edd13110225f80f9f3709b","session_id":"6196c1f1c511dada402cdc81","condition":"full-information","relevant_dimensions":["antennae","wings"],"bee_group":{"antennae":"A","wings":"2","pattern":"X","legs":"X"},"bonus":1.0400000000000011},{"rt":479,"stimulus":"bees-with-color/bee-B1SF.svg","response":0,"trial_type":"image-button-response","trial_index":152,"time_elapsed":3143472,"internal_node_id":"0.0-6.0-0.16","subject_id":"5f25d8172b91b02b72277187","study_id":"60edd13110225f80f9f3709b","session_id":"6196c1f1c511dada402cdc81","condition":"full-information","relevant_dimensions":["antennae","wings"],"bee_group":{"antennae":"A","wings":"2","pattern":"X","legs":"X"},"bonus":1.0400000000000011},{"rt":2630.699999999255,"stimulus":"bees-with-color/bee-B2SF.svg","response":0,"trial_type":"image-button-response","trial_index":153,"time_elapsed":3146104,"internal_node_id":"0.0-6.0-0.17","subject_id":"5f25d8172b91b02b72277187","study_id":"60edd13110225f80f9f3709b","session_id":"6196c1f1c511dada402cdc81","condition":"full-information","relevant_dimensions":["antennae","wings"],"bee_group":{"antennae":"A","wings":"2","pattern":"X","legs":"X"},"bonus":1.0400000000000011},{"rt":955.8999999985099,"stimulus":"bees-with-color/bee-B1DF.svg","response":0,"trial_type":"image-button-response","trial_index":154,"time_elapsed":3147061,"internal_node_id":"0.0-6.0-0.18","subject_id":"5f25d8172b91b02b72277187","study_id":"60edd13110225f80f9f3709b","session_id":"6196c1f1c511dada402cdc81","condition":"full-information","relevant_dimensions":["antennae","wings"],"bee_group":{"antennae":"A","wings":"2","pattern":"X","legs":"X"},"bonus":1.0400000000000011},{"rt":978.8999999985099,"stimulus":"bees-with-color/bee-B1DM.svg","response":0,"trial_type":"image-button-response","trial_index":155,"time_elapsed":3148041,"internal_node_id":"0.0-6.0-0.19","subject_id":"5f25d8172b91b02b72277187","study_id":"60edd13110225f80f9f3709b","session_id":"6196c1f1c511dada402cdc81","condition":"full-information","relevant_dimensions":["antennae","wings"],"bee_group":{"antennae":"A","wings":"2","pattern":"X","legs":"X"},"bonus":1.0400000000000011},{"rt":1451.8999999985099,"stimulus":"bees-with-color/bee-A2DM.svg","response":1,"trial_type":"image-button-response","trial_index":156,"time_elapsed":3149494,"internal_node_id":"0.0-6.0-0.20","subject_id":"5f25d8172b91b02b72277187","study_id":"60edd13110225f80f9f3709b","session_id":"6196c1f1c511dada402cdc81","condition":"full-information","relevant_dimensions":["antennae","wings"],"bee_group":{"antennae":"A","wings":"2","pattern":"X","legs":"X"},"bonus":1.0400000000000011},{"rt":751.8999999985099,"stimulus":"bees-with-color/bee-A1DF.svg","response":0,"trial_type":"image-button-response","trial_index":157,"time_e