[{"success":true,"trial_type":"fullscreen","trial_index":0,"time_elapsed":139882,"internal_node_id":"0.0-0.0","subject_id":"60819c01321b2aa5feabb854","study_id":"60edd13110225f80f9f3709b","session_id":"6196c1f6f6a509457ae85535","condition":"contingent","relevant_dimensions":["antennae","pattern"],"bee_group":{"antennae":"A","wings":"X","pattern":"D","legs":"X"},"bonus":0.8000000000000006},{"success":true,"timeout":false,"failed_images":[],"failed_audio":[],"failed_video":[],"trial_type":"preload","trial_index":1,"time_elapsed":143349,"internal_node_id":"0.0-1.0","subject_id":"60819c01321b2aa5feabb854","study_id":"60edd13110225f80f9f3709b","session_id":"6196c1f6f6a509457ae85535","condition":"contingent","relevant_dimensions":["antennae","pattern"],"bee_group":{"antennae":"A","wings":"X","pattern":"D","legs":"X"},"bonus":0.8000000000000006},{"rt":1693,"stimulus":"Welcome! Press any key to begin.","response":"audiovolumemute","trial_type":"html-keyboard-response","trial_index":2,"time_elapsed":145043,"internal_node_id":"0.0-2.0","subject_id":"60819c01321b2aa5feabb854","study_id":"60edd13110225f80f9f3709b","session_id":"6196c1f6f6a509457ae85535","condition":"contingent","relevant_dimensions":["antennae","pattern"],"bee_group":{"antennae":"A","wings":"X","pattern":"D","legs":"X"},"bonus":0.8000000000000006},{"view_history":[{"page_index":0,"viewing_time":3372},{"page_index":1,"viewing_time":11099},{"page_index":2,"viewing_time":3364},{"page_index":3,"viewing_time":2256},{"page_index":4,"viewing_time":1444},{"page_index":5,"viewing_time":2856},{"page_index":6,"viewing_time":908},{"page_index":7,"viewing_time":12449},{"page_index":8,"viewing_time":7311},{"page_index":9,"viewing_time":2223},{"page_index":10,"viewing_time":3002},{"page_index":11,"viewing_time":1198},{"page_index":12,"viewing_time":2488},{"page_index":13,"viewing_time":970},{"page_index":14,"viewing_time":840}],"rt":55780,"trial_type":"instructions","trial_index":3,"time_elapsed":200824,"internal_node_id":"0.0-3.0-0.0","subject_id":"60819c01321b2aa5feabb854","study_id":"60edd13110225f80f9f3709b","session_id":"6196c1f6f6a509457ae85535","condition":"contingent","relevant_dimensions":["antennae","pattern"],"bee_group":{"antennae":"A","wings":"X","pattern":"D","legs":"X"},"bonus":0.8000000000000006},{"rt":16552,"response":{"Q0":["Two or six legs","Stripes or spots on body","Antennae or no antennae"]},"question_order":[0],"trial_type":"survey-multi-select","trial_index":4,"time_elapsed":217384,"internal_node_id":"0.0-3.0-1.0","subject_id":"60819c01321b2aa5feabb854","study_id":"60edd13110225f80f9f3709b","session_id":"6196c1f6f6a509457ae85535","condition":"contingent","relevant_dimensions":["antennae","pattern"],"bee_group":{"antennae":"A","wings":"X","pattern":"D","legs":"X"},"correct":false,"bonus":0.8000000000000006},{"rt":27835,"response":{"Q1":"No.","Q2":"Based on the four features of the bee.","Q3":"You do not learn if it was friendly or dangerous, and do not alter your bonus."},"question_order":[0,1,2],"trial_type":"survey-multi-choice","trial_index":5,"time_elapsed":245225,"internal_node_id":"0.0-3.0-2.0","subject_id":"60819c01321b2aa5feabb854","study_id":"60edd13110225f80f9f3709b","session_id":"6196c1f6f6a509457ae85535","condition":"contingent","relevant_dimensions":["antennae","pattern"],"bee_group":{"antennae":"A","wings":"X","pattern":"D","legs":"X"},"correct":true,"bonus":0.8000000000000006},{"rt":3126,"stimulus":"<p>You did not answer all comprehension questions correctly.<br>Press <b>continue</b> to review the instructions again.</p>","response":0,"trial_type":"html-button-response","trial_index":6,"time_elapsed":248355,"internal_node_id":"0.0-3.0-3.0","subject_id":"60819c01321b2aa5feabb854","study_id":"60edd13110225f80f9f3709b","session_id":"6196c1f6f6a509457ae85535","condition":"contingent","relevant_dimensions":["antennae","pattern"],"bee_group":{"antennae":"A","wings":"X","pattern":"D","legs":"X"},"bonus":0.8000000000000006},{"view_history":[{"page_index":0,"viewing_time":3531},{"page_index":1,"viewing_time":32040},{"page_index":2,"viewing_time":12736},{"page_index":3,"viewing_time":18713},{"page_index":4,"viewing_time":10831},{"page_index":5,"viewing_time":8896},{"page_index":6,"viewing_time":10183},{"page_index":7,"viewing_time":3914},{"page_index":8,"viewing_time":7806},{"page_index":9,"viewing_time":2176},{"page_index":10,"viewing_time":4080},{"page_index":11,"viewing_time":12105},{"page_index":12,"viewing_time":9063},{"page_index":13,"viewing_time":1077},{"page_index":14,"viewing_time":1311}],"rt":138463,"trial_type":"instructions","trial_index":7,"time_elapsed":386818,"internal_node_id":"0.0-3.0-4.0-0.0","subject_id":"60819c01321b2aa5feabb854","study_id":"60edd13110225f80f9f3709b","session_id":"6196c1f6f6a509457ae85535","condition":"contingent","relevant_dimensions":["antennae","pattern"],"bee_group":{"antennae":"A","wings":"X","pattern":"D","legs":"X"},"bonus":0.8000000000000006},{"rt":34438,"response":{"Q0":["Two or six legs","Stripes or spots on body","Single or double wings","Antennae or no antennae"]},"question_order":[0],"trial_type":"survey-multi-select","trial_index":8,"time_elapsed":421262,"internal_node_id":"0.0-3.0-4.0-1.0","subject_id":"60819c01321b2aa5feabb854","study_id":"60edd13110225f80f9f3709b","session_id":"6196c1f6f6a509457ae85535","condition":"contingent","relevant_dimensions":["antennae","pattern"],"bee_group":{"antennae":"A","wings":"X","pattern":"D","legs":"X"},"correct":true,"bonus":0.8000000000000006},{"rt":35147,"response":{"Q1":"No.","Q2":"Based on the four features of the bee.","Q3":"You do not learn if it was friendly or dangerous, and do not alter your bonus."},"question_order":[0,1,2],"trial_type":"survey-multi-choice","trial_index":9,"time_elapsed":456412,"internal_node_id":"0.0-3.0-4.0-2.0","subject_id":"60819c01321b2aa5feabb854","study_id":"60edd13110225f80f9f3709b","session_id":"6196c1f6f6a509457ae85535","condition":"contingent","relevant_dimensions":["antennae","pattern"],"bee_group":{"antennae":"A","wings":"X","pattern":"D","legs":"X"},"correct":true,"bonus":0.8000000000000006},{"rt":2522,"stimulus":"<p>Congrats, you got everything right<br>When you're ready, click the button below to continue to the experiment.</p>","response":0,"trial_type":"html-button-response","trial_index":10,"time_elapsed":458938,"internal_node_id":"0.0-3.0-4.0-3.0","subject_id":"60819c01321b2aa5feabb854","study_id":"60edd13110225f80f9f3709b","session_id":"6196c1f6f6a509457ae85535","condition":"contingent","relevant_dimensions":["antennae","pattern"],"bee_group":{"antennae":"A","wings":"X","pattern":"D","legs":"X"},"bonus":0.8000000000000006},{"rt":8372,"stimulus":"bees-with-color/bee-A1DM.svg","response":1,"trial_type":"image-button-response","trial_index":11,"time_elapsed":467315,"internal_node_id":"0.0-4.0-0.0","subject_id":"60819c01321b2aa5feabb854","study_id":"60edd13110225f80f9f3709b","session_id":"6196c1f6f6a509457ae85535","condition":"contingent","relevant_dimensions":["antennae","pattern"],"bee_group":{"antennae":"A","wings":"X","pattern":"D","legs":"X"},"action":"avoid","summary":"good-avoid","bonus":0.8000000000000006},{"rt":11285,"stimulus":"\n                    <p><b>Action: <em>avoid</em></b></p>\n                    <p>This is the bee that you just saw.</p>\n                    <img src=\"bees-with-color/bee-A1DM.svg\" width=\"200\">\n                    <p><br>Your bonus pay is unchanged, and remains at $0.54.</p>\n            ","response":0,"trial_type":"html-button-response","trial_index":12,"time_elapsed":478634,"internal_node_id":"0.0-4.0-1.0","subject_id":"60819c01321b2aa5feabb854","study_id":"60edd13110225f80f9f3709b","session_id":"6196c1f6f6a509457ae85535","condition":"contingent","relevant_dimensions":["antennae","pattern"],"bee_group":{"antennae":"A","wings":"X","pattern":"D","legs":"X"},"bonus":0.8000000000000006},{"rt":4835,"stimulus":"bees-with-color/bee-B1DM.svg","response":1,"trial_type":"image-button-response","trial_index":13,"time_elapsed":483475,"internal_node_id":"0.0-4.0-0.1","subject_id":"60819c01321b2aa5feabb854","study_id":"60edd13110225f80f9f3709b","session_id":"6196c1f6f6a509457ae85535","condition":"contingent","relevant_dimensions":["antennae","pattern"],"bee_group":{"antennae":"A","wings":"X","pattern":"D","legs":"X"},"action":"avoid","summary":"bad-avoid","bonus":0.8000000000000006},{"rt":2661,"stimulus":"\n                    <p><b>Action: <em>avoid</em></b></p>\n                    <p>This is the bee that you just saw.</p>\n                    <img src=\"bees-with-color/bee-B1DM.svg\" width=\"200\">\n                    <p><br>Your bonus pay is unchanged, and remains at $0.54.</p>\n            ","response":0,"trial_type":"html-button-response","trial_index":14,"time_elapsed":486139,"internal_node_id":"0.0-4.0-1.1","subject_id":"60819c01321b2aa5feabb854","study_id":"60edd13110225f80f9f3709b","session_id":"6196c1f6f6a509457ae85535","condition":"contingent","relevant_dimensions":["antennae","pattern"],"bee_group":{"antennae":"A","wings":"X","pattern":"D","legs":"X"},"bonus":0.8000000000000006},{"rt":3117,"stimulus":"bees-with-color/bee-A2SF.svg","response":0,"trial_type":"image-button-response","trial_index":15,"time_elapsed":489259,"internal_node_id":"0.0-4.0-0.2","subject_id":"60819c01321b2aa5feabb854","study_id":"60edd13110225f80f9f3709b","session_id":"6196c1f6f6a509457ae85535","condition":"contingent","relevant_dimensions":["antennae","pattern"],"bee_group":{"antennae":"A","wings":"X","pattern":"D","legs":"X"},"action":"harvest","summary":"good-harvest","bonus":0.8000000000000006},{"rt":4286,"stimulus":"\n                    <p><b>Action: <em>harvest</em></b></p>\n                    <p>This is the bee that you just saw.</p>\n                    <img src=\"bees-with-color/bee-A2SF.svg\" width=\"200\">\n                    <p><span class=\"greenText\"><b>Successful harvest!</b></span><br>Your pay has increased by $0.02. Your bonus pay is now $0.56.</p>\n            ","response":0,"trial_type":"html-button-response","trial_index":16,"time_elapsed":493547,"internal_node_id":"0.0-4.0-1.2","subject_id":"60819c01321b2aa5feabb854","study_id":"60edd13110225f80f9f3709b","session_id":"6196c1f6f6a509457ae85535","condition":"contingent","relevant_dimensions":["antennae","pattern"],"bee_group":{"antennae":"A","wings":"X","pattern":"D","legs":"X"},"bonus":0.8000000000000006},{"rt":2093,"stimulus":"bees-with-color/bee-B2DF.svg","response":1,"trial_type":"image-button-response","trial_index":17,"time_elapsed":495642,"internal_node_id":"0.0-4.0-0.3","subject_id":"60819c01321b2aa5feabb854","study_id":"60edd13110225f80f9f3709b","session_id":"6196c1f6f6a509457ae85535","condition":"contingent","relevant_dimensions":["antennae","pattern"],"bee_group":{"antennae":"A","wings":"X","pattern":"D","legs":"X"},"action":"avoid","summary":"bad-avoid","bonus":0.8000000000000006},{"rt":1549,"stimulus":"\n                    <p><b>Action: <em>avoid</em></b></p>\n                    <p>This is the bee that you just saw.</p>\n                    <img src=\"bees-with-color/bee-B2DF.svg\" width=\"200\">\n                    <p><br>Your bonus pay is unchanged, and remains at $0.56.</p>\n            ","response":0,"trial_type":"html-button-response","trial_index":18,"time_elapsed":497195,"internal_node_id":"0.0-4.0-1.3","subject_id":"60819c01321b2aa5feabb854","study_id":"60edd13110225f80f9f3709b","session_id":"6196c1f6f6a509457ae85535","condition":"contingent","relevant_dimensions":["antennae","pattern"],"bee_group":{"antennae":"A","wings":"X","pattern":"D","legs":"X"},"bonus":0.8000000000000006},{"rt":3007,"stimulus":"bees-with-color/bee-B2SM.svg","response":0,"trial_type":"image-button-response","trial_index":19,"time_elapsed":500204,"internal_node_id":"0.0-4.0-0.4","subject_id":"60819c01321b2aa5feabb854","study_id":"60edd13110225f80f9f3709b","session_id":"6196c1f6f6a509457ae85535","condition":"contingent","relevant_dimensions":["antennae","pattern"],"bee_group":{"antennae":"A","wings":"X","pattern":"D","legs":"X"},"action":"harvest","summary":"good-harvest","bonus":0.8000000000000006},{"rt":2655,"stimulus":"\n                    <p><b>Action: <em>harvest</em></b></p>\n                    <p>This is the bee that you just saw.</p>\n                    <img src=\"bees-with-color/bee-B2SM.svg\" width=\"200\">\n                    <p><span class=\"greenText\"><b>Successful harvest!</b></span><br>Your pay has increased by $0.02. Your bonus pay is now $0.58.</p>\n            ","response":0,"trial_type":"html-button-response","trial_index":20,"time_elapsed":502862,"internal_node_id":"0.0-4.0-1.4","subject_id":"60819c01321b2aa5feabb854","study_id":"60edd13110225f80f9f3709b","session_id":"6196c1f6f6a509457ae85535","condition":"contingent","relevant_dimensions":["antennae","pattern"],"bee_group":{"antennae":"A","wings":"X","pattern":"D","legs":"X"},"bonus":0.8000000000000006},{"rt":948,"stimulus":"bees-with-color/bee-B1SM.svg","response":1,"trial_type":"image-button-response","trial_index":21,"time_elapsed":503812,"internal_node_id":"0.0-4.0-0.5","subject_id":"60819c01321b2aa5feabb854","study_id":"60edd13110225f80f9f3709b","session_id":"6196c1f6f6a509457ae85535","condition":"contingent","relevant_dimensions":["antennae","pattern"],"bee_group":{"antennae":"A","wings":"X","pattern":"D","legs":"X"},"action":"avoid","summary":"bad-avoid","bonus":0.8000000000000006},{"rt":1052,"stimulus":"\n                    <p><b>Action: <em>avoid</em></b></p>\n                    <p>This is the bee that you just saw.</p>\n                    <img src=\"bees-with-color/bee-B1SM.svg\" width=\"200\">\n                    <p><br>Your bonus pay is unchanged, and remains at $0.58.</p>\n            ","response":0,"trial_type":"html-button-response","trial_index":22,"time_elapsed":504867,"internal_node_id":"0.0-4.0-1.5","subject_id":"60819c01321b2aa5feabb854","study_id":"60edd13110225f80f9f3709b","session_id":"6196c1f6f6a509457ae85535","condition":"contingent","relevant_dimensions":["antennae","pattern"],"bee_group":{"antennae":"A","wings":"X","pattern":"D","legs":"X"},"bonus":0.8000000000000006},{"rt":1158,"stimulus":"bees-with-color/bee-A2DF.svg","response":1,"trial_type":"image-button-response","trial_index":23,"time_elapsed":506026,"internal_node_id":"0.0-4.0-0.6","subject_id":"60819c01321b2aa5feabb854","study_id":"60edd13110225f80f9f3709b","session_id":"6196c1f6f6a509457ae85535","condition":"contingent","relevant_dimensions":["antennae","pattern"],"bee_group":{"antennae":"A","wings":"X","pattern":"D","legs":"X"},"action":"avoid","summary":"good-avoid","bonus":0.8000000000000006},{"rt":917,"stimulus":"\n                    <p><b>Action: <em>avoid</em></b></p>\n                    <p>This is the bee that you just saw.</p>\n                    <img src=\"bees-with-color/bee-A2DF.svg\" width=\"200\">\n                    <p><br>Your bonus pay is unchanged, and remains at $0.58.</p>\n            ","response":0,"trial_type":"html-button-response","trial_index":24,"time_elapsed":506947,"internal_node_id":"0.0-4.0-1.6","subject_id":"60819c01321b2aa5feabb854","study_id":"60edd13110225f80f9f3709b","session_id":"6196c1f6f6a509457ae85535","condition":"contingent","relevant_dimensions":["antennae","pattern"],"bee_group":{"antennae":"A","wings":"X","pattern":"D","legs":"X"},"bonus":0.8000000000000006},{"rt":1181,"stimulus":"bees-with-color/bee-A1SF.svg","response":1,"trial_type":"image-button-response","trial_index":25,"time_elapsed":508131,"internal_node_id":"0.0-4.0-0.7","subject_id":"60819c01321b2aa5feabb854","study_id":"60edd13110225f80f9f3709b","session_id":"6196c1f6f6a509457ae85535","condition":"contingent","relevant_dimensions":["antennae","pattern"],"bee_group":{"antennae":"A","wings":"X","pattern":"D","legs":"X"},"action":"avoid","summary":"bad-avoid","bonus":0.8000000000000006},{"rt":660,"stimulus":"\n                    <p><b>Action: <em>avoid</em></b></p>\n                    <p>This is the bee that you just saw.</p>\n                    <img src=\"bees-with-color/bee-A1SF.svg\" width=\"200\">\n                    <p><br>Your bonus pay is unchanged, and remains at $0.58.</p>\n            ","response":0,"trial_type":"html-button-response","trial_index":26,"time_elapsed":508795,"internal_node_id":"0.0-4.0-1.7","subject_id":"60819c01321b2aa5feabb854","study_id":"60edd13110225f80f9f3709b","session_id":"6196c1f6f6a509457ae85535","condition":"contingent","relevant_dimensions":["antennae","pattern"],"bee_group":{"antennae":"A","wings":"X","pattern":"D","legs":"X"},"bonus":0.8000000000000006},{"rt":770,"stimulus":"bees-with-color/bee-A1SM.svg","response":1,"trial_type":"image-button-response","trial_index":27,"time_elapsed":509567,"internal_node_id":"0.0-4.0-0.8","subject_id":"60819c01321b2aa5feabb854","study_id":"60edd13110225f80f9f3709b","session_id":"6196c1f6f6a509457ae85535","condition":"contingent","relevant_dimensions":["antennae","pattern"],"bee_group":{"antennae":"A","wings":"X","pattern":"D","legs":"X"},"action":"avoid","summary":"bad-avoid","bonus":0.8000000000000006},{"rt":467,"stimulus":"\n                    <p><b>Action: <em>avoid</em></b></p>\n                    <p>This is the bee that you just saw.</p>\n                    <img src=\"bees-with-color/bee-A1SM.svg\" width=\"200\">\n                    <p><br>Your bonus pay is unchanged, and remains at $0.58.</p>\n            ","response":0,"trial_type":"html-button-response","trial_index":28,"time_elapsed":510035,"internal_node_id":"0.0-4.0-1.8","subject_id":"60819c01321b2aa5feabb854","study_id":"60edd13110225f80f9f3709b","session_id":"6196c1f6f6a509457ae85535","condition":"contingent","relevant_dimensions":["antennae","pattern"],"bee_group":{"antennae":"A","wings":"X","pattern":"D","legs":"X"},"bonus":0.8000000000000006},{"rt":1286,"stimulus":"bees-with-color/bee-A2DM.svg","response":1,"trial_type":"image-button-response","trial_index":29,"time_elapsed":511323,"internal_node_id":"0.0-4.0-0.9","subject_id":"60819c01321b2aa5feabb854","study_id":"60edd13110225f80f9f3709b","session_id":"6196c1f6f6a509457ae85535","condition":"contingent","relevant_dimensions":["antennae","pattern"],"bee_group":{"antennae":"A","wings":"X","pattern":"D","legs":"X"},"action":"avoid","summary":"good-avoid","bonus":0.8000000000000006},{"rt":470,"stimulus":"\n                    <p><b>Action: <em>avoid</em></b></p>\n                    <p>This is the bee that you just saw.</p>\n                    <img src=\"bees-with-color/bee-A2DM.svg\" width=\"200\">\n                    <p><br>Your bonus pay is unchanged, and remains at $0.58.</p>\n            ","response":0,"trial_type":"html-button-response","trial_index":30,"time_elapsed":511794,"internal_node_id":"0.0-4.0-1.9","subject_id":"60819c01321b2aa5feabb854","study_id":"60edd13110225f80f9f3709b","session_id":"6196c1f6f6a509457ae85535","condition":"contingent","relevant_dimensions":["antennae","pattern"],"bee_group":{"antennae":"A","wings":"X","pattern":"D","legs":"X"},"bonus":0.8000000000000006},{"rt":1046,"stimulus":"bees-with-color/bee-B1DF.svg","response":1,"trial_type":"image-button-response","trial_index":31,"time_elapsed":512842,"internal_node_id":"0.0-4.0-0.10","subject_id":"60819c01321b2aa5feabb854","study_id":"60edd13110225f80f9f3709b","session_id":"6196c1f6f6a509457ae85535","condition":"contingent","relevant_dimensions":["antennae","pattern"],"bee_group":{"antennae":"A","wings":"X","pattern":"D","legs":"X"},"action":"avoid","summary":"bad-avoid","bonus":0.8000000000000006},{"rt":419,"stimulus":"\n                    <p><b>Action: <em>avoid</em></b></p>\n                    <p>This is the bee that you just saw.</p>\n                    <img src=\"bees-with-color/bee-B1DF.svg\" width=\"200\">\n                    <p><br>Your bonus pay is unchanged, and remains at $0.58.</p>\n            ","response":0,"trial_type":"html-button-response","trial_index":32,"time_elapsed":513267,"internal_node_id":"0.0-4.0-1.10","subject_id":"60819c01321b2aa5feabb854","study_id":"60edd13110225f80f9f3709b","session_id":"6196c1f6f6a509457ae85535","condition":"contingent","relevant_dimensions":["antennae","pattern"],"bee_group":{"antennae":"A","wings":"X","pattern":"D","legs":"X"},"bonus":0.8000000000000006},{"rt":690,"stimulus":"bees-with-color/bee-A1DF.svg","response":1,"trial_type":"image-button-response","trial_index":33,"time_elapsed":513958,"internal_node_id":"0.0-4.0-0.11","subject_id":"60819c01321b2aa5feabb854","study_id":"60edd13110225f80f9f3709b","session_id":"6196c1f6f6a509457ae85535","condition":"contingent","relevant_dimensions":["antennae","pattern"],"bee_group":{"antennae":"A","wings":"X","pattern":"D","legs":"X"},"action":"avoid","summary":"good-avoid","bonus":0.8000000000000006},{"rt":418,"stimulus":"\n                    <p><b>Action: <em>avoid</em></b></p>\n                    <p>This is the bee that you just saw.</p>\n                    <img src=\"bees-with-color/bee-A1DF.svg\" width=\"200\">\n                    <p><br>Your bonus pay is unchanged, and remains at $0.58.</p>\n            ","response":0,"trial_type":"html-button-response","trial_index":34,"time_elapsed":514379,"internal_node_id":"0.0-4.0-1.11","subject_id":"60819c01321b2aa5feabb854","study_id":"60edd13110225f80f9f3709b","session_id":"6196c1f6f6a509457ae85535","condition":"contingent","relevant_dimensions":["antennae","pattern"],"bee_group":{"antennae":"A","wings":"X","pattern":"D","legs":"X"},"bonus":0.8000000000000006},{"rt":1206,"stimulus":"bees-with-color/bee-A2SM.svg","response":0,"trial_type":"image-button-response","trial_index":35,"time_elapsed":515586,"internal_node_id":"0.0-4.0-0.12","subject_id":"60819c01321b2aa5feabb854","study_id":"60edd13110225f80f9f3709b","session_id":"6196c1f6f6a509457ae85535","condition":"contingent","relevant_dimensions":["antennae","pattern"],"bee_group":{"antennae":"A","wings":"X","pattern":"D","legs":"X"},"action":"harvest","summary":"good-harvest","bonus":0.8000000000000006},{"rt":2316,"stimulus":"\n                    <p><b>Action: <em>harvest</em></b></p>\n                    <p>This is the bee that you just saw.</p>\n                    <img src=\"bees-with-color/bee-A2SM.svg\" width=\"200\">\n                    <p><span class=\"greenText\"><b>Successful harvest!</b></span><br>Your pay has increased by $0.02. Your bonus pay is now $0.60.</p>\n            ","response":0,"trial_type":"html-button-response","trial_index":36,"time_elapsed":517907,"internal_node_id":"0.0-4.0-1.12","subject_id":"60819c01321b2aa5feabb854","study_id":"60edd13110225f80f9f3709b","session_id":"6196c1f6f6a509457ae85535","condition":"contingent","relevant_dimensions":["antennae","pattern"],"bee_group":{"antennae":"A","wings":"X","pattern":"D","legs":"X"},"bonus":0.8000000000000006},{"rt":1702,"stimulus":"bees-with-color/bee-B2SF.svg","response":0,"trial_type":"image-button-response","trial_index":37,"time_elapsed":519611,"internal_node_id":"0.0-4.0-0.13","subject_id":"60819c01321b2aa5feabb854","study_id":"60edd13110225f80f9f3709b","session_id":"6196c1f6f6a509457ae85535","condition":"contingent","relevant_dimensions":["antennae","pattern"],"bee_group":{"antennae":"A","wings":"X","pattern":"D","legs":"X"},"action":"harvest","summary":"good-harvest","bonus":0.8000000000000006},{"rt":1022,"stimulus":"\n                    <p><b>Action: <em>harvest</em></b></p>\n                    <p>This is the bee that you just saw.</p>\n                    <img src=\"bees-with-color/bee-B2SF.svg\" width=\"200\">\n                    <p><span class=\"greenText\"><b>Successful harvest!</b></span><br>Your pay has increased by $0.02. Your bonus pay is now $0.62.</p>\n            ","response":0,"trial_type":"html-button-response","trial_index":38,"time_elapsed":520634,"internal_node_id":"0.0-4.0-1.13","subject_id":"60819c01321b2aa5feabb854","study_id":"60edd13110225f80f9f3709b","session_id":"6196c1f6f6a509457ae85535","condition":"contingent","relevant_dimensions":["antennae","pattern"],"bee_group":{"antennae":"A","wings":"X","pattern":"D","legs":"X"},"bonus":0.8000000000000006},{"rt":1111,"stimulus":"bees-with-color/bee-B1SF.svg","response":1,"trial_type":"image-button-response","trial_index":39,"time_elapsed":521747,"internal_node_id":"0.0-4.0-0.14","subject_id":"60819c01321b2aa5feabb854","study_id":"60edd13110225f80f9f3709b","session_id":"6196c1f6f6a509457ae85535","condition":"contingent","relevant_dimensions":["antennae","pattern"],"bee_group":{"antennae":"A","wings":"X","pattern":"D","legs":"X"},"action":"avoid","summary":"bad-avoid","bonus":0.8000000000000006},{"rt":550,"stimulus":"\n                    <p><b>Action: <em>avoid</em></b></p>\n                    <p>This is the bee that you just saw.</p>\n                    <img src=\"bees-with-color/bee-B1SF.svg\" width=\"200\">\n                    <p><br>Your bonus pay is unchanged, and remains at $0.62.</p>\n            ","response":0,"trial_type":"html-button-response","trial_index":40,"time_elapsed":522299,"internal_node_id":"0.0-4.0-1.14","subject_id":"60819c01321b2aa5feabb854","study_id":"60edd13110225f80f9f3709b","session_id":"6196c1f6f6a509457ae85535","condition":"contingent","relevant_dimensions":["antennae","pattern"],"bee_group":{"antennae":"A","wings":"X","pattern":"D","legs":"X"},"bonus":0.8000000000000006},{"rt":838,"stimulus":"bees-with-color/bee-B2DM.svg","response":1,"trial_type":"image-button-response","trial_index":41,"time_elapsed":523139,"internal_node_id":"0.0-4.0-0.15","subject_id":"60819c01321b2aa5feabb854","study_id":"60edd13110225f80f9f3709b","session_id":"6196c1f6f6a509457ae85535","condition":"contingent","relevant_dimensions":["antennae","pattern"],"bee_group":{"antennae":"A","wings":"X","pattern":"D","legs":"X"},"action":"avoid","summary":"bad-avoid","bonus":0.8000000000000006},{"rt":470,"stimulus":"\n                    <p><b>Action: <em>avoid</em></b></p>\n                    <p>This is the bee that you just saw.</p>\n                    <img src=\"bees-with-color/bee-B2DM.svg\" width=\"200\">\n                    <p><br>Your bonus pay is unchanged, and remains at $0.62.</p>\n            ","response":0,"trial_type":"html-button-response","trial_index":42,"time_elapsed":523610,"internal_node_id":"0.0-4.0-1.15","subject_id":"60819c01321b2aa5feabb854","study_id":"60edd13110225f80f9f3709b","session_id":"6196c1f6f6a509457ae85535","condition":"contingent","relevant_dimensions":["antennae","pattern"],"bee_group":{"antennae":"A","wings":"X","pattern":"D","legs":"X"},"bonus":0.8000000000000006},{"rt":870,"stimulus":"bees-with-color/bee-B1DM.svg","response":1,"trial_type":"image-button-response","trial_index":43,"time_elapsed":524482,"internal_node_id":"0.0-4.0-0.16","subject_id":"60819c01321b2aa5feabb854","study_id":"60edd13110225f80f9f3709b","session_id":"6196c1f6f6a509457ae85535","condition":"contingent","relevant_dimensions":["antennae","pattern"],"bee_group":{"antennae":"A","wings":"X","pattern":"D","legs":"X"},"action":"avoid","summary":"bad-avoid","bonus":0.8000000000000006},{"rt":592,"stimulus":"\n                    <p><b>Action: <em>avoid</em></b></p>\n                    <p>This is the bee that you just saw.</p>\n                    <img src=\"bees-with-color/bee-B1DM.svg\" width=\"200\">\n                    <p><br>Your bonus pay is unchanged, and remains at $0.62.</p>\n            ","response":0,"trial_type":"html-button-response","trial_index":44,"time_elapsed":525075,"internal_node_id":"0.0-4.0-1.16","subject_id":"60819c01321b2aa5feabb854","study_id":"60edd13110225f80f9f3709b","session_id":"6196c1f6f6a509457ae85535","condition":"contingent","relevant_dimensions":["antennae","pattern"],"bee_group":{"antennae":"A","wings":"X","pattern":"D","legs":"X"},"bonus":0.8000000000000006},{"rt":894,"stimulus":"bees-with-color/bee-B1SM.svg","response":1,"trial_type":"image-button-response","trial_index":45,"time_elapsed":525971,"internal_node_id":"0.0-4.0-0.17","subject_id":"60819c01321b2aa5feabb854","study_id":"60edd13110225f80f9f3709b","session_id":"6196c1f6f6a509457ae85535","condition":"contingent","relevant_dimensions":["antennae","pattern"],"bee_group":{"antennae":"A","wings":"X","pattern":"D","legs":"X"},"action":"avoid","summary":"bad-avoid","bonus":0.8000000000000006},{"rt":446,"stimulus":"\n                    <p><b>Action: <em>avoid</em></b></p>\n                    <p>This is the bee that you just saw.</p>\n                    <img src=\"bees-with-color/bee-B1SM.svg\" width=\"200\">\n                    <p><br>Your bonus pay is unchanged, and remains at $0.62.</p>\n            ","response":0,"trial_type":"html-button-response","trial_index":46,"time_elapsed":526419,"internal_node_id":"0.0-4.0-1.17","subject_id":"60819c01321b2aa5feabb854","study_id":"60edd13110225f80f9f3709b","session_id":"6196c1f6f6a509457ae85535","condition":"contingent","relevant_dimensions":["antennae","pattern"],"bee_group":{"antennae":"A","wings":"X","pattern":"D","legs":"X"},"bonus":0.8000000000000006},{"rt":878,"stimulus":"bees-with-color/bee-A2SF.svg","response":0,"trial_type":"image-button-response","trial_index":47,"time_elapsed":527299,"internal_node_id":"0.0-4.0-0.18","subject_id":"60819c01321b2aa5feabb854","study_id":"60edd13110225f80f9f3709b","session_id":"6196c1f6f6a509457ae85535","condition":"contingent","relevant_dimensions":["antennae","pattern"],"bee_group":{"antennae":"A","wings":"X","pattern":"D","legs":"X"},"action":"harvest","summary":"good-harvest","bonus":0.8000000000000006},{"rt":462,"stimulus":"\n                    <p><b>Action: <em>harvest</em></b></p>\n                    <p>This is the bee that you just saw.</p>\n                    <img src=\"bees-with-color/bee-A2SF.svg\" width=\"200\">\n                    <p><span class=\"greenText\"><b>Successful harvest!</b></span><br>Your pay has increased by $0.02. Your bonus pay is now $0.64.</p>\n            ","response":0,"trial_type":"html-button-response","trial_index":48,"time_elapsed":527763,"internal_node_id":"0.0-4.0-1.18","subject_id":"60819c01321b2aa5feabb854","study_id":"60edd13110225f80f9f3709b","session_id":"6196c1f6f6a509457ae85535","condition":"contingent","relevant_dimensions":["antennae","pattern"],"bee_group":{"antennae":"A","wings":"X","pattern":"D","legs":"X"},"bonus":0.8000000000000006},{"rt":1470,"stimulus":"bees-with-color/bee-B2SM.svg","response":0,"trial_type":"image-button-response","trial_index":49,"time_elapsed":529234,"internal_node_id":"0.0-4.0-0.19","subject_id":"60819c01321b2aa5feabb854","study_id":"60edd13110225f80f9f3709b","session_id":"6196c1f6f6a509457ae85535","condition":"contingent","relevant_dimensions":["antennae","pattern"],"bee_group":{"antennae":"A","wings":"X","pattern":"D","legs":"X"},"action":"harvest","summary":"good-harvest","bonus":0.8000000000000006},{"rt":717,"stimulus":"\n                    <p><b>Action: <em>harvest</em></b></p>\n                    <p>This is the bee that you just saw.</p>\n                    <img src=\"bees-with-color/bee-B2SM.svg\" width=\"200\">\n                    <p><span class=\"greenText\"><b>Successful harvest!</b></span><br>Your pay has increased by $0.02. Your bonus pay is now $0.66.</p>\n            ","response":0,"trial_type":"html-button-response","trial_index":50,"time_elapsed":529954,"internal_node_id":"0.0-4.0-1.19","subject_id":"60819c01321b2aa5feabb854","study_id":"60edd13110225f80f9f3709b","session_id":"6196c1f6f6a509457ae85535","condition":"contingent","relevant_dimensions":["antennae","pattern"],"bee_group":{"antennae":"A","wings":"X","pattern":"D","legs":"X"},"bonus":0.8000000000000006},{"rt":1150,"stimulus":"bees-with-color/bee-A1SF.svg","response":1,"trial_type":"image-button-response","trial_index":51,"time_elapsed":531106,"internal_node_id":"0.0-4.0-0.20","subject_id":"60819c01321b2aa5feabb854","study_id":"60edd13110225f80f9f3709b","session_id":"6196c1f6f6a509457ae85535","condition":"contingent","relevant_dimensions":["antennae","pattern"],"bee_group":{"antennae":"A","wings":"X","pattern":"D","legs":"X"},"action":"avoid","summary":"bad-avoid","bonus":0.8000000000000006},{"rt":412,"stimulus":"\n                    <p><b>Action: <em>avoid</em></b></p>\n                    <p>This is the bee that you just saw.</p>\n                    <img src=\"bees-with-color/bee-A1SF.svg\" width=\"200\">\n                    <p><br>Your bonus pay is unchanged, and remains at $0.66.</p>\n            ","response":0,"trial_type":"html-button-response","trial_index":52,"time_elapsed":531522,"internal_node_id":"0.0-4.0-1.20","subject_id":"60819c01321b2aa5feabb854","study_id":"60edd13110225f80f9f3709b","session_id":"6196c1f6f6a509457ae85535","condition":"contingent","relevant_dimensions":["antennae","pattern"],"bee_group":{"antennae":"A","wings":"X","pattern":"D","legs":"X"},"bonus":0.8000000000000006},{"rt":1049,"stimulus":"bees-with-color/bee-B2DM.svg","response":1,"trial_type":"image-button-response","trial_index":53,"time_elapsed":532572,"internal_node_id":"0.0-4.0-0.21","subject_id":"60819c01321b2aa5feabb854","study_id":"60edd13110225f80f9f3709b","session_id":"6196c1f6f6a509457ae85535","condition":"contingent","relevant_dimensions":["antennae","pattern"],"bee_group":{"antennae":"A","wings":"X","pattern":"D","legs":"X"},"action":"avoid","summary":"bad-avoid","bonus":0.8000000000000006},{"rt":437,"stimulus":"\n                    <p><b>Action: <em>avoid</em></b></p>\n                    <p>This is the bee that you just saw.</p>\n                    <img src=\"bees-with-color/bee-B2DM.svg\" width=\"200\">\n                    <p><br>Your bonus pay is unchanged, and remains at $0.66.</p>\n            ","response":0,"trial_type":"html-button-response","trial_index":54,"time_elapsed":533011,"internal_node_id":"0.0-4.0-1.21","subject_id":"60819c01321b2aa5feabb854","study_id":"60edd13110225f80f9f3709b","session_id":"6196c1f6f6a509457ae85535","condition":"contingent","relevant_dimensions":["antennae","pattern"],"bee_group":{"antennae":"A","wings":"X","pattern":"D","legs":"X"},"bonus":0.8000000000000006},{"rt":782,"stimulus":"bees-with-color/bee-A1DM.svg","response":1,"trial_type":"image-button-response","trial_index":55,"time_elapsed":533795,"internal_node_id":"0.0-4.0-0.22","subject_id":"60819c01321b2aa5feabb854","study_id":"60edd13110225f80f9f3709b","session_id":"6196c1f6f6a509457ae85535","condition":"contingent","relevant_dimensions":["antennae","pattern"],"bee_group":{"antennae":"A","wings":"X","pattern":"D","legs":"X"},"action":"avoid","summary":"good-avoid","bonus":0.8000000000000006},{"rt":638,"stimulus":"\n                    <p><b>Action: <em>avoid</em></b></p>\n                    <p>This is the bee that you just saw.</p>\n                    <img src=\"bees-with-color/bee-A1DM.svg\" width=\"200\">\n                    <p><br>Your bonus pay is unchanged, and remains at $0.66.</p>\n            ","response":0,"trial_type":"html-button-response","trial_index":56,"time_elapsed":534435,"internal_node_id":"0.0-4.0-1.22","subject_id":"60819c01321b2aa5feabb854","study_id":"60edd13110225f80f9f3709b","session_id":"6196c1f6f6a509457ae85535","condition":"contingent","relevant_dimensions":["antennae","pattern"],"bee_group":{"antennae":"A","wings":"X","pattern":"D","legs":"X"},"bonus":0.8000000000000006},{"rt":790,"stimulus":"bees-with-color/bee-A2DM.svg","response":1,"trial_type":"image-button-response","trial_index":57,"time_elapsed":535228,"internal_node_id":"0.0-4.0-0.23","subject_id":"60819c01321b2aa5feabb854","study_id":"60edd13110225f80f9f3709b","session_id":"6196c1f6f6a509457ae85535","condition":"contingent","relevant_dimensions":["antennae","pattern"],"bee_group":{"antennae":"A","wings":"X","pattern":"D","legs":"X"},"action":"avoid","summary":"good-avoid","bonus":0.8000000000000006},{"rt":405,"stimulus":"\n                    <p><b>Action: <em>avoid</em></b></p>\n                    <p>This is the bee that you just saw.</p>\n                    <img src=\"bees-with-color/bee-A2DM.svg\" width=\"200\">\n                    <p><br>Your bonus pay is unchanged, and remains at $0.66.</p>\n            ","response":0,"trial_type":"html-button-response","trial_index":58,"time_elapsed":535635,"internal_node_id":"0.0-4.0-1.23","subject_id":"60819c01321b2aa5feabb854","study_id":"60edd13110225f80f9f3709b","session_id":"6196c1f6f6a509457ae85535","condition":"contingent","relevant_dimensions":["antennae","pattern"],"bee_group":{"antennae":"A","wings":"X","pattern":"D","legs":"X"},"bonus":0.8000000000000006},{"rt":653,"stimulus":"bees-with-color/bee-A2DF.svg","response":1,"trial_type":"image-button-response","trial_index":59,"time_elapsed":536293,"internal_node_id":"0.0-4.0-0.24","subject_id":"60819c01321b2aa5feabb854","study_id":"60edd13110225f80f9f3709b","session_id":"6196c1f6f6a509457ae85535","condition":"contingent","relevant_dimensions":["antennae","pattern"],"bee_group":{"antennae":"A","wings":"X","pattern":"D","legs":"X"},"action":"avoid","summary":"good-avoid","bonus":0.8000000000000006},{"rt":413,"stimulus":"\n                    <p><b>Action: <em>avoid</em></b></p>\n                    <p>This is the bee that you just saw.</p>\n                    <img src=\"bees-with-color/bee-A2DF.svg\" width=\"200\">\n                    <p><br>Your bonus pay is unchanged, and remains at $0.66.</p>\n            ","response":0,"trial_type":"html-button-response","trial_index":60,"time_elapsed":536706,"internal_node_id":"0.0-4.0-1.24","subject_id":"60819c01321b2aa5feabb854","study_id":"60edd13110225f80f9f3709b","session_id":"6196c1f6f6a509457ae85535","condition":"contingent","relevant_dimensions":["antennae","pattern"],"bee_group":{"antennae":"A","wings":"X","pattern":"D","legs":"X"},"bonus":0.8000000000000006},{"rt":935,"stimulus":"bees-with-color/bee-B1SF.svg","response":1,"trial_type":"image-button-response","trial_index":61,"time_elapsed":537643,"internal_node_id":"0.0-4.0-0.25","subject_id":"60819c01321b2aa5feabb854","study_id":"60edd13110225f80f9f3709b","session_id":"6196c1f6f6a509457ae85535","condition":"contingent","relevant_dimensions":["antennae","pattern"],"bee_group":{"antennae":"A","wings":"X","pattern":"D","legs":"X"},"action":"avoid","summary":"bad-avoid","bonus":0.8000000000000006},{"rt":406,"stimulus":"\n                    <p><b>Action: <em>avoid</em></b></p>\n                    <p>This is the bee that you just saw.</p>\n                    <img src=\"bees-with-color/bee-B1SF.svg\" width=\"200\">\n                    <p><br>Your bonus pay is unchanged, and remains at $0.66.</p>\n            ","response":0,"trial_type":"html-button-response","trial_index":62,"time_elapsed":538051,"internal_node_id":"0.0-4.0-1.25","subject_id":"60819c01321b2aa5feabb854","study_id":"60edd13110225f80f9f3709b","session_id":"6196c1f6f6a509457ae85535","condition":"contingent","relevant_dimensions":["antennae","pattern"],"bee_group":{"antennae":"A","wings":"X","pattern":"D","legs":"X"},"bonus":0.8000000000000006},{"rt":751,"stimulus":"bees-with-color/bee-A1DF.svg","response":1,"trial_type":"image-button-response","trial_index":63,"time_elapsed":538804,"internal_node_id":"0.0-4.0-0.26","subject_id":"60819c01321b2aa5feabb854","study_id":"60edd13110225f80f9f3709b","session_id":"6196c1f6f6a509457ae85535","condition":"contingent","relevant_dimensions":["antennae","pattern"],"bee_group":{"antennae":"A","wings":"X","pattern":"D","legs":"X"},"action":"avoid","summary":"good-avoid","bonus":0.8000000000000006},{"rt":364,"stimulus":"\n                    <p><b>Action: <em>avoid</em></b></p>\n                    <p>This is the bee that you just saw.</p>\n                    <img src=\"bees-with-color/bee-A1DF.svg\" width=\"200\">\n                    <p><br>Your bonus pay is unchanged, and remains at $0.66.</p>\n            ","response":0,"trial_type":"html-button-response","trial_index":64,"time_elapsed":539170,"internal_node_id":"0.0-4.0-1.26","subject_id":"60819c01321b2aa5feabb854","study_id":"60edd13110225f80f9f3709b","session_id":"6196c1f6f6a509457ae85535","condition":"contingent","relevant_dimensions":["antennae","pattern"],"bee_group":{"antennae":"A","wings":"X","pattern":"D","legs":"X"},"bonus":0.8000000000000006},{"rt":785,"stimulus":"bees-with-color/bee-A1SM.svg","response":1,"trial_type":"image-button-response","trial_index":65,"time_elapsed":539957,"internal_node_id":"0.0-4.0-0.27","subject_id":"60819c01321b2aa5feabb854","study_id":"60edd13110225f80f9f3709b","session_id":"6196c1f6f6a509457ae85535","condition":"contingent","relevant_dimensions":["antennae","pattern"],"bee_group":{"antennae":"A","wings":"X","pattern":"D","legs":"X"},"action":"avoid","summary":"bad-avoid","bonus":0.8000000000000006},{"rt":349,"stimulus":"\n                    <p><b>Action: <em>avoid</em></b></p>\n                    <p>This is the bee that you just saw.</p>\n                    <img src=\"bees-with-color/bee-A1SM.svg\" width=\"200\">\n                    <p><br>Your bonus pay is unchanged, and remains at $0.66.</p>\n            ","response":0,"trial_type":"html-button-response","trial_index":66,"time_elapsed":540307,"internal_node_id":"0.0-4.0-1.27","subject_id":"60819c01321b2aa5feabb854","study_id":"60edd13110225f80f9f3709b","session_id":"6196c1f6f6a509457ae85535","condition":"contingent","relevant_dimensions":["antennae","pattern"],"bee_group":{"antennae":"A","wings":"X","pattern":"D","legs":"X"},"bonus":0.8000000000000006},{"rt":934,"stimulus":"bees-with-color/bee-B2SF.svg","response":0,"trial_type":"image-button-response","trial_index":67,"time_elapsed":541243,"internal_node_id":"0.0-4.0-0.28","subject_id":"60819c01321b2aa5feabb854","study_id":"60edd13110225f80f9f3709b","session_id":"6196c1f6f6a509457ae85535","condition":"contingent","relevant_dimensions":["antennae","pattern"],"bee_group":{"antennae":"A","wings":"X","pattern":"D","legs":"X"},"action":"harvest","summary":"good-harvest","bonus":0.8000000000000006},{"rt":3102,"stimulus":"\n                    <p><b>Action: <em>harvest</em></b></p>\n                    <p>This is the bee that you just saw.</p>\n                    <img src=\"bees-with-color/bee-B2SF.svg\" width=\"200\">\n                    <p><span class=\"greenText\"><b>Successful harvest!</b></span><br>Your pay has increased by $0.02. Your bonus pay is now $0.68.</p>\n            ","response":0,"trial_type":"html-button-response","trial_index":68,"time_elapsed":544347,"internal_node_id":"0.0-4.0-1.28","subject_id":"60819c01321b2aa5feabb854","study_id":"60edd13110225f80f9f3709b","session_id":"6196c1f6f6a509457ae85535","condition":"contingent","relevant_dimensions":["antennae","pattern"],"bee_group":{"antennae":"A","wings":"X","pattern":"D","legs":"X"},"bonus":0.8000000000000006},{"rt":886,"stimulus":"bees-with-color/bee-B1DF.svg","response":1,"trial_type":"image-button-response","trial_index":69,"time_elapsed":545235,"internal_node_id":"0.0-4.0-0.29","subject_id":"60819c01321b2aa5feabb854","study_id":"60edd13110225f80f9f3709b","session_id":"6196c1f6f6a509457ae85535","condition":"contingent","relevant_dimensions":["antennae","pattern"],"bee_group":{"antennae":"A","wings":"X","pattern":"D","legs":"X"},"action":"avoid","summary":"bad-avoid","bonus":0.8000000000000006},{"rt":669,"stimulus":"\n                    <p><b>Action: <em>avoid</em></b></p>\n                    <p>This is the bee that you just saw.</p>\n                    <img src=\"bees-with-color/bee-B1DF.svg\" width=\"200\">\n                    <p><br>Your bonus pay is unchanged, and remains at $0.68.</p>\n            ","response":0,"trial_type":"html-button-response","trial_index":70,"time_elapsed":545906,"internal_node_id":"0.0-4.0-1.29","subject_id":"60819c01321b2aa5feabb854","study_id":"60edd13110225f80f9f3709b","session_id":"6196c1f6f6a509457ae85535","condition":"contingent","relevant_dimensions":["antennae","pattern"],"bee_group":{"antennae":"A","wings":"X","pattern":"D","legs":"X"},"bonus":0.8000000000000006},{"rt":1606,"stimulus":"bees-with-color/bee-B2DF.svg","response":1,"trial_type":"image-button-response","trial_index":71,"time_elapsed":547515,"internal_node_id":"0.0-4.0-0.30","subject_id":"60819c01321b2aa5feabb854","study_id":"60edd13110225f80f9f3709b","session_id":"6196c1f6f6a509457ae85535","condition":"contingent","relevant_dimensions":["antennae","pattern"],"bee_group":{"antennae":"A","wings":"X","pattern":"D","legs":"X"},"action":"avoid","summary":"bad-avoid","bonus":0.8000000000000006},{"rt":461,"stimulus":"\n                    <p><b>Action: <em>avoid</em></b></p>\n                    <p>This is the bee that you just saw.</p>\n                    <img src=\"bees-with-color/bee-B2DF.svg\" width=\"200\">\n                    <p><br>Your bonus pay is unchanged, and remains at $0.68.</p>\n            ","response":0,"trial_type":"html-button-response","trial_index":72,"time_elapsed":547978,"internal_node_id":"0.0-4.0-1.30","subject_id":"60819c01321b2aa5feabb854","study_id":"60edd13110225f80f9f3709b","session_id":"6196c1f6f6a509457ae85535","condition":"contingent","relevant_dimensions":["antennae","pattern"],"bee_group":{"antennae":"A","wings":"X","pattern":"D","legs":"X"},"bonus":0.8000000000000006},{"rt":914,"stimulus":"bees-with-color/bee-A2SM.svg","response":0,"trial_type":"image-button-response","trial_index":73,"time_elapsed":548895,"internal_node_id":"0.0-4.0-0.31","subject_id":"60819c01321b2aa5feabb854","study_id":"60edd13110225f80f9f3709b","session_id":"6196c1f6f6a509457ae85535","condition":"contingent","relevant_dimensions":["antennae","pattern"],"bee_group":{"antennae":"A","wings":"X","pattern":"D","legs":"X"},"action":"harvest","summary":"good-harvest","bonus":0.8000000000000006},{"rt":1195,"stimulus":"\n                    <p><b>Action: <em>harvest</em></b></p>\n                    <p>This is the bee that you just saw.</p>\n                    <img src=\"bees-with-color/bee-A2SM.svg\" width=\"200\">\n                    <p><span class=\"greenText\"><b>Successful harvest!</b></span><br>Your pay has increased by $0.02. Your bonus pay is now $0.70.</p>\n            ","response":0,"trial_type":"html-button-response","trial_index":74,"time_elapsed":550091,"internal_node_id":"0.0-4.0-1.31","subject_id":"60819c01321b2aa5feabb854","study_id":"60edd13110225f80f9f3709b","session_id":"6196c1f6f6a509457ae85535","condition":"contingent","relevant_dimensions":["antennae","pattern"],"bee_group":{"antennae":"A","wings":"X","pattern":"D","legs":"X"},"bonus":0.8000000000000006},{"rt":687,"stimulus":"bees-with-color/bee-B2DF.svg","response":1,"trial_type":"image-button-response","trial_index":75,"time_elapsed":550778,"internal_node_id":"0.0-4.0-0.32","subject_id":"60819c01321b2aa5feabb854","study_id":"60edd13110225f80f9f3709b","session_id":"6196c1f6f6a509457ae85535","condition":"contingent","relevant_dimensions":["antennae","pattern"],"bee_group":{"antennae":"A","wings":"X","pattern":"D","legs":"X"},"action":"avoid","summary":"bad-avoid","bonus":0.8000000000000006},{"rt":1857,"stimulus":"\n                    <p><b>Action: <em>avoid</em></b></p>\n                    <p>This is the bee that you just saw.</p>\n                    <img src=\"bees-with-color/bee-B2DF.svg\" width=\"200\">\n                    <p><br>Your bonus pay is unchanged, and remains at $0.70.</p>\n            ","response":0,"trial_type":"html-button-response","trial_index":76,"time_elapsed":552639,"internal_node_id":"0.0-4.0-1.32","subject_id":"60819c01321b2aa5feabb854","study_id":"60edd13110225f80f9f3709b","session_id":"6196c1f6f6a509457ae85535","condition":"contingent","relevant_dimensions":["antennae","pattern"],"bee_group":{"antennae":"A","wings":"X","pattern":"D","legs":"X"},"bonus":0.8000000000000006},{"rt":1209,"stimulus":"bees-with-color/bee-B2SM.svg","response":0,"trial_type":"image-button-response","trial_index":77,"time_elapsed":553850,"internal_node_id":"0.0-4.0-0.33","subject_id":"60819c01321b2aa5feabb854","study_id":"60edd13110225f80f9f3709b","session_id":"6196c1f6f6a509457ae85535","condition":"contingent","relevant_dimensions":["antennae","pattern"],"bee_group":{"antennae":"A","wings":"X","pattern":"D","legs":"X"},"action":"harvest","summary":"good-harvest","bonus":0.8000000000000006},{"rt":1063,"stimulus":"\n                    <p><b>Action: <em>harvest</em></b></p>\n                    <p>This is the bee that you just saw.</p>\n                    <img src=\"bees-with-color/bee-B2SM.svg\" width=\"200\">\n                    <p><span class=\"greenText\"><b>Successful harvest!</b></span><br>Your pay has increased by $0.02. Your bonus pay is now $0.72.</p>\n            ","response":0,"trial_type":"html-button-response","trial_index":78,"time_elapsed":554916,"internal_node_id":"0.0-4.0-1.33","subject_id":"60819c01321b2aa5feabb854","study_id":"60edd13110225f80f9f3709b","session_id":"6196c1f6f6a509457ae85535","condition":"contingent","relevant_dimensions":["antennae","pattern"],"bee_group":{"antennae":"A","wings":"X","pattern":"D","legs":"X"},"bonus":0.8000000000000006},{"rt":1245,"stimulus":"bees-with-color/bee-B1DM.svg","response":1,"trial_type":"image-button-response","trial_index":79,"time_elapsed":556163,"internal_node_id":"0.0-4.0-0.34","subject_id":"60819c01321b2aa5feabb854","study_id":"60edd13110225f80f9f3709b","session_id":"6196c1f6f6a509457ae85535","condition":"contingent","relevant_dimensions":["antennae","pattern"],"bee_group":{"antennae":"A","wings":"X","pattern":"D","legs":"X"},"action":"avoid","summary":"bad-avoid","bonus":0.8000000000000006},{"rt":2202,"stimulus":"\n                    <p><b>Action: <em>avoid</em></b></p>\n                    <p>This is the bee that you just saw.</p>\n                    <img src=\"bees-with-color/bee-B1DM.svg\" width=\"200\">\n                    <p><br>Your bonus pay is unchanged, and remains at $0.72.</p>\n            ","response":0,"trial_type":"html-button-response","trial_index":80,"time_elapsed":558368,"internal_node_id":"0.0-4.0-1.34","subject_id":"60819c01321b2aa5feabb854","study_id":"60edd13110225f80f9f3709b","session_id":"6196c1f6f6a509457ae85535","condition":"contingent","relevant_dimensions":["antennae","pattern"],"bee_group":{"antennae":"A","wings":"X","pattern":"D","legs":"X"},"bonus":0.8000000000000006},{"rt":810,"stimulus":"bees-with-color/bee-A2SM.svg","response":0,"trial_type":"image-button-response","trial_index":81,"time_elapsed":559179,"internal_node_id":"0.0-4.0-0.35","subject_id":"60819c01321b2aa5feabb854","study_id":"60edd13110225f80f9f3709b","session_id":"6196c1f6f6a509457ae85535","condition":"contingent","relevant_dimensions":["antennae","pattern"],"bee_group":{"antennae":"A","wings":"X","pattern":"D","legs":"X"},"action":"harvest","summary":"good-harvest","bonus":0.8000000000000006},{"rt":495,"stimulus":"\n                    <p><b>Action: <em>harvest</em></b></p>\n                    <p>This is the bee that you just saw.</p>\n                    <img src=\"bees-with-color/bee-A2SM.svg\" width=\"200\">\n                    <p><span class=\"greenText\"><b>Successful harvest!</b></span><br>Your pay has increased by $0.02. Your bonus pay is now $0.74.</p>\n            ","response":0,"trial_type":"html-button-response","trial_index":82,"time_elapsed":559674,"internal_node_id":"0.0-4.0-1.35","subject_id":"60819c01321b2aa5feabb854","study_id":"60edd13110225f80f9f3709b","session_id":"6196c1f6f6a509457ae85535","condition":"contingent","relevant_dimensions":["antennae","pattern"],"bee_group":{"antennae":"A","wings":"X","pattern":"D","legs":"X"},"bonus":0.8000000000000006},{"rt":567,"stimulus":"bees-with-color/bee-A1DM.svg","response":1,"trial_type":"image-button-response","trial_index":83,"time_elapsed":560243,"internal_node_id":"0.0-4.0-0.36","subject_id":"60819c01321b2aa5feabb854","study_id":"60edd13110225f80f9f3709b","session_id":"6196c1f6f6a509457ae85535","condition":"contingent","relevant_dimensions":["antennae","pattern"],"bee_group":{"antennae":"A","wings":"X","pattern":"D","legs":"X"},"action":"avoid","summary":"good-avoid","bonus":0.8000000000000006},{"rt":526,"stimulus":"\n                    <p><b>Action: <em>avoid</em></b></p>\n                    <p>This is the bee that you just saw.</p>\n                    <img src=\"bees-with-color/bee-A1DM.svg\" width=\"200\">\n                    <p><br>Your bonus pay is unchanged, and remains at $0.74.</p>\n            ","response":0,"trial_type":"html-button-response","trial_index":84,"time_elapsed":560771,"internal_node_id":"0.0-4.0-1.36","subject_id":"60819c01321b2aa5feabb854","study_id":"60edd13110225f80f9f3709b","session_id":"6196c1f6f6a509457ae85535","condition":"contingent","relevant_dimensions":["antennae","pattern"],"bee_group":{"antennae":"A","wings":"X","pattern":"D","legs":"X"},"bonus":0.8000000000000006},{"rt":654,"stimulus":"bees-with-color/bee-B2SF.svg","response":0,"trial_type":"image-button-response","trial_index":85,"time_elapsed":561427,"internal_node_id":"0.0-4.0-0.37","subject_id":"60819c01321b2aa5feabb854","study_id":"60edd13110225f80f9f3709b","session_id":"6196c1f6f6a509457ae85535","condition":"contingent","relevant_dimensions":["antennae","pattern"],"bee_group":{"antennae":"A","wings":"X","pattern":"D","legs":"X"},"action":"harvest","summary":"good-harvest","bonus":0.8000000000000006},{"rt":614,"stimulus":"\n                    <p><b>Action: <em>harvest</em></b></p>\n                    <p>This is the bee that you just saw.</p>\n                    <img src=\"bees-with-color/bee-B2SF.svg\" width=\"200\">\n                    <p><span class=\"greenText\"><b>Successful harvest!</b></span><br>Your pay has increased by $0.02. Your bonus pay is now $0.76.</p>\n            ","response":0,"trial_type":"html-button-response","trial_index":86,"time_elapsed":562043,"internal_node_id":"0.0-4.0-1.37","subject_id":"60819c01321b2aa5feabb854","study_id":"60edd13110225f80f9f3709b","session_id":"6196c1f6f6a509457ae85535","condition":"contingent","relevant_dimensions":["antennae","pattern"],"bee_group":{"antennae":"A","wings":"X","pattern":"D","legs":"X"},"bonus":0.8000000000000006},{"rt":1110,"stimulus":"bees-with-color/bee-A1SM.svg","response":1,"trial_type":"image-button-response","trial_index":87,"time_elapsed":563155,"internal_node_id":"0.0-4.0-0.38","subject_id":"60819c01321b2aa5feabb854","study_id":"60edd13110225f80f9f3709b","session_id":"6196c1f6f6a509457ae85535","condition":"contingent","relevant_dimensions":["antennae","pattern"],"bee_group":{"antennae":"A","wings":"X","pattern":"D","legs":"X"},"action":"avoid","summary":"bad-avoid","bonus":0.8000000000000006},{"rt":887,"stimulus":"\n                    <p><b>Action: <em>avoid</em></b></p>\n                    <p>This is the bee that you just saw.</p>\n                    <img src=\"bees-with-color/bee-A1SM.svg\" width=\"200\">\n                    <p><br>Your bonus pay is unchanged, and remains at $0.76.</p>\n            ","response":0,"trial_type":"html-button-response","trial_index":88,"time_elapsed":564043,"internal_node_id":"0.0-4.0-1.38","subject_id":"60819c01321b2aa5feabb854","study_id":"60edd13110225f80f9f3709b","session_id":"6196c1f6f6a509457ae85535","condition":"contingent","relevant_dimensions":["antennae","pattern"],"bee_group":{"antennae":"A","wings":"X","pattern":"D","legs":"X"},"bonus":0.8000000000000006},{"rt":767,"stimulus":"bees-with-color/bee-A1DF.svg","response":1,"trial_type":"image-button-response","trial_index":89,"time_elapsed":564812,"internal_node_id":"0.0-4.0-0.39","subject_id":"60819c01321b2aa5feabb854","study_id":"60edd13110225f80f9f3709b","session_id":"6196c1f6f6a509457ae85535","condition":"contingent","relevant_dimensions":["antennae","pattern"],"bee_group":{"antennae":"A","wings":"X","pattern":"D","legs":"X"},"action":"avoid","summary":"good-avoid","bonus":0.8000000000000006},{"rt":420,"stimulus":"\n                    <p><b>Action: <em>avoid</em></b></p>\n                    <p>This is the bee that you just saw.</p>\n                    <img src=\"bees-with-color/bee-A1DF.svg\" width=\"200\">\n                    <p><br>Your bonus pay is unchanged, and remains at $0.76.</p>\n            ","response":0,"trial_type":"html-button-response","trial_index":90,"time_elapsed":565234,"internal_node_id":"0.0-4.0-1.39","subject_id":"60819c01321b2aa5feabb854","study_id":"60edd13110225f80f9f3709b","session_id":"6196c1f6f6a509457ae85535","condition":"contingent","relevant_dimensions":["antennae","pattern"],"bee_group":{"antennae":"A","wings":"X","pattern":"D","legs":"X"},"bonus":0.8000000000000006},{"rt":943,"stimulus":"bees-with-color/bee-B1SM.svg","response":1,"trial_type":"image-button-response","trial_index":91,"time_elapsed":566179,"internal_node_id":"0.0-4.0-0.40","subject_id":"60819c01321b2aa5feabb854","study_id":"60edd13110225f80f9f3709b","session_id":"6196c1f6f6a509457ae85535","condition":"contingent","relevant_dimensions":["antennae","pattern"],"bee_group":{"antennae":"A","wings":"X","pattern":"D","legs":"X"},"action":"avoid","summary":"bad-avoid","bonus":0.8000000000000006},{"rt":426,"stimulus":"\n                    <p><b>Action: <em>avoid</em></b></p>\n                    <p>This is the bee that you just saw.</p>\n                    <img src=\"bees-with-color/bee-B1SM.svg\" width=\"200\">\n                    <p><br>Your bonus pay is unchanged, and remains at $0.76.</p>\n            ","response":0,"trial_type":"html-button-response","trial_index":92,"time_elapsed":566606,"internal_node_id":"0.0-4.0-1.40","subject_id":"60819c01321b2aa5feabb854","study_id":"60edd13110225f80f9f3709b","session_id":"6196c1f6f6a509457ae85535","condition":"contingent","relevant_dimensions":["antennae","pattern"],"bee_group":{"antennae":"A","wings":"X","pattern":"D","legs":"X"},"bonus":0.8000000000000006},{"rt":1881,"stimulus":"bees-with-color/bee-A2DM.svg","response":1,"trial_type":"image-button-response","trial_index":93,"time_elapsed":568490,"internal_node_id":"0.0-4.0-0.41","subject_id":"60819c01321b2aa5feabb854","study_id":"60edd13110225f80f9f3709b","session_id":"6196c1f6f6a509457ae85535","condition":"contingent","relevant_dimensions":["antennae","pattern"],"bee_group":{"antennae":"A","wings":"X","pattern":"D","legs":"X"},"action":"avoid","summary":"good-avoid","bonus":0.8000000000000006},{"rt":407,"stimulus":"\n                    <p><b>Action: <em>avoid</em></b></p>\n                    <p>This is the bee that you just saw.</p>\n                    <img src=\"bees-with-color/bee-A2DM.svg\" width=\"200\">\n                    <p><br>Your bonus pay is unchanged, and remains at $0.76.</p>\n            ","response":0,"trial_type":"html-button-response","trial_index":94,"time_elapsed":568899,"internal_node_id":"0.0-4.0-1.41","subject_id":"60819c01321b2aa5feabb854","study_id":"60edd13110225f80f9f3709b","session_id":"6196c1f6f6a509457ae85535","condition":"contingent","relevant_dimensions":["antennae","pattern"],"bee_group":{"antennae":"A","wings":"X","pattern":"D","legs":"X"},"bonus":0.8000000000000006},{"rt":623,"stimulus":"bees-with-color/bee-B2DM.svg","response":1,"trial_type":"image-button-response","trial_index":95,"time_elapsed":569524,"internal_node_id":"0.0-4.0-0.42","subject_id":"60819c01321b2aa5feabb854","study_id":"60edd13110225f80f9f3709b","session_id":"6196c1f6f6a509457ae85535","condition":"contingent","relevant_dimensions":["antennae","pattern"],"bee_group":{"antennae":"A","wings":"X","pattern":"D","legs":"X"},"action":"avoid","summary":"bad-avoid","bonus":0.8000000000000006},{"rt":397,"stimulus":"\n                    <p><b>Action: <em>avoid</em></b></p>\n                    <p>This is the bee that you just saw.</p>\n                    <img src=\"bees-with-color/bee-B2DM.svg\" width=\"200\">\n                    <p><br>Your bonus pay is unchanged, and remains at $0.76.</p>\n            ","response":0,"trial_type":"html-button-response","trial_index":96,"time_elapsed":569923,"internal_node_id":"0.0-4.0-1.42","subject_id":"60819c01321b2aa5feabb854","study_id":"60edd13110225f80f9f3709b","session_id":"6196c1f6f6a509457ae85535","condition":"contingent","relevant_dimensions":["antennae","pattern"],"bee_group":{"antennae":"A","wings":"X","pattern":"D","legs":"X"},"bonus":0.8000000000000006},{"rt":776,"stimulus":"bees-with-color/bee-A1SF.svg","response":1,"trial_type":"image-button-response","trial_index":97,"time_elapsed":570700,"internal_node_id":"0.0-4.0-0.43","subject_id":"60819c01321b2aa5feabb854","study_id":"60edd13110225f80f9f3709b","session_id":"6196c1f6f6a509457ae85535","condition":"contingent","relevant_dimensions":["antennae","pattern"],"bee_group":{"antennae":"A","wings":"X","pattern":"D","legs":"X"},"action":"avoid","summary":"bad-avoid","bonus":0.8000000000000006},{"rt":382,"stimulus":"\n                    <p><b>Action: <em>avoid</em></b></p>\n                    <p>This is the bee that you just saw.</p>\n                    <img src=\"bees-with-color/bee-A1SF.svg\" width=\"200\">\n                    <p><br>Your bonus pay is unchanged, and remains at $0.76.</p>\n            ","response":0,"trial_type":"html-button-response","trial_index":98,"time_elapsed":571082,"internal_node_id":"0.0-4.0-1.43","subject_id":"60819c01321b2aa5feabb854","study_id":"60edd13110225f80f9f3709b","session_id":"6196c1f6f6a509457ae85535","condition":"contingent","relevant_dimensions":["antennae","pattern"],"bee_group":{"antennae":"A","wings":"X","pattern":"D","legs":"X"},"bonus":0.8000000000000006},{"rt":1479,"stimulus":"bees-with-color/bee-B1DF.svg","response":1,"trial_type":"image-button-response","trial_index":99,"time_elapsed":572564,"internal_node_id":"0.0-4.0-0.44","subject_id":"60819c01321b2aa5feabb854","study_id":"60edd13110225f80f9f3709b","session_id":"6196c1f6f6a509457ae85535","condition":"contingent","relevant_dimensions":["antennae","pattern"],"bee_group":{"antennae":"A","wings":"X","pattern":"D","legs":"X"},"action":"avoid","summary":"bad-avoid","bonus":0.8000000000000006},{"rt":1533,"stimulus":"\n                    <p><b>Action: <em>avoid</em></b></p>\n                    <p>This is the bee that you just saw.</p>\n                    <img src=\"bees-with-color/bee-B1DF.svg\" width=\"200\">\n                    <p><br>Your bonus pay is unchanged, and remains at $0.76.</p>\n            ","response":0,"trial_type":"html-button-response","trial_index":100,"time_elapsed":574099,"internal_node_id":"0.0-4.0-1.44","subject_id":"60819c01321b2aa5feabb854","study_id":"60edd13110225f80f9f3709b","session_id":"6196c1f6f6a509457ae85535","condition":"contingent","relevant_dimensions":["antennae","pattern"],"bee_group":{"antennae":"A","wings":"X","pattern":"D","legs":"X"},"bonus":0.8000000000000006},{"rt":1069,"stimulus":"bees-with-color/bee-A2SF.svg","response":0,"trial_type":"image-button-response","trial_index":101,"time_elapsed":575170,"internal_node_id":"0.0-4.0-0.45","subject_id":"60819c01321b2aa5feabb854","study_id":"60edd13110225f80f9f3709b","session_id":"6196c1f6f6a509457ae85535","condition":"contingent","relevant_dimensions":["antennae","pattern"],"bee_group":{"antennae":"A","wings":"X","pattern":"D","legs":"X"},"action":"harvest","summary":"good-harvest","bonus":0.8000000000000006},{"rt":470,"stimulus":"\n                    <p><b>Action: <em>harvest</em></b></p>\n                    <p>This is the bee that you just saw.</p>\n                    <img src=\"bees-with-color/bee-A2SF.svg\" width=\"200\">\n                    <p><span class=\"greenText\"><b>Successful harvest!</b></span><br>Your pay has increased by $0.02. Your bonus pay is now $0.78.</p>\n            ","response":0,"trial_type":"html-button-response","trial_index":102,"time_elapsed":575643,"internal_node_id":"0.0-4.0-1.45","subject_id":"60819c01321b2aa5feabb854","study_id":"60edd13110225f80f9f3709b","session_id":"6196c1f6f6a509457ae85535","condition":"contingent","relevant_dimensions":["antennae","pattern"],"bee_group":{"antennae":"A","wings":"X","pattern":"D","legs":"X"},"bonus":0.8000000000000006},{"rt":494,"stimulus":"bees-with-color/bee-A2DF.svg","response":1,"trial_type":"image-button-response","trial_index":103,"time_elapsed":576139,"internal_node_id":"0.0-4.0-0.46","subject_id":"60819c01321b2aa5feabb854","study_id":"60edd13110225f80f9f3709b","session_id":"6196c1f6f6a509457ae85535","condition":"contingent","relevant_dimensions":["antennae","pattern"],"bee_group":{"antennae":"A","wings":"X","pattern":"D","legs":"X"},"action":"avoid","summary":"good-avoid","bonus":0.8000000000000006},{"rt":374,"stimulus":"\n                    <p><b>Action: <em>avoid</em></b></p>\n                    <p>This is the bee that you just saw.</p>\n                    <img src=\"bees-with-color/bee-A2DF.svg\" width=\"200\">\n                    <p><br>Your bonus pay is unchanged, and remains at $0.78.</p>\n            ","response":0,"trial_type":"html-button-response","trial_index":104,"time_elapsed":576514,"internal_node_id":"0.0-4.0-1.46","subject_id":"60819c01321b2aa5feabb854","study_id":"60edd13110225f80f9f3709b","session_id":"6196c1f6f6a509457ae85535","condition":"contingent","relevant_dimensions":["antennae","pattern"],"bee_group":{"antennae":"A","wings":"X","pattern":"D","legs":"X"},"bonus":0.8000000000000006},{"rt":544,"stimulus":"bees-with-color/bee-B1SF.svg","response":1,"trial_type":"image-button-response","trial_index":105,"time_elapsed":577060,"internal_node_id":"0.0-4.0-0.47","subject_id":"60819c01321b2aa5feabb854","study_id":"60edd13110225f80f9f3709b","session_id":"6196c1f6f6a509457ae85535","condition":"contingent","relevant_dimensions":["antennae","pattern"],"bee_group":{"antennae":"A","wings":"X","pattern":"D","legs":"X"},"action":"avoid","summary":"bad-avoid","bonus":0.8000000000000006},{"rt":516,"stimulus":"\n                    <p><b>Action: <em>avoid</em></b></p>\n                    <p>This is the bee that you just saw.</p>\n                    <img src=\"bees-with-color/bee-B1SF.svg\" width=\"200\">\n                    <p><br>Your bonus pay is unchanged, and remains at $0.78.</p>\n            ","response":0,"trial_type":"html-button-response","trial_index":106,"time_elapsed":577579,"internal_node_id":"0.0-4.0-1.47","subject_id":"60819c01321b2aa5feabb854","study_id":"60edd13110225f80f9f3709b","session_id":"6196c1f6f6a509457ae85535","condition":"contingent","relevant_dimensions":["antennae","pattern"],"bee_group":{"antennae":"A","wings":"X","pattern":"D","legs":"X"},"bonus":0.8000000000000006},{"rt":696,"stimulus":"bees-with-color/bee-A1DF.svg","response":1,"trial_type":"image-button-response","trial_index":107,"time_elapsed":578275,"internal_node_id":"0.0-4.0-0.48","subject_id":"60819c01321b2aa5feabb854","study_id":"60edd13110225f80f9f3709b","session_id":"6196c1f6f6a509457ae85535","condition":"contingent","relevant_dimensions":["antennae","pattern"],"bee_group":{"antennae":"A","wings":"X","pattern":"D","legs":"X"},"action":"avoid","summary":"good-avoid","bonus":0.8000000000000006},{"rt":462,"stimulus":"\n                    <p><b>Action: <em>avoid</em></b></p>\n                    <p>This is the bee that you just saw.</p>\n                    <img src=\"bees-with-color/bee-A1DF.svg\" width=\"200\">\n                    <p><br>Your bonus pay is unchanged, and remains at $0.78.</p>\n            ","response":0,"trial_type":"html-button-response","trial_index":108,"time_elapsed":578738,"internal_node_id":"0.0-4.0-1.48","subject_id":"60819c01321b2aa5feabb854","study_id":"60edd13110225f80f9f3709b","session_id":"6196c1f6f6a509457ae85535","condition":"contingent","relevant_dimensions":["antennae","pattern"],"bee_group":{"antennae":"A","wings":"X","pattern":"D","legs":"X"},"bonus":0.8000000000000006},{"rt":934,"stimulus":"bees-with-color/bee-B2DM.svg","response":1,"trial_type":"image-button-response","trial_index":109,"time_elapsed":579675,"internal_node_id":"0.0-4.0-0.49","subject_id":"60819c01321b2aa5feabb854","study_id":"60edd13110225f80f9f3709b","session_id":"6196c1f6f6a509457ae85535","condition":"contingent","relevant_dimensions":["antennae","pattern"],"bee_group":{"antennae":"A","wings":"X","pattern":"D","legs":"X"},"action":"avoid","summary":"bad-avoid","bonus":0.8000000000000006},{"rt":462,"stimulus":"\n                    <p><b>Action: <em>avoid</em></b></p>\n                    <p>This is the bee that you just saw.</p>\n                    <img src=\"bees-with-color/bee-B2DM.svg\" width=\"200\">\n                    <p><br>Your bonus pay is unchanged, and remains at $0.78.</p>\n            ","response":0,"trial_type":"html-button-response","trial_index":110,"time_elapsed":580139,"internal_node_id":"0.0-4.0-1.49","subject_id":"60819c01321b2aa5feabb854","study_id":"60edd13110225f80f9f3709b","session_id":"6196c1f6f6a509457ae85535","condition":"contingent","relevant_dimensions":["antennae","pattern"],"bee_group":{"antennae":"A","wings":"X","pattern":"D","legs":"X"},"bonus":0.8000000000000006},{"rt":623,"stimulus":"bees-with-color/bee-A2DF.svg","response":1,"trial_type":"image-button-response","trial_index":111,"time_elapsed":580764,"internal_node_id":"0.0-4.0-0.50","subject_id":"60819c01321b2aa5feabb854","study_id":"60edd13110225f80f9f3709b","session_id":"6196c1f6f6a509457ae85535","condition":"contingent","relevant_dimensions":["antennae","pattern"],"bee_group":{"antennae":"A","wings":"X","pattern":"D","legs":"X"},"action":"avoid","summary":"good-avoid","bonus":0.8000000000000006},{"rt":453,"stimulus":"\n                    <p><b>Action: <em>avoid</em></b></p>\n                    <p>This is the bee that you just saw.</p>\n                    <img src=\"bees-with-color/bee-A2DF.svg\" width=\"200\">\n                    <p><br>Your bonus pay is unchanged, and remains at $0.78.</p>\n            ","response":0,"trial_type":"html-button-response","trial_index":112,"time_elapsed":581219,"internal_node_id":"0.0-4.0-1.50","subject_id":"60819c01321b2aa5feabb854","study_id":"60edd13110225f80f9f3709b","session_id":"6196c1f6f6a509457ae85535","condition":"contingent","relevant_dimensions":["antennae","pattern"],"bee_group":{"antennae":"A","wings":"X","pattern":"D","legs":"X"},"bonus":0.8000000000000006},{"rt":894,"stimulus":"bees-with-color/bee-B2SM.svg","response":0,"trial_type":"image-button-response","trial_index":113,"time_elapsed":582116,"internal_node_id":"0.0-4.0-0.51","subject_id":"60819c01321b2aa5feabb854","study_id":"60edd13110225f80f9f3709b","session_id":"6196c1f6f6a509457ae85535","condition":"contingent","relevant_dimensions":["antennae","pattern"],"bee_group":{"antennae":"A","wings":"X","pattern":"D","legs":"X"},"action":"harvest","summary":"good-harvest","bonus":0.8000000000000006},{"rt":765,"stimulus":"\n                    <p><b>Action: <em>harvest</em></b></p>\n                    <p>This is the bee that you just saw.</p>\n                    <img src=\"bees-with-color/bee-B2SM.svg\" width=\"200\">\n                    <p><span class=\"greenText\"><b>Successful harvest!</b></span><br>Your pay has increased by $0.02. Your bonus pay is now $0.80.</p>\n            ","response":0,"trial_type":"html-button-response","trial_index":114,"time_elapsed":582883,"internal_node_id":"0.0-4.0-1.51","subject_id":"60819c01321b2aa5feabb854","study_id":"60edd13110225f80f9f3709b","session_id":"6196c1f6f6a509457ae85535","condition":"contingent","relevant_dimensions":["antennae","pattern"],"bee_group":{"antennae":"A","wings":"X","pattern":"D","legs":"X"},"bonus":0.8000000000000006},{"rt":750,"stimulus":"bees-with-color/bee-B1DM.svg","response":1,"trial_type":"image-button-response","trial_index":115,"time_elapsed":583634,"internal_node_id":"0.0-4.0-0.52","subject_id":"60819c01321b2aa5feabb854","study_id":"60edd13110225f80f9f3709b","session_id":"6196c1f6f6a509457ae85535","condition":"contingent","relevant_dimensions":["antennae","pattern"],"bee_group":{"antennae":"A","wings":"X","pattern":"D","legs":"X"},"action":"avoid","summary":"bad-avoid","bonus":0.8000000000000006},{"rt":480,"stimulus":"\n                    <p><b>Action: <em>avoid</em></b></p>\n                    <p>This is the bee that you just saw.</p>\n                    <img src=\"bees-with-color/bee-B1DM.svg\" width=\"200\">\n                    <p><br>Your bonus pay is unchanged, and remains at $0.80.</p>\n            ","response":0,"trial_type":"html-button-response","trial_index":116,"time_elapsed":584115,"internal_node_id":"0.0-4.0-1.52","subject_id":"60819c01321b2aa5feabb854","study_id":"60edd13110225f80f9f3709b","session_id":"6196c1f6f6a509457ae85535","condition":"contingent","relevant_dimensions":["antennae","pattern"],"bee_group":{"antennae":"A","wings":"X","pattern":"D","legs":"X"},"bonus":0.8000000000000006},{"rt":2564,"stimulus":"bees-with-color/bee-B1SM.svg","response":1,"trial_type":"image-button-response","trial_index":117,"time_elapsed":586683,"internal_node_id":"0.0-4.0-0.53","subject_id":"60819c01321b2aa5feabb854","study_id":"60edd13110225f80f9f3709b","session_id":"6196c1f6f6a509457ae85535","condition":"contingent","relevant_dimensions":["antennae","pattern"],"bee_group":{"antennae":"A","wings":"X","pattern":"D","legs":"X"},"action":"avoid","summary":"bad-avoid","bonus":0.8000000000000006},{"rt":606,"stimulus":"\n                    <p><b>Action: <em>avoid</em></b></p>\n                    <p>This is the bee that you just saw.</p>\n                    <img src=\"bees-with-color/bee-B1SM.svg\" width=\"200\">\n                    <p><br>Your bonus pay is unchanged, and remains at $0.80.</p>\n            ","response":0,"trial_type":"html-button-response","trial_index":118,"time_elapsed":587293,"internal_node_id":"0.0-4.0-1.53","subject_id":"60819c01321b2aa5feabb854","study_id":"60edd13110225f80f9f3709b","session_id":"6196c1f6f6a509457ae85535","condition":"contingent","relevant_dimensions":["antennae","pattern"],"bee_group":{"antennae":"A","wings":"X","pattern":"D","legs":"X"},"bonus":0.8000000000000006},{"rt":1067,"stimulus":"bees-with-color/bee-A2SF.svg","response":0,"trial_type":"image-button-response","trial_index":119,"time_elapsed":588363,"internal_node_id":"0.0-4.0-0.54","subject_id":"60819c01321b2aa5feabb854","study_id":"60edd13110225f80f9f3709b","session_id":"6196c1f6f6a509457ae85535","condition":"contingent","relevant_dimensions":["antennae","pattern"],"bee_group":{"antennae":"A","wings":"X","pattern":"D","legs":"X"},"action":"harvest","summary":"good-harvest","bonus":0.8000000000000006},{"rt":470,"stimulus":"\n                    <p><b>Action: <em>harvest</em></b></p>\n                    <p>This is the bee that you just saw.</p>\n                    <img src=\"bees-with-color/bee-A2SF.svg\" width=\"200\">\n                    <p><span class=\"greenText\"><b>Successful harvest!</b></span><br>Your pay has increased by $0.02. Your bonus pay is now $0.82.</p>\n            ","response":0,"trial_type":"html-button-response","trial_index":120,"time_elapsed":588834,"internal_node_id":"0.0-4.0-1.54","subject_id":"60819c01321b2aa5feabb854","study_id":"60edd13110225f80f9f3709b","session_id":"6196c1f6f6a509457ae85535","condition":"contingent","relevant_dimensions":["antennae","pattern"],"bee_group":{"antennae":"A","wings":"X","pattern":"D","legs":"X"},"bonus":0.8000000000000006},{"rt":706,"stimulus":"bees-with-color/bee-B1DF.svg","response":1,"trial_type":"image-button-response","trial_index":121,"time_elapsed":589543,"internal_node_id":"0.0-4.0-0.55","subject_id":"60819c01321b2aa5feabb854","study_id":"60edd13110225f80f9f3709b","session_id":"6196c1f6f6a509457ae85535","condition":"contingent","relevant_dimensions":["antennae","pattern"],"bee_group":{"antennae":"A","wings":"X","pattern":"D","legs":"X"},"action":"avoid","summary":"bad-avoid","bonus":0.8000000000000006},{"rt":435,"stimulus":"\n                    <p><b>Action: <em>avoid</em></b></p>\n                    <p>This is the bee that you just saw.</p>\n                    <img src=\"bees-with-color/bee-B1DF.svg\" width=\"200\">\n                    <p><br>Your bonus pay is unchanged, and remains at $0.82.</p>\n            ","response":0,"trial_type":"html-button-response","trial_index":122,"time_elapsed":589979,"internal_node_id":"0.0-4.0-1.55","subject_id":"60819c01321b2aa5feabb854","study_id":"60edd13110225f80f9f3709b","session_id":"6196c1f6f6a509457ae85535","condition":"contingent","relevant_dimensions":["antennae","pattern"],"bee_group":{"antennae":"A","wings":"X","pattern":"D","legs":"X"},"bonus":0.8000000000000006},{"rt":983,"stimulus":"bees-with-color/bee-B1SF.svg","response":1,"trial_type":"image-button-response","trial_index":123,"time_elapsed":590963,"internal_node_id":"0.0-4.0-0.56","subject_id":"60819c01321b2aa5feabb854","study_id":"60edd13110225f80f9f3709b","session_id":"6196c1f6f6a509457ae85535","condition":"contingent","relevant_dimensions":["antennae","pattern"],"bee_group":{"antennae":"A","wings":"X","pattern":"D","legs":"X"},"action":"avoid","summary":"bad-avoid","bonus":0.8000000000000006},{"rt":410,"stimulus":"\n                    <p><b>Action: <em>avoid</em></b></p>\n                    <p>This is the bee that you just saw.</p>\n                    <img src=\"bees-with-color/bee-B1SF.svg\" width=\"200\">\n                    <p><br>Your bonus pay is unchanged, and remains at $0.82.</p>\n            ","response":0,"trial_type":"html-button-response","trial_index":124,"time_elapsed":591376,"internal_node_id":"0.0-4.0-1.56","subject_id":"60819c01321b2aa5feabb854","study_id":"60edd13110225f80f9f3709b","session_id":"6196c1f6f6a509457ae85535","condition":"contingent","relevant_dimensions":["antennae","pattern"],"bee_group":{"antennae":"A","wings":"X","pattern":"D","legs":"X"},"bonus":0.8000000000000006},{"rt":1106,"stimulus":"bees-with-color/bee-A1DM.svg","response":1,"trial_type":"image-button-response","trial_index":125,"time_elapsed":592483,"internal_node_id":"0.0-4.0-0.57","subject_id":"60819c01321b2aa5feabb854","study_id":"60edd13110225f80f9f3709b","session_id":"6196c1f6f6a509457ae85535","condition":"contingent","relevant_dimensions":["antennae","pattern"],"bee_group":{"antennae":"A","wings":"X","pattern":"D","legs":"X"},"action":"avoid","summary":"good-avoid","bonus":0.8000000000000006},{"rt":478,"stimulus":"\n                    <p><b>Action: <em>avoid</em></b></p>\n                    <p>This is the bee that you just saw.</p>\n                    <img src=\"bees-with-color/bee-A1DM.svg\" width=\"200\">\n                    <p><br>Your bonus pay is unchanged, and remains at $0.82.</p>\n            ","response":0,"trial_type":"html-button-response","trial_index":126,"time_elapsed":592962,"internal_node_id":"0.0-4.0-1.57","subject_id":"60819c01321b2aa5feabb854","study_id":"60edd13110225f80f9f3709b","session_id":"6196c1f6f6a509457ae85535","condition":"contingent","relevant_dimensions":["antennae","pattern"],"bee_group":{"antennae":"A","wings":"X","pattern":"D","legs":"X"},"bonus":0.8000000000000006},{"rt":954,"stimulus":"bees-with-color/bee-A1SF.svg","response":1,"trial_type":"image-button-response","trial_index":127,"time_elapsed":593920,"internal_node_id":"0.0-4.0-0.58","subject_id":"60819c01321b2aa5feabb854","study_id":"60edd13110225f80f9f3709b","session_id":"6196c1f6f6a509457ae85535","condition":"contingent","relevant_dimensions":["antennae","pattern"],"bee_group":{"antennae":"A","wings":"X","pattern":"D","legs":"X"},"action":"avoid","summary":"bad-avoid","bonus":0.8000000000000006},{"rt":464,"stimulus":"\n                    <p><b>Action: <em>avoid</em></b></p>\n                    <p>This is the bee that you just saw.</p>\n                    <img src=\"bees-with-color/bee-A1SF.svg\" width=\"200\">\n                    <p><br>Your bonus pay is unchanged, and remains at $0.82.</p>\n            ","response":0,"trial_type":"html-button-response","trial_index":128,"time_elapsed":594386,"internal_node_id":"0.0-4.0-1.58","subject_id":"60819c01321b2aa5feabb854","study_id":"60edd13110225f80f9f3709b","session_id":"6196c1f6f6a509457ae85535","condition":"contingent","relevant_dimensions":["antennae","pattern"],"bee_group":{"antennae":"A","wings":"X","pattern":"D","legs":"X"},"bonus":0.8000000000000006},{"rt":855,"stimulus":"bees-with-color/bee-B2SF.svg","response":0,"trial_type":"image-button-response","trial_index":129,"time_elapsed":595242,"internal_node_id":"0.0-4.0-0.59","subject_id":"60819c01321b2aa5feabb854","study_id":"60edd13110225f80f9f3709b","session_id":"6196c1f6f6a509457ae85535","condition":"contingent","relevant_dimensions":["antennae","pattern"],"bee_group":{"antennae":"A","wings":"X","pattern":"D","legs":"X"},"action":"harvest","summary":"good-harvest","bonus":0.8000000000000006},{"rt":461,"stimulus":"\n                    <p><b>Action: <em>harvest</em></b></p>\n                    <p>This is the bee that you just saw.</p>\n                    <img src=\"bees-with-color/bee-B2SF.svg\" width=\"200\">\n                    <p><span class=\"greenText\"><b>Successful harvest!</b></span><br>Your pay has increased by $0.02. Your bonus pay is now $0.84.</p>\n            ","response":0,"trial_type":"html-button-response","trial_index":130,"time_elapsed":595706,"internal_node_id":"0.0-4.0-1.59","subject_id":"60819c01321b2aa5feabb854","study_id":"60edd13110225f80f9f3709b","session_id":"6196c1f6f6a509457ae85535","condition":"contingent","relevant_dimensions":["antennae","pattern"],"bee_group":{"antennae":"A","wings":"X","pattern":"D","legs":"X"},"bonus":0.8000000000000006},{"rt":624,"stimulus":"bees-with-color/bee-A1SM.svg","response":1,"trial_type":"image-button-response","trial_index":131,"time_elapsed":596331,"internal_node_id":"0.0-4.0-0.60","subject_id":"60819c01321b2aa5feabb854","study_id":"60edd13110225f80f9f3709b","session_id":"6196c1f6f6a509457ae85535","condition":"contingent","relevant_dimensions":["antennae","pattern"],"bee_group":{"antennae":"A","wings":"X","pattern":"D","legs":"X"},"action":"avoid","summary":"bad-avoid","bonus":0.8000000000000006},{"rt":1046,"stimulus":"\n                    <p><b>Action: <em>avoid</em></b></p>\n                    <p>This is the bee that you just saw.</p>\n                    <img src=\"bees-with-color/bee-A1SM.svg\" width=\"200\">\n                    <p><br>Your bonus pay is unchanged, and remains at $0.84.</p>\n            ","response":0,"trial_type":"html-button-response","trial_index":132,"time_elapsed":597379,"internal_node_id":"0.0-4.0-1.60","subject_id":"60819c01321b2aa5feabb854","study_id":"60edd13110225f80f9f3709b","session_id":"6196c1f6f6a509457ae85535","condition":"contingent","relevant_dimensions":["antennae","pattern"],"bee_group":{"antennae":"A","wings":"X","pattern":"D","legs":"X"},"bonus":0.8000000000000006},{"rt":1049,"stimulus":"bees-with-color/bee-A2SM.svg","response":0,"trial_type":"image-button-response","trial_index":133,"time_elapsed":598430,"internal_node_id":"0.0-4.0-0.61","subject_id":"60819c01321b2aa5feabb854","study_id":"60edd13110225f80f9f3709b","session_id":"6196c1f6f6a509457ae85535","condition":"contingent","relevant_dimensions":["antennae","pattern"],"bee_group":{"antennae":"A","wings":"X","pattern":"D","legs":"X"},"action":"harvest","summary":"good-harvest","bonus":0.8000000000000006},{"rt":442,"stimulus":"\n                    <p><b>Action: <em>harvest</em></b></p>\n                    <p>This is the bee that you just saw.</p>\n                    <img src=\"bees-with-color/bee-A2SM.svg\" width=\"200\">\n                    <p><span class=\"greenText\"><b>Successful harvest!</b></span><br>Your pay has increased by $0.02. Your bonus pay is now $0.86.</p>\n            ","response":0,"trial_type":"html-button-response","trial_index":134,"time_elapsed":598875,"internal_node_id":"0.0-4.0-1.61","subject_id":"60819c01321b2aa5feabb854","study_id":"60edd13110225f80f9f3709b","session_id":"6196c1f6f6a509457ae85535","condition":"contingent","relevant_dimensions":["antennae","pattern"],"bee_group":{"antennae":"A","wings":"X","pattern":"D","legs":"X"},"bonus":0.8000000000000006},{"rt":823,"stimulus":"bees-with-color/bee-A2DM.svg","response":1,"trial_type":"image-button-response","trial_index":135,"time_elapsed":599698,"internal_node_id":"0.0-4.0-0.62","subject_id":"60819c01321b2aa5feabb854","study_id":"60edd13110225f80f9f3709b","session_id":"6196c1f6f6a509457ae85535","condition":"contingent","relevant_dimensions":["antennae","pattern"],"bee_group":{"antennae":"A","wings":"X","pattern":"D","legs":"X"},"action":"avoid","summary":"good-avoid","bonus":0.8000000000000006},{"rt":398,"stimulus":"\n                    <p><b>Action: <em>avoid</em></b></p>\n                    <p>This is the bee that you just saw.</p>\n                    <img src=\"bees-with-color/bee-A2DM.svg\" width=\"200\">\n                    <p><br>Your bonus pay is unchanged, and remains at $0.86.</p>\n            ","response":0,"trial_type":"html-button-response","trial_index":136,"time_elapsed":600098,"internal_node_id":"0.0-4.0-1.62","subject_id":"60819c01321b2aa5feabb854","study_id":"60edd13110225f80f9f3709b","session_id":"6196c1f6f6a509457ae85535","condition":"contingent","relevant_dimensions":["antennae","pattern"],"bee_group":{"antennae":"A","wings":"X","pattern":"D","legs":"X"},"bonus":0.8000000000000006},{"rt":912,"stimulus":"bees-with-color/bee-B2DF.svg","response":1,"trial_type":"image-button-response","trial_index":137,"time_elapsed":601012,"internal_node_id":"0.0-4.0-0.63","subject_id":"60819c01321b2aa5feabb854","study_id":"60edd13110225f80f9f3709b","session_id":"6196c1f6f6a509457ae85535","condition":"contingent","relevant_dimensions":["antennae","pattern"],"bee_group":{"antennae":"A","wings":"X","pattern":"D","legs":"X"},"action":"avoid","summary":"bad-avoid","bonus":0.8000000000000006},{"rt":380,"stimulus":"\n                    <p><b>Action: <em>avoid</em></b></p>\n                    <p>This is the bee that you just saw.</p>\n                    <img src=\"bees-with-color/bee-B2DF.svg\" width=\"200\">\n                    <p><br>Your bonus pay is unchanged, and remains at $0.86.</p>\n            ","response":0,"trial_type":"html-button-response","trial_index":138,"time_elapsed":601394,"internal_node_id":"0.0-4.0-1.63","subject_id":"60819c01321b2aa5feabb854","study_id":"60edd13110225f80f9f3709b","session_id":"6196c1f6f6a509457ae85535","condition":"contingent","relevant_dimensions":["antennae","pattern"],"bee_group":{"antennae":"A","wings":"X","pattern":"D","legs":"X"},"bonus":0.8000000000000006},{"rt":7000,"stimulus":"You have completed the first part of this experiment.<br><br>You will now begin a shorter second part, in which you will receive no feedback.<br>The same rules regarding bonus pay apply.<br><br>Press any key to begin.","response":" ","trial_type":"html-keyboard-response","trial_index":139,"time_elapsed":608397,"internal_node_id":"0.0-5.0","subject_id":"60819c01321b2aa5feabb854","study_id":"60edd13110225f80f9f3709b","session_id":"6196c1f6f6a509457ae85535","condition":"contingent","relevant_dimensions":["antennae","pattern"],"bee_group":{"antennae":"A","wings":"X","pattern":"D","legs":"X"},"bonus":0.8000000000000006},{"rt":5107,"stimulus":"bees-with-color/bee-B1DF.svg","response":0,"trial_type":"image-button-response","trial_index":140,"time_elapsed":613505,"internal_node_id":"0.0-6.0-0.0","subject_id":"60819c01321b2aa5feabb854","study_id":"60edd13110225f80f9f3709b","session_id":"6196c1f6f6a509457ae85535","condition":"contingent","relevant_dimensions":["antennae","pattern"],"bee_group":{"antennae":"A","wings":"X","pattern":"D","legs":"X"},"bonus":0.8000000000000006},{"rt":959,"stimulus":"bees-with-color/bee-B1SF.svg","response":0,"trial_type":"image-button-response","trial_index":141,"time_elapsed":614467,"internal_node_id":"0.0-6.0-0.1","subject_id":"60819c01321b2aa5feabb854","study_id":"60edd13110225f80f9f3709b","session_id":"6196c1f6f6a509457ae85535","condition":"contingent","relevant_dimensions":["antennae","pattern"],"bee_group":{"antennae":"A","wings":"X","pattern":"D","legs":"X"},"bonus":0.8000000000000006},{"rt":558,"stimulus":"bees-with-color/bee-A2SM.svg","response":1,"trial_type":"image-button-response","trial_index":142,"time_elapsed":615027,"internal_node_id":"0.0-6.0-0.2","subject_id":"60819c01321b2aa5feabb854","study_id":"60edd13110225f80f9f3709b","session_id":"6196c1f6f6a509457ae85535","condition":"contingent","relevant_dimensions":["antennae","pattern"],"bee_group":{"antennae":"A","wings":"X","pattern":"D","legs":"X"},"bonus":0.8000000000000006},{"rt":5694,"stimulus":"bees-with-color/bee-A1SF.svg","response":0,"trial_type":"image-button-response","trial_index":143,"time_elapsed":620723,"internal_node_id":"0.0-6.0-0.3","subject_id":"60819c01321b2aa5feabb854","study_id":"60edd13110225f80f9f3709b","session_id":"6196c1f6f6a509457ae85535","condition":"contingent","relevant_dimensions":["antennae","pattern"],"bee_group":{"antennae":"A","wings":"X","pattern":"D","legs":"X"},"bonus":0.8000000000000006},{"rt":351,"stimulus":"bees-with-color/bee-A2SF.svg","response":1,"trial_type":"image-button-response","trial_index":144,"time_elapsed":621075,"internal_node_id":"0.0-6.0-0.4","subject_id":"60819c01321b2aa5feabb854","study_id":"60edd13110225f80f9f3709b","session_id":"6196c1f6f6a509457ae85535","condition":"contingent","relevant_dimensions":["antennae","pattern"],"bee_group":{"antennae":"A","wings":"X","pattern":"D","legs":"X"},"bonus":0.8000000000000006},{"rt":7044,"stimulus":"bees-with-color/bee-A1DM.svg","response":1,"trial_type":"image-button-response","trial_index":145,"time_elapsed":628122,"internal_node_id":"0.0-6.0-0.5","subject_id":"60819c01321b2aa5feabb854","study_id":"60edd13110225f80f9f3709b","session_id":"6196c1f6f6a509457ae85535","condition":"contingent","relevant_dimensions":["antennae","pattern"],"bee_group":{"antennae":"A","wings":"X","pattern":"D","legs":"X"},"bonus":0.8000000000000006},{"rt":2306,"stimulus":"bees-with-color/bee-B1SM.svg","response":0,"trial_type":"image-button-response","trial_index":146,"time_elapsed":630431,"internal_node_id":"0.0-6.0-0.6","subject_id":"60819c01321b2aa5feabb854","study_id":"60edd13110225f80f9f3709b","session_id":"6196c1f6f6a509457ae85535","condition":"contingent","relevant_dimensions":["antennae","pattern"],"bee_group":{"antennae":"A","wings":"X","pattern":"D","legs":"X"},"bonus":0.8000000000000006},{"rt":491,"stimulus":"bees-with-color/bee-A1DF.svg","response":1,"trial_type":"image-button-response","trial_index":147,"time_elapsed":630923,"internal_node_id":"0.0-6.0-0.7","subject_id":"60819c01321b2aa5feabb854","study_id":"60edd13110225f80f9f3709b","session_id":"6196c1f6f6a509457ae85535","condition":"contingent","relevant_dimensions":["antennae","pattern"],"bee_group":{"antennae":"A","wings":"X","pattern":"D","legs":"X"},"bonus":0.8000000000000006},{"rt":742,"stimulus":"bees-with-color/bee-B2DF.svg","response":1,"trial_type":"image-button-response","trial_index":148,"time_elapsed":631668,"internal_node_id":"0.0-6.0-0.8","subject_id":"60819c01321b2aa5feabb854","study_id":"60edd13110225f80f9f3709b","session_id":"6196c1f6f6a509457ae85535","condition":"contingent","relevant_dimensions":["antennae","pattern"],"bee_group":{"antennae":"A","wings":"X","pattern":"D","legs":"X"},"bonus":0.8000000000000006},{"rt":244,"stimulus":"bees-with-color/bee-B2DM.svg","response":1,"trial_type":"image-button-response","trial_index":149,"time_elapsed":631915,"internal_node_id":"0.0-6.0-0.9","subject_id":"60819c01321b2aa5feabb854","study_id":"60edd13110225f80f9f3709b","session_id":"6196c1f6f6a509457ae85535","condition":"contingent","relevant_dimensions":["antennae","pattern"],"bee_group":{"antennae":"A","wings":"X","pattern":"D","legs":"X"},"bonus":0.8000000000000006},{"rt":347,"stimulus":"bees-with-color/bee-A1SM.svg","response":0,"trial_type":"image-button-response","trial_index":150,"time_elapsed":632263,"internal_node_id":"0.0-6.0-0.10","subject_id":"60819c01321b2aa5feabb854","study_id":"60edd13110225f80f9f3709b","session_id":"6196c1f6f6a509457ae85535","condition":"contingent","relevant_dimensions":["antennae","pattern"],"bee_group":{"antennae":"A","wings":"X","pattern":"D","legs":"X"},"bonus":0.8000000000000006},{"rt":195,"stimulus":"bees-with-color/bee-A2DF.svg","response":0,"trial_type":"image-button-response","trial_index":151,"time_elapsed":632460,"internal_node_id":"0.0-6.0-0.11","subject_id":"60819c01321b2aa5feabb854","study_id":"60edd13110225f80f9f3709b","session_id":"6196c1f6f6a509457ae85535","condition":"contingent","relevant_dimensions":["antennae","pattern"],"bee_group":{"antennae":"A","wings":"X","pattern":"D","legs":"X"},"bonus":0.8000000000000006},{"rt":549,"stimulus":"bees-with-color/bee-B2SM.svg","response":1,"trial_type":"image-button-response","trial_index":152,"time_elapsed":633011,"internal_node_id":"0.0-6.0-0.12","subject_id":"60819c01321b2aa5feabb854","study_id":"60edd13110225f80f9f3709b","session_id":"6196c1f6f6a509457ae85535","condition":"contingent","relevant_dimensions":["antennae","pattern"],"bee_group":{"antennae":"A","wings":"X","pattern":"D","legs":"X"},"bonus":0.8000000000000006},{"rt":310,"stimulus":"bees-with-color/bee-A2DM.svg","response":0,"trial_type":"image-button-response","trial_index":153,"time_elapsed":633323,"internal_node_id":"0.0-6.0-0.13","subject_id":"60819c01321b2aa5feabb854","study_id":"60edd13110225f80f9f3709b","session_id":"6196c1f6f6a509457ae85535","condition":"contingent","relevant_dimensions":["antennae","pattern"],"bee_group":{"antennae":"A","wings":"X","pattern":"D","legs":"X"},"bonus":0.8000000000000006},{"rt":262,"stimulus":"bees-with-color/bee-B1DM.svg","response":1,"trial_type":"image-button-response","trial_index":154,"time_elapsed":633586,"internal_node_id":"0.0-6.0-0.14","subject_id":"60819c01321b2aa5feabb854","study_id":"60edd13110225f80f9f3709b","session_id":"6196c1f6f6a509457ae85535","condition":"contingent","relevant_dimensions":["antennae","pattern"],"bee_group":{"antennae":"A","wings":"X","pattern":"D","legs":"X"},"bonus":0.8000000000000006},{"rt":272,"stimulus":"bees-with-color/bee-B2SF.svg","response":0,"trial_type":"image-button-response","trial_index":155,"time_elapsed":633859,"internal_node_id":"0.0-6.0-0.15","subject_id":"60819c01321b2aa5feabb854","study_id":"60edd13110225f80f9f3709b","session_id":"6196c1f6f6a509457ae85535","condition":"contingent","relevant_dimensions":["antennae","pattern"],"bee_group":{"antennae":"A","wings":"X","pattern":"D","legs":"X"},"bonus":0.8000000000000006},{"rt":417,"stimulus":"bees-with-color/bee-A2SM.svg","response":0,"trial_type":"image-button-response","trial_index":156,"time_elapsed":634279,"internal_node_id":"0.0-6.0-0.16","subject_id":"60819c01321b2aa5feabb854","study_id":"60edd13110225f80f9f3709b","session_id":"6196c1f6f6a509457ae85535","condition":"contingent","relevant_dimensions":["antennae","pattern"],"bee_group":{"antennae":"A","wings":"X","pattern":"D","legs":"X"},"bonus":0.8000000000000006},{"rt":306,"stimulus":"bees-with-color/bee-A2DM.svg","response":1,"trial_type":"image-button-response","trial_index":157,"time_elapsed":634586,"internal_node_id":"0.0-6.0-0.17","subject_id":"60819c01321b2aa5feabb854","study_id":"60edd13110225f80f9f3709b","session_id":"6196c1f6f6a509457ae85535","condition":"contingent","relevant_dimensions":["antennae","pattern"],"bee_group":{"antennae":"A","wings":"X","pattern":"D","legs":"X"},"bonus":0.8000000000000006},{"rt":397,"stimulus":"bees-with-color/bee-A1DM.svg","response":0,"trial_type":"image-button-response","trial_index":158,"time_elapsed":634986,"internal_node_id":"0.0-6.0-0.18","subject_id":"60819c01321b2aa5feabb854","study_id":"60edd13110225f80f9f3709b","session_id":"6196c1f6f6a509457ae85535","condition":"contingent","relevant_dimensions":["antennae","pattern"],"bee_group":{"antennae":"A","wings":"X","pattern":"D","legs":"X"},"bonus":0.8000000000000006},{"rt":470,"stimulus":"bees-with-color/bee-B1DF.svg","response":1,"trial_type":"image-button-response","trial_index":159,"time_elapsed":635458,"internal_node_id":"0.0-6.0-0.19","subject_id":"60819c01321b2aa5feabb854","study_id":"60edd13110225f80f9f3709b","session_id":"6196c1f6f6a509457ae85535","condition":"contingent","relevant_dimensions":["antennae","pattern"],"bee_group":{"antennae":"A","wings":"X","pattern":"D","legs":"X"},"bonus":0.8000000000000006},{"rt":143,"stimulus":"bees-with-color/bee-B2SF.svg","response":1,"trial_type":"image-button-response","trial_index":160,"time_elapsed":635602,"internal_node_id":"0.0-6.0-0.20","subject_id":"60819c01321b2aa5feabb854","study_id":"60edd13110225f80f9f3709b","session_id":"6196c1f6f6a509457ae85535","condition":"contingent","relevant_dimensions":["antennae","pattern"],"bee_group":{"antennae":"A","wings":"X","pattern":"D","legs":"X"},"bonus":0.8000000000000006},{"rt":315,"stimulus":"bees-with-color/bee-A2SF.svg","response":0,"trial_type":"image-button-response","trial_index":161,"time_elapsed":635918,"internal_node_id":"0.0-6.0-0.21","subject_id":"60819c01321b2aa5feabb854","study_id":"60edd13110225f80f9f3709b","session_id":"6196c1f6f6a509457ae85535","condition":"contingent","relevant_dimensions":["antennae","pattern"],"bee_group":{"antennae":"A","wings":"X","pattern":"D","legs":"X"},"bonus":0.8000000000000006},{"rt":570,"stimulus":"bees-with-color/bee-A1SM.svg","response":0,"trial_type":"image-button-response","trial_index":162,"time_elapsed":636490,"internal_node_id":"0.0-6.0-0.22","subject_id":"60819c01321b2aa5feabb854","study_id":"60edd13110225f80f9f3709b","session_id":"6196c1f6f6a509457ae85535","condition":"contingent","relevant_dimensions":["antennae","pattern"],"bee_group":{"antennae":"A","wings":"X","pattern":"D","legs":"X"},"bonus":0.8000000000000006},{"rt":343,"stimulus":"bees-with-color/bee-A1SF.svg","response":1,"trial_type":"image-button-response","trial_index":163,"time_elapsed":636834,"internal_node_id":"0.0-6.0-0.23","subject_id":"60819c01321b2aa5feabb854","study_id":"60edd13110225f80f9f3709b","session_id":"6196c1f6f6a509457ae85535","condition":"contingent","relevant_dimensions":["antennae","pattern"],"bee_group":{"antennae":"A","wings":"X","pattern":"D","legs":"X"},"bonus":0.8000000000000006},{"rt":278,"stimulus":"bees-with-color/bee-A1DF.svg","response":1,"trial_type":"image-button-response","trial_index":164,"time_elapsed":637115,"internal_node_id":"0.0-6.0-0.24","subject_id":"60819c01321b2aa5feabb854","study_id":"60edd13110225f80f9f3709b","session_id":"6196c1f6f6a509457ae85535","condition":"contingent","relevant_dimensions":["antennae","pattern"],"bee_group":{"antennae":"A","wings":"X","pattern":"D","legs":"X"},"bonus":0.8000000000000006},{"rt":862,"stimulus":"bees-with-color/bee-B2DM.svg","response":1,"trial_type":"image-button-response","trial_index":165,"time_elapsed":637979,"internal_node_id":"0.0-6.0-0.25","subject_id":"60819c01321b2aa5feabb854","study_id":"60edd13110225f80f9f3709b","session_id":"6196c1f6f6a509457ae85535","condition":"contingent","relevant_dimensions":["antennae","pattern"],"bee_group":{"antennae":"A","wings":"X","pattern":"D","legs":"X"},"bonus":0.8000000000000006},{"rt":1966,"stimulus":"bees-with-color/bee-B1SM.svg","response":0,"trial_type":"image-button-response","trial_index":166,"time_elapsed":639947,"internal_node_id":"0.0-6.0-0.26","subject_id":"60819c01321b2aa5feabb854","study_id":"60edd13110225f80f9f3709b","session_id":"6196c1f6f6a509457ae85535","condition":"contingent","relevant_dimensions":["antennae","pattern"],"bee_group":{"antennae":"A","wings":"X","pattern":"D","legs":"X"},"bonus":0.8000000000000006},{"rt":308,"stimulus":"bees-with-color/bee-B2DF.svg","response":1,"trial_type":"image-button-response","trial_index":167,"time_elapsed":640258,"internal_node_id":"0.0-6.0-0.27","subject_id":"60819c01321b2aa5feabb854","study_id":"60edd13110225f80f9f3709b","session_id":"6196c1f6f6a509457ae85535","condition":"contingent","relevant_dimensions":["antennae","pattern"],"bee_group":{"antennae":"A","wings":"X","pattern":"D","legs":"X"},"bonus":0.8000000000000006},{"rt":455,"stimulus":"bees-with-color/bee-B1DM.svg","response":0,"trial_type":"image-button-response","trial_index":168,"time_elapsed":640715,"internal_node_id":"0.0-6.0-0.28","subject_id":"60819c01321b2aa5feabb854","study_id":"60edd13110225f80f9f3709b","session_id":"6196c1f6f6a509457ae85535","condition":"contingent","relevant_dimensions":["antennae","pattern"],"bee_group":{"antennae":"A","wings":"X","pattern":"D","legs":"X"},"bonus":0.8000000000000006},{"rt":158,"stimulus":"bees-with-col