[{"success":true,"trial_type":"fullscreen","trial_index":0,"time_elapsed":17625,"internal_node_id":"0.0-0.0","subject_id":"601266b26cdabd29da3d3926","study_id":"6197b3f67c2b5cd3b6d9596a","session_id":"6197b9ee3cf7977eedeac3c8","condition":"contingent","relevant_dimensions":["antennae","legs"],"bee_group":{"antennae":"A","wings":"X","pattern":"X","legs":"F"},"bonus":0.04},{"success":true,"timeout":false,"failed_images":[],"failed_audio":[],"failed_video":[],"trial_type":"preload","trial_index":1,"time_elapsed":19686,"internal_node_id":"0.0-1.0","subject_id":"601266b26cdabd29da3d3926","study_id":"6197b3f67c2b5cd3b6d9596a","session_id":"6197b9ee3cf7977eedeac3c8","condition":"contingent","relevant_dimensions":["antennae","legs"],"bee_group":{"antennae":"A","wings":"X","pattern":"X","legs":"F"},"bonus":0.04},{"rt":2742.7000000011176,"stimulus":"Welcome! Press any key to begin.","response":"enter","trial_type":"html-keyboard-response","trial_index":2,"time_elapsed":22429,"internal_node_id":"0.0-2.0","subject_id":"601266b26cdabd29da3d3926","study_id":"6197b3f67c2b5cd3b6d9596a","session_id":"6197b9ee3cf7977eedeac3c8","condition":"contingent","relevant_dimensions":["antennae","legs"],"bee_group":{"antennae":"A","wings":"X","pattern":"X","legs":"F"},"bonus":0.04},{"view_history":[{"page_index":0,"viewing_time":2927.0999999996275},{"page_index":1,"viewing_time":8654.900000000373},{"page_index":2,"viewing_time":22411.400000000373},{"page_index":3,"viewing_time":20680.5},{"page_index":4,"viewing_time":6089.39999999851},{"page_index":5,"viewing_time":4370.5},{"page_index":6,"viewing_time":1790.2000000011176},{"page_index":7,"viewing_time":5965.5},{"page_index":6,"viewing_time":6842.299999998882},{"page_index":7,"viewing_time":8253.5},{"page_index":8,"viewing_time":8765.10000000149},{"page_index":7,"viewing_time":1334.8999999985099},{"page_index":8,"viewing_time":655},{"page_index":7,"viewing_time":799.1000000014901},{"page_index":6,"viewing_time":10598.299999998882},{"page_index":7,"viewing_time":4629.5},{"page_index":8,"viewing_time":1816.0999999996275},{"page_index":9,"viewing_time":1854.300000000745},{"page_index":10,"viewing_time":2705.4000000003725},{"page_index":11,"viewing_time":5302.5999999996275},{"page_index":12,"viewing_time":2571.300000000745},{"page_index":13,"viewing_time":1435},{"page_index":12,"viewing_time":1538.199999999255},{"page_index":13,"viewing_time":697.0999999996275},{"page_index":14,"viewing_time":2891.300000000745}],"rt":135579,"trial_type":"instructions","trial_index":3,"time_elapsed":158008,"internal_node_id":"0.0-3.0-0.0","subject_id":"601266b26cdabd29da3d3926","study_id":"6197b3f67c2b5cd3b6d9596a","session_id":"6197b9ee3cf7977eedeac3c8","condition":"contingent","relevant_dimensions":["antennae","legs"],"bee_group":{"antennae":"A","wings":"X","pattern":"X","legs":"F"},"bonus":0.04},{"rt":14242,"response":{"Q0":["Two or six legs","Stripes or spots on body","Single or double wings","Antennae or no antennae"]},"question_order":[0],"trial_type":"survey-multi-select","trial_index":4,"time_elapsed":172254,"internal_node_id":"0.0-3.0-1.0","subject_id":"601266b26cdabd29da3d3926","study_id":"6197b3f67c2b5cd3b6d9596a","session_id":"6197b9ee3cf7977eedeac3c8","condition":"contingent","relevant_dimensions":["antennae","legs"],"bee_group":{"antennae":"A","wings":"X","pattern":"X","legs":"F"},"correct":true,"bonus":0.04},{"rt":46580.59999999963,"response":{"Q1":"No.","Q2":"Based on the four features of the bee.","Q3":"You learn if it was friendly or dangerous, but do not alter your bonus."},"question_order":[0,1,2],"trial_type":"survey-multi-choice","trial_index":5,"time_elapsed":218838,"internal_node_id":"0.0-3.0-2.0","subject_id":"601266b26cdabd29da3d3926","study_id":"6197b3f67c2b5cd3b6d9596a","session_id":"6197b9ee3cf7977eedeac3c8","condition":"contingent","relevant_dimensions":["antennae","legs"],"bee_group":{"antennae":"A","wings":"X","pattern":"X","legs":"F"},"correct":false,"bonus":0.04},{"rt":3250.4000000003725,"stimulus":"<p>You did not answer all comprehension questions correctly.<br>Press <b>continue</b> to review the instructions again.</p>","response":0,"trial_type":"html-button-response","trial_index":6,"time_elapsed":222094,"internal_node_id":"0.0-3.0-3.0","subject_id":"601266b26cdabd29da3d3926","study_id":"6197b3f67c2b5cd3b6d9596a","session_id":"6197b9ee3cf7977eedeac3c8","condition":"contingent","relevant_dimensions":["antennae","legs"],"bee_group":{"antennae":"A","wings":"X","pattern":"X","legs":"F"},"bonus":0.04},{"view_history":[{"page_index":0,"viewing_time":802.9000000003725},{"page_index":1,"viewing_time":851.0999999996275},{"page_index":2,"viewing_time":499.30000000074506},{"page_index":3,"viewing_time":1129},{"page_index":4,"viewing_time":518.0999999996275},{"page_index":5,"viewing_time":473.09999999962747},{"page_index":6,"viewing_time":869.4000000003725},{"page_index":7,"viewing_time":991.8000000007451},{"page_index":8,"viewing_time":739.1999999992549},{"page_index":9,"viewing_time":1259.9000000003725},{"page_index":10,"viewing_time":515.0999999996275},{"page_index":11,"viewing_time":1030.0999999996275},{"page_index":12,"viewing_time":873.0999999996275},{"page_index":13,"viewing_time":1649},{"page_index":14,"viewing_time":654.1000000014901}],"rt":12855.700000001118,"trial_type":"instructions","trial_index":7,"time_elapsed":234950,"internal_node_id":"0.0-3.0-4.0-0.0","subject_id":"601266b26cdabd29da3d3926","study_id":"6197b3f67c2b5cd3b6d9596a","session_id":"6197b9ee3cf7977eedeac3c8","condition":"contingent","relevant_dimensions":["antennae","legs"],"bee_group":{"antennae":"A","wings":"X","pattern":"X","legs":"F"},"bonus":0.04},{"rt":7359.5,"response":{"Q0":["Two or six legs","Stripes or spots on body","Single or double wings","Antennae or no antennae"]},"question_order":[0],"trial_type":"survey-multi-select","trial_index":8,"time_elapsed":242312,"internal_node_id":"0.0-3.0-4.0-1.0","subject_id":"601266b26cdabd29da3d3926","study_id":"6197b3f67c2b5cd3b6d9596a","session_id":"6197b9ee3cf7977eedeac3c8","condition":"contingent","relevant_dimensions":["antennae","legs"],"bee_group":{"antennae":"A","wings":"X","pattern":"X","legs":"F"},"correct":true,"bonus":0.04},{"rt":7185.0999999996275,"response":{"Q1":"No.","Q2":"Based on the four features of the bee.","Q3":"You do not learn if it was friendly or dangerous, and do not alter your bonus."},"question_order":[0,1,2],"trial_type":"survey-multi-choice","trial_index":9,"time_elapsed":249501,"internal_node_id":"0.0-3.0-4.0-2.0","subject_id":"601266b26cdabd29da3d3926","study_id":"6197b3f67c2b5cd3b6d9596a","session_id":"6197b9ee3cf7977eedeac3c8","condition":"contingent","relevant_dimensions":["antennae","legs"],"bee_group":{"antennae":"A","wings":"X","pattern":"X","legs":"F"},"correct":true,"bonus":0.04},{"rt":1475.9000000003725,"stimulus":"<p>Congrats, you got everything right<br>When you're ready, click the button below to continue to the experiment.</p>","response":0,"trial_type":"html-button-response","trial_index":10,"time_elapsed":250980,"internal_node_id":"0.0-3.0-4.0-3.0","subject_id":"601266b26cdabd29da3d3926","study_id":"6197b3f67c2b5cd3b6d9596a","session_id":"6197b9ee3cf7977eedeac3c8","condition":"contingent","relevant_dimensions":["antennae","legs"],"bee_group":{"antennae":"A","wings":"X","pattern":"X","legs":"F"},"bonus":0.04},{"rt":6761.199999999255,"stimulus":"bees-with-color/bee-A1SM.svg","response":0,"trial_type":"image-button-response","trial_index":11,"time_elapsed":257743,"internal_node_id":"0.0-4.0-0.0","subject_id":"601266b26cdabd29da3d3926","study_id":"6197b3f67c2b5cd3b6d9596a","session_id":"6197b9ee3cf7977eedeac3c8","condition":"contingent","relevant_dimensions":["antennae","legs"],"bee_group":{"antennae":"A","wings":"X","pattern":"X","legs":"F"},"action":"harvest","summary":"good-harvest","bonus":0.04},{"rt":36194,"stimulus":"\n                    <p><b>Action: <em>harvest</em></b></p>\n                    <p>This is the bee that you just saw.</p>\n                    <img src=\"bees-with-color/bee-A1SM.svg\" width=\"200\">\n                    <p><span class=\"greenText\"><b>Successful harvest!</b></span><br>Your pay has increased by $0.02. Your bonus pay is now $0.56.</p>\n            ","response":0,"trial_type":"html-button-response","trial_index":12,"time_elapsed":293939,"internal_node_id":"0.0-4.0-1.0","subject_id":"601266b26cdabd29da3d3926","study_id":"6197b3f67c2b5cd3b6d9596a","session_id":"6197b9ee3cf7977eedeac3c8","condition":"contingent","relevant_dimensions":["antennae","legs"],"bee_group":{"antennae":"A","wings":"X","pattern":"X","legs":"F"},"bonus":0.04},{"rt":2288.89999999851,"stimulus":"bees-with-color/bee-A1DM.svg","response":0,"trial_type":"image-button-response","trial_index":13,"time_elapsed":296230,"internal_node_id":"0.0-4.0-0.1","subject_id":"601266b26cdabd29da3d3926","study_id":"6197b3f67c2b5cd3b6d9596a","session_id":"6197b9ee3cf7977eedeac3c8","condition":"contingent","relevant_dimensions":["antennae","legs"],"bee_group":{"antennae":"A","wings":"X","pattern":"X","legs":"F"},"action":"harvest","summary":"good-harvest","bonus":0.04},{"rt":13916.199999999255,"stimulus":"\n                    <p><b>Action: <em>harvest</em></b></p>\n                    <p>This is the bee that you just saw.</p>\n                    <img src=\"bees-with-color/bee-A1DM.svg\" width=\"200\">\n                    <p><span class=\"greenText\"><b>Successful harvest!</b></span><br>Your pay has increased by $0.02. Your bonus pay is now $0.58.</p>\n            ","response":0,"trial_type":"html-button-response","trial_index":14,"time_elapsed":310147,"internal_node_id":"0.0-4.0-1.1","subject_id":"601266b26cdabd29da3d3926","study_id":"6197b3f67c2b5cd3b6d9596a","session_id":"6197b9ee3cf7977eedeac3c8","condition":"contingent","relevant_dimensions":["antennae","legs"],"bee_group":{"antennae":"A","wings":"X","pattern":"X","legs":"F"},"bonus":0.04},{"rt":2335.5999999996275,"stimulus":"bees-with-color/bee-A2SM.svg","response":0,"trial_type":"image-button-response","trial_index":15,"time_elapsed":312484,"internal_node_id":"0.0-4.0-0.2","subject_id":"601266b26cdabd29da3d3926","study_id":"6197b3f67c2b5cd3b6d9596a","session_id":"6197b9ee3cf7977eedeac3c8","condition":"contingent","relevant_dimensions":["antennae","legs"],"bee_group":{"antennae":"A","wings":"X","pattern":"X","legs":"F"},"action":"harvest","summary":"good-harvest","bonus":0.04},{"rt":13605.400000000373,"stimulus":"\n                    <p><b>Action: <em>harvest</em></b></p>\n                    <p>This is the bee that you just saw.</p>\n                    <img src=\"bees-with-color/bee-A2SM.svg\" width=\"200\">\n                    <p><span class=\"greenText\"><b>Successful harvest!</b></span><br>Your pay has increased by $0.02. Your bonus pay is now $0.60.</p>\n            ","response":0,"trial_type":"html-button-response","trial_index":16,"time_elapsed":326091,"internal_node_id":"0.0-4.0-1.2","subject_id":"601266b26cdabd29da3d3926","study_id":"6197b3f67c2b5cd3b6d9596a","session_id":"6197b9ee3cf7977eedeac3c8","condition":"contingent","relevant_dimensions":["antennae","legs"],"bee_group":{"antennae":"A","wings":"X","pattern":"X","legs":"F"},"bonus":0.04},{"rt":1936.9000000003725,"stimulus":"bees-with-color/bee-A2DF.svg","response":0,"trial_type":"image-button-response","trial_index":17,"time_elapsed":328029,"internal_node_id":"0.0-4.0-0.3","subject_id":"601266b26cdabd29da3d3926","study_id":"6197b3f67c2b5cd3b6d9596a","session_id":"6197b9ee3cf7977eedeac3c8","condition":"contingent","relevant_dimensions":["antennae","legs"],"bee_group":{"antennae":"A","wings":"X","pattern":"X","legs":"F"},"action":"harvest","summary":"bad-harvest","bonus":0.04},{"rt":7868.799999998882,"stimulus":"\n                    <p><b>Action: <em>harvest</em></b></p>\n                    <p>This is the bee that you just saw.</p>\n                    <img src=\"bees-with-color/bee-A2DF.svg\" width=\"200\">\n                    <p><span class=\"redText\">Bad choice, the bee was angry.</span><br><b>You have been stung!</b><br>Your pay has been decreased by $0.10. Your bonus pay is now $0.50.</p>\n            ","response":0,"trial_type":"html-button-response","trial_index":18,"time_elapsed":335899,"internal_node_id":"0.0-4.0-1.3","subject_id":"601266b26cdabd29da3d3926","study_id":"6197b3f67c2b5cd3b6d9596a","session_id":"6197b9ee3cf7977eedeac3c8","condition":"contingent","relevant_dimensions":["antennae","legs"],"bee_group":{"antennae":"A","wings":"X","pattern":"X","legs":"F"},"bonus":0.04},{"rt":4626.300000000745,"stimulus":"bees-with-color/bee-B2SF.svg","response":0,"trial_type":"image-button-response","trial_index":19,"time_elapsed":340526,"internal_node_id":"0.0-4.0-0.4","subject_id":"601266b26cdabd29da3d3926","study_id":"6197b3f67c2b5cd3b6d9596a","session_id":"6197b9ee3cf7977eedeac3c8","condition":"contingent","relevant_dimensions":["antennae","legs"],"bee_group":{"antennae":"A","wings":"X","pattern":"X","legs":"F"},"action":"harvest","summary":"good-harvest","bonus":0.04},{"rt":18766.099999999627,"stimulus":"\n                    <p><b>Action: <em>harvest</em></b></p>\n                    <p>This is the bee that you just saw.</p>\n                    <img src=\"bees-with-color/bee-B2SF.svg\" width=\"200\">\n                    <p><span class=\"greenText\"><b>Successful harvest!</b></span><br>Your pay has increased by $0.02. Your bonus pay is now $0.52.</p>\n            ","response":0,"trial_type":"html-button-response","trial_index":20,"time_elapsed":359294,"internal_node_id":"0.0-4.0-1.4","subject_id":"601266b26cdabd29da3d3926","study_id":"6197b3f67c2b5cd3b6d9596a","session_id":"6197b9ee3cf7977eedeac3c8","condition":"contingent","relevant_dimensions":["antennae","legs"],"bee_group":{"antennae":"A","wings":"X","pattern":"X","legs":"F"},"bonus":0.04},{"rt":2219.9000000003725,"stimulus":"bees-with-color/bee-B1DM.svg","response":0,"trial_type":"image-button-response","trial_index":21,"time_elapsed":361515,"internal_node_id":"0.0-4.0-0.5","subject_id":"601266b26cdabd29da3d3926","study_id":"6197b3f67c2b5cd3b6d9596a","session_id":"6197b9ee3cf7977eedeac3c8","condition":"contingent","relevant_dimensions":["antennae","legs"],"bee_group":{"antennae":"A","wings":"X","pattern":"X","legs":"F"},"action":"harvest","summary":"good-harvest","bonus":0.04},{"rt":1942.199999999255,"stimulus":"\n                    <p><b>Action: <em>harvest</em></b></p>\n                    <p>This is the bee that you just saw.</p>\n                    <img src=\"bees-with-color/bee-B1DM.svg\" width=\"200\">\n                    <p><span class=\"greenText\"><b>Successful harvest!</b></span><br>Your pay has increased by $0.02. Your bonus pay is now $0.54.</p>\n            ","response":0,"trial_type":"html-button-response","trial_index":22,"time_elapsed":363458,"internal_node_id":"0.0-4.0-1.5","subject_id":"601266b26cdabd29da3d3926","study_id":"6197b3f67c2b5cd3b6d9596a","session_id":"6197b9ee3cf7977eedeac3c8","condition":"contingent","relevant_dimensions":["antennae","legs"],"bee_group":{"antennae":"A","wings":"X","pattern":"X","legs":"F"},"bonus":0.04},{"rt":1405.699999999255,"stimulus":"bees-with-color/bee-B2DM.svg","response":1,"trial_type":"image-button-response","trial_index":23,"time_elapsed":364865,"internal_node_id":"0.0-4.0-0.6","subject_id":"601266b26cdabd29da3d3926","study_id":"6197b3f67c2b5cd3b6d9596a","session_id":"6197b9ee3cf7977eedeac3c8","condition":"contingent","relevant_dimensions":["antennae","legs"],"bee_group":{"antennae":"A","wings":"X","pattern":"X","legs":"F"},"action":"avoid","summary":"bad-avoid","bonus":0.04},{"rt":3120.2999999988824,"stimulus":"\n                    <p><b>Action: <em>avoid</em></b></p>\n                    <p>This is the bee that you just saw.</p>\n                    <img src=\"bees-with-color/bee-B2DM.svg\" width=\"200\">\n                    <p><br>Your bonus pay is unchanged, and remains at $0.54.</p>\n            ","response":0,"trial_type":"html-button-response","trial_index":24,"time_elapsed":367987,"internal_node_id":"0.0-4.0-1.6","subject_id":"601266b26cdabd29da3d3926","study_id":"6197b3f67c2b5cd3b6d9596a","session_id":"6197b9ee3cf7977eedeac3c8","condition":"contingent","relevant_dimensions":["antennae","legs"],"bee_group":{"antennae":"A","wings":"X","pattern":"X","legs":"F"},"bonus":0.04},{"rt":1396.7999999988824,"stimulus":"bees-with-color/bee-A2SF.svg","response":0,"trial_type":"image-button-response","trial_index":25,"time_elapsed":369385,"internal_node_id":"0.0-4.0-0.7","subject_id":"601266b26cdabd29da3d3926","study_id":"6197b3f67c2b5cd3b6d9596a","session_id":"6197b9ee3cf7977eedeac3c8","condition":"contingent","relevant_dimensions":["antennae","legs"],"bee_group":{"antennae":"A","wings":"X","pattern":"X","legs":"F"},"action":"harvest","summary":"bad-harvest","bonus":0.04},{"rt":1094.199999999255,"stimulus":"\n                    <p><b>Action: <em>harvest</em></b></p>\n                    <p>This is the bee that you just saw.</p>\n                    <img src=\"bees-with-color/bee-A2SF.svg\" width=\"200\">\n                    <p><span class=\"redText\">Bad choice, the bee was angry.</span><br><b>You have been stung!</b><br>Your pay has been decreased by $0.10. Your bonus pay is now $0.44.</p>\n            ","response":0,"trial_type":"html-button-response","trial_index":26,"time_elapsed":370480,"internal_node_id":"0.0-4.0-1.7","subject_id":"601266b26cdabd29da3d3926","study_id":"6197b3f67c2b5cd3b6d9596a","session_id":"6197b9ee3cf7977eedeac3c8","condition":"contingent","relevant_dimensions":["antennae","legs"],"bee_group":{"antennae":"A","wings":"X","pattern":"X","legs":"F"},"bonus":0.04},{"rt":1905.9000000003725,"stimulus":"bees-with-color/bee-B1DF.svg","response":1,"trial_type":"image-button-response","trial_index":27,"time_elapsed":372387,"internal_node_id":"0.0-4.0-0.8","subject_id":"601266b26cdabd29da3d3926","study_id":"6197b3f67c2b5cd3b6d9596a","session_id":"6197b9ee3cf7977eedeac3c8","condition":"contingent","relevant_dimensions":["antennae","legs"],"bee_group":{"antennae":"A","wings":"X","pattern":"X","legs":"F"},"action":"avoid","summary":"bad-avoid","bonus":0.04},{"rt":730,"stimulus":"\n                    <p><b>Action: <em>avoid</em></b></p>\n                    <p>This is the bee that you just saw.</p>\n                    <img src=\"bees-with-color/bee-B1DF.svg\" width=\"200\">\n                    <p><br>Your bonus pay is unchanged, and remains at $0.44.</p>\n            ","response":0,"trial_type":"html-button-response","trial_index":28,"time_elapsed":373118,"internal_node_id":"0.0-4.0-1.8","subject_id":"601266b26cdabd29da3d3926","study_id":"6197b3f67c2b5cd3b6d9596a","session_id":"6197b9ee3cf7977eedeac3c8","condition":"contingent","relevant_dimensions":["antennae","legs"],"bee_group":{"antennae":"A","wings":"X","pattern":"X","legs":"F"},"bonus":0.04},{"rt":1513.199999999255,"stimulus":"bees-with-color/bee-B2SM.svg","response":1,"trial_type":"image-button-response","trial_index":29,"time_elapsed":374632,"internal_node_id":"0.0-4.0-0.9","subject_id":"601266b26cdabd29da3d3926","study_id":"6197b3f67c2b5cd3b6d9596a","session_id":"6197b9ee3cf7977eedeac3c8","condition":"contingent","relevant_dimensions":["antennae","legs"],"bee_group":{"antennae":"A","wings":"X","pattern":"X","legs":"F"},"action":"avoid","summary":"bad-avoid","bonus":0.04},{"rt":907,"stimulus":"\n                    <p><b>Action: <em>avoid</em></b></p>\n                    <p>This is the bee that you just saw.</p>\n                    <img src=\"bees-with-color/bee-B2SM.svg\" width=\"200\">\n                    <p><br>Your bonus pay is unchanged, and remains at $0.44.</p>\n            ","response":0,"trial_type":"html-button-response","trial_index":30,"time_elapsed":375540,"internal_node_id":"0.0-4.0-1.9","subject_id":"601266b26cdabd29da3d3926","study_id":"6197b3f67c2b5cd3b6d9596a","session_id":"6197b9ee3cf7977eedeac3c8","condition":"contingent","relevant_dimensions":["antennae","legs"],"bee_group":{"antennae":"A","wings":"X","pattern":"X","legs":"F"},"bonus":0.04},{"rt":1961.199999999255,"stimulus":"bees-with-color/bee-B2DF.svg","response":0,"trial_type":"image-button-response","trial_index":31,"time_elapsed":377503,"internal_node_id":"0.0-4.0-0.10","subject_id":"601266b26cdabd29da3d3926","study_id":"6197b3f67c2b5cd3b6d9596a","session_id":"6197b9ee3cf7977eedeac3c8","condition":"contingent","relevant_dimensions":["antennae","legs"],"bee_group":{"antennae":"A","wings":"X","pattern":"X","legs":"F"},"action":"harvest","summary":"good-harvest","bonus":0.04},{"rt":709.1000000014901,"stimulus":"\n                    <p><b>Action: <em>harvest</em></b></p>\n                    <p>This is the bee that you just saw.</p>\n                    <img src=\"bees-with-color/bee-B2DF.svg\" width=\"200\">\n                    <p><span class=\"greenText\"><b>Successful harvest!</b></span><br>Your pay has increased by $0.02. Your bonus pay is now $0.46.</p>\n            ","response":0,"trial_type":"html-button-response","trial_index":32,"time_elapsed":378213,"internal_node_id":"0.0-4.0-1.10","subject_id":"601266b26cdabd29da3d3926","study_id":"6197b3f67c2b5cd3b6d9596a","session_id":"6197b9ee3cf7977eedeac3c8","condition":"contingent","relevant_dimensions":["antennae","legs"],"bee_group":{"antennae":"A","wings":"X","pattern":"X","legs":"F"},"bonus":0.04},{"rt":1173.9000000003725,"stimulus":"bees-with-color/bee-B1SF.svg","response":0,"trial_type":"image-button-response","trial_index":33,"time_elapsed":379388,"internal_node_id":"0.0-4.0-0.11","subject_id":"601266b26cdabd29da3d3926","study_id":"6197b3f67c2b5cd3b6d9596a","session_id":"6197b9ee3cf7977eedeac3c8","condition":"contingent","relevant_dimensions":["antennae","legs"],"bee_group":{"antennae":"A","wings":"X","pattern":"X","legs":"F"},"action":"harvest","summary":"good-harvest","bonus":0.04},{"rt":784.9000000003725,"stimulus":"\n                    <p><b>Action: <em>harvest</em></b></p>\n                    <p>This is the bee that you just saw.</p>\n                    <img src=\"bees-with-color/bee-B1SF.svg\" width=\"200\">\n                    <p><span class=\"greenText\"><b>Successful harvest!</b></span><br>Your pay has increased by $0.02. Your bonus pay is now $0.48.</p>\n            ","response":0,"trial_type":"html-button-response","trial_index":34,"time_elapsed":380174,"internal_node_id":"0.0-4.0-1.11","subject_id":"601266b26cdabd29da3d3926","study_id":"6197b3f67c2b5cd3b6d9596a","session_id":"6197b9ee3cf7977eedeac3c8","condition":"contingent","relevant_dimensions":["antennae","legs"],"bee_group":{"antennae":"A","wings":"X","pattern":"X","legs":"F"},"bonus":0.04},{"rt":2584.2999999988824,"stimulus":"bees-with-color/bee-B1SM.svg","response":1,"trial_type":"image-button-response","trial_index":35,"time_elapsed":382759,"internal_node_id":"0.0-4.0-0.12","subject_id":"601266b26cdabd29da3d3926","study_id":"6197b3f67c2b5cd3b6d9596a","session_id":"6197b9ee3cf7977eedeac3c8","condition":"contingent","relevant_dimensions":["antennae","legs"],"bee_group":{"antennae":"A","wings":"X","pattern":"X","legs":"F"},"action":"avoid","summary":"bad-avoid","bonus":0.04},{"rt":934.8000000007451,"stimulus":"\n                    <p><b>Action: <em>avoid</em></b></p>\n                    <p>This is the bee that you just saw.</p>\n                    <img src=\"bees-with-color/bee-B1SM.svg\" width=\"200\">\n                    <p><br>Your bonus pay is unchanged, and remains at $0.48.</p>\n            ","response":0,"trial_type":"html-button-response","trial_index":36,"time_elapsed":383695,"internal_node_id":"0.0-4.0-1.12","subject_id":"601266b26cdabd29da3d3926","study_id":"6197b3f67c2b5cd3b6d9596a","session_id":"6197b9ee3cf7977eedeac3c8","condition":"contingent","relevant_dimensions":["antennae","legs"],"bee_group":{"antennae":"A","wings":"X","pattern":"X","legs":"F"},"bonus":0.04},{"rt":2004,"stimulus":"bees-with-color/bee-A2DM.svg","response":0,"trial_type":"image-button-response","trial_index":37,"time_elapsed":385701,"internal_node_id":"0.0-4.0-0.13","subject_id":"601266b26cdabd29da3d3926","study_id":"6197b3f67c2b5cd3b6d9596a","session_id":"6197b9ee3cf7977eedeac3c8","condition":"contingent","relevant_dimensions":["antennae","legs"],"bee_group":{"antennae":"A","wings":"X","pattern":"X","legs":"F"},"action":"harvest","summary":"good-harvest","bonus":0.04},{"rt":2333.2000000011176,"stimulus":"\n                    <p><b>Action: <em>harvest</em></b></p>\n                    <p>This is the bee that you just saw.</p>\n                    <img src=\"bees-with-color/bee-A2DM.svg\" width=\"200\">\n                    <p><span class=\"greenText\"><b>Successful harvest!</b></span><br>Your pay has increased by $0.02. Your bonus pay is now $0.50.</p>\n            ","response":0,"trial_type":"html-button-response","trial_index":38,"time_elapsed":388035,"internal_node_id":"0.0-4.0-1.13","subject_id":"601266b26cdabd29da3d3926","study_id":"6197b3f67c2b5cd3b6d9596a","session_id":"6197b9ee3cf7977eedeac3c8","condition":"contingent","relevant_dimensions":["antennae","legs"],"bee_group":{"antennae":"A","wings":"X","pattern":"X","legs":"F"},"bonus":0.04},{"rt":1402.9000000003725,"stimulus":"bees-with-color/bee-A1SF.svg","response":0,"trial_type":"image-button-response","trial_index":39,"time_elapsed":389439,"internal_node_id":"0.0-4.0-0.14","subject_id":"601266b26cdabd29da3d3926","study_id":"6197b3f67c2b5cd3b6d9596a","session_id":"6197b9ee3cf7977eedeac3c8","condition":"contingent","relevant_dimensions":["antennae","legs"],"bee_group":{"antennae":"A","wings":"X","pattern":"X","legs":"F"},"action":"harvest","summary":"bad-harvest","bonus":0.04},{"rt":652,"stimulus":"\n                    <p><b>Action: <em>harvest</em></b></p>\n                    <p>This is the bee that you just saw.</p>\n                    <img src=\"bees-with-color/bee-A1SF.svg\" width=\"200\">\n                    <p><span class=\"redText\">Bad choice, the bee was angry.</span><br><b>You have been stung!</b><br>Your pay has been decreased by $0.10. Your bonus pay is now $0.40.</p>\n            ","response":0,"trial_type":"html-button-response","trial_index":40,"time_elapsed":390092,"internal_node_id":"0.0-4.0-1.14","subject_id":"601266b26cdabd29da3d3926","study_id":"6197b3f67c2b5cd3b6d9596a","session_id":"6197b9ee3cf7977eedeac3c8","condition":"contingent","relevant_dimensions":["antennae","legs"],"bee_group":{"antennae":"A","wings":"X","pattern":"X","legs":"F"},"bonus":0.04},{"rt":5922.799999998882,"stimulus":"bees-with-color/bee-A1DF.svg","response":1,"trial_type":"image-button-response","trial_index":41,"time_elapsed":396016,"internal_node_id":"0.0-4.0-0.15","subject_id":"601266b26cdabd29da3d3926","study_id":"6197b3f67c2b5cd3b6d9596a","session_id":"6197b9ee3cf7977eedeac3c8","condition":"contingent","relevant_dimensions":["antennae","legs"],"bee_group":{"antennae":"A","wings":"X","pattern":"X","legs":"F"},"action":"avoid","summary":"good-avoid","bonus":0.04},{"rt":855,"stimulus":"\n                    <p><b>Action: <em>avoid</em></b></p>\n                    <p>This is the bee that you just saw.</p>\n                    <img src=\"bees-with-color/bee-A1DF.svg\" width=\"200\">\n                    <p><br>Your bonus pay is unchanged, and remains at $0.40.</p>\n            ","response":0,"trial_type":"html-button-response","trial_index":42,"time_elapsed":396872,"internal_node_id":"0.0-4.0-1.15","subject_id":"601266b26cdabd29da3d3926","study_id":"6197b3f67c2b5cd3b6d9596a","session_id":"6197b9ee3cf7977eedeac3c8","condition":"contingent","relevant_dimensions":["antennae","legs"],"bee_group":{"antennae":"A","wings":"X","pattern":"X","legs":"F"},"bonus":0.04},{"rt":6110.5999999996275,"stimulus":"bees-with-color/bee-A1SF.svg","response":1,"trial_type":"image-button-response","trial_index":43,"time_elapsed":402984,"internal_node_id":"0.0-4.0-0.16","subject_id":"601266b26cdabd29da3d3926","study_id":"6197b3f67c2b5cd3b6d9596a","session_id":"6197b9ee3cf7977eedeac3c8","condition":"contingent","relevant_dimensions":["antennae","legs"],"bee_group":{"antennae":"A","wings":"X","pattern":"X","legs":"F"},"action":"avoid","summary":"good-avoid","bonus":0.04},{"rt":753.9000000003725,"stimulus":"\n                    <p><b>Action: <em>avoid</em></b></p>\n                    <p>This is the bee that you just saw.</p>\n                    <img src=\"bees-with-color/bee-A1SF.svg\" width=\"200\">\n                    <p><br>Your bonus pay is unchanged, and remains at $0.40.</p>\n            ","response":0,"trial_type":"html-button-response","trial_index":44,"time_elapsed":403739,"internal_node_id":"0.0-4.0-1.16","subject_id":"601266b26cdabd29da3d3926","study_id":"6197b3f67c2b5cd3b6d9596a","session_id":"6197b9ee3cf7977eedeac3c8","condition":"contingent","relevant_dimensions":["antennae","legs"],"bee_group":{"antennae":"A","wings":"X","pattern":"X","legs":"F"},"bonus":0.04},{"rt":1363.7999999988824,"stimulus":"bees-with-color/bee-A1DF.svg","response":0,"trial_type":"image-button-response","trial_index":45,"time_elapsed":405104,"internal_node_id":"0.0-4.0-0.17","subject_id":"601266b26cdabd29da3d3926","study_id":"6197b3f67c2b5cd3b6d9596a","session_id":"6197b9ee3cf7977eedeac3c8","condition":"contingent","relevant_dimensions":["antennae","legs"],"bee_group":{"antennae":"A","wings":"X","pattern":"X","legs":"F"},"action":"harvest","summary":"bad-harvest","bonus":0.04},{"rt":698.0999999996275,"stimulus":"\n                    <p><b>Action: <em>harvest</em></b></p>\n                    <p>This is the bee that you just saw.</p>\n                    <img src=\"bees-with-color/bee-A1DF.svg\" width=\"200\">\n                    <p><span class=\"redText\">Bad choice, the bee was angry.</span><br><b>You have been stung!</b><br>Your pay has been decreased by $0.10. Your bonus pay is now $0.30.</p>\n            ","response":0,"trial_type":"html-button-response","trial_index":46,"time_elapsed":405803,"internal_node_id":"0.0-4.0-1.17","subject_id":"601266b26cdabd29da3d3926","study_id":"6197b3f67c2b5cd3b6d9596a","session_id":"6197b9ee3cf7977eedeac3c8","condition":"contingent","relevant_dimensions":["antennae","legs"],"bee_group":{"antennae":"A","wings":"X","pattern":"X","legs":"F"},"bonus":0.04},{"rt":1201.4000000003725,"stimulus":"bees-with-color/bee-A2SM.svg","response":0,"trial_type":"image-button-response","trial_index":47,"time_elapsed":407005,"internal_node_id":"0.0-4.0-0.18","subject_id":"601266b26cdabd29da3d3926","study_id":"6197b3f67c2b5cd3b6d9596a","session_id":"6197b9ee3cf7977eedeac3c8","condition":"contingent","relevant_dimensions":["antennae","legs"],"bee_group":{"antennae":"A","wings":"X","pattern":"X","legs":"F"},"action":"harvest","summary":"good-harvest","bonus":0.04},{"rt":789.8000000007451,"stimulus":"\n                    <p><b>Action: <em>harvest</em></b></p>\n                    <p>This is the bee that you just saw.</p>\n                    <img src=\"bees-with-color/bee-A2SM.svg\" width=\"200\">\n                    <p><span class=\"greenText\"><b>Successful harvest!</b></span><br>Your pay has increased by $0.02. Your bonus pay is now $0.32.</p>\n            ","response":0,"trial_type":"html-button-response","trial_index":48,"time_elapsed":407796,"internal_node_id":"0.0-4.0-1.18","subject_id":"601266b26cdabd29da3d3926","study_id":"6197b3f67c2b5cd3b6d9596a","session_id":"6197b9ee3cf7977eedeac3c8","condition":"contingent","relevant_dimensions":["antennae","legs"],"bee_group":{"antennae":"A","wings":"X","pattern":"X","legs":"F"},"bonus":0.04},{"rt":1797.199999999255,"stimulus":"bees-with-color/bee-B2SF.svg","response":1,"trial_type":"image-button-response","trial_index":49,"time_elapsed":409594,"internal_node_id":"0.0-4.0-0.19","subject_id":"601266b26cdabd29da3d3926","study_id":"6197b3f67c2b5cd3b6d9596a","session_id":"6197b9ee3cf7977eedeac3c8","condition":"contingent","relevant_dimensions":["antennae","legs"],"bee_group":{"antennae":"A","wings":"X","pattern":"X","legs":"F"},"action":"avoid","summary":"bad-avoid","bonus":0.04},{"rt":591.9000000003725,"stimulus":"\n                    <p><b>Action: <em>avoid</em></b></p>\n                    <p>This is the bee that you just saw.</p>\n                    <img src=\"bees-with-color/bee-B2SF.svg\" width=\"200\">\n                    <p><br>Your bonus pay is unchanged, and remains at $0.32.</p>\n            ","response":0,"trial_type":"html-button-response","trial_index":50,"time_elapsed":410187,"internal_node_id":"0.0-4.0-1.19","subject_id":"601266b26cdabd29da3d3926","study_id":"6197b3f67c2b5cd3b6d9596a","session_id":"6197b9ee3cf7977eedeac3c8","condition":"contingent","relevant_dimensions":["antennae","legs"],"bee_group":{"antennae":"A","wings":"X","pattern":"X","legs":"F"},"bonus":0.04},{"rt":470.3999999985099,"stimulus":"bees-with-color/bee-B1SF.svg","response":1,"trial_type":"image-button-response","trial_index":51,"time_elapsed":410658,"internal_node_id":"0.0-4.0-0.20","subject_id":"601266b26cdabd29da3d3926","study_id":"6197b3f67c2b5cd3b6d9596a","session_id":"6197b9ee3cf7977eedeac3c8","condition":"contingent","relevant_dimensions":["antennae","legs"],"bee_group":{"antennae":"A","wings":"X","pattern":"X","legs":"F"},"action":"avoid","summary":"bad-avoid","bonus":0.04},{"rt":774.0999999996275,"stimulus":"\n                    <p><b>Action: <em>avoid</em></b></p>\n                    <p>This is the bee that you just saw.</p>\n                    <img src=\"bees-with-color/bee-B1SF.svg\" width=\"200\">\n                    <p><br>Your bonus pay is unchanged, and remains at $0.32.</p>\n            ","response":0,"trial_type":"html-button-response","trial_index":52,"time_elapsed":411433,"internal_node_id":"0.0-4.0-1.20","subject_id":"601266b26cdabd29da3d3926","study_id":"6197b3f67c2b5cd3b6d9596a","session_id":"6197b9ee3cf7977eedeac3c8","condition":"contingent","relevant_dimensions":["antennae","legs"],"bee_group":{"antennae":"A","wings":"X","pattern":"X","legs":"F"},"bonus":0.04},{"rt":426,"stimulus":"bees-with-color/bee-B1SM.svg","response":1,"trial_type":"image-button-response","trial_index":53,"time_elapsed":411860,"internal_node_id":"0.0-4.0-0.21","subject_id":"601266b26cdabd29da3d3926","study_id":"6197b3f67c2b5cd3b6d9596a","session_id":"6197b9ee3cf7977eedeac3c8","condition":"contingent","relevant_dimensions":["antennae","legs"],"bee_group":{"antennae":"A","wings":"X","pattern":"X","legs":"F"},"action":"avoid","summary":"bad-avoid","bonus":0.04},{"rt":630,"stimulus":"\n                    <p><b>Action: <em>avoid</em></b></p>\n                    <p>This is the bee that you just saw.</p>\n                    <img src=\"bees-with-color/bee-B1SM.svg\" width=\"200\">\n                    <p><br>Your bonus pay is unchanged, and remains at $0.32.</p>\n            ","response":0,"trial_type":"html-button-response","trial_index":54,"time_elapsed":412492,"internal_node_id":"0.0-4.0-1.21","subject_id":"601266b26cdabd29da3d3926","study_id":"6197b3f67c2b5cd3b6d9596a","session_id":"6197b9ee3cf7977eedeac3c8","condition":"contingent","relevant_dimensions":["antennae","legs"],"bee_group":{"antennae":"A","wings":"X","pattern":"X","legs":"F"},"bonus":0.04},{"rt":369,"stimulus":"bees-with-color/bee-B2DM.svg","response":1,"trial_type":"image-button-response","trial_index":55,"time_elapsed":412862,"internal_node_id":"0.0-4.0-0.22","subject_id":"601266b26cdabd29da3d3926","study_id":"6197b3f67c2b5cd3b6d9596a","session_id":"6197b9ee3cf7977eedeac3c8","condition":"contingent","relevant_dimensions":["antennae","legs"],"bee_group":{"antennae":"A","wings":"X","pattern":"X","legs":"F"},"action":"avoid","summary":"bad-avoid","bonus":0.04},{"rt":497.80000000074506,"stimulus":"\n                    <p><b>Action: <em>avoid</em></b></p>\n                    <p>This is the bee that you just saw.</p>\n                    <img src=\"bees-with-color/bee-B2DM.svg\" width=\"200\">\n                    <p><br>Your bonus pay is unchanged, and remains at $0.32.</p>\n            ","response":0,"trial_type":"html-button-response","trial_index":56,"time_elapsed":413361,"internal_node_id":"0.0-4.0-1.22","subject_id":"601266b26cdabd29da3d3926","study_id":"6197b3f67c2b5cd3b6d9596a","session_id":"6197b9ee3cf7977eedeac3c8","condition":"contingent","relevant_dimensions":["antennae","legs"],"bee_group":{"antennae":"A","wings":"X","pattern":"X","legs":"F"},"bonus":0.04},{"rt":364,"stimulus":"bees-with-color/bee-B2SM.svg","response":1,"trial_type":"image-button-response","trial_index":57,"time_elapsed":413726,"internal_node_id":"0.0-4.0-0.23","subject_id":"601266b26cdabd29da3d3926","study_id":"6197b3f67c2b5cd3b6d9596a","session_id":"6197b9ee3cf7977eedeac3c8","condition":"contingent","relevant_dimensions":["antennae","legs"],"bee_group":{"antennae":"A","wings":"X","pattern":"X","legs":"F"},"action":"avoid","summary":"bad-avoid","bonus":0.04},{"rt":413.90000000037253,"stimulus":"\n                    <p><b>Action: <em>avoid</em></b></p>\n                    <p>This is the bee that you just saw.</p>\n                    <img src=\"bees-with-color/bee-B2SM.svg\" width=\"200\">\n                    <p><br>Your bonus pay is unchanged, and remains at $0.32.</p>\n            ","response":0,"trial_type":"html-button-response","trial_index":58,"time_elapsed":414141,"internal_node_id":"0.0-4.0-1.23","subject_id":"601266b26cdabd29da3d3926","study_id":"6197b3f67c2b5cd3b6d9596a","session_id":"6197b9ee3cf7977eedeac3c8","condition":"contingent","relevant_dimensions":["antennae","legs"],"bee_group":{"antennae":"A","wings":"X","pattern":"X","legs":"F"},"bonus":0.04},{"rt":2819.5999999996275,"stimulus":"bees-with-color/bee-A1DM.svg","response":0,"trial_type":"image-button-response","trial_index":59,"time_elapsed":416961,"internal_node_id":"0.0-4.0-0.24","subject_id":"601266b26cdabd29da3d3926","study_id":"6197b3f67c2b5cd3b6d9596a","session_id":"6197b9ee3cf7977eedeac3c8","condition":"contingent","relevant_dimensions":["antennae","legs"],"bee_group":{"antennae":"A","wings":"X","pattern":"X","legs":"F"},"action":"harvest","summary":"good-harvest","bonus":0.04},{"rt":758.8000000007451,"stimulus":"\n                    <p><b>Action: <em>harvest</em></b></p>\n                    <p>This is the bee that you just saw.</p>\n                    <img src=\"bees-with-color/bee-A1DM.svg\" width=\"200\">\n                    <p><span class=\"greenText\"><b>Successful harvest!</b></span><br>Your pay has increased by $0.02. Your bonus pay is now $0.34.</p>\n            ","response":0,"trial_type":"html-button-response","trial_index":60,"time_elapsed":417721,"internal_node_id":"0.0-4.0-1.24","subject_id":"601266b26cdabd29da3d3926","study_id":"6197b3f67c2b5cd3b6d9596a","session_id":"6197b9ee3cf7977eedeac3c8","condition":"contingent","relevant_dimensions":["antennae","legs"],"bee_group":{"antennae":"A","wings":"X","pattern":"X","legs":"F"},"bonus":0.04},{"rt":1258.800000000745,"stimulus":"bees-with-color/bee-B1DF.svg","response":1,"trial_type":"image-button-response","trial_index":61,"time_elapsed":418980,"internal_node_id":"0.0-4.0-0.25","subject_id":"601266b26cdabd29da3d3926","study_id":"6197b3f67c2b5cd3b6d9596a","session_id":"6197b9ee3cf7977eedeac3c8","condition":"contingent","relevant_dimensions":["antennae","legs"],"bee_group":{"antennae":"A","wings":"X","pattern":"X","legs":"F"},"action":"avoid","summary":"bad-avoid","bonus":0.04},{"rt":439.5,"stimulus":"\n                    <p><b>Action: <em>avoid</em></b></p>\n                    <p>This is the bee that you just saw.</p>\n                    <img src=\"bees-with-color/bee-B1DF.svg\" width=\"200\">\n                    <p><br>Your bonus pay is unchanged, and remains at $0.34.</p>\n            ","response":0,"trial_type":"html-button-response","trial_index":62,"time_elapsed":419421,"internal_node_id":"0.0-4.0-1.25","subject_id":"601266b26cdabd29da3d3926","study_id":"6197b3f67c2b5cd3b6d9596a","session_id":"6197b9ee3cf7977eedeac3c8","condition":"contingent","relevant_dimensions":["antennae","legs"],"bee_group":{"antennae":"A","wings":"X","pattern":"X","legs":"F"},"bonus":0.04},{"rt":424,"stimulus":"bees-with-color/bee-B2DF.svg","response":0,"trial_type":"image-button-response","trial_index":63,"time_elapsed":419846,"internal_node_id":"0.0-4.0-0.26","subject_id":"601266b26cdabd29da3d3926","study_id":"6197b3f67c2b5cd3b6d9596a","session_id":"6197b9ee3cf7977eedeac3c8","condition":"contingent","relevant_dimensions":["antennae","legs"],"bee_group":{"antennae":"A","wings":"X","pattern":"X","legs":"F"},"action":"harvest","summary":"good-harvest","bonus":0.04},{"rt":508.1000000014901,"stimulus":"\n                    <p><b>Action: <em>harvest</em></b></p>\n                    <p>This is the bee that you just saw.</p>\n                    <img src=\"bees-with-color/bee-B2DF.svg\" width=\"200\">\n                    <p><span class=\"greenText\"><b>Successful harvest!</b></span><br>Your pay has increased by $0.02. Your bonus pay is now $0.36.</p>\n            ","response":0,"trial_type":"html-button-response","trial_index":64,"time_elapsed":420355,"internal_node_id":"0.0-4.0-1.26","subject_id":"601266b26cdabd29da3d3926","study_id":"6197b3f67c2b5cd3b6d9596a","session_id":"6197b9ee3cf7977eedeac3c8","condition":"contingent","relevant_dimensions":["antennae","legs"],"bee_group":{"antennae":"A","wings":"X","pattern":"X","legs":"F"},"bonus":0.04},{"rt":400.1000000014901,"stimulus":"bees-with-color/bee-A1SM.svg","response":1,"trial_type":"image-button-response","trial_index":65,"time_elapsed":420756,"internal_node_id":"0.0-4.0-0.27","subject_id":"601266b26cdabd29da3d3926","study_id":"6197b3f67c2b5cd3b6d9596a","session_id":"6197b9ee3cf7977eedeac3c8","condition":"contingent","relevant_dimensions":["antennae","legs"],"bee_group":{"antennae":"A","wings":"X","pattern":"X","legs":"F"},"action":"avoid","summary":"bad-avoid","bonus":0.04},{"rt":519,"stimulus":"\n                    <p><b>Action: <em>avoid</em></b></p>\n                    <p>This is the bee that you just saw.</p>\n                    <img src=\"bees-with-color/bee-A1SM.svg\" width=\"200\">\n                    <p><br>Your bonus pay is unchanged, and remains at $0.36.</p>\n            ","response":0,"trial_type":"html-button-response","trial_index":66,"time_elapsed":421276,"internal_node_id":"0.0-4.0-1.27","subject_id":"601266b26cdabd29da3d3926","study_id":"6197b3f67c2b5cd3b6d9596a","session_id":"6197b9ee3cf7977eedeac3c8","condition":"contingent","relevant_dimensions":["antennae","legs"],"bee_group":{"antennae":"A","wings":"X","pattern":"X","legs":"F"},"bonus":0.04},{"rt":626.3000000007451,"stimulus":"bees-with-color/bee-A2SF.svg","response":0,"trial_type":"image-button-response","trial_index":67,"time_elapsed":421903,"internal_node_id":"0.0-4.0-0.28","subject_id":"601266b26cdabd29da3d3926","study_id":"6197b3f67c2b5cd3b6d9596a","session_id":"6197b9ee3cf7977eedeac3c8","condition":"contingent","relevant_dimensions":["antennae","legs"],"bee_group":{"antennae":"A","wings":"X","pattern":"X","legs":"F"},"action":"harvest","summary":"bad-harvest","bonus":0.04},{"rt":1043.199999999255,"stimulus":"\n                    <p><b>Action: <em>harvest</em></b></p>\n                    <p>This is the bee that you just saw.</p>\n                    <img src=\"bees-with-color/bee-A2SF.svg\" width=\"200\">\n                    <p><span class=\"redText\">Bad choice, the bee was angry.</span><br><b>You have been stung!</b><br>Your pay has been decreased by $0.10. Your bonus pay is now $0.26.</p>\n            ","response":0,"trial_type":"html-button-response","trial_index":68,"time_elapsed":422947,"internal_node_id":"0.0-4.0-1.28","subject_id":"601266b26cdabd29da3d3926","study_id":"6197b3f67c2b5cd3b6d9596a","session_id":"6197b9ee3cf7977eedeac3c8","condition":"contingent","relevant_dimensions":["antennae","legs"],"bee_group":{"antennae":"A","wings":"X","pattern":"X","legs":"F"},"bonus":0.04},{"rt":408.19999999925494,"stimulus":"bees-with-color/bee-A2DM.svg","response":1,"trial_type":"image-button-response","trial_index":69,"time_elapsed":423356,"internal_node_id":"0.0-4.0-0.29","subject_id":"601266b26cdabd29da3d3926","study_id":"6197b3f67c2b5cd3b6d9596a","session_id":"6197b9ee3cf7977eedeac3c8","condition":"contingent","relevant_dimensions":["antennae","legs"],"bee_group":{"antennae":"A","wings":"X","pattern":"X","legs":"F"},"action":"avoid","summary":"bad-avoid","bonus":0.04},{"rt":293,"stimulus":"\n                    <p><b>Action: <em>avoid</em></b></p>\n                    <p>This is the bee that you just saw.</p>\n                    <img src=\"bees-with-color/bee-A2DM.svg\" width=\"200\">\n                    <p><br>Your bonus pay is unchanged, and remains at $0.26.</p>\n            ","response":0,"trial_type":"html-button-response","trial_index":70,"time_elapsed":423650,"internal_node_id":"0.0-4.0-1.29","subject_id":"601266b26cdabd29da3d3926","study_id":"6197b3f67c2b5cd3b6d9596a","session_id":"6197b9ee3cf7977eedeac3c8","condition":"contingent","relevant_dimensions":["antennae","legs"],"bee_group":{"antennae":"A","wings":"X","pattern":"X","legs":"F"},"bonus":0.04},{"rt":322,"stimulus":"bees-with-color/bee-A2DF.svg","response":1,"trial_type":"image-button-response","trial_index":71,"time_elapsed":423973,"internal_node_id":"0.0-4.0-0.30","subject_id":"601266b26cdabd29da3d3926","study_id":"6197b3f67c2b5cd3b6d9596a","session_id":"6197b9ee3cf7977eedeac3c8","condition":"contingent","relevant_dimensions":["antennae","legs"],"bee_group":{"antennae":"A","wings":"X","pattern":"X","legs":"F"},"action":"avoid","summary":"good-avoid","bonus":0.04},{"rt":282,"stimulus":"\n                    <p><b>Action: <em>avoid</em></b></p>\n                    <p>This is the bee that you just saw.</p>\n                    <img src=\"bees-with-color/bee-A2DF.svg\" width=\"200\">\n                    <p><br>Your bonus pay is unchanged, and remains at $0.26.</p>\n            ","response":0,"trial_type":"html-button-response","trial_index":72,"time_elapsed":424256,"internal_node_id":"0.0-4.0-1.30","subject_id":"601266b26cdabd29da3d3926","study_id":"6197b3f67c2b5cd3b6d9596a","session_id":"6197b9ee3cf7977eedeac3c8","condition":"contingent","relevant_dimensions":["antennae","legs"],"bee_group":{"antennae":"A","wings":"X","pattern":"X","legs":"F"},"bonus":0.04},{"rt":277.30000000074506,"stimulus":"bees-with-color/bee-B1DM.svg","response":1,"trial_type":"image-button-response","trial_index":73,"time_elapsed":424534,"internal_node_id":"0.0-4.0-0.31","subject_id":"601266b26cdabd29da3d3926","study_id":"6197b3f67c2b5cd3b6d9596a","session_id":"6197b9ee3cf7977eedeac3c8","condition":"contingent","relevant_dimensions":["antennae","legs"],"bee_group":{"antennae":"A","wings":"X","pattern":"X","legs":"F"},"action":"avoid","summary":"bad-avoid","bonus":0.04},{"rt":299.19999999925494,"stimulus":"\n                    <p><b>Action: <em>avoid</em></b></p>\n                    <p>This is the bee that you just saw.</p>\n                    <img src=\"bees-with-color/bee-B1DM.svg\" width=\"200\">\n                    <p><br>Your bonus pay is unchanged, and remains at $0.26.</p>\n            ","response":0,"trial_type":"html-button-response","trial_index":74,"time_elapsed":424834,"internal_node_id":"0.0-4.0-1.31","subject_id":"601266b26cdabd29da3d3926","study_id":"6197b3f67c2b5cd3b6d9596a","session_id":"6197b9ee3cf7977eedeac3c8","condition":"contingent","relevant_dimensions":["antennae","legs"],"bee_group":{"antennae":"A","wings":"X","pattern":"X","legs":"F"},"bonus":0.04},{"rt":917.0999999996275,"stimulus":"bees-with-color/bee-A1SM.svg","response":0,"trial_type":"image-button-response","trial_index":75,"time_elapsed":425752,"internal_node_id":"0.0-4.0-0.32","subject_id":"601266b26cdabd29da3d3926","study_id":"6197b3f67c2b5cd3b6d9596a","session_id":"6197b9ee3cf7977eedeac3c8","condition":"contingent","relevant_dimensions":["antennae","legs"],"bee_group":{"antennae":"A","wings":"X","pattern":"X","legs":"F"},"action":"harvest","summary":"good-harvest","bonus":0.04},{"rt":446,"stimulus":"\n                    <p><b>Action: <em>harvest</em></b></p>\n                    <p>This is the bee that you just saw.</p>\n                    <img src=\"bees-with-color/bee-A1SM.svg\" width=\"200\">\n                    <p><span class=\"greenText\"><b>Successful harvest!</b></span><br>Your pay has increased by $0.02. Your bonus pay is now $0.28.</p>\n            ","response":0,"trial_type":"html-button-response","trial_index":76,"time_elapsed":426199,"internal_node_id":"0.0-4.0-1.32","subject_id":"601266b26cdabd29da3d3926","study_id":"6197b3f67c2b5cd3b6d9596a","session_id":"6197b9ee3cf7977eedeac3c8","condition":"contingent","relevant_dimensions":["antennae","legs"],"bee_group":{"antennae":"A","wings":"X","pattern":"X","legs":"F"},"bonus":0.04},{"rt":336.09999999962747,"stimulus":"bees-with-color/bee-A2DF.svg","response":1,"trial_type":"image-button-response","trial_index":77,"time_elapsed":426537,"internal_node_id":"0.0-4.0-0.33","subject_id":"601266b26cdabd29da3d3926","study_id":"6197b3f67c2b5cd3b6d9596a","session_id":"6197b9ee3cf7977eedeac3c8","condition":"contingent","relevant_dimensions":["antennae","legs"],"bee_group":{"antennae":"A","wings":"X","pattern":"X","legs":"F"},"action":"avoid","summary":"good-avoid","bonus":0.04},{"rt":781,"stimulus":"\n                    <p><b>Action: <em>avoid</em></b></p>\n                    <p>This is the bee that you just saw.</p>\n                    <img src=\"bees-with-color/bee-A2DF.svg\" width=\"200\">\n                    <p><br>Your bonus pay is unchanged, and remains at $0.28.</p>\n            ","response":0,"trial_type":"html-button-response","trial_index":78,"time_elapsed":427319,"internal_node_id":"0.0-4.0-1.33","subject_id":"601266b26cdabd29da3d3926","study_id":"6197b3f67c2b5cd3b6d9596a","session_id":"6197b9ee3cf7977eedeac3c8","condition":"contingent","relevant_dimensions":["antennae","legs"],"bee_group":{"antennae":"A","wings":"X","pattern":"X","legs":"F"},"bonus":0.04},{"rt":372,"stimulus":"bees-with-color/bee-B2SM.svg","response":1,"trial_type":"image-button-response","trial_index":79,"time_elapsed":427692,"internal_node_id":"0.0-4.0-0.34","subject_id":"601266b26cdabd29da3d3926","study_id":"6197b3f67c2b5cd3b6d9596a","session_id":"6197b9ee3cf7977eedeac3c8","condition":"contingent","relevant_dimensions":["antennae","legs"],"bee_group":{"antennae":"A","wings":"X","pattern":"X","legs":"F"},"action":"avoid","summary":"bad-avoid","bonus":0.04},{"rt":340.40000000037253,"stimulus":"\n                    <p><b>Action: <em>avoid</em></b></p>\n                    <p>This is the bee that you just saw.</p>\n                    <img src=\"bees-with-color/bee-B2SM.svg\" width=\"200\">\n                    <p><br>Your bonus pay is unchanged, and remains at $0.28.</p>\n            ","response":0,"trial_type":"html-button-response","trial_index":80,"time_elapsed":428033,"internal_node_id":"0.0-4.0-1.34","subject_id":"601266b26cdabd29da3d3926","study_id":"6197b3f67c2b5cd3b6d9596a","session_id":"6197b9ee3cf7977eedeac3c8","condition":"contingent","relevant_dimensions":["antennae","legs"],"bee_group":{"antennae":"A","wings":"X","pattern":"X","legs":"F"},"bonus":0.04},{"rt":372.19999999925494,"stimulus":"bees-with-color/bee-A2SF.svg","response":0,"trial_type":"image-button-response","trial_index":81,"time_elapsed":428406,"internal_node_id":"0.0-4.0-0.35","subject_id":"601266b26cdabd29da3d3926","study_id":"6197b3f67c2b5cd3b6d9596a","session_id":"6197b9ee3cf7977eedeac3c8","condition":"contingent","relevant_dimensions":["antennae","legs"],"bee_group":{"antennae":"A","wings":"X","pattern":"X","legs":"F"},"action":"harvest","summary":"bad-harvest","bonus":0.04},{"rt":773.9000000003725,"stimulus":"\n                    <p><b>Action: <em>harvest</em></b></p>\n                    <p>This is the bee that you just saw.</p>\n                    <img src=\"bees-with-color/bee-A2SF.svg\" width=\"200\">\n                    <p><span class=\"redText\">Bad choice, the bee was angry.</span><br><b>You have been stung!</b><br>Your pay has been decreased by $0.10. Your bonus pay is now $0.18.</p>\n            ","response":0,"trial_type":"html-button-response","trial_index":82,"time_elapsed":429181,"internal_node_id":"0.0-4.0-1.35","subject_id":"601266b26cdabd29da3d3926","study_id":"6197b3f67c2b5cd3b6d9596a","session_id":"6197b9ee3cf7977eedeac3c8","condition":"contingent","relevant_dimensions":["antennae","legs"],"bee_group":{"antennae":"A","wings":"X","pattern":"X","legs":"F"},"bonus":0.04},{"rt":572.8000000007451,"stimulus":"bees-with-color/bee-B2DF.svg","response":1,"trial_type":"image-button-response","trial_index":83,"time_elapsed":429755,"internal_node_id":"0.0-4.0-0.36","subject_id":"601266b26cdabd29da3d3926","study_id":"6197b3f67c2b5cd3b6d9596a","session_id":"6197b9ee3cf7977eedeac3c8","condition":"contingent","relevant_dimensions":["antennae","legs"],"bee_group":{"antennae":"A","wings":"X","pattern":"X","legs":"F"},"action":"avoid","summary":"bad-avoid","bonus":0.04},{"rt":261.09999999962747,"stimulus":"\n                    <p><b>Action: <em>avoid</em></b></p>\n                    <p>This is the bee that you just saw.</p>\n                    <img src=\"bees-with-color/bee-B2DF.svg\" width=\"200\">\n                    <p><br>Your bonus pay is unchanged, and remains at $0.18.</p>\n            ","response":0,"trial_type":"html-button-response","trial_index":84,"time_elapsed":430017,"internal_node_id":"0.0-4.0-1.36","subject_id":"601266b26cdabd29da3d3926","study_id":"6197b3f67c2b5cd3b6d9596a","session_id":"6197b9ee3cf7977eedeac3c8","condition":"contingent","relevant_dimensions":["antennae","legs"],"bee_group":{"antennae":"A","wings":"X","pattern":"X","legs":"F"},"bonus":0.04},{"rt":338.30000000074506,"stimulus":"bees-with-color/bee-A1DM.svg","response":1,"trial_type":"image-button-response","trial_index":85,"time_elapsed":430356,"internal_node_id":"0.0-4.0-0.37","subject_id":"601266b26cdabd29da3d3926","study_id":"6197b3f67c2b5cd3b6d9596a","session_id":"6197b9ee3cf7977eedeac3c8","condition":"contingent","relevant_dimensions":["antennae","legs"],"bee_group":{"antennae":"A","wings":"X","pattern":"X","legs":"F"},"action":"avoid","summary":"bad-avoid","bonus":0.04},{"rt":315.40000000037253,"stimulus":"\n                    <p><b>Action: <em>avoid</em></b></p>\n                    <p>This is the bee that you just saw.</p>\n                    <img src=\"bees-with-color/bee-A1DM.svg\" width=\"200\">\n                    <p><br>Your bonus pay is unchanged, and remains at $0.18.</p>\n            ","response":0,"trial_type":"html-button-response","trial_index":86,"time_elapsed":430673,"internal_node_id":"0.0-4.0-1.37","subject_id":"601266b26cdabd29da3d3926","study_id":"6197b3f67c2b5cd3b6d9596a","session_id":"6197b9ee3cf7977eedeac3c8","condition":"contingent","relevant_dimensions":["antennae","legs"],"bee_group":{"antennae":"A","wings":"X","pattern":"X","legs":"F"},"bonus":0.04},{"rt":978.0999999996275,"stimulus":"bees-with-color/bee-B2SF.svg","response":0,"trial_type":"image-button-response","trial_index":87,"time_elapsed":431652,"internal_node_id":"0.0-4.0-0.38","subject_id":"601266b26cdabd29da3d3926","study_id":"6197b3f67c2b5cd3b6d9596a","session_id":"6197b9ee3cf7977eedeac3c8","condition":"contingent","relevant_dimensions":["antennae","legs"],"bee_group":{"antennae":"A","wings":"X","pattern":"X","legs":"F"},"action":"harvest","summary":"good-harvest","bonus":0.04},{"rt":839.1999999992549,"stimulus":"\n                    <p><b>Action: <em>harvest</em></b></p>\n                    <p>This is the bee that you just saw.</p>\n                    <img src=\"bees-with-color/bee-B2SF.svg\" width=\"200\">\n                    <p><span class=\"greenText\"><b>Successful harvest!</b></span><br>Your pay has increased by $0.02. Your bonus pay is now $0.20.</p>\n            ","response":0,"trial_type":"html-button-response","trial_index":88,"time_elapsed":432492,"internal_node_id":"0.0-4.0-1.38","subject_id":"601266b26cdabd29da3d3926","study_id":"6197b3f67c2b5cd3b6d9596a","session_id":"6197b9ee3cf7977eedeac3c8","condition":"contingent","relevant_dimensions":["antennae","legs"],"bee_group":{"antennae":"A","wings":"X","pattern":"X","legs":"F"},"bonus":0.04},{"rt":813.3000000007451,"stimulus":"bees-with-color/bee-A2DM.svg","response":1,"trial_type":"image-button-response","trial_index":89,"time_elapsed":433306,"internal_node_id":"0.0-4.0-0.39","subject_id":"601266b26cdabd29da3d3926","study_id":"6197b3f67c2b5cd3b6d9596a","session_id":"6197b9ee3cf7977eedeac3c8","condition":"contingent","relevant_dimensions":["antennae","legs"],"bee_group":{"antennae":"A","wings":"X","pattern":"X","legs":"F"},"action":"avoid","summary":"bad-avoid","bonus":0.04},{"rt":496.8999999985099,"stimulus":"\n                    <p><b>Action: <em>avoid</em></b></p>\n                    <p>This is the bee that you just saw.</p>\n                    <img src=\"bees-with-color/bee-A2DM.svg\" width=\"200\">\n                    <p><br>Your bonus pay is unchanged, and remains at $0.20.</p>\n            ","response":0,"trial_type":"html-button-response","trial_index":90,"time_elapsed":433804,"internal_node_id":"0.0-4.0-1.39","subject_id":"601266b26cdabd29da3d3926","study_id":"6197b3f67c2b5cd3b6d9596a","session_id":"6197b9ee3cf7977eedeac3c8","condition":"contingent","relevant_dimensions":["antennae","legs"],"bee_group":{"antennae":"A","wings":"X","pattern":"X","legs":"F"},"bonus":0.04},{"rt":320.7999999988824,"stimulus":"bees-with-color/bee-B1SM.svg","response":1,"trial_type":"image-button-response","trial_index":91,"time_elapsed":434126,"internal_node_id":"0.0-4.0-0.40","subject_id":"601266b26cdabd29da3d3926","study_id":"6197b3f67c2b5cd3b6d9596a","session_id":"6197b9ee3cf7977eedeac3c8","condition":"contingent","relevant_dimensions":["antennae","legs"],"bee_group":{"antennae":"A","wings":"X","pattern":"X","legs":"F"},"action":"avoid","summary":"bad-avoid","bonus":0.04},{"rt":254,"stimulus":"\n                    <p><b>Action: <em>avoid</em></b></p>\n                    <p>This is the bee that you just saw.</p>\n                    <img src=\"bees-with-color/bee-B1SM.svg\" width=\"200\">\n                    <p><br>Your bonus pay is unchanged, and remains at $0.20.</p>\n            ","response":0,"trial_type":"html-button-response","trial_index":92,"time_elapsed":434381,"internal_node_id":"0.0-4.0-1.40","subject_id":"601266b26cdabd29da3d3926","study_id":"6197b3f67c2b5cd3b6d9596a","session_id":"6197b9ee3cf7977eedeac3c8","condition":"contingent","relevant_dimensions":["antennae","legs"],"bee_group":{"antennae":"A","wings":"X","pattern":"X","legs":"F"},"bonus":0.04},{"rt":367.09999999962747,"stimulus":"bees-with-color/bee-A1DF.svg","response":1,"trial_type":"image-button-response","trial_index":93,"time_elapsed":434749,"internal_node_id":"0.0-4.0-0.41","subject_id":"601266b26cdabd29da3d3926","study_id":"6197b3f67c2b5cd3b6d9596a","session_id":"6197b9ee3cf7977eedeac3c8","condition":"contingent","relevant_dimensions":["antennae","legs"],"bee_group":{"antennae":"A","wings":"X","pattern":"X","legs":"F"},"action":"avoid","summary":"good-avoid","bonus":0.04},{"rt":264.09999999962747,"stimulus":"\n                    <p><b>Action: <em>avoid</em></b></p>\n                    <p>This is the bee that you just saw.</p>\n                    <img src=\"bees-with-color/bee-A1DF.svg\" width=\"200\">\n                    <p><br>Your bonus pay is unchanged, and remains at $0.20.</p>\n            ","response":0,"trial_type":"html-button-response","trial_index":94,"time_elapsed":435015,"internal_node_id":"0.0-4.0-1.41","subject_id":"601266b26cdabd29da3d3926","study_id":"6197b3f67c2b5cd3b6d9596a","session_id":"6197b9ee3cf7977eedeac3c8","condition":"contingent","relevant_dimensions":["antennae","legs"],"bee_group":{"antennae":"A","wings":"X","pattern":"X","legs":"F"},"bonus":0.04},{"rt":276.90000000037253,"stimulus":"bees-with-color/bee-A2SM.svg","response":1,"trial_type":"image-button-response","trial_index":95,"time_elapsed":435293,"internal_node_id":"0.0-4.0-0.42","subject_id":"601266b26cdabd29da3d3926","study_id":"6197b3f67c2b5cd3b6d9596a","session_id":"6197b9ee3cf7977eedeac3c8","condition":"contingent","relevant_dimensions":["antennae","legs"],"bee_group":{"antennae":"A","wings":"X","pattern":"X","legs":"F"},"action":"avoid","summary":"bad-avoid","bonus":0.04},{"rt":597.9000000003725,"stimulus":"\n                    <p><b>Action: <em>avoid</em></b></p>\n                    <p>This is the bee that you just saw.</p>\n                    <img src=\"bees-with-color/bee-A2SM.svg\" width=\"200\">\n                    <p><br>Your bonus pay is unchanged, and remains at $0.20.</p>\n            ","response":0,"trial_type":"html-button-response","trial_index":96,"time_elapsed":435892,"internal_node_id":"0.0-4.0-1.42","subject_id":"601266b26cdabd29da3d3926","study_id":"6197b3f67c2b5cd3b6d9596a","session_id":"6197b9ee3cf7977eedeac3c8","condition":"contingent","relevant_dimensions":["antennae","legs"],"bee_group":{"antennae":"A","wings":"X","pattern":"X","legs":"F"},"bonus":0.04},{"rt":460.19999999925494,"stimulus":"bees-with-color/bee-B2DM.svg","response":1,"trial_type":"image-button-response","trial_index":97,"time_elapsed":436353,"internal_node_id":"0.0-4.0-0.43","subject_id":"601266b26cdabd29da3d3926","study_id":"6197b3f67c2b5cd3b6d9596a","session_id":"6197b9ee3cf7977eedeac3c8","condition":"contingent","relevant_dimensions":["antennae","legs"],"bee_group":{"antennae":"A","wings":"X","pattern":"X","legs":"F"},"action":"avoid","summary":"bad-avoid","bonus":0.04},{"rt":281.19999999925494,"stimulus":"\n                    <p><b>Action: <em>avoid</em></b></p>\n                    <p>This is the bee that you just saw.</p>\n                    <img src=\"bees-with-color/bee-B2DM.svg\" width=\"200\">\n                    <p><br>Your bonus pay is unchanged, and remains at $0.20.</p>\n            ","response":0,"trial_type":"html-button-response","trial_index":98,"time_elapsed":436635,"internal_node_id":"0.0-4.0-1.43","subject_id":"601266b26cdabd29da3d3926","study_id":"6197b3f67c2b5cd3b6d9596a","session_id":"6197b9ee3cf7977eedeac3c8","condition":"contingent","relevant_dimensions":["antennae","legs"],"bee_group":{"antennae":"A","wings":"X","pattern":"X","legs":"F"},"bonus":0.04},{"rt":284.19999999925494,"stimulus":"bees-with-color/bee-B1DM.svg","response":1,"trial_type":"image-button-response","trial_index":99,"time_elapsed":436920,"internal_node_id":"0.0-4.0-0.44","subject_id":"601266b26cdabd29da3d3926","study_id":"6197b3f67c2b5cd3b6d9596a","session_id":"6197b9ee3cf7977eedeac3c8","condition":"contingent","relevant_dimensions":["antennae","legs"],"bee_group":{"antennae":"A","wings":"X","pattern":"X","legs":"F"},"action":"avoid","summary":"bad-avoid","bonus":0.04},{"rt":269.80000000074506,"stimulus":"\n                    <p><b>Action: <em>avoid</em></b></p>\n                    <p>This is the bee that you just saw.</p>\n                    <img src=\"bees-with-color/bee-B1DM.svg\" width=\"200\">\n                    <p><br>Your bonus pay is unchanged, and remains at $0.20.</p>\n            ","response":0,"trial_type":"html-button-response","trial_index":100,"time_elapsed":437190,"internal_node_id":"0.0-4.0-1.44","subject_id":"601266b26cdabd29da3d3926","study_id":"6197b3f67c2b5cd3b6d9596a","session_id":"6197b9ee3cf7977eedeac3c8","condition":"contingent","relevant_dimensions":["antennae","legs"],"bee_group":{"antennae":"A","wings":"X","pattern":"X","legs":"F"},"bonus":0.04},{"rt":279.40000000037253,"stimulus":"bees-with-color/bee-B1SF.svg","response":1,"trial_type":"image-button-response","trial_index":101,"time_elapsed":437471,"internal_node_id":"0.0-4.0-0.45","subject_id":"601266b26cdabd29da3d3926","study_id":"6197b3f67c2b5cd3b6d9596a","session_id":"6197b9ee3cf7977eedeac3c8","condition":"contingent","relevant_dimensions":["antennae","legs"],"bee_group":{"antennae":"A","wings":"X","pattern":"X","legs":"F"},"action":"avoid","summary":"bad-avoid","bonus":0.04},{"rt":288.7000000011176,"stimulus":"\n                    <p><b>Action: <em>avoid</em></b></p>\n                    <p>This is the bee that you just saw.</p>\n                    <img src=\"bees-with-color/bee-B1SF.svg\" width=\"200\">\n                    <p><br>Your bonus pay is unchanged, and remains at $0.20.</p>\n            ","response":0,"trial_type":"html-button-response","trial_index":102,"time_elapsed":437760,"internal_node_id":"0.0-4.0-1.45","subject_id":"601266b26cdabd29da3d3926","study_id":"6197b3f67c2b5cd3b6d9596a","session_id":"6197b9ee3cf7977eedeac3c8","condition":"contingent","relevant_dimensions":["antennae","legs"],"bee_group":{"antennae":"A","wings":"X","pattern":"X","legs":"F"},"bonus":0.04},{"rt":273.09999999962747,"stimulus":"bees-with-color/bee-A1SF.svg","response":1,"trial_type":"image-button-response","trial_index":103,"time_elapsed":438035,"internal_node_id":"0.0-4.0-0.46","subject_id":"601266b26cdabd29da3d3926","study_id":"6197b3f67c2b5cd3b6d9596a","session_id":"6197b9ee3cf7977eedeac3c8","condition":"contingent","relevant_dimensions":["antennae","legs"],"bee_group":{"antennae":"A","wings":"X","pattern":"X","legs":"F"},"action":"avoid","summary":"good-avoid","bonus":0.04},{"rt":294.2000000011176,"stimulus":"\n                    <p><b>Action: <em>avoid</em></b></p>\n                    <p>This is the bee that you just saw.</p>\n                    <img src=\"bees-with-color/bee-A1SF.svg\" width=\"200\">\n                    <p><br>Your bonus pay is unchanged, and remains at $0.20.</p>\n            ","response":0,"trial_type":"html-button-response","trial_index":104,"time_elapsed":438330,"internal_node_id":"0.0-4.0-1.46","subject_id":"601266b26cdabd29da3d3926","study_id":"6197b3f67c2b5cd3b6d9596a","session_id":"6197b9ee3cf7977eedeac3c8","condition":"contingent","relevant_dimensions":["antennae","legs"],"bee_group":{"antennae":"A","wings":"X","pattern":"X","legs":"F"},"bonus":0.04},{"rt":283.90000000037253,"stimulus":"bees-with-color/bee-B1DF.svg","response":1,"trial_type":"image-button-response","trial_index":105,"time_elapsed":438615,"internal_node_id":"0.0-4.0-0.47","subject_id":"601266b26cdabd29da3d3926","study_id":"6197b3f67c2b5cd3b6d9596a","session_id":"6197b9ee3cf7977eedeac3c8","condition":"contingent","relevant_dimensions":["antennae","legs"],"bee_group":{"antennae":"A","wings":"X","pattern":"X","legs":"F"},"action":"avoid","summary":"bad-avoid","bonus":0.04},{"rt":279,"stimulus":"\n                    <p><b>Action: <em>avoid</em></b></p>\n                    <p>This is the bee that you just saw.</p>\n                    <img src=\"bees-with-color/bee-B1DF.svg\" width=\"200\">\n                    <p><br>Your bonus pay is unchanged, and remains at $0.20.</p>\n            ","response":0,"trial_type":"html-button-response","trial_index":106,"time_elapsed":438895,"internal_node_id":"0.0-4.0-1.47","subject_id":"601266b26cdabd29da3d3926","study_id":"6197b3f67c2b5cd3b6d9596a","session_id":"6197b9ee3cf7977eedeac3c8","condition":"contingent","relevant_dimensions":["antennae","legs"],"bee_group":{"antennae":"A","wings":"X","pattern":"X","legs":"F"},"bonus":0.04},{"rt":258.19999999925494,"stimulus":"bees-with-color/bee-A2SF.svg","response":1,"trial_type":"image-button-response","trial_index":107,"time_elapsed":439154,"internal_node_id":"0.0-4.0-0.48","subject_id":"601266b26cdabd29da3d3926","study_id":"6197b3f67c2b5cd3b6d9596a","session_id":"6197b9ee3cf7977eedeac3c8","condition":"contingent","relevant_dimensions":["antennae","legs"],"bee_group":{"antennae":"A","wings":"X","pattern":"X","legs":"F"},"action":"avoid","summary":"good-avoid","bonus":0.04},{"rt":255,"stimulus":"\n                    <p><b>Action: <em>avoid</em></b></p>\n                    <p>This is the bee that you just saw.</p>\n                    <img src=\"bees-with-color/bee-A2SF.svg\" width=\"200\">\n                    <p><br>Your bonus pay is unchanged, and remains at $0.20.</p>\n            ","response":0,"trial_type":"html-button-response","trial_index":108,"time_elapsed":439410,"internal_node_id":"0.0-4.0-1.48","subject_id":"601266b26cdabd29da3d3926","study_id":"6197b3f67c2b5cd3b6d9596a","session_id":"6197b9ee3cf7977eedeac3c8","condition":"contingent","relevant_dimensions":["antennae","legs"],"bee_group":{"antennae":"A","wings":"X","pattern":"X","legs":"F"},"bonus":0.04},{"rt":256.09999999962747,"stimulus":"bees-with-color/bee-B1SM.svg","response":1,"trial_type":"image-button-response","trial_index":109,"time_elapsed":439667,"internal_node_id":"0.0-4.0-0.49","subject_id":"601266b26cdabd29da3d3926","study_id":"6197b3f67c2b5cd3b6d9596a","session_id":"6197b9ee3cf7977eedeac3c8","condition":"contingent","relevant_dimensions":["antennae","legs"],"bee_group":{"antennae":"A","wings":"X","pattern":"X","legs":"F"},"action":"avoid","summary":"bad-avoid","bonus":0.04},{"rt":656.7000000011176,"stimulus":"\n                    <p><b>Action: <em>avoid</em></b></p>\n                    <p>This is the bee that you just saw.</p>\n                    <img src=\"bees-with-color/bee-B1SM.svg\" width=\"200\">\n                    <p><br>Your bonus pay is unchanged, and remains at $0.20.</p>\n            ","response":0,"trial_type":"html-button-response","trial_index":110,"time_elapsed":440324,"internal_node_id":"0.0-4.0-1.49","subject_id":"601266b26cdabd29da3d3926","study_id":"6197b3f67c2b5cd3b6d9596a","session_id":"6197b9ee3cf7977eedeac3c8","condition":"contingent","relevant_dimensions":["antennae","legs"],"bee_group":{"antennae":"A","wings":"X","pattern":"X","legs":"F"},"bonus":0.04},{"rt":324.59999999962747,"stimulus":"bees-with-color/bee-A1SM.svg","response":1,"trial_type":"image-button-response","trial_index":111,"time_elapsed":440650,"internal_node_id":"0.0-4.0-0.50","subject_id":"601266b26cdabd29da3d3926","study_id":"6197b3f67c2b5cd3b6d9596a","session_id":"6197b9ee3cf7977eedeac3c8","condition":"contingent","relevant_dimensions":["antennae","legs"],"bee_group":{"antennae":"A","wings":"X","pattern":"X","legs":"F"},"action":"avoid","summary":"bad-avoid","bonus":0.04},{"rt":291.80000000074506,"stimulus":"\n                    <p><b>Action: <em>avoid</em></b></p>\n                    <p>This is the bee that you just saw.</p>\n                    <img src=\"bees-with-color/bee-A1SM.svg\" width=\"200\">\n                    <p><br>Your bonus pay is unchanged, and remains at $0.20.</p>\n            ","response":0,"trial_type":"html-button-response","trial_index":112,"time_elapsed":440943,"internal_node_id":"0.0-4.0-1.50","subject_id":"601266b26cdabd29da3d3926","study_id":"6197b3f67c2b5cd3b6d9596a","session_id":"6197b9ee3cf7977eedeac3c8","condition":"contingent","relevant_dimensions":["antennae","legs"],"bee_group":{"antennae":"A","wings":"X","pattern":"X","legs":"F"},"bonus":0.04},{"rt":257.1000000014901,"stimulus":"bees-with-color/bee-A2SM.svg","response":1,"trial_type":"image-button-response","trial_index":113,"time_elapsed":441201,"internal_node_id":"0.0-4.0-0.51","subject_id":"601266b26cdabd29da3d3926","study_id":"6197b3f67c2b5cd3b6d9596a","session_id":"6197b9ee3cf7977eedeac3c8","condition":"contingent","relevant_dimensions":["antennae","legs"],"bee_group":{"antennae":"A","wings":"X","pattern":"X","legs":"F"},"action":"avoid","summary":"bad-avoid","bonus":0.04},{"rt":306.30000000074506,"stimulus":"\n                    <p><b>Action: <em>avoid</em></b></p>\n                    <p>This is the bee that you just saw.</p>\n                    <img src=\"bees-with-color/bee-A2SM.svg\" width=\"200\">\n                    <p><br>Your bonus pay is unchanged, and remains at $0.20.</p>\n            ","response":0,"trial_type":"html-button-response","trial_index":114,"time_elapsed":441509,"internal_node_id":"0.0-4.0-1.51","subject_id":"601266b26cdabd29da3d3926","study_id":"6197b3f67c2b5cd3b6d9596a","session_id":"6197b9ee3cf7977eedeac3c8","condition":"contingent","relevant_dimensions":["antennae","legs"],"bee_group":{"antennae":"A","wings":"X","pattern":"X","legs":"F"},"bonus":0.04},{"rt":723,"stimulus":"bees-with-color/bee-A1DF.svg","response":1,"trial_type":"image-button-response","trial_index":115,"time_elapsed":442233,"internal_node_id":"0.0-4.0-0.52","subject_id":"601266b26cdabd29da3d3926","study_id":"6197b3f67c2b5cd3b6d9596a","session_id":"6197b9ee3cf7977eedeac3c8","condition":"contingent","relevant_dimensions":["antennae","legs"],"bee_group":{"antennae":"A","wings":"X","pattern":"X","legs":"F"},"action":"avoid","summary":"good-avoid","bonus":0.04},{"rt":444.40000000037253,"stimulus":"\n                    <p><b>Action: <em>avoid</em></b></p>\n                    <p>This is the bee that you just saw.</p>\n                    <img src=\"bees-with-color/bee-A1DF.svg\" width=\"200\">\n                    <p><br>Your bonus pay is unchanged, and remains at $0.20.</p>\n            ","response":0,"trial_type":"html-button-response","trial_index":116,"time_elapsed":442679,"internal_node_id":"0.0-4.0-1.52","subject_id":"601266b26cdabd29da3d3926","study_id":"6197b3f67c2b5cd3b6d9596a","session_id":"6197b9ee3cf7977eedeac3c8","condition":"contingent","relevant_dimensions":["antennae","legs"],"bee_group":{"antennae":"A","wings":"X","pattern":"X","legs":"F"},"bonus":0.04},{"rt":248.69999999925494,"stimulus":"bees-with-color/bee-A2DM.svg","response":1,"trial_type":"image-button-response","trial_index":117,"time_elapsed":442928,"internal_node_id":"0.0-4.0-0.53","subject_id":"601266b26cdabd29da3d3926","study_id":"6197b3f67c2b5cd3b6d9596a","session_id":"6197b9ee3cf7977eedeac3c8","condition":"contingent","relevant_dimensions":["antennae","legs"],"bee_group":{"antennae":"A","wings":"X","pattern":"X","legs":"F"},"action":"avoid","summary":"bad-avoid","bonus":0.04},{"rt":300.19999999925494,"stimulus":"\n                    <p><b>Action: <em>avoid</em></b></p>\n                    <p>This is the bee that you just saw.</p>\n                    <img src=\"bees-with-color/bee-A2DM.svg\" width=\"200\">\n                    <p><br>Your bonus pay is unchanged, and remains at $0.20.</p>\n            ","response":0,"trial_type":"html-button-response","trial_index":118,"time_elapsed":443229,"internal_node_id":"0.0-4.0-1.53","subject_id":"601266b26cdabd29da3d3926","study_id":"6197b3f67c2b5cd3b6d9596a","session_id":"6197b9ee3cf7977eedeac3c8","condition":"contingent","relevant_dimensions":["antennae","legs"],"bee_group":{"antennae":"A","wings":"X","pattern":"X","legs":"F"},"bonus":0.04},{"rt":279.8999999985099,"stimulus":"bees-with-color/bee-B1SF.svg","response":1,"trial_type":"image-button-response","trial_index":119,"time_elapsed":443510,"internal_node_id":"0.0-4.0-0.54","subject_id":"601266b26cdabd29da3d3926","study_id":"6197b3f67c2b5cd3b6d9596a","session_id":"6197b9ee3cf7977eedeac3c8","condition":"contingent","relevant_dimensions":["antennae","legs"],"bee_group":{"antennae":"A","wings":"X","pattern":"X","legs":"F"},"action":"avoid","summary":"bad-avoid","bonus":0.04},{"rt":333.19999999925494,"stimulus":"\n                    <p><b>Action: <em>avoid</em></b></p>\n                    <p>This is the bee that you just saw.</p>\n                    <img src=\"bees-with-color/bee-B1SF.svg\" width=\"200\">\n                    <p><br>Your bonus pay is unchanged, and remains at $0.20.</p>\n            ","response":0,"trial_type":"html-button-response","trial_index":120,"time_elapsed":443844,"internal_node_id":"0.0-4.0-1.54","subject_id":"601266b26cdabd29da3d3926","study_id":"6197b3f67c2b5cd3b6d9596a","session_id":"6197b9ee3cf7977eedeac3c8","condition":"contingent","relevant_dimensions":["antennae","legs"],"bee_group":{"antennae":"A","wings":"X","pattern":"X","legs":"F"},"bonus":0.04},{"rt":283.40000000037253,"stimulus":"bees-with-color/bee-B1DM.svg","response":1,"trial_type":"image-button-response","trial_index":121,"time_elapsed":444128,"internal_node_id":"0.0-4.0-0.55","subject_id":"601266b26cdabd29da3d3926","study_id":"6197b3f67c2b5cd3b6d9596a","session_id":"6197b9ee3cf7977eedeac3c8","condition":"contingent","relevant_dimensions":["antennae","legs"],"bee_group":{"antennae":"A","wings":"X","pattern":"X","legs":"F"},"action":"avoid","summary":"bad-avoid","bonus":0.04},{"rt":286,"stimulus":"\n                    <p><b>Action: <em>avoid</em></b></p>\n                    <p>This is the bee that you just saw.</p>\n                    <img src=\"bees-with-color/bee-B1DM.svg\" width=\"200\">\n                    <p><br>Your bonus pay is unchanged, and remains at $0.20.</p>\n            ","response":0,"trial_type":"html-button-response","trial_index":122,"time_elapsed":444415,"internal_node_id":"0.0-4.0-1.55","subject_id":"601266b26cdabd29da3d3926","study_id":"6197b3f67c2b5cd3b6d9596a","session_id":"6197b9ee3cf7977eedeac3c8","condition":"contingent","relevant_dimensions":["antennae","legs"],"bee_group":{"antennae":"A","wings":"X","pattern":"X","legs":"F"},"bonus":0.04},{"rt":1660.699999999255,"stimulus":"bees-with-color/bee-A2DF.svg","response":1,"trial_type":"image-button-response","trial_index":123,"time_elapsed":446077,"internal_node_id":"0.0-4.0-0.56","subject_id":"601266b26cdabd29da3d3926","study_id":"6197b3f67c2b5cd3b6d9596a","session_id":"6197b9ee3cf7977eedeac3c8","condition":"contingent","relevant_dimensions":["antennae","legs"],"bee_group":{"antennae":"A","wings":"X","pattern":"X","legs":"F"},"action":"avoid","summary":"good-avoid","bonus":0.04},{"rt":362.59999999962747,"stimulus":"\n                    <p><b>Action: <em>avoid</em></b></p>\n                    <p>This is the bee that you just saw.</p>\n                    <img src=\"bees-with-color/bee-A2DF.svg\" width=\"200\">\n                    <p><br>Your bonus pay is unchanged, and remains at $0.20.</p>\n            ","response":0,"trial_type":"html-button-response","trial_index":124,"time_elapsed":446441,"internal_node_id":"0.0-4.0-1.56","subject_id":"601266b26cdabd29da3d3926","study_id":"6197b3f67c2b5cd3b6d9596a","session_id":"6197b9ee3cf7977eedeac3c8","condition":"contingent","relevant_dimensions":["antennae","legs"],"bee_group":{"antennae":"A","wings":"X","pattern":"X","legs":"F"},"bonus":0.04},{"rt":302.19999999925494,"stimulus":"bees-with-color/bee-A1SF.svg","response":1,"trial_type":"image-button-response","trial_index":125,"time_elapsed":446744,"internal_node_id":"0.0-4.0-0.57","subject_id":"601266b26cdabd29da3d3926","study_id":"6197b3f67c2b5cd3b6d9596a","session_id":"6197b9ee3cf7977eedeac3c8","condition":"contingent","relevant_dimensions":["antennae","legs"],"bee_group":{"antennae":"A","wings":"X","pattern":"X","legs":"F"},"action":"avoid","summary":"good-avoid","bonus":0.04},{"rt":361.90000000037253,"stimulus":"\n                    <p><b>Action: <em>avoid</em></b></p>\n                    <p>This is the bee that you just saw.</p>\n                    <img src=\"bees-with-color/bee-A1SF.svg\" width=\"200\">\n                    <p><br>Your bonus pay is unchanged, and remains at $0.20.</p>\n            ","response":0,"trial_type":"html-button-response","trial_index":126,"time_elapsed":447107,"internal_node_id":"0.0-4.0-1.57","subject_id":"601266b26cdabd29da3d3926","study_id":"6197b3f67c2b5cd3b6d9596a","session_id":"6197b9ee3cf7977eedeac3c8","condition":"contingent","relevant_dimensions":["antennae","legs"],"bee_group":{"antennae":"A","wings":"X","pattern":"X","legs":"F"},"bonus":0.04},{"rt":349.80000000074506,"stimulus":"bees-with-color/bee-B2SM.svg","response":1,"trial_type":"image-button-response","trial_index":127,"time_elapsed":447458,"internal_node_id":"0.0-4.0-0.58","subject_id":"601266b26cdabd29da3d3926","study_id":"6197b3f67c2b5cd3b6d9596a","session_id":"6197b9ee3cf7977eedeac3c8","condition":"contingent","relevant_dimensions":["antennae","legs"],"bee_group":{"antennae":"A","wings":"X","pattern":"X","legs":"F"},"action":"avoid","summary":"bad-avoid","bonus":0.04},{"rt":399.30000000074506,"stimulus":"\n                    <p><b>Action: <em>avoid</em></b></p>\n                    <p>This is the bee that you just saw.</p>\n                    <img src=\"bees-with-color/bee-B2SM.svg\" width=\"200\">\n                    <p><br>Your bonus pay is unchanged, and remains at $0.20.</p>\n            ","response":0,"trial_type":"html-button-response","trial_index":128,"time_elapsed":447858,"internal_node_id":"0.0-4.0-1.58","subject_id":"601266b26cdabd29da3d3926","study_id":"6197b3f67c2b5cd3b6d9596a","session_id":"6197b9ee3cf7977eedeac3c8","condition":"contingent","relevant_dimensions":["antennae","legs"],"bee_group":{"antennae":"A","wings":"X","pattern":"X","legs":"F"},"bonus":0.04},{"rt":363.69999999925494,"stimulus":"bees-with-color/bee-B1DF.svg","response":1,"trial_type":"image-button-response","trial_index":129,"time_elapsed":448223,"internal_node_id":"0.0-4.0-0.59","subject_id":"601266b26cdabd29da3d3926","study_id":"6197b3f67c2b5cd3b6d9596a","session_id":"6197b9ee3cf7977eedeac3c8","condition":"contingent","relevant_dimensions":["antennae","legs"],"bee_group":{"antennae":"A","wings":"X","pattern":"X","legs":"F"},"action":"avoid","summary":"bad-avoid","bonus":0.04},{"rt":531.3000000007451,"stimulus":"\n                    <p><b>Action: <em>avoid</em></b></p>\n                    <p>This is the bee that you just saw.</p>\n                    <img src=\"bees-with-color/bee-B1DF.svg\" width=\"200\">\n                    <p><br>Your bonus pay is unchanged, and remains at $0.20.</p>\n            ","response":0,"trial_type":"html-button-response","trial_index":130,"time_elapsed":448756,"internal_node_id":"0.0-4.0-1.59","subject_id":"601266b26cdabd29da3d3926","study_id":"6197b3f67c2b5cd3b6d9596a","session_id":"6197b9ee3cf7977eedeac3c8","condition":"contingent","relevant_dimensions":["antennae","legs"],"bee_group":{"antennae":"A","wings":"X","pattern":"X","legs":"F"},"bonus":0.04},{"rt":403.09999999962747,"stimulus":"bees-with-color/bee-B2DM.svg","response":1,"trial_type":"image-button-response","trial_index":131,"time_elapsed":449160,"internal_node_id":"0.0-4.0-0.60","subject_id":"601266b26cdabd29da3d3926","study_id":"6197b3f67c2b5cd3b6d9596a","session_id":"6197b9ee3cf7977eedeac3c8","condition":"contingent","relevant_dimensions":["antennae","legs"],"bee_group":{"antennae":"A","wings":"X","pattern":"X","legs":"F"},"action":"avoid","summary":"bad-avoid","bonus":0.04},{"rt":434.40000000037253,"stimulus":"\n                    <p><b>Action: <em>avoid</em></b></p>\n                    <p>This is the bee that you just saw.</p>\n                    <img src=\"bees-with-color/bee-B2DM.svg\" width=\"200\">\n                    <p><br>Your bonus pay is unchanged, and remains at $0.20.</p>\n            ","response":0,"trial_type":"html-button-response","trial_index":132,"time_elapsed":449595,"internal_node_id":"0.0-4.0-1.60","subject_id":"601266b26cdabd29da3d3926","study_id":"6197b3f67c2b5cd3b6d9596a","session_id":"6197b9ee3cf7977eedeac3c8","condition":"contingent","relevant_dimensions":["antennae","legs"],"bee_group":{"antennae":"A","wings":"X","pattern":"X","legs":"F"},"bonus":0.04},{"rt":313.90000000037253,"stimulus":"bees-with-color/bee-A1DM.svg","response":1,"trial_type":"image-button-response","trial_index":133,"time_elapsed":449910,"internal_node_id":"0.0-4.0-0.61","subject_id":"601266b26cdabd29da3d3926","study_id":"6197b3f67c2b5cd3b6d9596a","session_id":"6197b9ee3cf7977eedeac3c8","condition":"contingent","relevant_dimensions":["antennae","legs"],"bee_group":{"antennae":"A","wings":"X","pattern":"X","legs":"F"},"action":"avoid","summary":"bad-avoid","bonus":0.04},{"rt":352.19999999925494,"stimulus":"\n                    <p><b>Action: <em>avoid</em></b></p>\n                    <p>This is the bee that you just saw.</p>\n                    <img src=\"bees-with-color/bee-A1DM.svg\" width=\"200\">\n                    <p><br>Your bonus pay is unchanged, and remains at $0.20.</p>\n            ","response":0,"trial_type":"html-button-response","trial_index":134,"time_elapsed":450263,"internal_node_id":"0.0-4.0-1.61","subject_id":"601266b26cdabd29da3d3926","study_id":"6197b3f67c2b5cd3b6d9596a","session_id":"6197b9ee3cf7977eedeac3c8","condition":"contingent","relevant_dimensions":["antennae","legs"],"bee_group":{"antennae":"A","wings":"X","pattern":"X","legs":"F"},"bonus":0.04},{"rt":295.40000000037253,"stimulus":"bees-with-color/bee-B2DF.svg","response":1,"trial_type":"image-button-response","trial_index":135,"time_elapsed":450559,"internal_node_id":"0.0-4.0-0.62","subject_id":"601266b26cdabd29da3d3926","study_id":"6197b3f67c2b5cd3b6d9596a","session_id":"6197b9ee3cf7977eedeac3c8","condition":"contingent","relevant_dimensions":["antennae","legs"],"bee_group":{"antennae":"A","wings":"X","pattern":"X","legs":"F"},"action":"avoid","summary":"bad-avoid","bonus":0.04},{"rt":350,"stimulus":"\n                    <p><b>Action: <em>avoid</em></b></p>\n                    <p>This is the bee that you just saw.</p>\n                    <img src=\"bees-with-color/bee-B2DF.svg\" width=\"200\">\n                    <p><br>Your bonus pay is unchanged, and remains at $0.20.</p>\n            ","response":0,"trial_type":"html-button-response","trial_index":136,"time_elapsed":450910,"internal_node_id":"0.0-4.0-1.62","subject_id":"601266b26cdabd29da3d3926","study_id":"6197b3f67c2b5cd3b6d9596a","session_id":"6197b9ee3cf7977eedeac3c8","condition":"contingent","relevant_dimensions":["antennae","legs"],"bee_group":{"antennae":"A","wings":"X","pattern":"X","legs":"F"},"bonus":0.04},{"rt":305.09999999962747,"stimulus":"bees-with-color/bee-B2SF.svg","response":1,"trial_type":"image-button-response","trial_index":137,"time_elapsed":451216,"internal_node_id":"0.0-4.0-0.63","subject_id":"601266b26cdabd29da3d3926","study_id":"6197b3f67c2b5cd3b6d9596a","session_id":"6197b9ee3cf7977eedeac3c8","condition":"contingent","relevant_dimensions":["antennae","legs"],"bee_group":{"antennae":"A","wings":"X","pattern":"X","legs":"F"},"action":"avoid","summary":"bad-avoid","bonus":0.04},{"rt":813.0999999996275,"stimulus":"\n                    <p><b>Action: <em>avoid</em></b></p>\n                    <p>This is the bee that you just saw.</p>\n                    <img src=\"bees-with-color/bee-B2SF.svg\" width=\"200\">\n                    <p><br>Your bonus pay is unchanged, and remains at $0.20.</p>\n            ","response":0,"trial_type":"html-button-response","trial_index":138,"time_elapsed":452030,"internal_node_id":"0.0-4.0-1.63","subject_id":"601266b26cdabd29da3d3926","study_id":"6197b3f67c2b5cd3b6d9596a","session_id":"6197b9ee3cf7977eedeac3c8","condition":"contingent","relevant_dimensions":["antennae","legs"],"bee_group":{"antennae":"A","wings":"X","pattern":"X","legs":"F"},"bonus":0.04},{"rt":5429.5999999996275,"stimulus":"You have completed the first part of this experiment.<br><br>You will now begin a shorter second part, in which you will receive no feedback.<br>The same rules regarding bonus pay apply.<br><br>Press any key to begin.","response":"enter","trial_type":"html-keyboard-response","trial_index":139,"time_elapsed":457461,"internal_node_id":"0.0-5.0","subject_id":"601266b26cdabd29da3d3926","study_id":"6197b3f67c2b5cd3b6d9596a","session_id":"6197b9ee3cf7977eedeac3c8","condition":"contingent","relevant_dimensions":["antennae","legs"],"bee_group":{"antennae":"A","wings":"X","pattern":"X","legs":"F"},"bonus":0.04},{"rt":3085,"stimulus":"bees-with-color/bee-A1SF.svg","response":0,"trial_type":"image-button-response","trial_index":140,"time_elapsed":460549,"internal_node_id":"0.0-6.0-0.0","subject_id":"601266b26cdabd29da3d3926","study_id":"6197b3f67c2b5cd3b6d9596a","session_id":"6197b9ee3cf7977eedeac3c8","condition":"contingent","relevant_dimensions":["antennae","legs"],"bee_group":{"antennae":"A","wings":"X","pattern":"X","legs":"F"},"bonus":0.04},{"rt":2773.9000000003725,"stimulus":"bees-with-color/bee-A2DM.svg","response":0,"trial_type":"image-button-response","trial_index":141,"time_elapsed":463325,"internal_node_id":"0.0-6.0-0.1","subject_id":"601266b26cdabd29da3d3926","study_id":"6197b3f67c2b5cd3b6d9596a","session_id":"6197b9ee3cf7977eedeac3c8","condition":"contingent","relevant_dimensions":["antennae","legs"],"bee_group":{"antennae":"A","wings":"X","pattern":"X","legs":"F"},"bonus":0.04},{"rt":1259.9000000003725,"stimulus":"bees-with-color/bee-B1SM.svg","response":0,"trial_type":"image-button-response","trial_index":142,"time_elapsed":464587,"internal_node_id":"0.0-6.0-0.2","subject_id":"601266b26cdabd29da3d3926","study_id":"6197b3f67c2b5cd3b6d9596a","session_id":"6197b9ee3cf7977eedeac3c8","condition":"contingent","relevant_dimensions":["antennae","legs"],"bee_group":{"antennae":"A","wings":"X","pattern":"X","legs":"F"},"bonus":0.04},{"rt":503.7999999988824,"stimulus":"bees-with-color/bee-A1SM.svg","response":1,"trial_type":"image-button-response","trial_index":143,"time_elapsed":465092,"internal_node_id":"0.0-6.0-0.3","subject_id":"601266b26cdabd29da3d3926","study_id":"6197b3f67c2b5cd3b6d9596a","session_id":"6197b9ee3cf7977eedeac3c8","condition":"contingent","relevant_dimensions":["antennae","legs"],"bee_group":{"antennae":"A","wings":"X","pattern":"X","legs":"F"},"bonus":0.04},{"rt":507.3999999985099,"stimulus":"bees-with-color/bee-A2DF.svg","response":0,"trial_type":"image-button-response","trial_index":144,"time_elapsed":465601,"internal_node_id":"0.0-6.0-0.4","subject_id":"601266b26cdabd29da3d3926","study_id":"6197b3f67c2b5cd3b6d9596a","session_id":"6197b9ee3cf7977eedeac3c8","condition":"contingent","relevant_dimensions":["antennae","legs"],"bee_group":{"antennae":"A","wings":"X","pattern":"X","legs":"F"},"bonus":0.04},{"rt":560,"stimulus":"bees-with-color/bee-B2DM.svg","response":0,"trial_type":"image-button-response","trial_index":145,"time_elapsed":466162,"internal_node_id":"0.0-6.0-0.5","subject_id":"601266b26cdabd29da3d3926","study_id":"6197b3f67c2b5cd3b6d9596a","session_id":"6197b9ee3cf7977eedeac3c8","condition":"contingent","relevant_dimensions":["antennae","legs"],"bee_group":{"antennae":"A","wings":"X","pattern":"X","legs":"F"},"bonus":0.04},{"rt":138.09999999962747,"stimulus":"bees-with-color/bee-B2SM.svg","response":0,"trial_type":"image-button-response","trial_index":146,"time_elapsed":466302,"internal_node_id":"0.0-6.0-0.6","subject_id":"601266b26cdabd29da3d3926","study_id":"6197b3f67c2b5cd3b6d9596a","session_id":"6197b9ee3cf7977eedeac3c8","condition":"contingent","relevant_dimensions":["antennae","legs"],"bee_group":{"antennae":"A","wings":"X","pattern":"X","legs":"F"},"bonus":0.04},{"rt":461.5,"stimulus":"bees-with-color/bee-B2SF.svg","response":1,"trial_type":"image-button-response","trial_index":147,"time_elapsed":466765,"internal_node_id":"0.0-6.0-0.7","subject_id":"601266b26cdabd29da3d3926","study_id":"6197b3f67c2b5cd3b6d9596a","session_id":"6197b9ee3cf7977eedeac3c8","condition":"contingent","relevant_dimensions":["antennae","legs"],"bee_group":{"antennae":"A","wings":"X","pattern":"X","legs":"F"},"bonus":0.04},{"rt":557.8000000007451,"stimulus":"bees-with-color/bee-A1DF.svg","response":1,"trial_type":"image-button-response","trial_index":148,"time_elapsed":467324,"internal_node_id":"0.0-6.0-0.8","subject_id":"601266b26cdabd29da3d3926","study_id":"6197b3f67c2b5cd3b6d9596a","session_id":"6197b9ee3cf7977eedeac3c8","condition":"contingent","relevant_dimensions":["antennae","legs"],"bee_group":{"antennae":"A","wings":"X","pattern":"X","legs":"F"},"bonus":0.04},{"rt":784.5,"stimulus":"bees-with-color/bee-B2DF.svg","response":0,"trial_type":"image-button-response","trial_index":149,"time_elapsed":468110,"internal_node_id":"0.0-6.0-0.9","subject_id":"601266b26cdabd29da3d3926","study_id":"6197b3f67c2b5cd3b6d9596a","session_id":"6197b9ee3cf7977eedeac3c8","condition":"contingent","relevant_dimensions":["antennae","legs"],"bee_group":{"antennae":"A","wings":"X","pattern":"X","legs":"F"},"bonus":0.04},{"rt":190.7999999988824,"stimulus":"bees-with-color/bee-A1DM.svg","response":0,"trial_type":"image-button-response","trial_index":150,"time_elapsed":468302,"internal_node_id":"0.0-6.0-0.10","subject_id":"601266b26cdabd29da3d3926","study_id":"6197b3f67c2b5cd3b6d9596a","session_id":"6197b9ee3cf7977eedeac3c8","condition":"contingent","relevant_dimensions":["antennae","legs"],"bee_group":{"antennae":"A","wings":"X","pattern":"X","legs":"F"},"bonus":0.04},{"rt":468.69999999925494,"stimulus":"bees-with-color/bee-B1DM.svg","response":0,"trial_type":"image-button-response","trial_index":151,"time_elapsed":468772,"internal_node_id":"0.0-6.0-0.11","subject_id":"601266b26cdabd29da3d3926","study_id":"6197b3f67c2b5cd3b6d9596a","session_id":"6197b9ee3cf7977eedeac3c8","condition":"contingent","relevant_dimensions":["antennae","legs"],"bee_group":{"antennae":"A","wings":"X","pattern":"X","legs":"F"},"bonus":0.04},{"rt":1239.800000000745,"stimulus":"bees-with-color/bee-B1SF.svg","response":1,"trial_type":"image-button-response","trial_index":152,"time_elapsed":470013,"internal_node_id":"0.0-6.0-0.12","subject_id":"601266b26cdabd29da3d3926","study_id":"6197b3f67c2b5cd3b6d9596a","session_id":"6197b9ee3cf7977eedeac3c8","condition":"contingent","relevant_dimensions":["antennae","legs"],"bee_group":{"antennae":"A","wings":"X","pattern":"X","legs":"F"},"bonus":0.04},{"rt":502.2000000011176,"stimulus":"bees-with-color/bee-A2SF.svg","response":0,"trial_type":"image-button-response","trial_index":153,"time_elapsed":470517,"internal_node_id":"0.0-6.0-0.13","subject_id":"601266b26cdabd29da3d3926","study_id":"6197b3f67c2b5cd3b6d9596a","session_id":"6197b9ee3cf7977eedeac3c8","condition":"contingent","relevant_dimensions":["antennae","legs"],"bee_group":{"antennae":"A","wings":"X","pattern":"X","legs":"F"},"bonus":0.04},{"rt":373,"stimulus":"bees-with-color/bee-A2SM.svg","response":0,"trial_type":"image-button-response","trial_index":154,"time_elapsed":470891,"internal_node_id":"0.0-6.0-0.14","subject_id":"601266b26cdabd29da3d3926","study_id":"6197b3f67c2b5cd3b6d9596a","session_id":"6197b9ee3cf7977eedeac3c8","condition":"contingent","relevant_dimensions":["antennae","legs"],"bee_group":{"antennae":"A","wings":"X","pattern":"X","legs":"F"},"bonus":0.04},{"rt":405.7999999988824,"stimulus":"bees-with-color/bee-B1DF.svg","response":1,"trial_type":"image-button-response","trial_index":155,"time_elapsed":471299,"internal_node_id":"0.0-6.0-0.15","subject_id":"601266b26cdabd29da3d3926","study_id":"6197b3f67c2b5cd3b6d9596a","session_id":"6197b9ee3cf7977eedeac3c8","condition":"contingent","relevant_dimensions":["antennae","legs"],"bee_group":{"antennae":"A","wings":"X","pattern":"X","legs":"F"},"bonus":0.04},{"rt":174.5,"stimulus":"bees-with-color/bee-B2SF.svg","response":1,"trial_type":"image-button-response","trial_index":156,"time_elapsed":471474,"internal_node_id":"0.0-6.0-0.16","subject_id":"601266b26cdabd29da3d3926","study_id":"6197b3f67c2b5cd3b6d9596a","session_id":"6197b9ee3cf7977eedeac3c8","condition":"contingent","relevant_dimensions":["antennae","legs"],"bee_group":{"antennae":"A","wings":"X","pattern":"X","legs":"F"},"bonus":0.04},{"rt":528,"stimulus":"bees-with-color/bee-A2SM.svg","response":0,"trial_type":"image-button-response","trial_index":157,"time_elapsed":472004,"internal_node_id":"0.0-6.0-0.17","subject_id":"601266b26cdabd29da3d3926","study_id":"6197b3f67c2b5cd3b6d9596a","session_id":"6197b9ee3cf7977eedeac3c8","condition":"contingent","relevant_dimensions":["antennae","legs"],"bee_group":{"antennae":"A","wings":"X","pattern":"X","legs":"F"},"bonus":0.04},{"rt":504.5,"stimulus":"bees-with-color/bee-B1SF.svg","response":0,"trial_type":"image-button-response","trial_index":158,"time_elapsed":472510,"internal_node_id":"0.0-6.0-0.18","subject_id":"601266b26cdabd29da3d3926","study_id":"6197b3f67c2b5cd3b6d9596a","session_id":"6197b9ee3cf7977eedeac3c8","condition":"contingent","relevant_dimensions":["antennae","legs"],"bee_group":{"antennae":"A","wings":"X","pattern":"X","legs":"F"},"bonus":0.04},{"rt":200.7999999988824,"stimulus":"bees-with-color/bee-A1DM.svg","response":0,"trial_type":"image-button-response","trial_index":159,"time_elapsed":472712,"internal_node_id":"0.0-6.0-0.19","subject_id":"601266b26cdabd29da3d3926","study_id":"6197b3f67c2b5cd3b6d9596a","session_id":"6197b9ee3cf7977eedeac3c8","condition":"contingent","relevant_dimensions":["antennae","legs"],"bee_group":{"antennae":"A","wings":"X","pattern":"X","legs":"F"},"bonus":0.04},{"rt":415.7999999988824,"stimulus":"bees-with-color/bee-A1SF.svg","response":0,"trial_type":"image-button-response","trial_index":160,"time_elapsed":473129,"internal_node_id":"0.0-6.0-0.20","subject_id":"601266b26cdabd29da3d3926","study_id":"6197b3f67c2b5cd3b6d9596a","session_id":"6197b9ee3cf7977eedeac3c8","condition":"contingent","relevant_dimensions":["antennae","legs"],"bee_group":{"antennae":"A","wings":"X","pattern":"X","legs":"F"},"bonus":0.04},{"rt":135.7999999988824,"stimulus":"bees-with-color/bee-B1DF.svg","response":0,"trial_type":"image-button-response","trial_index":161,"time_elapsed":473266,"internal_node_id":"0.0-6.0-0.21","subject_id":"601266b26cdabd29da3d3926","study_id":"6197b3f67c2b5cd3b6d9596a","session_id":"6197b9ee3cf7977eedeac3c8","condition":"contingent","relevant_dimensions":["antennae","legs"],"bee_group":{"antennae":"A","wings":"X","pattern":"X","legs":"F"},"bonus":0.04},{"rt":399.69999999925494,"stimulus":"bees-with-color/bee-A2SF.svg","response":1,"trial_type":"image-button-response","trial_index":162,"time_elapsed":473667,"internal_node_id":"0.0-6.0-0.22","subject_id":"601266b26cdabd29da3d3926","study_id":"6197b3f67c2b5cd3b6d9596a","session_id":"6197b9ee3cf7977eedeac3c8","condition":"contingent","relevant_dimensions":["antennae","legs"],"bee_group":{"antennae":"A","wings":"X","pattern":"X","legs":"F"},"bonus":0.04},{"rt":163.09999999962747,"stimulus":"bees-with-color/bee-B2DM.svg","response":1,"trial_type":"image-button-response","trial_index":163,"time_elapsed":473831,"internal_node_id":"0.0-6.0-0.23","subject_id":"601266b26cdabd29da3d3926","study_id":"6197b3f67c2b5cd3b6d9596a","session_id":"6197b9ee3cf7977eedeac3c8","condition":"contingent","relevant_dimensions":["antennae","legs"],"bee_group":{"antennae":"A","wings":"X","pattern":"X","legs":"F"},"bonus":0.04},{"rt":403.5,"stimulus":"bees-with-color/bee-B1SM.svg","response":0,"trial_type":"image-button-response","trial_index":164,"time_elapsed":474236,"internal_node_id":"0.0-6.0-0.24","subject_id":"601266b26cdabd29da3d3926","study_id":"6197b3f67c2b5cd3b6d9596a","session_id":"6197b9ee3cf7977eedeac3c8","condition":"contingent","relevant_dimensions":["antennae","legs"],"bee_group":{"antennae":"A","wings":"X","pattern":"X","legs":"F"},"bonus":0.04},{"rt":168.7000000011176,"stimulus":"bees-with-color/bee-B1DM.svg","response":0,"trial_type":"image-button-response","trial_index":165,"time_elapsed":474406,"internal_node_id":"0.0-6.0-0.25","subject_id":"601266b26cdabd29da3d3926","study_id":"6197b3f67c2b5cd3b6d9596a","session_id":"6197b9ee3cf7977eedeac3c8","condition":"contingent","relevant_dimensions":["antennae","legs"],"bee_group":{"antennae":"A","wings":"X","pattern":"X","legs":"F"},"bonus":0.04},{"rt":522.7000000011176,"stimulus":"bees-with-color/bee-A2DF.svg","response":0,"trial_type":"image-button-response","trial_index":166,"time_elapsed":474930,"internal_node_id":"0.0-6.0-0.26","subject_id":"601266b26cdabd29da3d3926","study_id":"6197b3f67c2b5cd3b6d9596a","session_id":"6197b9ee3cf7977eedeac3c8","condition":"contingent","relevant_dimensions":["antennae","legs"],"bee_group":{"antennae":"A","wings":"X","pattern":"X","legs":"F"},"bonus":0.04},{"rt":178.80000000074506,"stimulus":"bees-with-color/bee-A1DF.svg","response":0,"trial_type":"image-button-response","trial_index":167,"time_elapsed":475110,"internal_node_id":"0.0-6.0-0.27","subject_id":"601266b26cdabd29da3d3926","study_id":"6197b3f67c2b5cd3b6d9596a","session_id":"6197b9ee3cf7977eedeac3c8","condition":"contingent","relevant_dimensions":["antennae","legs"],"bee_group":{"antennae":"A","wings":"X","pattern":"X","legs":"F"},"bonus":0.04},{"rt":716.5,"stimulus":"bees-with-color/bee-A1SM.svg","response":0,"trial_type":"image-button-response","trial_index":168,"time_elapsed":475828,"internal_node_id":"0.0-6.0-0.28","subject_id":"601266b26cdabd29da3d3926","study_id":"6197b3f67c2b5cd3b6d9596a","session_