[{"success":true,"trial_type":"fullscreen","trial_index":0,"time_elapsed":9194,"internal_node_id":"0.0-0.0","subject_id":"5f108dea719866356702d26f","study_id":"60edd13110225f80f9f3709b","session_id":"6196c70888f0c0dcb1cbdc0d","condition":"full-information","relevant_dimensions":["wings","pattern"],"bee_group":{"antennae":"X","wings":"2","pattern":"S","legs":"X"},"bonus":1.600000000000001},{"success":true,"timeout":false,"failed_images":[],"failed_audio":[],"failed_video":[],"trial_type":"preload","trial_index":1,"time_elapsed":10858,"internal_node_id":"0.0-1.0","subject_id":"5f108dea719866356702d26f","study_id":"60edd13110225f80f9f3709b","session_id":"6196c70888f0c0dcb1cbdc0d","condition":"full-information","relevant_dimensions":["wings","pattern"],"bee_group":{"antennae":"X","wings":"2","pattern":"S","legs":"X"},"bonus":1.600000000000001},{"rt":1420.4000000003725,"stimulus":"Welcome! Press any key to begin.","response":"alt","trial_type":"html-keyboard-response","trial_index":2,"time_elapsed":12280,"internal_node_id":"0.0-2.0","subject_id":"5f108dea719866356702d26f","study_id":"60edd13110225f80f9f3709b","session_id":"6196c70888f0c0dcb1cbdc0d","condition":"full-information","relevant_dimensions":["wings","pattern"],"bee_group":{"antennae":"X","wings":"2","pattern":"S","legs":"X"},"bonus":1.600000000000001},{"view_history":[{"page_index":0,"viewing_time":77381.09999999963},{"page_index":1,"viewing_time":27096.800000000745},{"page_index":2,"viewing_time":12860.299999998882},{"page_index":3,"viewing_time":15735.400000000373},{"page_index":4,"viewing_time":12189.5},{"page_index":5,"viewing_time":12803},{"page_index":6,"viewing_time":10748.200000001118},{"page_index":7,"viewing_time":13922.599999999627},{"page_index":8,"viewing_time":11268.599999999627},{"page_index":7,"viewing_time":21468.599999999627},{"page_index":8,"viewing_time":6208.4000000003725},{"page_index":9,"viewing_time":13614.800000000745},{"page_index":10,"viewing_time":6802.299999998882},{"page_index":11,"viewing_time":6662.800000000745},{"page_index":12,"viewing_time":10052.5},{"page_index":13,"viewing_time":1402.0999999996275},{"page_index":14,"viewing_time":1284.4000000003725}],"rt":261502.30000000075,"trial_type":"instructions","trial_index":3,"time_elapsed":273784,"internal_node_id":"0.0-3.0-0.0","subject_id":"5f108dea719866356702d26f","study_id":"60edd13110225f80f9f3709b","session_id":"6196c70888f0c0dcb1cbdc0d","condition":"full-information","relevant_dimensions":["wings","pattern"],"bee_group":{"antennae":"X","wings":"2","pattern":"S","legs":"X"},"bonus":1.600000000000001},{"rt":25573.200000001118,"response":{"Q0":["Two or six legs","Stripes or spots on body","Single or double wings","Antennae or no antennae"]},"question_order":[0],"trial_type":"survey-multi-select","trial_index":4,"time_elapsed":299363,"internal_node_id":"0.0-3.0-1.0","subject_id":"5f108dea719866356702d26f","study_id":"60edd13110225f80f9f3709b","session_id":"6196c70888f0c0dcb1cbdc0d","condition":"full-information","relevant_dimensions":["wings","pattern"],"bee_group":{"antennae":"X","wings":"2","pattern":"S","legs":"X"},"correct":true,"bonus":1.600000000000001},{"rt":18936,"response":{"Q1":"No.","Q2":"Based on the four features of the bee.","Q3":"You learn if it was friendly or dangerous, but do not alter your bonus."},"question_order":[0,1,2],"trial_type":"survey-multi-choice","trial_index":5,"time_elapsed":318301,"internal_node_id":"0.0-3.0-2.0","subject_id":"5f108dea719866356702d26f","study_id":"60edd13110225f80f9f3709b","session_id":"6196c70888f0c0dcb1cbdc0d","condition":"full-information","relevant_dimensions":["wings","pattern"],"bee_group":{"antennae":"X","wings":"2","pattern":"S","legs":"X"},"correct":true,"bonus":1.600000000000001},{"rt":2143.0999999996275,"stimulus":"<p>Congrats, you got everything right<br>When you're ready, click the button below to continue to the experiment.</p>","response":0,"trial_type":"html-button-response","trial_index":6,"time_elapsed":320446,"internal_node_id":"0.0-3.0-3.0","subject_id":"5f108dea719866356702d26f","study_id":"60edd13110225f80f9f3709b","session_id":"6196c70888f0c0dcb1cbdc0d","condition":"full-information","relevant_dimensions":["wings","pattern"],"bee_group":{"antennae":"X","wings":"2","pattern":"S","legs":"X"},"bonus":1.600000000000001},{"rt":18223.300000000745,"stimulus":"bees-with-color/bee-A1DM.svg","response":0,"trial_type":"image-button-response","trial_index":7,"time_elapsed":338671,"internal_node_id":"0.0-4.0-0.0","subject_id":"5f108dea719866356702d26f","study_id":"60edd13110225f80f9f3709b","session_id":"6196c70888f0c0dcb1cbdc0d","condition":"full-information","relevant_dimensions":["wings","pattern"],"bee_group":{"antennae":"X","wings":"2","pattern":"S","legs":"X"},"action":"harvest","summary":"good-harvest","bonus":1.600000000000001},{"rt":11563.699999999255,"stimulus":"\n                    <p><b>Action: <em>harvest</em></b></p>\n                    <p>This is the bee that you just saw.</p>\n                    <img src=\"bees-with-color/bee-A1DM.svg\" width=\"200\">\n                    <p><span class=\"greenText\"><b>Successful harvest!</b></span><br>Your pay has increased by $0.02. Your bonus pay is now $0.56.</p>\n            ","response":0,"trial_type":"html-button-response","trial_index":8,"time_elapsed":350238,"internal_node_id":"0.0-4.0-1.0","subject_id":"5f108dea719866356702d26f","study_id":"60edd13110225f80f9f3709b","session_id":"6196c70888f0c0dcb1cbdc0d","condition":"full-information","relevant_dimensions":["wings","pattern"],"bee_group":{"antennae":"X","wings":"2","pattern":"S","legs":"X"},"bonus":1.600000000000001},{"rt":3064.7999999988824,"stimulus":"bees-with-color/bee-A2SF.svg","response":1,"trial_type":"image-button-response","trial_index":9,"time_elapsed":353305,"internal_node_id":"0.0-4.0-0.1","subject_id":"5f108dea719866356702d26f","study_id":"60edd13110225f80f9f3709b","session_id":"6196c70888f0c0dcb1cbdc0d","condition":"full-information","relevant_dimensions":["wings","pattern"],"bee_group":{"antennae":"X","wings":"2","pattern":"S","legs":"X"},"action":"avoid","summary":"good-avoid","bonus":1.600000000000001},{"rt":18772.699999999255,"stimulus":"\n                    <p><b>Action: <em>avoid</em></b></p>\n                    <p>This is the bee that you just saw.</p>\n                    <img src=\"bees-with-color/bee-A2SF.svg\" width=\"200\">\n                    <p><span class=\"greenText\">Good choice!</span>  This bee would have stung you.<br>Your bonus pay is unchanged, and remains at $0.56.</p>\n            ","response":0,"trial_type":"html-button-response","trial_index":10,"time_elapsed":372079,"internal_node_id":"0.0-4.0-1.1","subject_id":"5f108dea719866356702d26f","study_id":"60edd13110225f80f9f3709b","session_id":"6196c70888f0c0dcb1cbdc0d","condition":"full-information","relevant_dimensions":["wings","pattern"],"bee_group":{"antennae":"X","wings":"2","pattern":"S","legs":"X"},"bonus":1.600000000000001},{"rt":1148.0999999996275,"stimulus":"bees-with-color/bee-B2DM.svg","response":1,"trial_type":"image-button-response","trial_index":11,"time_elapsed":373229,"internal_node_id":"0.0-4.0-0.2","subject_id":"5f108dea719866356702d26f","study_id":"60edd13110225f80f9f3709b","session_id":"6196c70888f0c0dcb1cbdc0d","condition":"full-information","relevant_dimensions":["wings","pattern"],"bee_group":{"antennae":"X","wings":"2","pattern":"S","legs":"X"},"action":"avoid","summary":"bad-avoid","bonus":1.600000000000001},{"rt":14961.199999999255,"stimulus":"\n                    <p><b>Action: <em>avoid</em></b></p>\n                    <p>This is the bee that you just saw.</p>\n                    <img src=\"bees-with-color/bee-B2DM.svg\" width=\"200\">\n                    <p><span class=\"redText\">Bad choice,</span> the bee was friendly.<br>Your bonus pay is unchanged, and remains at $0.56.</p>\n            ","response":0,"trial_type":"html-button-response","trial_index":12,"time_elapsed":388193,"internal_node_id":"0.0-4.0-1.2","subject_id":"5f108dea719866356702d26f","study_id":"60edd13110225f80f9f3709b","session_id":"6196c70888f0c0dcb1cbdc0d","condition":"full-information","relevant_dimensions":["wings","pattern"],"bee_group":{"antennae":"X","wings":"2","pattern":"S","legs":"X"},"bonus":1.600000000000001},{"rt":1259.300000000745,"stimulus":"bees-with-color/bee-A2SM.svg","response":1,"trial_type":"image-button-response","trial_index":13,"time_elapsed":389454,"internal_node_id":"0.0-4.0-0.3","subject_id":"5f108dea719866356702d26f","study_id":"60edd13110225f80f9f3709b","session_id":"6196c70888f0c0dcb1cbdc0d","condition":"full-information","relevant_dimensions":["wings","pattern"],"bee_group":{"antennae":"X","wings":"2","pattern":"S","legs":"X"},"action":"avoid","summary":"good-avoid","bonus":1.600000000000001},{"rt":18011.599999999627,"stimulus":"\n                    <p><b>Action: <em>avoid</em></b></p>\n                    <p>This is the bee that you just saw.</p>\n                    <img src=\"bees-with-color/bee-A2SM.svg\" width=\"200\">\n                    <p><span class=\"greenText\">Good choice!</span>  This bee would have stung you.<br>Your bonus pay is unchanged, and remains at $0.56.</p>\n            ","response":0,"trial_type":"html-button-response","trial_index":14,"time_elapsed":407467,"internal_node_id":"0.0-4.0-1.3","subject_id":"5f108dea719866356702d26f","study_id":"60edd13110225f80f9f3709b","session_id":"6196c70888f0c0dcb1cbdc0d","condition":"full-information","relevant_dimensions":["wings","pattern"],"bee_group":{"antennae":"X","wings":"2","pattern":"S","legs":"X"},"bonus":1.600000000000001},{"rt":804.5,"stimulus":"bees-with-color/bee-B1DF.svg","response":1,"trial_type":"image-button-response","trial_index":15,"time_elapsed":408273,"internal_node_id":"0.0-4.0-0.4","subject_id":"5f108dea719866356702d26f","study_id":"60edd13110225f80f9f3709b","session_id":"6196c70888f0c0dcb1cbdc0d","condition":"full-information","relevant_dimensions":["wings","pattern"],"bee_group":{"antennae":"X","wings":"2","pattern":"S","legs":"X"},"action":"avoid","summary":"bad-avoid","bonus":1.600000000000001},{"rt":17294.200000001118,"stimulus":"\n                    <p><b>Action: <em>avoid</em></b></p>\n                    <p>This is the bee that you just saw.</p>\n                    <img src=\"bees-with-color/bee-B1DF.svg\" width=\"200\">\n                    <p><span class=\"redText\">Bad choice,</span> the bee was friendly.<br>Your bonus pay is unchanged, and remains at $0.56.</p>\n            ","response":0,"trial_type":"html-button-response","trial_index":16,"time_elapsed":425569,"internal_node_id":"0.0-4.0-1.4","subject_id":"5f108dea719866356702d26f","study_id":"60edd13110225f80f9f3709b","session_id":"6196c70888f0c0dcb1cbdc0d","condition":"full-information","relevant_dimensions":["wings","pattern"],"bee_group":{"antennae":"X","wings":"2","pattern":"S","legs":"X"},"bonus":1.600000000000001},{"rt":13644.89999999851,"stimulus":"bees-with-color/bee-A1DF.svg","response":1,"trial_type":"image-button-response","trial_index":17,"time_elapsed":439216,"internal_node_id":"0.0-4.0-0.5","subject_id":"5f108dea719866356702d26f","study_id":"60edd13110225f80f9f3709b","session_id":"6196c70888f0c0dcb1cbdc0d","condition":"full-information","relevant_dimensions":["wings","pattern"],"bee_group":{"antennae":"X","wings":"2","pattern":"S","legs":"X"},"action":"avoid","summary":"bad-avoid","bonus":1.600000000000001},{"rt":18551.400000000373,"stimulus":"\n                    <p><b>Action: <em>avoid</em></b></p>\n                    <p>This is the bee that you just saw.</p>\n                    <img src=\"bees-with-color/bee-A1DF.svg\" width=\"200\">\n                    <p><span class=\"redText\">Bad choice,</span> the bee was friendly.<br>Your bonus pay is unchanged, and remains at $0.56.</p>\n            ","response":0,"trial_type":"html-button-response","trial_index":18,"time_elapsed":457768,"internal_node_id":"0.0-4.0-1.5","subject_id":"5f108dea719866356702d26f","study_id":"60edd13110225f80f9f3709b","session_id":"6196c70888f0c0dcb1cbdc0d","condition":"full-information","relevant_dimensions":["wings","pattern"],"bee_group":{"antennae":"X","wings":"2","pattern":"S","legs":"X"},"bonus":1.600000000000001},{"rt":12834.200000001118,"stimulus":"bees-with-color/bee-A2DF.svg","response":0,"trial_type":"image-button-response","trial_index":19,"time_elapsed":470604,"internal_node_id":"0.0-4.0-0.6","subject_id":"5f108dea719866356702d26f","study_id":"60edd13110225f80f9f3709b","session_id":"6196c70888f0c0dcb1cbdc0d","condition":"full-information","relevant_dimensions":["wings","pattern"],"bee_group":{"antennae":"X","wings":"2","pattern":"S","legs":"X"},"action":"harvest","summary":"good-harvest","bonus":1.600000000000001},{"rt":16721.400000000373,"stimulus":"\n                    <p><b>Action: <em>harvest</em></b></p>\n                    <p>This is the bee that you just saw.</p>\n                    <img src=\"bees-with-color/bee-A2DF.svg\" width=\"200\">\n                    <p><span class=\"greenText\"><b>Successful harvest!</b></span><br>Your pay has increased by $0.02. Your bonus pay is now $0.58.</p>\n            ","response":0,"trial_type":"html-button-response","trial_index":20,"time_elapsed":487327,"internal_node_id":"0.0-4.0-1.6","subject_id":"5f108dea719866356702d26f","study_id":"60edd13110225f80f9f3709b","session_id":"6196c70888f0c0dcb1cbdc0d","condition":"full-information","relevant_dimensions":["wings","pattern"],"bee_group":{"antennae":"X","wings":"2","pattern":"S","legs":"X"},"bonus":1.600000000000001},{"rt":3128.199999999255,"stimulus":"bees-with-color/bee-B1SM.svg","response":1,"trial_type":"image-button-response","trial_index":21,"time_elapsed":490457,"internal_node_id":"0.0-4.0-0.7","subject_id":"5f108dea719866356702d26f","study_id":"60edd13110225f80f9f3709b","session_id":"6196c70888f0c0dcb1cbdc0d","condition":"full-information","relevant_dimensions":["wings","pattern"],"bee_group":{"antennae":"X","wings":"2","pattern":"S","legs":"X"},"action":"avoid","summary":"bad-avoid","bonus":1.600000000000001},{"rt":43800.699999999255,"stimulus":"\n                    <p><b>Action: <em>avoid</em></b></p>\n                    <p>This is the bee that you just saw.</p>\n                    <img src=\"bees-with-color/bee-B1SM.svg\" width=\"200\">\n                    <p><span class=\"redText\">Bad choice,</span> the bee was friendly.<br>Your bonus pay is unchanged, and remains at $0.58.</p>\n            ","response":0,"trial_type":"html-button-response","trial_index":22,"time_elapsed":534260,"internal_node_id":"0.0-4.0-1.7","subject_id":"5f108dea719866356702d26f","study_id":"60edd13110225f80f9f3709b","session_id":"6196c70888f0c0dcb1cbdc0d","condition":"full-information","relevant_dimensions":["wings","pattern"],"bee_group":{"antennae":"X","wings":"2","pattern":"S","legs":"X"},"bonus":1.600000000000001},{"rt":19800.5,"stimulus":"bees-with-color/bee-A2DM.svg","response":1,"trial_type":"image-button-response","trial_index":23,"time_elapsed":554063,"internal_node_id":"0.0-4.0-0.8","subject_id":"5f108dea719866356702d26f","study_id":"60edd13110225f80f9f3709b","session_id":"6196c70888f0c0dcb1cbdc0d","condition":"full-information","relevant_dimensions":["wings","pattern"],"bee_group":{"antennae":"X","wings":"2","pattern":"S","legs":"X"},"action":"avoid","summary":"bad-avoid","bonus":1.600000000000001},{"rt":12514.200000001118,"stimulus":"\n                    <p><b>Action: <em>avoid</em></b></p>\n                    <p>This is the bee that you just saw.</p>\n                    <img src=\"bees-with-color/bee-A2DM.svg\" width=\"200\">\n                    <p><span class=\"redText\">Bad choice,</span> the bee was friendly.<br>Your bonus pay is unchanged, and remains at $0.58.</p>\n            ","response":0,"trial_type":"html-button-response","trial_index":24,"time_elapsed":566579,"internal_node_id":"0.0-4.0-1.8","subject_id":"5f108dea719866356702d26f","study_id":"60edd13110225f80f9f3709b","session_id":"6196c70888f0c0dcb1cbdc0d","condition":"full-information","relevant_dimensions":["wings","pattern"],"bee_group":{"antennae":"X","wings":"2","pattern":"S","legs":"X"},"bonus":1.600000000000001},{"rt":1109.5999999996275,"stimulus":"bees-with-color/bee-B2SF.svg","response":1,"trial_type":"image-button-response","trial_index":25,"time_elapsed":567690,"internal_node_id":"0.0-4.0-0.9","subject_id":"5f108dea719866356702d26f","study_id":"60edd13110225f80f9f3709b","session_id":"6196c70888f0c0dcb1cbdc0d","condition":"full-information","relevant_dimensions":["wings","pattern"],"bee_group":{"antennae":"X","wings":"2","pattern":"S","legs":"X"},"action":"avoid","summary":"good-avoid","bonus":1.600000000000001},{"rt":16286.300000000745,"stimulus":"\n                    <p><b>Action: <em>avoid</em></b></p>\n                    <p>This is the bee that you just saw.</p>\n                    <img src=\"bees-with-color/bee-B2SF.svg\" width=\"200\">\n                    <p><span class=\"greenText\">Good choice!</span>  This bee would have stung you.<br>Your bonus pay is unchanged, and remains at $0.58.</p>\n            ","response":0,"trial_type":"html-button-response","trial_index":26,"time_elapsed":583977,"internal_node_id":"0.0-4.0-1.9","subject_id":"5f108dea719866356702d26f","study_id":"60edd13110225f80f9f3709b","session_id":"6196c70888f0c0dcb1cbdc0d","condition":"full-information","relevant_dimensions":["wings","pattern"],"bee_group":{"antennae":"X","wings":"2","pattern":"S","legs":"X"},"bonus":1.600000000000001},{"rt":6085.299999998882,"stimulus":"bees-with-color/bee-A1SF.svg","response":1,"trial_type":"image-button-response","trial_index":27,"time_elapsed":590064,"internal_node_id":"0.0-4.0-0.10","subject_id":"5f108dea719866356702d26f","study_id":"60edd13110225f80f9f3709b","session_id":"6196c70888f0c0dcb1cbdc0d","condition":"full-information","relevant_dimensions":["wings","pattern"],"bee_group":{"antennae":"X","wings":"2","pattern":"S","legs":"X"},"action":"avoid","summary":"bad-avoid","bonus":1.600000000000001},{"rt":19266.5,"stimulus":"\n                    <p><b>Action: <em>avoid</em></b></p>\n                    <p>This is the bee that you just saw.</p>\n                    <img src=\"bees-with-color/bee-A1SF.svg\" width=\"200\">\n                    <p><span class=\"redText\">Bad choice,</span> the bee was friendly.<br>Your bonus pay is unchanged, and remains at $0.58.</p>\n            ","response":0,"trial_type":"html-button-response","trial_index":28,"time_elapsed":609332,"internal_node_id":"0.0-4.0-1.10","subject_id":"5f108dea719866356702d26f","study_id":"60edd13110225f80f9f3709b","session_id":"6196c70888f0c0dcb1cbdc0d","condition":"full-information","relevant_dimensions":["wings","pattern"],"bee_group":{"antennae":"X","wings":"2","pattern":"S","legs":"X"},"bonus":1.600000000000001},{"rt":8451.300000000745,"stimulus":"bees-with-color/bee-B1SF.svg","response":1,"trial_type":"image-button-response","trial_index":29,"time_elapsed":617786,"internal_node_id":"0.0-4.0-0.11","subject_id":"5f108dea719866356702d26f","study_id":"60edd13110225f80f9f3709b","session_id":"6196c70888f0c0dcb1cbdc0d","condition":"full-information","relevant_dimensions":["wings","pattern"],"bee_group":{"antennae":"X","wings":"2","pattern":"S","legs":"X"},"action":"avoid","summary":"bad-avoid","bonus":1.600000000000001},{"rt":9343.10000000149,"stimulus":"\n                    <p><b>Action: <em>avoid</em></b></p>\n                    <p>This is the bee that you just saw.</p>\n                    <img src=\"bees-with-color/bee-B1SF.svg\" width=\"200\">\n                    <p><span class=\"redText\">Bad choice,</span> the bee was friendly.<br>Your bonus pay is unchanged, and remains at $0.58.</p>\n            ","response":0,"trial_type":"html-button-response","trial_index":30,"time_elapsed":627130,"internal_node_id":"0.0-4.0-1.11","subject_id":"5f108dea719866356702d26f","study_id":"60edd13110225f80f9f3709b","session_id":"6196c70888f0c0dcb1cbdc0d","condition":"full-information","relevant_dimensions":["wings","pattern"],"bee_group":{"antennae":"X","wings":"2","pattern":"S","legs":"X"},"bonus":1.600000000000001},{"rt":5242.0999999996275,"stimulus":"bees-with-color/bee-B2SM.svg","response":1,"trial_type":"image-button-response","trial_index":31,"time_elapsed":632374,"internal_node_id":"0.0-4.0-0.12","subject_id":"5f108dea719866356702d26f","study_id":"60edd13110225f80f9f3709b","session_id":"6196c70888f0c0dcb1cbdc0d","condition":"full-information","relevant_dimensions":["wings","pattern"],"bee_group":{"antennae":"X","wings":"2","pattern":"S","legs":"X"},"action":"avoid","summary":"good-avoid","bonus":1.600000000000001},{"rt":9857.800000000745,"stimulus":"\n                    <p><b>Action: <em>avoid</em></b></p>\n                    <p>This is the bee that you just saw.</p>\n                    <img src=\"bees-with-color/bee-B2SM.svg\" width=\"200\">\n                    <p><span class=\"greenText\">Good choice!</span>  This bee would have stung you.<br>Your bonus pay is unchanged, and remains at $0.58.</p>\n            ","response":0,"trial_type":"html-button-response","trial_index":32,"time_elapsed":642234,"internal_node_id":"0.0-4.0-1.12","subject_id":"5f108dea719866356702d26f","study_id":"60edd13110225f80f9f3709b","session_id":"6196c70888f0c0dcb1cbdc0d","condition":"full-information","relevant_dimensions":["wings","pattern"],"bee_group":{"antennae":"X","wings":"2","pattern":"S","legs":"X"},"bonus":1.600000000000001},{"rt":12467.60000000149,"stimulus":"bees-with-color/bee-A1SM.svg","response":1,"trial_type":"image-button-response","trial_index":33,"time_elapsed":654704,"internal_node_id":"0.0-4.0-0.13","subject_id":"5f108dea719866356702d26f","study_id":"60edd13110225f80f9f3709b","session_id":"6196c70888f0c0dcb1cbdc0d","condition":"full-information","relevant_dimensions":["wings","pattern"],"bee_group":{"antennae":"X","wings":"2","pattern":"S","legs":"X"},"action":"avoid","summary":"bad-avoid","bonus":1.600000000000001},{"rt":5956.5999999996275,"stimulus":"\n                    <p><b>Action: <em>avoid</em></b></p>\n                    <p>This is the bee that you just saw.</p>\n                    <img src=\"bees-with-color/bee-A1SM.svg\" width=\"200\">\n                    <p><span class=\"redText\">Bad choice,</span> the bee was friendly.<br>Your bonus pay is unchanged, and remains at $0.58.</p>\n            ","response":0,"trial_type":"html-button-response","trial_index":34,"time_elapsed":660662,"internal_node_id":"0.0-4.0-1.13","subject_id":"5f108dea719866356702d26f","study_id":"60edd13110225f80f9f3709b","session_id":"6196c70888f0c0dcb1cbdc0d","condition":"full-information","relevant_dimensions":["wings","pattern"],"bee_group":{"antennae":"X","wings":"2","pattern":"S","legs":"X"},"bonus":1.600000000000001},{"rt":14859.200000001118,"stimulus":"bees-with-color/bee-B2DF.svg","response":1,"trial_type":"image-button-response","trial_index":35,"time_elapsed":675523,"internal_node_id":"0.0-4.0-0.14","subject_id":"5f108dea719866356702d26f","study_id":"60edd13110225f80f9f3709b","session_id":"6196c70888f0c0dcb1cbdc0d","condition":"full-information","relevant_dimensions":["wings","pattern"],"bee_group":{"antennae":"X","wings":"2","pattern":"S","legs":"X"},"action":"avoid","summary":"bad-avoid","bonus":1.600000000000001},{"rt":19121.199999999255,"stimulus":"\n                    <p><b>Action: <em>avoid</em></b></p>\n                    <p>This is the bee that you just saw.</p>\n                    <img src=\"bees-with-color/bee-B2DF.svg\" width=\"200\">\n                    <p><span class=\"redText\">Bad choice,</span> the bee was friendly.<br>Your bonus pay is unchanged, and remains at $0.58.</p>\n            ","response":0,"trial_type":"html-button-response","trial_index":36,"time_elapsed":694646,"internal_node_id":"0.0-4.0-1.14","subject_id":"5f108dea719866356702d26f","study_id":"60edd13110225f80f9f3709b","session_id":"6196c70888f0c0dcb1cbdc0d","condition":"full-information","relevant_dimensions":["wings","pattern"],"bee_group":{"antennae":"X","wings":"2","pattern":"S","legs":"X"},"bonus":1.600000000000001},{"rt":4694.700000001118,"stimulus":"bees-with-color/bee-B1DM.svg","response":0,"trial_type":"image-button-response","trial_index":37,"time_elapsed":699342,"internal_node_id":"0.0-4.0-0.15","subject_id":"5f108dea719866356702d26f","study_id":"60edd13110225f80f9f3709b","session_id":"6196c70888f0c0dcb1cbdc0d","condition":"full-information","relevant_dimensions":["wings","pattern"],"bee_group":{"antennae":"X","wings":"2","pattern":"S","legs":"X"},"action":"harvest","summary":"good-harvest","bonus":1.600000000000001},{"rt":12015.599999999627,"stimulus":"\n                    <p><b>Action: <em>harvest</em></b></p>\n                    <p>This is the bee that you just saw.</p>\n                    <img src=\"bees-with-color/bee-B1DM.svg\" width=\"200\">\n                    <p><span class=\"greenText\"><b>Successful harvest!</b></span><br>Your pay has increased by $0.02. Your bonus pay is now $0.60.</p>\n            ","response":0,"trial_type":"html-button-response","trial_index":38,"time_elapsed":711359,"internal_node_id":"0.0-4.0-1.15","subject_id":"5f108dea719866356702d26f","study_id":"60edd13110225f80f9f3709b","session_id":"6196c70888f0c0dcb1cbdc0d","condition":"full-information","relevant_dimensions":["wings","pattern"],"bee_group":{"antennae":"X","wings":"2","pattern":"S","legs":"X"},"bonus":1.600000000000001},{"rt":21355.900000000373,"stimulus":"bees-with-color/bee-B1DF.svg","response":0,"trial_type":"image-button-response","trial_index":39,"time_elapsed":732717,"internal_node_id":"0.0-4.0-0.16","subject_id":"5f108dea719866356702d26f","study_id":"60edd13110225f80f9f3709b","session_id":"6196c70888f0c0dcb1cbdc0d","condition":"full-information","relevant_dimensions":["wings","pattern"],"bee_group":{"antennae":"X","wings":"2","pattern":"S","legs":"X"},"action":"harvest","summary":"good-harvest","bonus":1.600000000000001},{"rt":3638.300000000745,"stimulus":"\n                    <p><b>Action: <em>harvest</em></b></p>\n                    <p>This is the bee that you just saw.</p>\n                    <img src=\"bees-with-color/bee-B1DF.svg\" width=\"200\">\n                    <p><span class=\"greenText\"><b>Successful harvest!</b></span><br>Your pay has increased by $0.02. Your bonus pay is now $0.62.</p>\n            ","response":0,"trial_type":"html-button-response","trial_index":40,"time_elapsed":736357,"internal_node_id":"0.0-4.0-1.16","subject_id":"5f108dea719866356702d26f","study_id":"60edd13110225f80f9f3709b","session_id":"6196c70888f0c0dcb1cbdc0d","condition":"full-information","relevant_dimensions":["wings","pattern"],"bee_group":{"antennae":"X","wings":"2","pattern":"S","legs":"X"},"bonus":1.600000000000001},{"rt":21500.400000000373,"stimulus":"bees-with-color/bee-B1DM.svg","response":1,"trial_type":"image-button-response","trial_index":41,"time_elapsed":757859,"internal_node_id":"0.0-4.0-0.17","subject_id":"5f108dea719866356702d26f","study_id":"60edd13110225f80f9f3709b","session_id":"6196c70888f0c0dcb1cbdc0d","condition":"full-information","relevant_dimensions":["wings","pattern"],"bee_group":{"antennae":"X","wings":"2","pattern":"S","legs":"X"},"action":"avoid","summary":"bad-avoid","bonus":1.600000000000001},{"rt":8368.099999999627,"stimulus":"\n                    <p><b>Action: <em>avoid</em></b></p>\n                    <p>This is the bee that you just saw.</p>\n                    <img src=\"bees-with-color/bee-B1DM.svg\" width=\"200\">\n                    <p><span class=\"redText\">Bad choice,</span> the bee was friendly.<br>Your bonus pay is unchanged, and remains at $0.62.</p>\n            ","response":0,"trial_type":"html-button-response","trial_index":42,"time_elapsed":766229,"internal_node_id":"0.0-4.0-1.17","subject_id":"5f108dea719866356702d26f","study_id":"60edd13110225f80f9f3709b","session_id":"6196c70888f0c0dcb1cbdc0d","condition":"full-information","relevant_dimensions":["wings","pattern"],"bee_group":{"antennae":"X","wings":"2","pattern":"S","legs":"X"},"bonus":1.600000000000001},{"rt":5312.5999999996275,"stimulus":"bees-with-color/bee-A2DM.svg","response":0,"trial_type":"image-button-response","trial_index":43,"time_elapsed":771543,"internal_node_id":"0.0-4.0-0.18","subject_id":"5f108dea719866356702d26f","study_id":"60edd13110225f80f9f3709b","session_id":"6196c70888f0c0dcb1cbdc0d","condition":"full-information","relevant_dimensions":["wings","pattern"],"bee_group":{"antennae":"X","wings":"2","pattern":"S","legs":"X"},"action":"harvest","summary":"good-harvest","bonus":1.600000000000001},{"rt":1854.5,"stimulus":"\n                    <p><b>Action: <em>harvest</em></b></p>\n                    <p>This is the bee that you just saw.</p>\n                    <img src=\"bees-with-color/bee-A2DM.svg\" width=\"200\">\n                    <p><span class=\"greenText\"><b>Successful harvest!</b></span><br>Your pay has increased by $0.02. Your bonus pay is now $0.64.</p>\n            ","response":0,"trial_type":"html-button-response","trial_index":44,"time_elapsed":773399,"internal_node_id":"0.0-4.0-1.18","subject_id":"5f108dea719866356702d26f","study_id":"60edd13110225f80f9f3709b","session_id":"6196c70888f0c0dcb1cbdc0d","condition":"full-information","relevant_dimensions":["wings","pattern"],"bee_group":{"antennae":"X","wings":"2","pattern":"S","legs":"X"},"bonus":1.600000000000001},{"rt":11723.699999999255,"stimulus":"bees-with-color/bee-A1SM.svg","response":0,"trial_type":"image-button-response","trial_index":45,"time_elapsed":785125,"internal_node_id":"0.0-4.0-0.19","subject_id":"5f108dea719866356702d26f","study_id":"60edd13110225f80f9f3709b","session_id":"6196c70888f0c0dcb1cbdc0d","condition":"full-information","relevant_dimensions":["wings","pattern"],"bee_group":{"antennae":"X","wings":"2","pattern":"S","legs":"X"},"action":"harvest","summary":"good-harvest","bonus":1.600000000000001},{"rt":1686.4000000003725,"stimulus":"\n                    <p><b>Action: <em>harvest</em></b></p>\n                    <p>This is the bee that you just saw.</p>\n                    <img src=\"bees-with-color/bee-A1SM.svg\" width=\"200\">\n                    <p><span class=\"greenText\"><b>Successful harvest!</b></span><br>Your pay has increased by $0.02. Your bonus pay is now $0.66.</p>\n            ","response":0,"trial_type":"html-button-response","trial_index":46,"time_elapsed":786813,"internal_node_id":"0.0-4.0-1.19","subject_id":"5f108dea719866356702d26f","study_id":"60edd13110225f80f9f3709b","session_id":"6196c70888f0c0dcb1cbdc0d","condition":"full-information","relevant_dimensions":["wings","pattern"],"bee_group":{"antennae":"X","wings":"2","pattern":"S","legs":"X"},"bonus":1.600000000000001},{"rt":13700.10000000149,"stimulus":"bees-with-color/bee-A1DM.svg","response":0,"trial_type":"image-button-response","trial_index":47,"time_elapsed":800515,"internal_node_id":"0.0-4.0-0.20","subject_id":"5f108dea719866356702d26f","study_id":"60edd13110225f80f9f3709b","session_id":"6196c70888f0c0dcb1cbdc0d","condition":"full-information","relevant_dimensions":["wings","pattern"],"bee_group":{"antennae":"X","wings":"2","pattern":"S","legs":"X"},"action":"harvest","summary":"good-harvest","bonus":1.600000000000001},{"rt":900.4000000003725,"stimulus":"\n                    <p><b>Action: <em>harvest</em></b></p>\n                    <p>This is the bee that you just saw.</p>\n                    <img src=\"bees-with-color/bee-A1DM.svg\" width=\"200\">\n                    <p><span class=\"greenText\"><b>Successful harvest!</b></span><br>Your pay has increased by $0.02. Your bonus pay is now $0.68.</p>\n            ","response":0,"trial_type":"html-button-response","trial_index":48,"time_elapsed":801417,"internal_node_id":"0.0-4.0-1.20","subject_id":"5f108dea719866356702d26f","study_id":"60edd13110225f80f9f3709b","session_id":"6196c70888f0c0dcb1cbdc0d","condition":"full-information","relevant_dimensions":["wings","pattern"],"bee_group":{"antennae":"X","wings":"2","pattern":"S","legs":"X"},"bonus":1.600000000000001},{"rt":8433.5,"stimulus":"bees-with-color/bee-A2SM.svg","response":1,"trial_type":"image-button-response","trial_index":49,"time_elapsed":809852,"internal_node_id":"0.0-4.0-0.21","subject_id":"5f108dea719866356702d26f","study_id":"60edd13110225f80f9f3709b","session_id":"6196c70888f0c0dcb1cbdc0d","condition":"full-information","relevant_dimensions":["wings","pattern"],"bee_group":{"antennae":"X","wings":"2","pattern":"S","legs":"X"},"action":"avoid","summary":"good-avoid","bonus":1.600000000000001},{"rt":1583.5,"stimulus":"\n                    <p><b>Action: <em>avoid</em></b></p>\n                    <p>This is the bee that you just saw.</p>\n                    <img src=\"bees-with-color/bee-A2SM.svg\" width=\"200\">\n                    <p><span class=\"greenText\">Good choice!</span>  This bee would have stung you.<br>Your bonus pay is unchanged, and remains at $0.68.</p>\n            ","response":0,"trial_type":"html-button-response","trial_index":50,"time_elapsed":811436,"internal_node_id":"0.0-4.0-1.21","subject_id":"5f108dea719866356702d26f","study_id":"60edd13110225f80f9f3709b","session_id":"6196c70888f0c0dcb1cbdc0d","condition":"full-information","relevant_dimensions":["wings","pattern"],"bee_group":{"antennae":"X","wings":"2","pattern":"S","legs":"X"},"bonus":1.600000000000001},{"rt":23638.299999998882,"stimulus":"bees-with-color/bee-B2SM.svg","response":1,"trial_type":"image-button-response","trial_index":51,"time_elapsed":835076,"internal_node_id":"0.0-4.0-0.22","subject_id":"5f108dea719866356702d26f","study_id":"60edd13110225f80f9f3709b","session_id":"6196c70888f0c0dcb1cbdc0d","condition":"full-information","relevant_dimensions":["wings","pattern"],"bee_group":{"antennae":"X","wings":"2","pattern":"S","legs":"X"},"action":"avoid","summary":"good-avoid","bonus":1.600000000000001},{"rt":13952.699999999255,"stimulus":"\n                    <p><b>Action: <em>avoid</em></b></p>\n                    <p>This is the bee that you just saw.</p>\n                    <img src=\"bees-with-color/bee-B2SM.svg\" width=\"200\">\n                    <p><span class=\"greenText\">Good choice!</span>  This bee would have stung you.<br>Your bonus pay is unchanged, and remains at $0.68.</p>\n            ","response":0,"trial_type":"html-button-response","trial_index":52,"time_elapsed":849030,"internal_node_id":"0.0-4.0-1.22","subject_id":"5f108dea719866356702d26f","study_id":"60edd13110225f80f9f3709b","session_id":"6196c70888f0c0dcb1cbdc0d","condition":"full-information","relevant_dimensions":["wings","pattern"],"bee_group":{"antennae":"X","wings":"2","pattern":"S","legs":"X"},"bonus":1.600000000000001},{"rt":6126,"stimulus":"bees-with-color/bee-A1DF.svg","response":0,"trial_type":"image-button-response","trial_index":53,"time_elapsed":855158,"internal_node_id":"0.0-4.0-0.23","subject_id":"5f108dea719866356702d26f","study_id":"60edd13110225f80f9f3709b","session_id":"6196c70888f0c0dcb1cbdc0d","condition":"full-information","relevant_dimensions":["wings","pattern"],"bee_group":{"antennae":"X","wings":"2","pattern":"S","legs":"X"},"action":"harvest","summary":"good-harvest","bonus":1.600000000000001},{"rt":971.1999999992549,"stimulus":"\n                    <p><b>Action: <em>harvest</em></b></p>\n                    <p>This is the bee that you just saw.</p>\n                    <img src=\"bees-with-color/bee-A1DF.svg\" width=\"200\">\n                    <p><span class=\"greenText\"><b>Successful harvest!</b></span><br>Your pay has increased by $0.02. Your bonus pay is now $0.70.</p>\n            ","response":0,"trial_type":"html-button-response","trial_index":54,"time_elapsed":856131,"internal_node_id":"0.0-4.0-1.23","subject_id":"5f108dea719866356702d26f","study_id":"60edd13110225f80f9f3709b","session_id":"6196c70888f0c0dcb1cbdc0d","condition":"full-information","relevant_dimensions":["wings","pattern"],"bee_group":{"antennae":"X","wings":"2","pattern":"S","legs":"X"},"bonus":1.600000000000001},{"rt":10523.599999999627,"stimulus":"bees-with-color/bee-A2DF.svg","response":0,"trial_type":"image-button-response","trial_index":55,"time_elapsed":866656,"internal_node_id":"0.0-4.0-0.24","subject_id":"5f108dea719866356702d26f","study_id":"60edd13110225f80f9f3709b","session_id":"6196c70888f0c0dcb1cbdc0d","condition":"full-information","relevant_dimensions":["wings","pattern"],"bee_group":{"antennae":"X","wings":"2","pattern":"S","legs":"X"},"action":"harvest","summary":"good-harvest","bonus":1.600000000000001},{"rt":709.4000000003725,"stimulus":"\n                    <p><b>Action: <em>harvest</em></b></p>\n                    <p>This is the bee that you just saw.</p>\n                    <img src=\"bees-with-color/bee-A2DF.svg\" width=\"200\">\n                    <p><span class=\"greenText\"><b>Successful harvest!</b></span><br>Your pay has increased by $0.02. Your bonus pay is now $0.72.</p>\n            ","response":0,"trial_type":"html-button-response","trial_index":56,"time_elapsed":867367,"internal_node_id":"0.0-4.0-1.24","subject_id":"5f108dea719866356702d26f","study_id":"60edd13110225f80f9f3709b","session_id":"6196c70888f0c0dcb1cbdc0d","condition":"full-information","relevant_dimensions":["wings","pattern"],"bee_group":{"antennae":"X","wings":"2","pattern":"S","legs":"X"},"bonus":1.600000000000001},{"rt":17667.099999999627,"stimulus":"bees-with-color/bee-B2DF.svg","response":0,"trial_type":"image-button-response","trial_index":57,"time_elapsed":885037,"internal_node_id":"0.0-4.0-0.25","subject_id":"5f108dea719866356702d26f","study_id":"60edd13110225f80f9f3709b","session_id":"6196c70888f0c0dcb1cbdc0d","condition":"full-information","relevant_dimensions":["wings","pattern"],"bee_group":{"antennae":"X","wings":"2","pattern":"S","legs":"X"},"action":"harvest","summary":"good-harvest","bonus":1.600000000000001},{"rt":833.2000000011176,"stimulus":"\n                    <p><b>Action: <em>harvest</em></b></p>\n                    <p>This is the bee that you just saw.</p>\n                    <img src=\"bees-with-color/bee-B2DF.svg\" width=\"200\">\n                    <p><span class=\"greenText\"><b>Successful harvest!</b></span><br>Your pay has increased by $0.02. Your bonus pay is now $0.74.</p>\n            ","response":0,"trial_type":"html-button-response","trial_index":58,"time_elapsed":885871,"internal_node_id":"0.0-4.0-1.25","subject_id":"5f108dea719866356702d26f","study_id":"60edd13110225f80f9f3709b","session_id":"6196c70888f0c0dcb1cbdc0d","condition":"full-information","relevant_dimensions":["wings","pattern"],"bee_group":{"antennae":"X","wings":"2","pattern":"S","legs":"X"},"bonus":1.600000000000001},{"rt":6329.60000000149,"stimulus":"bees-with-color/bee-A2SF.svg","response":1,"trial_type":"image-button-response","trial_index":59,"time_elapsed":892202,"internal_node_id":"0.0-4.0-0.26","subject_id":"5f108dea719866356702d26f","study_id":"60edd13110225f80f9f3709b","session_id":"6196c70888f0c0dcb1cbdc0d","condition":"full-information","relevant_dimensions":["wings","pattern"],"bee_group":{"antennae":"X","wings":"2","pattern":"S","legs":"X"},"action":"avoid","summary":"good-avoid","bonus":1.600000000000001},{"rt":1262.800000000745,"stimulus":"\n                    <p><b>Action: <em>avoid</em></b></p>\n                    <p>This is the bee that you just saw.</p>\n                    <img src=\"bees-with-color/bee-A2SF.svg\" width=\"200\">\n                    <p><span class=\"greenText\">Good choice!</span>  This bee would have stung you.<br>Your bonus pay is unchanged, and remains at $0.74.</p>\n            ","response":0,"trial_type":"html-button-response","trial_index":60,"time_elapsed":893467,"internal_node_id":"0.0-4.0-1.26","subject_id":"5f108dea719866356702d26f","study_id":"60edd13110225f80f9f3709b","session_id":"6196c70888f0c0dcb1cbdc0d","condition":"full-information","relevant_dimensions":["wings","pattern"],"bee_group":{"antennae":"X","wings":"2","pattern":"S","legs":"X"},"bonus":1.600000000000001},{"rt":16591.400000000373,"stimulus":"bees-with-color/bee-A1SF.svg","response":1,"trial_type":"image-button-response","trial_index":61,"time_elapsed":910059,"internal_node_id":"0.0-4.0-0.27","subject_id":"5f108dea719866356702d26f","study_id":"60edd13110225f80f9f3709b","session_id":"6196c70888f0c0dcb1cbdc0d","condition":"full-information","relevant_dimensions":["wings","pattern"],"bee_group":{"antennae":"X","wings":"2","pattern":"S","legs":"X"},"action":"avoid","summary":"bad-avoid","bonus":1.600000000000001},{"rt":10517,"stimulus":"\n                    <p><b>Action: <em>avoid</em></b></p>\n                    <p>This is the bee that you just saw.</p>\n                    <img src=\"bees-with-color/bee-A1SF.svg\" width=\"200\">\n                    <p><span class=\"redText\">Bad choice,</span> the bee was friendly.<br>Your bonus pay is unchanged, and remains at $0.74.</p>\n            ","response":0,"trial_type":"html-button-response","trial_index":62,"time_elapsed":920578,"internal_node_id":"0.0-4.0-1.27","subject_id":"5f108dea719866356702d26f","study_id":"60edd13110225f80f9f3709b","session_id":"6196c70888f0c0dcb1cbdc0d","condition":"full-information","relevant_dimensions":["wings","pattern"],"bee_group":{"antennae":"X","wings":"2","pattern":"S","legs":"X"},"bonus":1.600000000000001},{"rt":15830.099999999627,"stimulus":"bees-with-color/bee-B2DM.svg","response":1,"trial_type":"image-button-response","trial_index":63,"time_elapsed":936410,"internal_node_id":"0.0-4.0-0.28","subject_id":"5f108dea719866356702d26f","study_id":"60edd13110225f80f9f3709b","session_id":"6196c70888f0c0dcb1cbdc0d","condition":"full-information","relevant_dimensions":["wings","pattern"],"bee_group":{"antennae":"X","wings":"2","pattern":"S","legs":"X"},"action":"avoid","summary":"bad-avoid","bonus":1.600000000000001},{"rt":7937.5999999996275,"stimulus":"\n                    <p><b>Action: <em>avoid</em></b></p>\n                    <p>This is the bee that you just saw.</p>\n                    <img src=\"bees-with-color/bee-B2DM.svg\" width=\"200\">\n                    <p><span class=\"redText\">Bad choice,</span> the bee was friendly.<br>Your bonus pay is unchanged, and remains at $0.74.</p>\n            ","response":0,"trial_type":"html-button-response","trial_index":64,"time_elapsed":944349,"internal_node_id":"0.0-4.0-1.28","subject_id":"5f108dea719866356702d26f","study_id":"60edd13110225f80f9f3709b","session_id":"6196c70888f0c0dcb1cbdc0d","condition":"full-information","relevant_dimensions":["wings","pattern"],"bee_group":{"antennae":"X","wings":"2","pattern":"S","legs":"X"},"bonus":1.600000000000001},{"rt":21606.5,"stimulus":"bees-with-color/bee-B1SM.svg","response":1,"trial_type":"image-button-response","trial_index":65,"time_elapsed":965957,"internal_node_id":"0.0-4.0-0.29","subject_id":"5f108dea719866356702d26f","study_id":"60edd13110225f80f9f3709b","session_id":"6196c70888f0c0dcb1cbdc0d","condition":"full-information","relevant_dimensions":["wings","pattern"],"bee_group":{"antennae":"X","wings":"2","pattern":"S","legs":"X"},"action":"avoid","summary":"bad-avoid","bonus":1.600000000000001},{"rt":13436.5,"stimulus":"\n                    <p><b>Action: <em>avoid</em></b></p>\n                    <p>This is the bee that you just saw.</p>\n                    <img src=\"bees-with-color/bee-B1SM.svg\" width=\"200\">\n                    <p><span class=\"redText\">Bad choice,</span> the bee was friendly.<br>Your bonus pay is unchanged, and remains at $0.74.</p>\n            ","response":0,"trial_type":"html-button-response","trial_index":66,"time_elapsed":979395,"internal_node_id":"0.0-4.0-1.29","subject_id":"5f108dea719866356702d26f","study_id":"60edd13110225f80f9f3709b","session_id":"6196c70888f0c0dcb1cbdc0d","condition":"full-information","relevant_dimensions":["wings","pattern"],"bee_group":{"antennae":"X","wings":"2","pattern":"S","legs":"X"},"bonus":1.600000000000001},{"rt":6557.299999998882,"stimulus":"bees-with-color/bee-B2SF.svg","response":1,"trial_type":"image-button-response","trial_index":67,"time_elapsed":985954,"internal_node_id":"0.0-4.0-0.30","subject_id":"5f108dea719866356702d26f","study_id":"60edd13110225f80f9f3709b","session_id":"6196c70888f0c0dcb1cbdc0d","condition":"full-information","relevant_dimensions":["wings","pattern"],"bee_group":{"antennae":"X","wings":"2","pattern":"S","legs":"X"},"action":"avoid","summary":"good-avoid","bonus":1.600000000000001},{"rt":846.8000000007451,"stimulus":"\n                    <p><b>Action: <em>avoid</em></b></p>\n                    <p>This is the bee that you just saw.</p>\n                    <img src=\"bees-with-color/bee-B2SF.svg\" width=\"200\">\n                    <p><span class=\"greenText\">Good choice!</span>  This bee would have stung you.<br>Your bonus pay is unchanged, and remains at $0.74.</p>\n            ","response":0,"trial_type":"html-button-response","trial_index":68,"time_elapsed":986802,"internal_node_id":"0.0-4.0-1.30","subject_id":"5f108dea719866356702d26f","study_id":"60edd13110225f80f9f3709b","session_id":"6196c70888f0c0dcb1cbdc0d","condition":"full-information","relevant_dimensions":["wings","pattern"],"bee_group":{"antennae":"X","wings":"2","pattern":"S","legs":"X"},"bonus":1.600000000000001},{"rt":5066.0999999996275,"stimulus":"bees-with-color/bee-B1SF.svg","response":0,"trial_type":"image-button-response","trial_index":69,"time_elapsed":991870,"internal_node_id":"0.0-4.0-0.31","subject_id":"5f108dea719866356702d26f","study_id":"60edd13110225f80f9f3709b","session_id":"6196c70888f0c0dcb1cbdc0d","condition":"full-information","relevant_dimensions":["wings","pattern"],"bee_group":{"antennae":"X","wings":"2","pattern":"S","legs":"X"},"action":"harvest","summary":"good-harvest","bonus":1.600000000000001},{"rt":971.8000000007451,"stimulus":"\n                    <p><b>Action: <em>harvest</em></b></p>\n                    <p>This is the bee that you just saw.</p>\n                    <img src=\"bees-with-color/bee-B1SF.svg\" width=\"200\">\n                    <p><span class=\"greenText\"><b>Successful harvest!</b></span><br>Your pay has increased by $0.02. Your bonus pay is now $0.76.</p>\n            ","response":0,"trial_type":"html-button-response","trial_index":70,"time_elapsed":992843,"internal_node_id":"0.0-4.0-1.31","subject_id":"5f108dea719866356702d26f","study_id":"60edd13110225f80f9f3709b","session_id":"6196c70888f0c0dcb1cbdc0d","condition":"full-information","relevant_dimensions":["wings","pattern"],"bee_group":{"antennae":"X","wings":"2","pattern":"S","legs":"X"},"bonus":1.600000000000001},{"rt":6989.9000000003725,"stimulus":"bees-with-color/bee-B1DF.svg","response":0,"trial_type":"image-button-response","trial_index":71,"time_elapsed":999834,"internal_node_id":"0.0-4.0-0.32","subject_id":"5f108dea719866356702d26f","study_id":"60edd13110225f80f9f3709b","session_id":"6196c70888f0c0dcb1cbdc0d","condition":"full-information","relevant_dimensions":["wings","pattern"],"bee_group":{"antennae":"X","wings":"2","pattern":"S","legs":"X"},"action":"harvest","summary":"good-harvest","bonus":1.600000000000001},{"rt":884.2000000011176,"stimulus":"\n                    <p><b>Action: <em>harvest</em></b></p>\n                    <p>This is the bee that you just saw.</p>\n                    <img src=\"bees-with-color/bee-B1DF.svg\" width=\"200\">\n                    <p><span class=\"greenText\"><b>Successful harvest!</b></span><br>Your pay has increased by $0.02. Your bonus pay is now $0.78.</p>\n            ","response":0,"trial_type":"html-button-response","trial_index":72,"time_elapsed":1000720,"internal_node_id":"0.0-4.0-1.32","subject_id":"5f108dea719866356702d26f","study_id":"60edd13110225f80f9f3709b","session_id":"6196c70888f0c0dcb1cbdc0d","condition":"full-information","relevant_dimensions":["wings","pattern"],"bee_group":{"antennae":"X","wings":"2","pattern":"S","legs":"X"},"bonus":1.600000000000001},{"rt":9634.199999999255,"stimulus":"bees-with-color/bee-A1SF.svg","response":0,"trial_type":"image-button-response","trial_index":73,"time_elapsed":1010355,"internal_node_id":"0.0-4.0-0.33","subject_id":"5f108dea719866356702d26f","study_id":"60edd13110225f80f9f3709b","session_id":"6196c70888f0c0dcb1cbdc0d","condition":"full-information","relevant_dimensions":["wings","pattern"],"bee_group":{"antennae":"X","wings":"2","pattern":"S","legs":"X"},"action":"harvest","summary":"good-harvest","bonus":1.600000000000001},{"rt":676.9000000003725,"stimulus":"\n                    <p><b>Action: <em>harvest</em></b></p>\n                    <p>This is the bee that you just saw.</p>\n                    <img src=\"bees-with-color/bee-A1SF.svg\" width=\"200\">\n                    <p><span class=\"greenText\"><b>Successful harvest!</b></span><br>Your pay has increased by $0.02. Your bonus pay is now $0.80.</p>\n            ","response":0,"trial_type":"html-button-response","trial_index":74,"time_elapsed":1011033,"internal_node_id":"0.0-4.0-1.33","subject_id":"5f108dea719866356702d26f","study_id":"60edd13110225f80f9f3709b","session_id":"6196c70888f0c0dcb1cbdc0d","condition":"full-information","relevant_dimensions":["wings","pattern"],"bee_group":{"antennae":"X","wings":"2","pattern":"S","legs":"X"},"bonus":1.600000000000001},{"rt":17719.700000001118,"stimulus":"bees-with-color/bee-A1DF.svg","response":1,"trial_type":"image-button-response","trial_index":75,"time_elapsed":1028755,"internal_node_id":"0.0-4.0-0.34","subject_id":"5f108dea719866356702d26f","study_id":"60edd13110225f80f9f3709b","session_id":"6196c70888f0c0dcb1cbdc0d","condition":"full-information","relevant_dimensions":["wings","pattern"],"bee_group":{"antennae":"X","wings":"2","pattern":"S","legs":"X"},"action":"avoid","summary":"bad-avoid","bonus":1.600000000000001},{"rt":3551.4000000003725,"stimulus":"\n                    <p><b>Action: <em>avoid</em></b></p>\n                    <p>This is the bee that you just saw.</p>\n                    <img src=\"bees-with-color/bee-A1DF.svg\" width=\"200\">\n                    <p><span class=\"redText\">Bad choice,</span> the bee was friendly.<br>Your bonus pay is unchanged, and remains at $0.80.</p>\n            ","response":0,"trial_type":"html-button-response","trial_index":76,"time_elapsed":1032308,"internal_node_id":"0.0-4.0-1.34","subject_id":"5f108dea719866356702d26f","study_id":"60edd13110225f80f9f3709b","session_id":"6196c70888f0c0dcb1cbdc0d","condition":"full-information","relevant_dimensions":["wings","pattern"],"bee_group":{"antennae":"X","wings":"2","pattern":"S","legs":"X"},"bonus":1.600000000000001},{"rt":9344,"stimulus":"bees-with-color/bee-A2DF.svg","response":0,"trial_type":"image-button-response","trial_index":77,"time_elapsed":1041653,"internal_node_id":"0.0-4.0-0.35","subject_id":"5f108dea719866356702d26f","study_id":"60edd13110225f80f9f3709b","session_id":"6196c70888f0c0dcb1cbdc0d","condition":"full-information","relevant_dimensions":["wings","pattern"],"bee_group":{"antennae":"X","wings":"2","pattern":"S","legs":"X"},"action":"harvest","summary":"good-harvest","bonus":1.600000000000001},{"rt":933.8000000007451,"stimulus":"\n                    <p><b>Action: <em>harvest</em></b></p>\n                    <p>This is the bee that you just saw.</p>\n                    <img src=\"bees-with-color/bee-A2DF.svg\" width=\"200\">\n                    <p><span class=\"greenText\"><b>Successful harvest!</b></span><br>Your pay has increased by $0.02. Your bonus pay is now $0.82.</p>\n            ","response":0,"trial_type":"html-button-response","trial_index":78,"time_elapsed":1042589,"internal_node_id":"0.0-4.0-1.35","subject_id":"5f108dea719866356702d26f","study_id":"60edd13110225f80f9f3709b","session_id":"6196c70888f0c0dcb1cbdc0d","condition":"full-information","relevant_dimensions":["wings","pattern"],"bee_group":{"antennae":"X","wings":"2","pattern":"S","legs":"X"},"bonus":1.600000000000001},{"rt":6892.5,"stimulus":"bees-with-color/bee-A2SF.svg","response":1,"trial_type":"image-button-response","trial_index":79,"time_elapsed":1049483,"internal_node_id":"0.0-4.0-0.36","subject_id":"5f108dea719866356702d26f","study_id":"60edd13110225f80f9f3709b","session_id":"6196c70888f0c0dcb1cbdc0d","condition":"full-information","relevant_dimensions":["wings","pattern"],"bee_group":{"antennae":"X","wings":"2","pattern":"S","legs":"X"},"action":"avoid","summary":"good-avoid","bonus":1.600000000000001},{"rt":1715.9000000003725,"stimulus":"\n                    <p><b>Action: <em>avoid</em></b></p>\n                    <p>This is the bee that you just saw.</p>\n                    <img src=\"bees-with-color/bee-A2SF.svg\" width=\"200\">\n                    <p><span class=\"greenText\">Good choice!</span>  This bee would have stung you.<br>Your bonus pay is unchanged, and remains at $0.82.</p>\n            ","response":0,"trial_type":"html-button-response","trial_index":80,"time_elapsed":1051201,"internal_node_id":"0.0-4.0-1.36","subject_id":"5f108dea719866356702d26f","study_id":"60edd13110225f80f9f3709b","session_id":"6196c70888f0c0dcb1cbdc0d","condition":"full-information","relevant_dimensions":["wings","pattern"],"bee_group":{"antennae":"X","wings":"2","pattern":"S","legs":"X"},"bonus":1.600000000000001},{"rt":6349.199999999255,"stimulus":"bees-with-color/bee-B2DF.svg","response":0,"trial_type":"image-button-response","trial_index":81,"time_elapsed":1057552,"internal_node_id":"0.0-4.0-0.37","subject_id":"5f108dea719866356702d26f","study_id":"60edd13110225f80f9f3709b","session_id":"6196c70888f0c0dcb1cbdc0d","condition":"full-information","relevant_dimensions":["wings","pattern"],"bee_group":{"antennae":"X","wings":"2","pattern":"S","legs":"X"},"action":"harvest","summary":"good-harvest","bonus":1.600000000000001},{"rt":897.7000000011176,"stimulus":"\n                    <p><b>Action: <em>harvest</em></b></p>\n                    <p>This is the bee that you just saw.</p>\n                    <img src=\"bees-with-color/bee-B2DF.svg\" width=\"200\">\n                    <p><span class=\"greenText\"><b>Successful harvest!</b></span><br>Your pay has increased by $0.02. Your bonus pay is now $0.84.</p>\n            ","response":0,"trial_type":"html-button-response","trial_index":82,"time_elapsed":1058451,"internal_node_id":"0.0-4.0-1.37","subject_id":"5f108dea719866356702d26f","study_id":"60edd13110225f80f9f3709b","session_id":"6196c70888f0c0dcb1cbdc0d","condition":"full-information","relevant_dimensions":["wings","pattern"],"bee_group":{"antennae":"X","wings":"2","pattern":"S","legs":"X"},"bonus":1.600000000000001},{"rt":3405,"stimulus":"bees-with-color/bee-A2SM.svg","response":1,"trial_type":"image-button-response","trial_index":83,"time_elapsed":1061858,"internal_node_id":"0.0-4.0-0.38","subject_id":"5f108dea719866356702d26f","study_id":"60edd13110225f80f9f3709b","session_id":"6196c70888f0c0dcb1cbdc0d","condition":"full-information","relevant_dimensions":["wings","pattern"],"bee_group":{"antennae":"X","wings":"2","pattern":"S","legs":"X"},"action":"avoid","summary":"good-avoid","bonus":1.600000000000001},{"rt":715.2999999988824,"stimulus":"\n                    <p><b>Action: <em>avoid</em></b></p>\n                    <p>This is the bee that you just saw.</p>\n                    <img src=\"bees-with-color/bee-A2SM.svg\" width=\"200\">\n                    <p><span class=\"greenText\">Good choice!</span>  This bee would have stung you.<br>Your bonus pay is unchanged, and remains at $0.84.</p>\n            ","response":0,"trial_type":"html-button-response","trial_index":84,"time_elapsed":1062575,"internal_node_id":"0.0-4.0-1.38","subject_id":"5f108dea719866356702d26f","study_id":"60edd13110225f80f9f3709b","session_id":"6196c70888f0c0dcb1cbdc0d","condition":"full-information","relevant_dimensions":["wings","pattern"],"bee_group":{"antennae":"X","wings":"2","pattern":"S","legs":"X"},"bonus":1.600000000000001},{"rt":4137.699999999255,"stimulus":"bees-with-color/bee-A2DM.svg","response":0,"trial_type":"image-button-response","trial_index":85,"time_elapsed":1066714,"internal_node_id":"0.0-4.0-0.39","subject_id":"5f108dea719866356702d26f","study_id":"60edd13110225f80f9f3709b","session_id":"6196c70888f0c0dcb1cbdc0d","condition":"full-information","relevant_dimensions":["wings","pattern"],"bee_group":{"antennae":"X","wings":"2","pattern":"S","legs":"X"},"action":"harvest","summary":"good-harvest","bonus":1.600000000000001},{"rt":1013.5,"stimulus":"\n                    <p><b>Action: <em>harvest</em></b></p>\n                    <p>This is the bee that you just saw.</p>\n                    <img src=\"bees-with-color/bee-A2DM.svg\" width=\"200\">\n                    <p><span class=\"greenText\"><b>Successful harvest!</b></span><br>Your pay has increased by $0.02. Your bonus pay is now $0.86.</p>\n            ","response":0,"trial_type":"html-button-response","trial_index":86,"time_elapsed":1067728,"internal_node_id":"0.0-4.0-1.39","subject_id":"5f108dea719866356702d26f","study_id":"60edd13110225f80f9f3709b","session_id":"6196c70888f0c0dcb1cbdc0d","condition":"full-information","relevant_dimensions":["wings","pattern"],"bee_group":{"antennae":"X","wings":"2","pattern":"S","legs":"X"},"bonus":1.600000000000001},{"rt":4060.800000000745,"stimulus":"bees-with-color/bee-A1SM.svg","response":1,"trial_type":"image-button-response","trial_index":87,"time_elapsed":1071791,"internal_node_id":"0.0-4.0-0.40","subject_id":"5f108dea719866356702d26f","study_id":"60edd13110225f80f9f3709b","session_id":"6196c70888f0c0dcb1cbdc0d","condition":"full-information","relevant_dimensions":["wings","pattern"],"bee_group":{"antennae":"X","wings":"2","pattern":"S","legs":"X"},"action":"avoid","summary":"bad-avoid","bonus":1.600000000000001},{"rt":991.1999999992549,"stimulus":"\n                    <p><b>Action: <em>avoid</em></b></p>\n                    <p>This is the bee that you just saw.</p>\n                    <img src=\"bees-with-color/bee-A1SM.svg\" width=\"200\">\n                    <p><span class=\"redText\">Bad choice,</span> the bee was friendly.<br>Your bonus pay is unchanged, and remains at $0.86.</p>\n            ","response":0,"trial_type":"html-button-response","trial_index":88,"time_elapsed":1072784,"internal_node_id":"0.0-4.0-1.40","subject_id":"5f108dea719866356702d26f","study_id":"60edd13110225f80f9f3709b","session_id":"6196c70888f0c0dcb1cbdc0d","condition":"full-information","relevant_dimensions":["wings","pattern"],"bee_group":{"antennae":"X","wings":"2","pattern":"S","legs":"X"},"bonus":1.600000000000001},{"rt":27120.800000000745,"stimulus":"bees-with-color/bee-B1SF.svg","response":1,"trial_type":"image-button-response","trial_index":89,"time_elapsed":1099906,"internal_node_id":"0.0-4.0-0.41","subject_id":"5f108dea719866356702d26f","study_id":"60edd13110225f80f9f3709b","session_id":"6196c70888f0c0dcb1cbdc0d","condition":"full-information","relevant_dimensions":["wings","pattern"],"bee_group":{"antennae":"X","wings":"2","pattern":"S","legs":"X"},"action":"avoid","summary":"bad-avoid","bonus":1.600000000000001},{"rt":635.5,"stimulus":"\n                    <p><b>Action: <em>avoid</em></b></p>\n                    <p>This is the bee that you just saw.</p>\n                    <img src=\"bees-with-color/bee-B1SF.svg\" width=\"200\">\n                    <p><span class=\"redText\">Bad choice,</span> the bee was friendly.<br>Your bonus pay is unchanged, and remains at $0.86.</p>\n            ","response":0,"trial_type":"html-button-response","trial_index":90,"time_elapsed":1100543,"internal_node_id":"0.0-4.0-1.41","subject_id":"5f108dea719866356702d26f","study_id":"60edd13110225f80f9f3709b","session_id":"6196c70888f0c0dcb1cbdc0d","condition":"full-information","relevant_dimensions":["wings","pattern"],"bee_group":{"antennae":"X","wings":"2","pattern":"S","legs":"X"},"bonus":1.600000000000001},{"rt":2612.199999999255,"stimulus":"bees-with-color/bee-A1DM.svg","response":0,"trial_type":"image-button-response","trial_index":91,"time_elapsed":1103157,"internal_node_id":"0.0-4.0-0.42","subject_id":"5f108dea719866356702d26f","study_id":"60edd13110225f80f9f3709b","session_id":"6196c70888f0c0dcb1cbdc0d","condition":"full-information","relevant_dimensions":["wings","pattern"],"bee_group":{"antennae":"X","wings":"2","pattern":"S","legs":"X"},"action":"harvest","summary":"good-harvest","bonus":1.600000000000001},{"rt":783.2000000011176,"stimulus":"\n                    <p><b>Action: <em>harvest</em></b></p>\n                    <p>This is the bee that you just saw.</p>\n                    <img src=\"bees-with-color/bee-A1DM.svg\" width=\"200\">\n                    <p><span class=\"greenText\"><b>Successful harvest!</b></span><br>Your pay has increased by $0.02. Your bonus pay is now $0.88.</p>\n            ","response":0,"trial_type":"html-button-response","trial_index":92,"time_elapsed":1103941,"internal_node_id":"0.0-4.0-1.42","subject_id":"5f108dea719866356702d26f","study_id":"60edd13110225f80f9f3709b","session_id":"6196c70888f0c0dcb1cbdc0d","condition":"full-information","relevant_dimensions":["wings","pattern"],"bee_group":{"antennae":"X","wings":"2","pattern":"S","legs":"X"},"bonus":1.600000000000001},{"rt":18984.400000000373,"stimulus":"bees-with-color/bee-B1SM.svg","response":0,"trial_type":"image-button-response","trial_index":93,"time_elapsed":1122927,"internal_node_id":"0.0-4.0-0.43","subject_id":"5f108dea719866356702d26f","study_id":"60edd13110225f80f9f3709b","session_id":"6196c70888f0c0dcb1cbdc0d","condition":"full-information","relevant_dimensions":["wings","pattern"],"bee_group":{"antennae":"X","wings":"2","pattern":"S","legs":"X"},"action":"harvest","summary":"good-harvest","bonus":1.600000000000001},{"rt":798.0999999996275,"stimulus":"\n                    <p><b>Action: <em>harvest</em></b></p>\n                    <p>This is the bee that you just saw.</p>\n                    <img src=\"bees-with-color/bee-B1SM.svg\" width=\"200\">\n                    <p><span class=\"greenText\"><b>Successful harvest!</b></span><br>Your pay has increased by $0.02. Your bonus pay is now $0.90.</p>\n            ","response":0,"trial_type":"html-button-response","trial_index":94,"time_elapsed":1123727,"internal_node_id":"0.0-4.0-1.43","subject_id":"5f108dea719866356702d26f","study_id":"60edd13110225f80f9f3709b","session_id":"6196c70888f0c0dcb1cbdc0d","condition":"full-information","relevant_dimensions":["wings","pattern"],"bee_group":{"antennae":"X","wings":"2","pattern":"S","legs":"X"},"bonus":1.600000000000001},{"rt":2713.5,"stimulus":"bees-with-color/bee-B1DM.svg","response":0,"trial_type":"image-button-response","trial_index":95,"time_elapsed":1126442,"internal_node_id":"0.0-4.0-0.44","subject_id":"5f108dea719866356702d26f","study_id":"60edd13110225f80f9f3709b","session_id":"6196c70888f0c0dcb1cbdc0d","condition":"full-information","relevant_dimensions":["wings","pattern"],"bee_group":{"antennae":"X","wings":"2","pattern":"S","legs":"X"},"action":"harvest","summary":"good-harvest","bonus":1.600000000000001},{"rt":689.1999999992549,"stimulus":"\n                    <p><b>Action: <em>harvest</em></b></p>\n                    <p>This is the bee that you just saw.</p>\n                    <img src=\"bees-with-color/bee-B1DM.svg\" width=\"200\">\n                    <p><span class=\"greenText\"><b>Successful harvest!</b></span><br>Your pay has increased by $0.02. Your bonus pay is now $0.92.</p>\n            ","response":0,"trial_type":"html-button-response","trial_index":96,"time_elapsed":1127133,"internal_node_id":"0.0-4.0-1.44","subject_id":"5f108dea719866356702d26f","study_id":"60edd13110225f80f9f3709b","session_id":"6196c70888f0c0dcb1cbdc0d","condition":"full-information","relevant_dimensions":["wings","pattern"],"bee_group":{"antennae":"X","wings":"2","pattern":"S","legs":"X"},"bonus":1.600000000000001},{"rt":6868.800000000745,"stimulus":"bees-with-color/bee-B2SM.svg","response":1,"trial_type":"image-button-response","trial_index":97,"time_elapsed":1134003,"internal_node_id":"0.0-4.0-0.45","subject_id":"5f108dea719866356702d26f","study_id":"60edd13110225f80f9f3709b","session_id":"6196c70888f0c0dcb1cbdc0d","condition":"full-information","relevant_dimensions":["wings","pattern"],"bee_group":{"antennae":"X","wings":"2","pattern":"S","legs":"X"},"action":"avoid","summary":"good-avoid","bonus":1.600000000000001},{"rt":939.0999999996275,"stimulus":"\n                    <p><b>Action: <em>avoid</em></b></p>\n                    <p>This is the bee that you just saw.</p>\n                    <img src=\"bees-with-color/bee-B2SM.svg\" width=\"200\">\n                    <p><span class=\"greenText\">Good choice!</span>  This bee would have stung you.<br>Your bonus pay is unchanged, and remains at $0.92.</p>\n            ","response":0,"trial_type":"html-button-response","trial_index":98,"time_elapsed":1134943,"internal_node_id":"0.0-4.0-1.45","subject_id":"5f108dea719866356702d26f","study_id":"60edd13110225f80f9f3709b","session_id":"6196c70888f0c0dcb1cbdc0d","condition":"full-information","relevant_dimensions":["wings","pattern"],"bee_group":{"antennae":"X","wings":"2","pattern":"S","legs":"X"},"bonus":1.600000000000001},{"rt":1941.6000000014901,"stimulus":"bees-with-color/bee-B2DM.svg","response":0,"trial_type":"image-button-response","trial_index":99,"time_elapsed":1136887,"internal_node_id":"0.0-4.0-0.46","subject_id":"5f108dea719866356702d26f","study_id":"60edd13110225f80f9f3709b","session_id":"6196c70888f0c0dcb1cbdc0d","condition":"full-information","relevant_dimensions":["wings","pattern"],"bee_group":{"antennae":"X","wings":"2","pattern":"S","legs":"X"},"action":"harvest","summary":"good-harvest","bonus":1.600000000000001},{"rt":1240.5,"stimulus":"\n                    <p><b>Action: <em>harvest</em></b></p>\n                    <p>This is the bee that you just saw.</p>\n                    <img src=\"bees-with-color/bee-B2DM.svg\" width=\"200\">\n                    <p><span class=\"greenText\"><b>Successful harvest!</b></span><br>Your pay has increased by $0.02. Your bonus pay is now $0.94.</p>\n            ","response":0,"trial_type":"html-button-response","trial_index":100,"time_elapsed":1138129,"internal_node_id":"0.0-4.0-1.46","subject_id":"5f108dea719866356702d26f","study_id":"60edd13110225f80f9f3709b","session_id":"6196c70888f0c0dcb1cbdc0d","condition":"full-information","relevant_dimensions":["wings","pattern"],"bee_group":{"antennae":"X","wings":"2","pattern":"S","legs":"X"},"bonus":1.600000000000001},{"rt":4713.199999999255,"stimulus":"bees-with-color/bee-B2SF.svg","response":1,"trial_type":"image-button-response","trial_index":101,"time_elapsed":1142844,"internal_node_id":"0.0-4.0-0.47","subject_id":"5f108dea719866356702d26f","study_id":"60edd13110225f80f9f3709b","session_id":"6196c70888f0c0dcb1cbdc0d","condition":"full-information","relevant_dimensions":["wings","pattern"],"bee_group":{"antennae":"X","wings":"2","pattern":"S","legs":"X"},"action":"avoid","summary":"good-avoid","bonus":1.600000000000001},{"rt":1499.3999999985099,"stimulus":"\n                    <p><b>Action: <em>avoid</em></b></p>\n                    <p>This is the bee that you just saw.</p>\n                    <img src=\"bees-with-color/bee-B2SF.svg\" width=\"200\">\n                    <p><span class=\"greenText\">Good choice!</span>  This bee would have stung you.<br>Your bonus pay is unchanged, and remains at $0.94.</p>\n            ","response":0,"trial_type":"html-button-response","trial_index":102,"time_elapsed":1144345,"internal_node_id":"0.0-4.0-1.47","subject_id":"5f108dea719866356702d26f","study_id":"60edd13110225f80f9f3709b","session_id":"6196c70888f0c0dcb1cbdc0d","condition":"full-information","relevant_dimensions":["wings","pattern"],"bee_group":{"antennae":"X","wings":"2","pattern":"S","legs":"X"},"bonus":1.600000000000001},{"rt":3881.699999999255,"stimulus":"bees-with-color/bee-B2SF.svg","response":1,"trial_type":"image-button-response","trial_index":103,"time_elapsed":1148228,"internal_node_id":"0.0-4.0-0.48","subject_id":"5f108dea719866356702d26f","study_id":"60edd13110225f80f9f3709b","session_id":"6196c70888f0c0dcb1cbdc0d","condition":"full-information","relevant_dimensions":["wings","pattern"],"bee_group":{"antennae":"X","wings":"2","pattern":"S","legs":"X"},"action":"avoid","summary":"good-avoid","bonus":1.600000000000001},{"rt":1414.1000000014901,"stimulus":"\n                    <p><b>Action: <em>avoid</em></b></p>\n                    <p>This is the bee that you just saw.</p>\n                    <img src=\"bees-with-color/bee-B2SF.svg\" width=\"200\">\n                    <p><span class=\"greenText\">Good choice!</span>  This bee would have stung you.<br>Your bonus pay is unchanged, and remains at $0.94.</p>\n            ","response":0,"trial_type":"html-button-response","trial_index":104,"time_elapsed":1149644,"internal_node_id":"0.0-4.0-1.48","subject_id":"5f108dea719866356702d26f","study_id":"60edd13110225f80f9f3709b","session_id":"6196c70888f0c0dcb1cbdc0d","condition":"full-information","relevant_dimensions":["wings","pattern"],"bee_group":{"antennae":"X","wings":"2","pattern":"S","legs":"X"},"bonus":1.600000000000001},{"rt":2228.89999999851,"stimulus":"bees-with-color/bee-A1DM.svg","response":0,"trial_type":"image-button-response","trial_index":105,"time_elapsed":1151875,"internal_node_id":"0.0-4.0-0.49","subject_id":"5f108dea719866356702d26f","study_id":"60edd13110225f80f9f3709b","session_id":"6196c70888f0c0dcb1cbdc0d","condition":"full-information","relevant_dimensions":["wings","pattern"],"bee_group":{"antennae":"X","wings":"2","pattern":"S","legs":"X"},"action":"harvest","summary":"good-harvest","bonus":1.600000000000001},{"rt":816,"stimulus":"\n                    <p><b>Action: <em>harvest</em></b></p>\n                    <p>This is the bee that you just saw.</p>\n                    <img src=\"bees-with-color/bee-A1DM.svg\" width=\"200\">\n                    <p><span class=\"greenText\"><b>Successful harvest!</b></span><br>Your pay has increased by $0.02. Your bonus pay is now $0.96.</p>\n            ","response":0,"trial_type":"html-button-response","trial_index":106,"time_elapsed":1152692,"internal_node_id":"0.0-4.0-1.49","subject_id":"5f108dea719866356702d26f","study_id":"60edd13110225f80f9f3709b","session_id":"6196c70888f0c0dcb1cbdc0d","condition":"full-information","relevant_dimensions":["wings","pattern"],"bee_group":{"antennae":"X","wings":"2","pattern":"S","legs":"X"},"bonus":1.600000000000001},{"rt":4015.89999999851,"stimulus":"bees-with-color/bee-A2SM.svg","response":1,"trial_type":"image-button-response","trial_index":107,"time_elapsed":1156709,"internal_node_id":"0.0-4.0-0.50","subject_id":"5f108dea719866356702d26f","study_id":"60edd13110225f80f9f3709b","session_id":"6196c70888f0c0dcb1cbdc0d","condition":"full-information","relevant_dimensions":["wings","pattern"],"bee_group":{"antennae":"X","wings":"2","pattern":"S","legs":"X"},"action":"avoid","summary":"good-avoid","bonus":1.600000000000001},{"rt":1543.9000000003725,"stimulus":"\n                    <p><b>Action: <em>avoid</em></b></p>\n                    <p>This is the bee that you just saw.</p>\n                    <img src=\"bees-with-color/bee-A2SM.svg\" width=\"200\">\n                    <p><span class=\"greenText\">Good choice!</span>  This bee would have stung you.<br>Your bonus pay is unchanged, and remains at $0.96.</p>\n            ","response":0,"trial_type":"html-button-response","trial_index":108,"time_elapsed":1158254,"internal_node_id":"0.0-4.0-1.50","subject_id":"5f108dea719866356702d26f","study_id":"60edd13110225f80f9f3709b","session_id":"6196c70888f0c0dcb1cbdc0d","condition":"full-information","relevant_dimensions":["wings","pattern"],"bee_group":{"antennae":"X","wings":"2","pattern":"S","legs":"X"},"bonus":1.600000000000001},{"rt":1834.5,"stimulus":"bees-with-color/bee-B2DF.svg","response":0,"trial_type":"image-button-response","trial_index":109,"time_elapsed":1160091,"internal_node_id":"0.0-4.0-0.51","subject_id":"5f108dea719866356702d26f","study_id":"60edd13110225f80f9f3709b","session_id":"6196c70888f0c0dcb1cbdc0d","condition":"full-information","relevant_dimensions":["wings","pattern"],"bee_group":{"antennae":"X","wings":"2","pattern":"S","legs":"X"},"action":"harvest","summary":"good-harvest","bonus":1.600000000000001},{"rt":956,"stimulus":"\n                    <p><b>Action: <em>harvest</em></b></p>\n                    <p>This is the bee that you just saw.</p>\n                    <img src=\"bees-with-color/bee-B2DF.svg\" width=\"200\">\n                    <p><span class=\"greenText\"><b>Successful harvest!</b></span><br>Your pay has increased by $0.02. Your bonus pay is now $0.98.</p>\n            ","response":0,"trial_type":"html-button-response","trial_index":110,"time_elapsed":1161048,"internal_node_id":"0.0-4.0-1.51","subject_id":"5f108dea719866356702d26f","study_id":"60edd13110225f80f9f3709b","session_id":"6196c70888f0c0dcb1cbdc0d","condition":"full-information","relevant_dimensions":["wings","pattern"],"bee_group":{"antennae":"X","wings":"2","pattern":"S","legs":"X"},"bonus":1.600000000000001},{"rt":1584.4000000003725,"stimulus":"bees-with-color/bee-B1DM.svg","response":0,"trial_type":"image-button-response","trial_index":111,"time_elapsed":1162634,"internal_node_id":"0.0-4.0-0.52","subject_id":"5f108dea719866356702d26f","study_id":"60edd13110225f80f9f3709b","session_id":"6196c70888f0c0dcb1cbdc0d","condition":"full-information","relevant_dimensions":["wings","pattern"],"bee_group":{"antennae":"X","wings":"2","pattern":"S","legs":"X"},"action":"harvest","summary":"good-harvest","bonus":1.600000000000001},{"rt":767.5,"stimulus":"\n                    <p><b>Action: <em>harvest</em></b></p>\n                    <p>This is the bee that you just saw.</p>\n                    <img src=\"bees-with-color/bee-B1DM.svg\" width=\"200\">\n                    <p><span class=\"greenText\"><b>Successful harvest!</b></span><br>Your pay has increased by $0.02. Your bonus pay is now $1.00.</p>\n            ","response":0,"trial_type":"html-button-response","trial_index":112,"time_elapsed":1163402,"internal_node_id":"0.0-4.0-1.52","subject_id":"5f108dea719866356702d26f","study_id":"60edd13110225f80f9f3709b","session_id":"6196c70888f0c0dcb1cbdc0d","condition":"full-information","relevant_dimensions":["wings","pattern"],"bee_group":{"antennae":"X","wings":"2","pattern":"S","legs":"X"},"bonus":1.600000000000001},{"rt":1688,"stimulus":"bees-with-color/bee-B1DF.svg","response":0,"trial_type":"image-button-response","trial_index":113,"time_elapsed":1165092,"internal_node_id":"0.0-4.0-0.53","subject_id":"5f108dea719866356702d26f","study_id":"60edd13110225f80f9f3709b","session_id":"6196c70888f0c0dcb1cbdc0d","condition":"full-information","relevant_dimensions":["wings","pattern"],"bee_group":{"antennae":"X","wings":"2","pattern":"S","legs":"X"},"action":"harvest","summary":"good-harvest","bonus":1.600000000000001},{"rt":848.8000000007451,"stimulus":"\n                    <p><b>Action: <em>harvest</em></b></p>\n                    <p>This is the bee that you just saw.</p>\n                    <img src=\"bees-with-color/bee-B1DF.svg\" width=\"200\">\n                    <p><span class=\"greenText\"><b>Successful harvest!</b></span><br>Your pay has increased by $0.02. Your bonus pay is now $1.02.</p>\n            ","response":0,"trial_type":"html-button-response","trial_index":114,"time_elapsed":1165942,"internal_node_id":"0.0-4.0-1.53","subject_id":"5f108dea719866356702d26f","study_id":"60edd13110225f80f9f3709b","session_id":"6196c70888f0c0dcb1cbdc0d","condition":"full-information","relevant_dimensions":["wings","pattern"],"bee_group":{"antennae":"X","wings":"2","pattern":"S","legs":"X"},"bonus":1.600000000000001},{"rt":2409.39999999851,"stimulus":"bees-with-color/bee-A2DF.svg","response":0,"trial_type":"image-button-response","trial_index":115,"time_elapsed":1168353,"internal_node_id":"0.0-4.0-0.54","subject_id":"5f108dea719866356702d26f","study_id":"60edd13110225f80f9f3709b","session_id":"6196c70888f0c0dcb1cbdc0d","condition":"full-information","relevant_dimensions":["wings","pattern"],"bee_group":{"antennae":"X","wings":"2","pattern":"S","legs":"X"},"action":"harvest","summary":"good-harvest","bonus":1.600000000000001},{"rt":774.7999999988824,"stimulus":"\n                    <p><b>Action: <em>harvest</em></b></p>\n                    <p>This is the bee that you just saw.</p>\n                    <img src=\"bees-with-color/bee-A2DF.svg\" width=\"200\">\n                    <p><span class=\"greenText\"><b>Successful harvest!</b></span><br>Your pay has increased by $0.02. Your bonus pay is now $1.04.</p>\n            ","response":0,"trial_type":"html-button-response","trial_index":116,"time_elapsed":1169130,"internal_node_id":"0.0-4.0-1.54","subject_id":"5f108dea719866356702d26f","study_id":"60edd13110225f80f9f3709b","session_id":"6196c70888f0c0dcb1cbdc0d","condition":"full-information","relevant_dimensions":["wings","pattern"],"bee_group":{"antennae":"X","wings":"2","pattern":"S","legs":"X"},"bonus":1.600000000000001},{"rt":6884.699999999255,"stimulus":"bees-with-color/bee-B1SF.svg","response":0,"trial_type":"image-button-response","trial_index":117,"time_elapsed":1176016,"internal_node_id":"0.0-4.0-0.55","subject_id":"5f108dea719866356702d26f","study_id":"60edd13110225f80f9f3709b","session_id":"6196c70888f0c0dcb1cbdc0d","condition":"full-information","relevant_dimensions":["wings","pattern"],"bee_group":{"antennae":"X","wings":"2","pattern":"S","legs":"X"},"action":"harvest","summary":"good-harvest","bonus":1.600000000000001},{"rt":1744,"stimulus":"\n                    <p><b>Action: <em>harvest</em></b></p>\n                    <p>This is the bee that you just saw.</p>\n                    <img src=\"bees-with-color/bee-B1SF.svg\" width=\"200\">\n                    <p><span class=\"greenText\"><b>Successful harvest!</b></span><br>Your pay has increased by $0.02. Your bonus pay is now $1.06.</p>\n            ","response":0,"trial_type":"html-button-response","trial_index":118,"time_elapsed":1177762,"internal_node_id":"0.0-4.0-1.55","subject_id":"5f108dea719866356702d26f","study_id":"60edd13110225f80f9f3709b","session_id":"6196c70888f0c0dcb1cbdc0d","condition":"full-information","relevant_dimensions":["wings","pattern"],"bee_group":{"antennae":"X","wings":"2","pattern":"S","legs":"X"},"bonus":1.600000000000001},{"rt":2070,"stimulus":"bees-with-color/bee-B1SM.svg","response":1,"trial_type":"image-button-response","trial_index":119,"time_elapsed":1179833,"internal_node_id":"0.0-4.0-0.56","subject_id":"5f108dea719866356702d26f","study_id":"60edd13110225f80f9f3709b","session_id":"6196c70888f0c0dcb1cbdc0d","condition":"full-information","relevant_dimensions":["wings","pattern"],"bee_group":{"antennae":"X","wings":"2","pattern":"S","legs":"X"},"action":"avoid","summary":"bad-avoid","bonus":1.600000000000001},{"rt":909.5,"stimulus":"\n                    <p><b>Action: <em>avoid</em></b></p>\n                    <p>This is the bee that you just saw.</p>\n                    <img src=\"bees-with-color/bee-B1SM.svg\" width=\"200\">\n                    <p><span class=\"redText\">Bad choice,</span> the bee was friendly.<br>Your bonus pay is unchanged, and remains at $1.06.</p>\n            ","response":0,"trial_type":"html-button-response","trial_index":120,"time_elapsed":1180744,"internal_node_id":"0.0-4.0-1.56","subject_id":"5f108dea719866356702d26f","study_id":"60edd13110225f80f9f3709b","session_id":"6196c70888f0c0dcb1cbdc0d","condition":"full-information","relevant_dimensions":["wings","pattern"],"bee_group":{"antennae":"X","wings":"2","pattern":"S","legs":"X"},"bonus":1.600000000000001},{"rt":1364.5999999996275,"stimulus":"bees-with-color/bee-A2DM.svg","response":0,"trial_type":"image-button-response","trial_index":121,"time_elapsed":1182111,"internal_node_id":"0.0-4.0-0.57","subject_id":"5f108dea719866356702d26f","study_id":"60edd13110225f80f9f3709b","session_id":"6196c70888f0c0dcb1cbdc0d","condition":"full-information","relevant_dimensions":["wings","pattern"],"bee_group":{"antennae":"X","wings":"2","pattern":"S","legs":"X"},"action":"harvest","summary":"good-harvest","bonus":1.600000000000001},{"rt":739.2000000011176,"stimulus":"\n                    <p><b>Action: <em>harvest</em></b></p>\n                    <p>This is the bee that you just saw.</p>\n                    <img src=\"bees-with-color/bee-A2DM.svg\" width=\"200\">\n                    <p><span class=\"greenText\"><b>Successful harvest!</b></span><br>Your pay has increased by $0.02. Your bonus pay is now $1.08.</p>\n            ","response":0,"trial_type":"html-button-response","trial_index":122,"time_elapsed":1182852,"internal_node_id":"0.0-4.0-1.57","subject_id":"5f108dea719866356702d26f","study_id":"60edd13110225f80f9f3709b","session_id":"6196c70888f0c0dcb1cbdc0d","condition":"full-information","relevant_dimensions":["wings","pattern"],"bee_group":{"antennae":"X","wings":"2","pattern":"S","legs":"X"},"bonus":1.600000000000001},{"rt":3946.5999999996275,"stimulus":"bees-with-color/bee-A2SF.svg","response":1,"trial_type":"image-button-response","trial_index":123,"time_elapsed":1186800,"internal_node_id":"0.0-4.0-0.58","subject_id":"5f108dea719866356702d26f","study_id":"60edd13110225f80f9f3709b","session_id":"6196c70888f0c0dcb1cbdc0d","condition":"full-information","relevant_dimensions":["wings","pattern"],"bee_group":{"antennae":"X","wings":"2","pattern":"S","legs":"X"},"action":"avoid","summary":"good-avoid","bonus":1.600000000000001},{"rt":927.5,"stimulus":"\n                    <p><b>Action: <em>avoid</em></b></p>\n                    <p>This is the bee that you just saw.</p>\n                    <img src=\"bees-with-color/bee-A2SF.svg\" width=\"200\">\n                    <p><span class=\"greenText\">Good choice!</span>  This bee would have stung you.<br>Your bonus pay is unchanged, and remains at $1.08.</p>\n            ","response":0,"trial_type":"html-button-response","trial_index":124,"time_elapsed":1187729,"internal_node_id":"0.0-4.0-1.58","subject_id":"5f108dea719866356702d26f","study_id":"60edd13110225f80f9f3709b","session_id":"6196c70888f0c0dcb1cbdc0d","condition":"full-information","relevant_dimensions":["wings","pattern"],"bee_group":{"antennae":"X","wings":"2","pattern":"S","legs":"X"},"bonus":1.600000000000001},{"rt":1577.4000000003725,"stimulus":"bees-with-color/bee-A1DF.svg","response":0,"trial_type":"image-button-response","trial_index":125,"time_elapsed":1189308,"internal_node_id":"0.0-4.0-0.59","subject_id":"5f108dea719866356702d26f","study_id":"60edd13110225f80f9f3709b","session_id":"6196c70888f0c0dcb1cbdc0d","condition":"full-information","relevant_dimensions":["wings","pattern"],"bee_group":{"antennae":"X","wings":"2","pattern":"S","legs":"X"},"action":"harvest","summary":"good-harvest","bonus":1.600000000000001},{"rt":676.8000000007451,"stimulus":"\n                    <p><b>Action: <em>harvest</em></b></p>\n                    <p>This is the bee that you just saw.</p>\n                    <img src=\"bees-with-color/bee-A1DF.svg\" width=\"200\">\n                    <p><span class=\"greenText\"><b>Successful harvest!</b></span><br>Your pay has increased by $0.02. Your bonus pay is now $1.10.</p>\n            ","response":0,"trial_type":"html-button-response","trial_index":126,"time_elapsed":1189987,"internal_node_id":"0.0-4.0-1.59","subject_id":"5f108dea719866356702d26f","study_id":"60edd13110225f80f9f3709b","session_id":"6196c70888f0c0dcb1cbdc0d","condition":"full-information","relevant_dimensions":["wings","pattern"],"bee_group":{"antennae":"X","wings":"2","pattern":"S","legs":"X"},"bonus":1.600000000000001},{"rt":8450.800000000745,"stimulus":"bees-with-color/bee-A1SF.svg","response":1,"trial_type":"image-button-response","trial_index":127,"time_elapsed":1198439,"internal_node_id":"0.0-4.0-0.60","subject_id":"5f108dea719866356702d26f","study_id":"60edd13110225f80f9f3709b","session_id":"6196c70888f0c0dcb1cbdc0d","condition":"full-information","relevant_dimensions":["wings","pattern"],"bee_group":{"antennae":"X","wings":"2","pattern":"S","legs":"X"},"action":"avoid","summary":"bad-avoid","bonus":1.600000000000001},{"rt":1674.300000000745,"stimulus":"\n                    <p><b>Action: <em>avoid</em></b></p>\n                    <p>This is the bee that you just saw.</p>\n                    <img src=\"bees-with-color/bee-A1SF.svg\" width=\"200\">\n                    <p><span class=\"redText\">Bad choice,</span> the bee was friendly.<br>Your bonus pay is unchanged, and remains at $1.10.</p>\n            ","response":0,"trial_type":"html-button-response","trial_index":128,"time_elapsed":1200115,"internal_node_id":"0.0-4.0-1.60","subject_id":"5f108dea719866356702d26f","study_id":"60edd13110225f80f9f3709b","session_id":"6196c70888f0c0dcb1cbdc0d","condition":"full-information","relevant_dimensions":["wings","pattern"],"bee_group":{"antennae":"X","wings":"2","pattern":"S","legs":"X"},"bonus":1.600000000000001},{"rt":3188,"stimulus":"bees-with-color/bee-B2DM.svg","response":0,"trial_type":"image-button-response","trial_index":129,"time_elapsed":1203305,"internal_node_id":"0.0-4.0-0.61","subject_id":"5f108dea719866356702d26f","study_id":"60edd13110225f80f9f3709b","session_id":"6196c70888f0c0dcb1cbdc0d","condition":"full-information","relevant_dimensions":["wings","pattern"],"bee_group":{"antennae":"X","wings":"2","pattern":"S","legs":"X"},"action":"harvest","summary":"good-harvest","bonus":1.600000000000001},{"rt":635.6999999992549,"stimulus":"\n                    <p><b>Action: <em>harvest</em></b></p>\n                    <p>This is the bee that you just saw.</p>\n                    <img src=\"bees-with-color/bee-B2DM.svg\" width=\"200\">\n                    <p><span class=\"greenText\"><b>Successful harvest!</b></span><br>Your pay has increased by $0.02. Your bonus pay is now $1.12.</p>\n            ","response":0,"trial_type":"html-button-response","trial_index":130,"time_elapsed":1203942,"internal_node_id":"0.0-4.0-1.61","subject_id":"5f108dea719866356702d26f","study_id":"60edd13110225f80f9f3709b","session_id":"6196c70888f0c0dcb1cbdc0d","condition":"full-information","relevant_dimensions":["wings","pattern"],"bee_group":{"antennae":"X","wings":"2","pattern":"S","legs":"X"},"bonus":1.600000000000001},{"rt":1348.800000000745,"stimulus":"bees-with-color/bee-B2SM.svg","response":1,"trial_type":"image-button-response","trial_index":131,"time_elapsed":1205292,"internal_node_id":"0.0-4.0-0.62","subject_id":"5f108dea719866356702d26f","study_id":"60edd13110225f80f9f3709b","session_id":"6196c70888f0c0dcb1cbdc0d","condition":"full-information","relevant_dimensions":["wings","pattern"],"bee_group":{"antennae":"X","wings":"2","pattern":"S","legs":"X"},"action":"avoid","summary":"good-avoid","bonus":1.600000000000001},{"rt":961.5999999996275,"stimulus":"\n                    <p><b>Action: <em>avoid</em></b></p>\n                    <p>This is the bee that you just saw.</p>\n                    <img src=\"bees-with-color/bee-B2SM.svg\" width=\"200\">\n                    <p><span class=\"greenText\">Good choice!</span>  This bee would have stung you.<br>Your bonus pay is unchanged, and remains at $1.12.</p>\n            ","response":0,"trial_type":"html-button-response","trial_index":132,"time_elapsed":1206255,"internal_node_id":"0.0-4.0-1.62","subject_id":"5f108dea719866356702d26f","study_id":"60edd13110225f80f9f3709b","session_id":"6196c70888f0c0dcb1cbdc0d","condition":"full-information","relevant_dimensions":["wings","pattern"],"bee_group":{"antennae":"X","wings":"2","pattern":"S","legs":"X"},"bonus":1.600000000000001},{"rt":13680.200000001118,"stimulus":"bees-with-color/bee-A1SM.svg","response":0,"trial_type":"image-button-response","trial_index":133,"time_elapsed":1219937,"internal_node_id":"0.0-4.0-0.63","subject_id":"5f108dea719866356702d26f","study_id":"60edd13110225f80f9f3709b","session_id":"6196c70888f0c0dcb1cbdc0d","condition":"full-information","relevant_dimensions":["wings","pattern"],"bee_group":{"antennae":"X","wings":"2","pattern":"S","legs":"X"},"action":"harvest","summary":"good-harvest","bonus":1.600000000000001},{"rt":736.8000000007451,"stimulus":"\n                    <p><b>Action: <em>harvest</em></b></p>\n                    <p>This is the bee that you just saw.</p>\n                    <img src=\"bees-with-color/bee-A1SM.svg\" width=\"200\">\n                    <p><span class=\"greenText\"><b>Successful harvest!</b></span><br>Your pay has increased by $0.02. Your bonus pay is now $1.14.</p>\n            ","response":0,"trial_type":"html-button-response","trial_index":134,"time_elapsed":1220675,"internal_node_id":"0.0-4.0-1.63","subject_id":"5f108dea719866356702d26f","study_id":"60edd13110225f80f9f3709b","session_id":"6196c70888f0c0dcb1cbdc0d","condition":"full-information","relevant_dimensions":["wings","pattern"],"bee_group":{"antennae":"X","wings":"2","pattern":"S","legs":"X"},"bonus":1.600000000000001},{"rt":2485.2000000011176,"stimulus":"You have completed the first part of this experiment.<br><br>You will now begin a shorter second part, in which you will receive no feedback.<br>The same rules regarding bonus pay apply.<br><br>Press any key to begin.","response":" ","trial_type":"html-keyboard-response","trial_index":135,"time_elapsed":1223162,"internal_node_id":"0.0-5.0","subject_id":"5f108dea719866356702d26f","study_id":"60edd13110225f80f9f3709b","session_id":"6196c70888f0c0dcb1cbdc0d","condition":"full-information","relevant_dimensions":["wings","pattern"],"bee_group":{"antennae":"X","wings":"2","pattern":"S","legs":"X"},"bonus":1.600000000000001},{"rt":6314.39999999851,"stimulus":"bees-with-color/bee-A2SM.svg","response":1,"trial_type":"image-button-response","trial_index":136,"time_elapsed":1229495,"internal_node_id":"0.0-6.0-0.0","subject_id":"5f108dea719866356702d26f","study_id":"60edd13110225f80f9f3709b","session_id":"6196c70888f0c0dcb1cbdc0d","condition":"full-information","relevant_dimensions":["wings","pattern"],"bee_group":{"antennae":"X","wings":"2","pattern":"S","legs":"X"},"bonus":1.600000000000001},{"rt":1831.4000000003725,"stimulus":"bees-with-color/bee-A2SF.svg","response":1,"trial_type":"image-button-response","trial_index":137,"time_elapsed":1231329,"internal_node_id":"0.0-6.0-0.1","subject_id":"5f108dea719866356702d26f","study_id":"60edd13110225f80f9f3709b","session_id":"6196c70888f0c0dcb1cbdc0d","condition":"full-information","relevant_dimensions":["wings","pattern"],"bee_group":{"antennae":"X","wings":"2","pattern":"S","legs":"X"},"bonus":1.600000000000001},{"rt":7292.60000000149,"stimulus":"bees-with-color/bee-B1SM.svg","response":0,"trial_type":"image-button-response","trial_index":138,"time_elapsed":1238624,"internal_node_id":"0.0-6.0-0.2","subject_id":"5f108dea719866356702d26f","study_id":"60edd13110225f80f9f3709b","session_id":"6196c70888f0c0dcb1cbdc0d","condition":"full-information","relevant_dimensions":["wings","pattern"],"bee_group":{"antennae":"X","wings":"2","pattern":"S","legs":"X"},"bonus":1.600000000000001},{"rt":1273.0999999996275,"stimulus":"bees-with-color/bee-A1DF.svg","response":0,"trial_type":"image-button-response","trial_index":139,"time_elapsed":1239899,"internal_node_id":"0.0-6.0-0.3","subject_id":"5f108dea719866356702d26f","study_id":"60edd13110225f80f9f3709b","session_id":"6196c70888f0c0dcb1cbdc0d","condition":"full-information","relevant_dimensions":["wings","pattern"],"bee_group":{"antennae":"X","wings":"2","pattern":"S","legs":"X"},"bonus":1.600000000000001},{"rt":46,"stimulus":"bees-with-color/bee-B1SF.svg","response":0,"trial_type":"image-button-response","trial_index":140,"time_elapsed":1239948,"internal_node_id":"0.0-6.0-0.4","subject_id":"5f108dea719866356702d26f","study_id":"60edd13110225f80f9f3709b","session_id":"6196c70888f0c0dcb1cbdc0d","condition":"full-information","relevant_dimensions":["wings","pattern"],"bee_group":{"antennae":"X","wings":"2","pattern":"S","legs":"X"},"bonus":1.600000000000001},{"rt":958.0999999996275,"stimulus":"bees-with-color/bee-A1DM.svg","response":0,"trial_type":"image-button-response","trial_index":141,"time_elapsed":1240908,"internal_node_id":"0.0-6.0-0.5","subject_id":"5f108dea719866356702d26f","study_id":"60edd13110225f80f9f3709b","session_id":"6196c70888f0c0dcb1cbdc0d","condition":"full-information","relevant_dimensions":["wings","pattern"],"bee_group":{"antennae":"X","wings":"2","pattern":"S","legs":"X"},"bonus":1.600000000000001},{"rt":761.1999999992549,"stimulus":"bees-with-color/bee-A2DF.svg","response":0,"trial_type":"image-button-response","trial_index":142,"time_elapsed":1241671,"internal_node_id":"0.0-6.0-0.6","subject_id":"5f108dea719866356702d26f","study_id":"60edd13110225f80f9f3709b","session_id":"6196c70888f0c0dcb1cbdc0d","condition":"full-information","relevant_dimensions":["wings","pattern"],"bee_group":{"antennae":"X","wings":"2","pattern":"S","legs":"X"},"bonus":1.600000000000001},{"rt":7624,"stimulus":"bees-with-color/bee-A1SF.svg","response":0,"trial_type":"image-button-response","trial_index":143,"time_elapsed":1249297,"internal_node_id":"0.0-6.0-0.7","subject_id":"5f108dea719866356702d26f","study_id":"60edd13110225f80f9f3709b","session_id":"6196c70888f0c0dcb1cbdc0d","condition":"full-information","relevant_dimensions":["wings","pattern"],"bee_group":{"antennae":"X","wings":"2","pattern":"S","legs":"X"},"bonus":1.600000000000001},{"rt":859.5,"stimulus":"bees-with-color/bee-B1DM.svg","response":0,"trial_type":"image-button-response","trial_index":144,"time_elapsed":1250159,"internal_node_id":"0.0-6.0-0.8","subject_id":"5f108dea719866356702d26f","study_id":"60edd13110225f80f9f3709b","session_id":"6196c70888f0c0dcb1cbdc0d","condition":"full-information","relevant_dimensions":["wings","pattern"],"bee_group":{"antennae":"X","wings":"2","pattern":"S","legs":"X"},"bonus":1.600000000000001},{"rt":396.09999999962747,"stimulus":"bees-with-color/bee-B2DM.svg","response":0,"trial_type":"image-button-response","trial_index":145,"time_elapsed":1250557,"internal_node_id":"0.0-6.0-0.9","subject_id":"5f108dea719866356702d26f","study_id":"60edd13110225f80f9f3709b","session_id":"6196c70888f0c0dcb1cbdc0d","condition":"full-information","relevant_dimensions":["wings","pattern"],"bee_group":{"antennae":"X","wings":"2","pattern":"S","legs":"X"},"bonus":1.600000000000001},{"rt":3419.5,"stimulus":"bees-with-color/bee-B2SF.svg","response":1,"trial_type":"image-button-response","trial_index":146,"time_elapsed":1253979,"internal_node_id":"0.0-6.0-0.10","subject_id":"5f108dea719866356702d26f","study_id":"60edd13110225f80f9f3709b","session_id":"6196c70888f0c0dcb1cbdc0d","condition":"full-information","relevant_dimensions":["wings","pattern"],"bee_group":{"antennae":"X","wings":"2","pattern":"S","legs":"X"},"bonus":1.600000000000001},{"rt":1613,"stimulus":"bees-with-color/bee-B2SM.svg","response":1,"trial_type":"image-button-response","trial_index":147,"time_elapsed":1255594,"internal_node_id":"0.0-6.0-0.11","subject_id":"5f108dea719866356702d26f","study_id":"60edd13110225f80f9f3709b","session_id":"6196c70888f0c0dcb1cbdc0d","condition":"full-information","relevant_dimensions":["wings","pattern"],"bee_group":{"antennae":"X","wings":"2","pattern":"S","legs":"X"},"bonus":1.600000000000001},{"rt":5634.9000000003725,"stimulus":"bees-with-color/bee-A1SM.svg","response":0,"trial_type":"image-button-response","trial_index":148,"time_elapsed":1261231,"internal_node_id":"0.0-6.0-0.12","subject_id":"5f108dea719866356702d26f","study_id":"60edd13110225f80f9f3709b","session_id":"6196c70888f0c0dcb1cbdc0d","condition":"full-information","relevant_dimensions":["wings","pattern"],"bee_group":{"antennae":"X","wings":"2","pattern":"S","legs":"X"},"bonus":1.600000000000001},{"rt":795.8000000007451,"stimulus":"bees-with-color/bee-B1DF.svg","response":0,"trial_type":"image-button-response","trial_index":149,"time_elapsed":1262029,"internal_node_id":"0.0-6.0-0.13","subject_id":"5f108dea719866356702d26f","study_id":"60edd13110225f80f9f3709b","session_id":"6196c70888f0c0dcb1cbdc0d","condition":"full-information","relevant_dimensions":["wings","pattern"],"bee_group":{"antennae":"X","wings":"2","pattern":"S","legs":"X"},"bonus":1.600000000000001},{"rt":1012.9000000003725,"stimulus":"bees-with-color/bee-B2DF.svg","response":0,"trial_type":"image-button-response","trial_index":150,"time_elapsed":1263044,"internal_node_id":"0.0-6.0-0.14","subject_id":"5f108dea719866356702d26f","study_id":"60edd13110225f80f9f3709b","session_id":"6196c70888f0c0dcb1cbdc0d","condition":"full-information","relevant_dimensions":["wings","pattern"],"bee_group":{"antennae":"X","wings":"2","pattern":"S","legs":"X"},"bonus":1.600000000000001},{"rt":386.90000000037253,"stimulus":"bees-with-color/bee-A2DM.svg","response":0,"trial_type":"image-button-response","trial_index":151,"time_elapsed":1263433,"internal_node_id":"0.0-6.0-0.15","subject_id":"5f108dea719866356702d26f","study_id":"60edd13110225f80f9f3709b","session_id":"6196c70888f0c0dcb1cbdc0d","condition":"full-information","relevant_dimensions":["wings","pattern"],"bee_group":{"antennae":"X","wings":"2","pattern":"S","legs":"X"},"bonus":1.600000000000001},{"rt":50.69999999925494,"stimulus":"bees-with-color/bee-A1SM.svg","response":0,"trial_type":"image-button-response","trial_index":152,"time_elapsed":1263486,"internal_node_id":"0.0-6.0-0.16","subject_id":"5f108dea719866356702d26f","study_id":"60edd13110225f80f9f3709b","session_id":"6196c70888f0c0dcb1cbdc0d","condition":"full-information","relevant_dimensions":["wings","pattern"],"bee_group":{"antennae":"X","wings":"2","pattern":"S","legs":"X"},"bonus":1.600000000000001},{"rt":1983.300000000745,"stimulus":"bees-with-color/bee-B2SM.svg","response":1,"trial_type":"image-button-response","trial_index":153,"time_elapsed":1265471,"internal_node_id":"0.0-6.0-0.17","subject_id":"5f108dea719866356702d26f","study_id":"60edd13110225f80f9f3709b","session_id":"6196c70888f0c0dcb1cbdc0d","condition":"full-information","relevant_dimensions":["wings","pattern"],"bee_group":{"antennae":"X","wings":"2","pattern":"S","legs":"X"},"bonus":1.600000000000001},{"rt":784.8999999985099,"stimulus":"bees-with-color/bee-A2DF.svg","response":0,"trial_type":"image-button-response","trial_index":154,"time_elapsed":1266258,"internal_node_id":"0.0-6.0-0.18","subject_id":"5f108dea719866356702d26f","study_id":"60edd13110225f80f9f3709b","session_id":"6196c70888f0c0dcb1cbdc0d","condition":"full-information","relevant_dimensions":["wings","pattern"],"bee_group":{"antennae":"X","wings":"2","pattern":"S","legs":"X"},"bonus":1.600000000000001},{"rt":546,"stimulus":"bees-with-color/bee-B1DF.svg","response":0,"trial_type":"image-button-response","trial_index":155,"time_elapsed":1266805,"internal_node_id":"0.0-6.0-0.19","subject_id":"5f108dea719866356702d26f","study_id":"60edd13110225f80f9f3709b","session_id":"6196c70888f0c0dcb1cbdc0d","condition":"full-information","relevant_dimensions":["wings","pattern"],"bee_group":{"antennae":"X","wings":"2","pattern":"S","legs":"X"},"bonus":1.600000000000001},{"rt":434.09999999962747,"stimulus":"bees-with-color/bee-B2DF.svg","response":0,"trial_type":"image-button-response","trial_index":156,"time_elapsed":1267241,"internal_node_id":"0.0-6.0-0.20","subject_id":"5f108dea719866356702d26f","study_id":"60edd13110225f80f9f3709b","session_id":"6196c70888f0c0dcb1cbdc0d","condition":"full-information","relevant_dimensions":["wings","pattern"],"bee_group":{"antennae":"X","wings":"2","pattern":"S","legs":"X"},"bonus":1.600000000000001},{"rt":362.59999999962747,"stimulus":"bees-with-color/bee-B2DM.svg","response":0,"trial_type":"image-button-response","trial_index":157,"time_elapsed":1267605,"internal_node_id":"0.0-6.0-0.21","subject_id":"5f108dea719866356702d26f","study_id":"60edd13110225f80f9f3709b","session_id":"6196c70888f0c0dcb1cbdc0d","condition":"full-information","relevant_dimensions":["wings","pattern"],"bee_group":{"antennae":"X","wings":"2","pattern":"S","legs":"X"},"bonus":1.600000000000001},{"rt":958.2000000011176,"st