[{"success":true,"trial_type":"fullscreen","trial_index":0,"time_elapsed":3718,"internal_node_id":"0.0-0.0","subject_id":"61605d3e3fe0e585cda49dc9","study_id":"6197b3f67c2b5cd3b6d9596a","session_id":"6197b583f7c9e83b8cbfae20","condition":"full-information","relevant_dimensions":["wings","pattern"],"bee_group":{"antennae":"X","wings":"1","pattern":"S","legs":"X"},"bonus":1.620000000000001},{"success":true,"timeout":false,"failed_images":[],"failed_audio":[],"failed_video":[],"trial_type":"preload","trial_index":1,"time_elapsed":6207,"internal_node_id":"0.0-1.0","subject_id":"61605d3e3fe0e585cda49dc9","study_id":"6197b3f67c2b5cd3b6d9596a","session_id":"6197b583f7c9e83b8cbfae20","condition":"full-information","relevant_dimensions":["wings","pattern"],"bee_group":{"antennae":"X","wings":"1","pattern":"S","legs":"X"},"bonus":1.620000000000001},{"rt":20092,"stimulus":"Welcome! Press any key to begin.","response":" ","trial_type":"html-keyboard-response","trial_index":2,"time_elapsed":26301,"internal_node_id":"0.0-2.0","subject_id":"61605d3e3fe0e585cda49dc9","study_id":"6197b3f67c2b5cd3b6d9596a","session_id":"6197b583f7c9e83b8cbfae20","condition":"full-information","relevant_dimensions":["wings","pattern"],"bee_group":{"antennae":"X","wings":"1","pattern":"S","legs":"X"},"bonus":1.620000000000001},{"view_history":[{"page_index":0,"viewing_time":18498},{"page_index":1,"viewing_time":7674.000000000007},{"page_index":2,"viewing_time":4744.999999999993},{"page_index":3,"viewing_time":10401},{"page_index":4,"viewing_time":98778},{"page_index":5,"viewing_time":3008},{"page_index":6,"viewing_time":3398},{"page_index":7,"viewing_time":4602},{"page_index":8,"viewing_time":2858},{"page_index":9,"viewing_time":2541},{"page_index":10,"viewing_time":2989},{"page_index":11,"viewing_time":257103},{"page_index":12,"viewing_time":28890},{"page_index":13,"viewing_time":1252},{"page_index":14,"viewing_time":1691}],"rt":448428,"trial_type":"instructions","trial_index":3,"time_elapsed":1628495,"internal_node_id":"0.0-3.0-0.0","subject_id":"61605d3e3fe0e585cda49dc9","study_id":"6197b3f67c2b5cd3b6d9596a","session_id":"6197b583f7c9e83b8cbfae20","condition":"full-information","relevant_dimensions":["wings","pattern"],"bee_group":{"antennae":"X","wings":"1","pattern":"S","legs":"X"},"bonus":1.620000000000001},{"rt":18405,"response":{"Q0":["Two or six legs","Stripes or spots on body","Single or double wings","Antennae or no antennae"]},"question_order":[0],"trial_type":"survey-multi-select","trial_index":4,"time_elapsed":1646906,"internal_node_id":"0.0-3.0-1.0","subject_id":"61605d3e3fe0e585cda49dc9","study_id":"6197b3f67c2b5cd3b6d9596a","session_id":"6197b583f7c9e83b8cbfae20","condition":"full-information","relevant_dimensions":["wings","pattern"],"bee_group":{"antennae":"X","wings":"1","pattern":"S","legs":"X"},"correct":true,"bonus":1.620000000000001},{"rt":23328,"response":{"Q1":"No.","Q2":"Based on the four features of the bee.","Q3":"You learn if it was friendly or dangerous and alter your bonus."},"question_order":[0,1,2],"trial_type":"survey-multi-choice","trial_index":5,"time_elapsed":1670239,"internal_node_id":"0.0-3.0-2.0","subject_id":"61605d3e3fe0e585cda49dc9","study_id":"6197b3f67c2b5cd3b6d9596a","session_id":"6197b583f7c9e83b8cbfae20","condition":"full-information","relevant_dimensions":["wings","pattern"],"bee_group":{"antennae":"X","wings":"1","pattern":"S","legs":"X"},"correct":false,"bonus":1.620000000000001},{"rt":4475,"stimulus":"<p>You did not answer all comprehension questions correctly.<br>Press <b>continue</b> to review the instructions again.</p>","response":0,"trial_type":"html-button-response","trial_index":6,"time_elapsed":1674719,"internal_node_id":"0.0-3.0-3.0","subject_id":"61605d3e3fe0e585cda49dc9","study_id":"6197b3f67c2b5cd3b6d9596a","session_id":"6197b583f7c9e83b8cbfae20","condition":"full-information","relevant_dimensions":["wings","pattern"],"bee_group":{"antennae":"X","wings":"1","pattern":"S","legs":"X"},"bonus":1.620000000000001},{"view_history":[{"page_index":0,"viewing_time":1463.0000000001164},{"page_index":1,"viewing_time":1318.9999999998836},{"page_index":0,"viewing_time":1218},{"page_index":1,"viewing_time":24257},{"page_index":2,"viewing_time":20557},{"page_index":3,"viewing_time":13412},{"page_index":4,"viewing_time":9724},{"page_index":5,"viewing_time":7866},{"page_index":6,"viewing_time":2153},{"page_index":7,"viewing_time":1513.0000000001164},{"page_index":8,"viewing_time":1305.9999999998836},{"page_index":9,"viewing_time":1095},{"page_index":10,"viewing_time":937},{"page_index":11,"viewing_time":1188},{"page_index":12,"viewing_time":7024},{"page_index":13,"viewing_time":1061},{"page_index":14,"viewing_time":807}],"rt":96900,"trial_type":"instructions","trial_index":7,"time_elapsed":1771622,"internal_node_id":"0.0-3.0-4.0-0.0","subject_id":"61605d3e3fe0e585cda49dc9","study_id":"6197b3f67c2b5cd3b6d9596a","session_id":"6197b583f7c9e83b8cbfae20","condition":"full-information","relevant_dimensions":["wings","pattern"],"bee_group":{"antennae":"X","wings":"1","pattern":"S","legs":"X"},"bonus":1.620000000000001},{"rt":9381.000000000116,"response":{"Q0":["Two or six legs","Stripes or spots on body","Single or double wings","Antennae or no antennae"]},"question_order":[0],"trial_type":"survey-multi-select","trial_index":8,"time_elapsed":1781007,"internal_node_id":"0.0-3.0-4.0-1.0","subject_id":"61605d3e3fe0e585cda49dc9","study_id":"6197b3f67c2b5cd3b6d9596a","session_id":"6197b583f7c9e83b8cbfae20","condition":"full-information","relevant_dimensions":["wings","pattern"],"bee_group":{"antennae":"X","wings":"1","pattern":"S","legs":"X"},"correct":true,"bonus":1.620000000000001},{"rt":16001,"response":{"Q1":"No.","Q2":"Based on the four features of the bee.","Q3":"You learn if it was friendly or dangerous, but do not alter your bonus."},"question_order":[0,1,2],"trial_type":"survey-multi-choice","trial_index":9,"time_elapsed":1797013,"internal_node_id":"0.0-3.0-4.0-2.0","subject_id":"61605d3e3fe0e585cda49dc9","study_id":"6197b3f67c2b5cd3b6d9596a","session_id":"6197b583f7c9e83b8cbfae20","condition":"full-information","relevant_dimensions":["wings","pattern"],"bee_group":{"antennae":"X","wings":"1","pattern":"S","legs":"X"},"correct":true,"bonus":1.620000000000001},{"rt":1276,"stimulus":"<p>Congrats, you got everything right<br>When you're ready, click the button below to continue to the experiment.</p>","response":0,"trial_type":"html-button-response","trial_index":10,"time_elapsed":1798297,"internal_node_id":"0.0-3.0-4.0-3.0","subject_id":"61605d3e3fe0e585cda49dc9","study_id":"6197b3f67c2b5cd3b6d9596a","session_id":"6197b583f7c9e83b8cbfae20","condition":"full-information","relevant_dimensions":["wings","pattern"],"bee_group":{"antennae":"X","wings":"1","pattern":"S","legs":"X"},"bonus":1.620000000000001},{"rt":4735,"stimulus":"bees-with-color/bee-A2DF.svg","response":0,"trial_type":"image-button-response","trial_index":11,"time_elapsed":1803037,"internal_node_id":"0.0-4.0-0.0","subject_id":"61605d3e3fe0e585cda49dc9","study_id":"6197b3f67c2b5cd3b6d9596a","session_id":"6197b583f7c9e83b8cbfae20","condition":"full-information","relevant_dimensions":["wings","pattern"],"bee_group":{"antennae":"X","wings":"1","pattern":"S","legs":"X"},"action":"harvest","summary":"good-harvest","bonus":1.620000000000001},{"rt":16197,"stimulus":"\n                    <p><b>Action: <em>harvest</em></b></p>\n                    <p>This is the bee that you just saw.</p>\n                    <img src=\"bees-with-color/bee-A2DF.svg\" width=\"200\">\n                    <p><span class=\"greenText\"><b>Successful harvest!</b></span><br>Your pay has increased by $0.02. Your bonus pay is now $0.56.</p>\n            ","response":0,"trial_type":"html-button-response","trial_index":12,"time_elapsed":1819240,"internal_node_id":"0.0-4.0-1.0","subject_id":"61605d3e3fe0e585cda49dc9","study_id":"6197b3f67c2b5cd3b6d9596a","session_id":"6197b583f7c9e83b8cbfae20","condition":"full-information","relevant_dimensions":["wings","pattern"],"bee_group":{"antennae":"X","wings":"1","pattern":"S","legs":"X"},"bonus":1.620000000000001},{"rt":14395,"stimulus":"bees-with-color/bee-A2SM.svg","response":1,"trial_type":"image-button-response","trial_index":13,"time_elapsed":1833638,"internal_node_id":"0.0-4.0-0.1","subject_id":"61605d3e3fe0e585cda49dc9","study_id":"6197b3f67c2b5cd3b6d9596a","session_id":"6197b583f7c9e83b8cbfae20","condition":"full-information","relevant_dimensions":["wings","pattern"],"bee_group":{"antennae":"X","wings":"1","pattern":"S","legs":"X"},"action":"avoid","summary":"bad-avoid","bonus":1.620000000000001},{"rt":11692,"stimulus":"\n                    <p><b>Action: <em>avoid</em></b></p>\n                    <p>This is the bee that you just saw.</p>\n                    <img src=\"bees-with-color/bee-A2SM.svg\" width=\"200\">\n                    <p><span class=\"redText\">Bad choice,</span> the bee was friendly.<br>Your bonus pay is unchanged, and remains at $0.56.</p>\n            ","response":0,"trial_type":"html-button-response","trial_index":14,"time_elapsed":1845333,"internal_node_id":"0.0-4.0-1.1","subject_id":"61605d3e3fe0e585cda49dc9","study_id":"6197b3f67c2b5cd3b6d9596a","session_id":"6197b583f7c9e83b8cbfae20","condition":"full-information","relevant_dimensions":["wings","pattern"],"bee_group":{"antennae":"X","wings":"1","pattern":"S","legs":"X"},"bonus":1.620000000000001},{"rt":8288,"stimulus":"bees-with-color/bee-A1SM.svg","response":1,"trial_type":"image-button-response","trial_index":15,"time_elapsed":1853625,"internal_node_id":"0.0-4.0-0.2","subject_id":"61605d3e3fe0e585cda49dc9","study_id":"6197b3f67c2b5cd3b6d9596a","session_id":"6197b583f7c9e83b8cbfae20","condition":"full-information","relevant_dimensions":["wings","pattern"],"bee_group":{"antennae":"X","wings":"1","pattern":"S","legs":"X"},"action":"avoid","summary":"good-avoid","bonus":1.620000000000001},{"rt":8101.999999999884,"stimulus":"\n                    <p><b>Action: <em>avoid</em></b></p>\n                    <p>This is the bee that you just saw.</p>\n                    <img src=\"bees-with-color/bee-A1SM.svg\" width=\"200\">\n                    <p><span class=\"greenText\">Good choice!</span>  This bee would have stung you.<br>Your bonus pay is unchanged, and remains at $0.56.</p>\n            ","response":0,"trial_type":"html-button-response","trial_index":16,"time_elapsed":1861730,"internal_node_id":"0.0-4.0-1.2","subject_id":"61605d3e3fe0e585cda49dc9","study_id":"6197b3f67c2b5cd3b6d9596a","session_id":"6197b583f7c9e83b8cbfae20","condition":"full-information","relevant_dimensions":["wings","pattern"],"bee_group":{"antennae":"X","wings":"1","pattern":"S","legs":"X"},"bonus":1.620000000000001},{"rt":3688,"stimulus":"bees-with-color/bee-A1SF.svg","response":1,"trial_type":"image-button-response","trial_index":17,"time_elapsed":1865421,"internal_node_id":"0.0-4.0-0.3","subject_id":"61605d3e3fe0e585cda49dc9","study_id":"6197b3f67c2b5cd3b6d9596a","session_id":"6197b583f7c9e83b8cbfae20","condition":"full-information","relevant_dimensions":["wings","pattern"],"bee_group":{"antennae":"X","wings":"1","pattern":"S","legs":"X"},"action":"avoid","summary":"good-avoid","bonus":1.620000000000001},{"rt":11730,"stimulus":"\n                    <p><b>Action: <em>avoid</em></b></p>\n                    <p>This is the bee that you just saw.</p>\n                    <img src=\"bees-with-color/bee-A1SF.svg\" width=\"200\">\n                    <p><span class=\"greenText\">Good choice!</span>  This bee would have stung you.<br>Your bonus pay is unchanged, and remains at $0.56.</p>\n            ","response":0,"trial_type":"html-button-response","trial_index":18,"time_elapsed":1877156,"internal_node_id":"0.0-4.0-1.3","subject_id":"61605d3e3fe0e585cda49dc9","study_id":"6197b3f67c2b5cd3b6d9596a","session_id":"6197b583f7c9e83b8cbfae20","condition":"full-information","relevant_dimensions":["wings","pattern"],"bee_group":{"antennae":"X","wings":"1","pattern":"S","legs":"X"},"bonus":1.620000000000001},{"rt":2654.9999999998836,"stimulus":"bees-with-color/bee-A1DF.svg","response":1,"trial_type":"image-button-response","trial_index":19,"time_elapsed":1879813,"internal_node_id":"0.0-4.0-0.4","subject_id":"61605d3e3fe0e585cda49dc9","study_id":"6197b3f67c2b5cd3b6d9596a","session_id":"6197b583f7c9e83b8cbfae20","condition":"full-information","relevant_dimensions":["wings","pattern"],"bee_group":{"antennae":"X","wings":"1","pattern":"S","legs":"X"},"action":"avoid","summary":"bad-avoid","bonus":1.620000000000001},{"rt":22395,"stimulus":"\n                    <p><b>Action: <em>avoid</em></b></p>\n                    <p>This is the bee that you just saw.</p>\n                    <img src=\"bees-with-color/bee-A1DF.svg\" width=\"200\">\n                    <p><span class=\"redText\">Bad choice,</span> the bee was friendly.<br>Your bonus pay is unchanged, and remains at $0.56.</p>\n            ","response":0,"trial_type":"html-button-response","trial_index":20,"time_elapsed":1902212,"internal_node_id":"0.0-4.0-1.4","subject_id":"61605d3e3fe0e585cda49dc9","study_id":"6197b3f67c2b5cd3b6d9596a","session_id":"6197b583f7c9e83b8cbfae20","condition":"full-information","relevant_dimensions":["wings","pattern"],"bee_group":{"antennae":"X","wings":"1","pattern":"S","legs":"X"},"bonus":1.620000000000001},{"rt":5287,"stimulus":"bees-with-color/bee-B1DF.svg","response":1,"trial_type":"image-button-response","trial_index":21,"time_elapsed":1907504,"internal_node_id":"0.0-4.0-0.5","subject_id":"61605d3e3fe0e585cda49dc9","study_id":"6197b3f67c2b5cd3b6d9596a","session_id":"6197b583f7c9e83b8cbfae20","condition":"full-information","relevant_dimensions":["wings","pattern"],"bee_group":{"antennae":"X","wings":"1","pattern":"S","legs":"X"},"action":"avoid","summary":"bad-avoid","bonus":1.620000000000001},{"rt":5928,"stimulus":"\n                    <p><b>Action: <em>avoid</em></b></p>\n                    <p>This is the bee that you just saw.</p>\n                    <img src=\"bees-with-color/bee-B1DF.svg\" width=\"200\">\n                    <p><span class=\"redText\">Bad choice,</span> the bee was friendly.<br>Your bonus pay is unchanged, and remains at $0.56.</p>\n            ","response":0,"trial_type":"html-button-response","trial_index":22,"time_elapsed":1913434,"internal_node_id":"0.0-4.0-1.5","subject_id":"61605d3e3fe0e585cda49dc9","study_id":"6197b3f67c2b5cd3b6d9596a","session_id":"6197b583f7c9e83b8cbfae20","condition":"full-information","relevant_dimensions":["wings","pattern"],"bee_group":{"antennae":"X","wings":"1","pattern":"S","legs":"X"},"bonus":1.620000000000001},{"rt":23075.999999999884,"stimulus":"bees-with-color/bee-A2DM.svg","response":0,"trial_type":"image-button-response","trial_index":23,"time_elapsed":1936513,"internal_node_id":"0.0-4.0-0.6","subject_id":"61605d3e3fe0e585cda49dc9","study_id":"6197b3f67c2b5cd3b6d9596a","session_id":"6197b583f7c9e83b8cbfae20","condition":"full-information","relevant_dimensions":["wings","pattern"],"bee_group":{"antennae":"X","wings":"1","pattern":"S","legs":"X"},"action":"harvest","summary":"good-harvest","bonus":1.620000000000001},{"rt":5620,"stimulus":"\n                    <p><b>Action: <em>harvest</em></b></p>\n                    <p>This is the bee that you just saw.</p>\n                    <img src=\"bees-with-color/bee-A2DM.svg\" width=\"200\">\n                    <p><span class=\"greenText\"><b>Successful harvest!</b></span><br>Your pay has increased by $0.02. Your bonus pay is now $0.58.</p>\n            ","response":0,"trial_type":"html-button-response","trial_index":24,"time_elapsed":1942137,"internal_node_id":"0.0-4.0-1.6","subject_id":"61605d3e3fe0e585cda49dc9","study_id":"6197b3f67c2b5cd3b6d9596a","session_id":"6197b583f7c9e83b8cbfae20","condition":"full-information","relevant_dimensions":["wings","pattern"],"bee_group":{"antennae":"X","wings":"1","pattern":"S","legs":"X"},"bonus":1.620000000000001},{"rt":2038.0000000001164,"stimulus":"bees-with-color/bee-B2DF.svg","response":0,"trial_type":"image-button-response","trial_index":25,"time_elapsed":1944177,"internal_node_id":"0.0-4.0-0.7","subject_id":"61605d3e3fe0e585cda49dc9","study_id":"6197b3f67c2b5cd3b6d9596a","session_id":"6197b583f7c9e83b8cbfae20","condition":"full-information","relevant_dimensions":["wings","pattern"],"bee_group":{"antennae":"X","wings":"1","pattern":"S","legs":"X"},"action":"harvest","summary":"good-harvest","bonus":1.620000000000001},{"rt":3168,"stimulus":"\n                    <p><b>Action: <em>harvest</em></b></p>\n                    <p>This is the bee that you just saw.</p>\n                    <img src=\"bees-with-color/bee-B2DF.svg\" width=\"200\">\n                    <p><span class=\"greenText\"><b>Successful harvest!</b></span><br>Your pay has increased by $0.02. Your bonus pay is now $0.60.</p>\n            ","response":0,"trial_type":"html-button-response","trial_index":26,"time_elapsed":1947346,"internal_node_id":"0.0-4.0-1.7","subject_id":"61605d3e3fe0e585cda49dc9","study_id":"6197b3f67c2b5cd3b6d9596a","session_id":"6197b583f7c9e83b8cbfae20","condition":"full-information","relevant_dimensions":["wings","pattern"],"bee_group":{"antennae":"X","wings":"1","pattern":"S","legs":"X"},"bonus":1.620000000000001},{"rt":3954,"stimulus":"bees-with-color/bee-B2SM.svg","response":0,"trial_type":"image-button-response","trial_index":27,"time_elapsed":1951302,"internal_node_id":"0.0-4.0-0.8","subject_id":"61605d3e3fe0e585cda49dc9","study_id":"6197b3f67c2b5cd3b6d9596a","session_id":"6197b583f7c9e83b8cbfae20","condition":"full-information","relevant_dimensions":["wings","pattern"],"bee_group":{"antennae":"X","wings":"1","pattern":"S","legs":"X"},"action":"harvest","summary":"good-harvest","bonus":1.620000000000001},{"rt":2875,"stimulus":"\n                    <p><b>Action: <em>harvest</em></b></p>\n                    <p>This is the bee that you just saw.</p>\n                    <img src=\"bees-with-color/bee-B2SM.svg\" width=\"200\">\n                    <p><span class=\"greenText\"><b>Successful harvest!</b></span><br>Your pay has increased by $0.02. Your bonus pay is now $0.62.</p>\n            ","response":0,"trial_type":"html-button-response","trial_index":28,"time_elapsed":1954180,"internal_node_id":"0.0-4.0-1.8","subject_id":"61605d3e3fe0e585cda49dc9","study_id":"6197b3f67c2b5cd3b6d9596a","session_id":"6197b583f7c9e83b8cbfae20","condition":"full-information","relevant_dimensions":["wings","pattern"],"bee_group":{"antennae":"X","wings":"1","pattern":"S","legs":"X"},"bonus":1.620000000000001},{"rt":17336.999999999884,"stimulus":"bees-with-color/bee-A1DM.svg","response":1,"trial_type":"image-button-response","trial_index":29,"time_elapsed":1971520,"internal_node_id":"0.0-4.0-0.9","subject_id":"61605d3e3fe0e585cda49dc9","study_id":"6197b3f67c2b5cd3b6d9596a","session_id":"6197b583f7c9e83b8cbfae20","condition":"full-information","relevant_dimensions":["wings","pattern"],"bee_group":{"antennae":"X","wings":"1","pattern":"S","legs":"X"},"action":"avoid","summary":"bad-avoid","bonus":1.620000000000001},{"rt":21940,"stimulus":"\n                    <p><b>Action: <em>avoid</em></b></p>\n                    <p>This is the bee that you just saw.</p>\n                    <img src=\"bees-with-color/bee-A1DM.svg\" width=\"200\">\n                    <p><span class=\"redText\">Bad choice,</span> the bee was friendly.<br>Your bonus pay is unchanged, and remains at $0.62.</p>\n            ","response":0,"trial_type":"html-button-response","trial_index":30,"time_elapsed":1993463,"internal_node_id":"0.0-4.0-1.9","subject_id":"61605d3e3fe0e585cda49dc9","study_id":"6197b3f67c2b5cd3b6d9596a","session_id":"6197b583f7c9e83b8cbfae20","condition":"full-information","relevant_dimensions":["wings","pattern"],"bee_group":{"antennae":"X","wings":"1","pattern":"S","legs":"X"},"bonus":1.620000000000001},{"rt":2700,"stimulus":"bees-with-color/bee-B1SM.svg","response":1,"trial_type":"image-button-response","trial_index":31,"time_elapsed":1996166,"internal_node_id":"0.0-4.0-0.10","subject_id":"61605d3e3fe0e585cda49dc9","study_id":"6197b3f67c2b5cd3b6d9596a","session_id":"6197b583f7c9e83b8cbfae20","condition":"full-information","relevant_dimensions":["wings","pattern"],"bee_group":{"antennae":"X","wings":"1","pattern":"S","legs":"X"},"action":"avoid","summary":"good-avoid","bonus":1.620000000000001},{"rt":1240,"stimulus":"\n                    <p><b>Action: <em>avoid</em></b></p>\n                    <p>This is the bee that you just saw.</p>\n                    <img src=\"bees-with-color/bee-B1SM.svg\" width=\"200\">\n                    <p><span class=\"greenText\">Good choice!</span>  This bee would have stung you.<br>Your bonus pay is unchanged, and remains at $0.62.</p>\n            ","response":0,"trial_type":"html-button-response","trial_index":32,"time_elapsed":1997409,"internal_node_id":"0.0-4.0-1.10","subject_id":"61605d3e3fe0e585cda49dc9","study_id":"6197b3f67c2b5cd3b6d9596a","session_id":"6197b583f7c9e83b8cbfae20","condition":"full-information","relevant_dimensions":["wings","pattern"],"bee_group":{"antennae":"X","wings":"1","pattern":"S","legs":"X"},"bonus":1.620000000000001},{"rt":1900,"stimulus":"bees-with-color/bee-B2DM.svg","response":0,"trial_type":"image-button-response","trial_index":33,"time_elapsed":1999311,"internal_node_id":"0.0-4.0-0.11","subject_id":"61605d3e3fe0e585cda49dc9","study_id":"6197b3f67c2b5cd3b6d9596a","session_id":"6197b583f7c9e83b8cbfae20","condition":"full-information","relevant_dimensions":["wings","pattern"],"bee_group":{"antennae":"X","wings":"1","pattern":"S","legs":"X"},"action":"harvest","summary":"good-harvest","bonus":1.620000000000001},{"rt":825,"stimulus":"\n                    <p><b>Action: <em>harvest</em></b></p>\n                    <p>This is the bee that you just saw.</p>\n                    <img src=\"bees-with-color/bee-B2DM.svg\" width=\"200\">\n                    <p><span class=\"greenText\"><b>Successful harvest!</b></span><br>Your pay has increased by $0.02. Your bonus pay is now $0.64.</p>\n            ","response":0,"trial_type":"html-button-response","trial_index":34,"time_elapsed":2000138,"internal_node_id":"0.0-4.0-1.11","subject_id":"61605d3e3fe0e585cda49dc9","study_id":"6197b3f67c2b5cd3b6d9596a","session_id":"6197b583f7c9e83b8cbfae20","condition":"full-information","relevant_dimensions":["wings","pattern"],"bee_group":{"antennae":"X","wings":"1","pattern":"S","legs":"X"},"bonus":1.620000000000001},{"rt":2410,"stimulus":"bees-with-color/bee-B2SF.svg","response":0,"trial_type":"image-button-response","trial_index":35,"time_elapsed":2002551,"internal_node_id":"0.0-4.0-0.12","subject_id":"61605d3e3fe0e585cda49dc9","study_id":"6197b3f67c2b5cd3b6d9596a","session_id":"6197b583f7c9e83b8cbfae20","condition":"full-information","relevant_dimensions":["wings","pattern"],"bee_group":{"antennae":"X","wings":"1","pattern":"S","legs":"X"},"action":"harvest","summary":"good-harvest","bonus":1.620000000000001},{"rt":1035.9999999998836,"stimulus":"\n                    <p><b>Action: <em>harvest</em></b></p>\n                    <p>This is the bee that you just saw.</p>\n                    <img src=\"bees-with-color/bee-B2SF.svg\" width=\"200\">\n                    <p><span class=\"greenText\"><b>Successful harvest!</b></span><br>Your pay has increased by $0.02. Your bonus pay is now $0.66.</p>\n            ","response":0,"trial_type":"html-button-response","trial_index":36,"time_elapsed":2003589,"internal_node_id":"0.0-4.0-1.12","subject_id":"61605d3e3fe0e585cda49dc9","study_id":"6197b3f67c2b5cd3b6d9596a","session_id":"6197b583f7c9e83b8cbfae20","condition":"full-information","relevant_dimensions":["wings","pattern"],"bee_group":{"antennae":"X","wings":"1","pattern":"S","legs":"X"},"bonus":1.620000000000001},{"rt":1508,"stimulus":"bees-with-color/bee-A2SF.svg","response":0,"trial_type":"image-button-response","trial_index":37,"time_elapsed":2005099,"internal_node_id":"0.0-4.0-0.13","subject_id":"61605d3e3fe0e585cda49dc9","study_id":"6197b3f67c2b5cd3b6d9596a","session_id":"6197b583f7c9e83b8cbfae20","condition":"full-information","relevant_dimensions":["wings","pattern"],"bee_group":{"antennae":"X","wings":"1","pattern":"S","legs":"X"},"action":"harvest","summary":"good-harvest","bonus":1.620000000000001},{"rt":1072.9999999998836,"stimulus":"\n                    <p><b>Action: <em>harvest</em></b></p>\n                    <p>This is the bee that you just saw.</p>\n                    <img src=\"bees-with-color/bee-A2SF.svg\" width=\"200\">\n                    <p><span class=\"greenText\"><b>Successful harvest!</b></span><br>Your pay has increased by $0.02. Your bonus pay is now $0.68.</p>\n            ","response":0,"trial_type":"html-button-response","trial_index":38,"time_elapsed":2006175,"internal_node_id":"0.0-4.0-1.13","subject_id":"61605d3e3fe0e585cda49dc9","study_id":"6197b3f67c2b5cd3b6d9596a","session_id":"6197b583f7c9e83b8cbfae20","condition":"full-information","relevant_dimensions":["wings","pattern"],"bee_group":{"antennae":"X","wings":"1","pattern":"S","legs":"X"},"bonus":1.620000000000001},{"rt":4447.999999999884,"stimulus":"bees-with-color/bee-B1DM.svg","response":1,"trial_type":"image-button-response","trial_index":39,"time_elapsed":2010627,"internal_node_id":"0.0-4.0-0.14","subject_id":"61605d3e3fe0e585cda49dc9","study_id":"6197b3f67c2b5cd3b6d9596a","session_id":"6197b583f7c9e83b8cbfae20","condition":"full-information","relevant_dimensions":["wings","pattern"],"bee_group":{"antennae":"X","wings":"1","pattern":"S","legs":"X"},"action":"avoid","summary":"bad-avoid","bonus":1.620000000000001},{"rt":2191,"stimulus":"\n                    <p><b>Action: <em>avoid</em></b></p>\n                    <p>This is the bee that you just saw.</p>\n                    <img src=\"bees-with-color/bee-B1DM.svg\" width=\"200\">\n                    <p><span class=\"redText\">Bad choice,</span> the bee was friendly.<br>Your bonus pay is unchanged, and remains at $0.68.</p>\n            ","response":0,"trial_type":"html-button-response","trial_index":40,"time_elapsed":2012821,"internal_node_id":"0.0-4.0-1.14","subject_id":"61605d3e3fe0e585cda49dc9","study_id":"6197b3f67c2b5cd3b6d9596a","session_id":"6197b583f7c9e83b8cbfae20","condition":"full-information","relevant_dimensions":["wings","pattern"],"bee_group":{"antennae":"X","wings":"1","pattern":"S","legs":"X"},"bonus":1.620000000000001},{"rt":3765,"stimulus":"bees-with-color/bee-B1SF.svg","response":1,"trial_type":"image-button-response","trial_index":41,"time_elapsed":2016588,"internal_node_id":"0.0-4.0-0.15","subject_id":"61605d3e3fe0e585cda49dc9","study_id":"6197b3f67c2b5cd3b6d9596a","session_id":"6197b583f7c9e83b8cbfae20","condition":"full-information","relevant_dimensions":["wings","pattern"],"bee_group":{"antennae":"X","wings":"1","pattern":"S","legs":"X"},"action":"avoid","summary":"good-avoid","bonus":1.620000000000001},{"rt":5228,"stimulus":"\n                    <p><b>Action: <em>avoid</em></b></p>\n                    <p>This is the bee that you just saw.</p>\n                    <img src=\"bees-with-color/bee-B1SF.svg\" width=\"200\">\n                    <p><span class=\"greenText\">Good choice!</span>  This bee would have stung you.<br>Your bonus pay is unchanged, and remains at $0.68.</p>\n            ","response":0,"trial_type":"html-button-response","trial_index":42,"time_elapsed":2021818,"internal_node_id":"0.0-4.0-1.15","subject_id":"61605d3e3fe0e585cda49dc9","study_id":"6197b3f67c2b5cd3b6d9596a","session_id":"6197b583f7c9e83b8cbfae20","condition":"full-information","relevant_dimensions":["wings","pattern"],"bee_group":{"antennae":"X","wings":"1","pattern":"S","legs":"X"},"bonus":1.620000000000001},{"rt":1396,"stimulus":"bees-with-color/bee-A2DM.svg","response":0,"trial_type":"image-button-response","trial_index":43,"time_elapsed":2023215,"internal_node_id":"0.0-4.0-0.16","subject_id":"61605d3e3fe0e585cda49dc9","study_id":"6197b3f67c2b5cd3b6d9596a","session_id":"6197b583f7c9e83b8cbfae20","condition":"full-information","relevant_dimensions":["wings","pattern"],"bee_group":{"antennae":"X","wings":"1","pattern":"S","legs":"X"},"action":"harvest","summary":"good-harvest","bonus":1.620000000000001},{"rt":995,"stimulus":"\n                    <p><b>Action: <em>harvest</em></b></p>\n                    <p>This is the bee that you just saw.</p>\n                    <img src=\"bees-with-color/bee-A2DM.svg\" width=\"200\">\n                    <p><span class=\"greenText\"><b>Successful harvest!</b></span><br>Your pay has increased by $0.02. Your bonus pay is now $0.70.</p>\n            ","response":0,"trial_type":"html-button-response","trial_index":44,"time_elapsed":2024214,"internal_node_id":"0.0-4.0-1.16","subject_id":"61605d3e3fe0e585cda49dc9","study_id":"6197b3f67c2b5cd3b6d9596a","session_id":"6197b583f7c9e83b8cbfae20","condition":"full-information","relevant_dimensions":["wings","pattern"],"bee_group":{"antennae":"X","wings":"1","pattern":"S","legs":"X"},"bonus":1.620000000000001},{"rt":853,"stimulus":"bees-with-color/bee-B2SF.svg","response":0,"trial_type":"image-button-response","trial_index":45,"time_elapsed":2025071,"internal_node_id":"0.0-4.0-0.17","subject_id":"61605d3e3fe0e585cda49dc9","study_id":"6197b3f67c2b5cd3b6d9596a","session_id":"6197b583f7c9e83b8cbfae20","condition":"full-information","relevant_dimensions":["wings","pattern"],"bee_group":{"antennae":"X","wings":"1","pattern":"S","legs":"X"},"action":"harvest","summary":"good-harvest","bonus":1.620000000000001},{"rt":1345,"stimulus":"\n                    <p><b>Action: <em>harvest</em></b></p>\n                    <p>This is the bee that you just saw.</p>\n                    <img src=\"bees-with-color/bee-B2SF.svg\" width=\"200\">\n                    <p><span class=\"greenText\"><b>Successful harvest!</b></span><br>Your pay has increased by $0.02. Your bonus pay is now $0.72.</p>\n            ","response":0,"trial_type":"html-button-response","trial_index":46,"time_elapsed":2026420,"internal_node_id":"0.0-4.0-1.17","subject_id":"61605d3e3fe0e585cda49dc9","study_id":"6197b3f67c2b5cd3b6d9596a","session_id":"6197b583f7c9e83b8cbfae20","condition":"full-information","relevant_dimensions":["wings","pattern"],"bee_group":{"antennae":"X","wings":"1","pattern":"S","legs":"X"},"bonus":1.620000000000001},{"rt":15722,"stimulus":"bees-with-color/bee-A1SM.svg","response":1,"trial_type":"image-button-response","trial_index":47,"time_elapsed":2042146,"internal_node_id":"0.0-4.0-0.18","subject_id":"61605d3e3fe0e585cda49dc9","study_id":"6197b3f67c2b5cd3b6d9596a","session_id":"6197b583f7c9e83b8cbfae20","condition":"full-information","relevant_dimensions":["wings","pattern"],"bee_group":{"antennae":"X","wings":"1","pattern":"S","legs":"X"},"action":"avoid","summary":"good-avoid","bonus":1.620000000000001},{"rt":1582,"stimulus":"\n                    <p><b>Action: <em>avoid</em></b></p>\n                    <p>This is the bee that you just saw.</p>\n                    <img src=\"bees-with-color/bee-A1SM.svg\" width=\"200\">\n                    <p><span class=\"greenText\">Good choice!</span>  This bee would have stung you.<br>Your bonus pay is unchanged, and remains at $0.72.</p>\n            ","response":0,"trial_type":"html-button-response","trial_index":48,"time_elapsed":2043732,"internal_node_id":"0.0-4.0-1.18","subject_id":"61605d3e3fe0e585cda49dc9","study_id":"6197b3f67c2b5cd3b6d9596a","session_id":"6197b583f7c9e83b8cbfae20","condition":"full-information","relevant_dimensions":["wings","pattern"],"bee_group":{"antennae":"X","wings":"1","pattern":"S","legs":"X"},"bonus":1.620000000000001},{"rt":1800,"stimulus":"bees-with-color/bee-A2DF.svg","response":0,"trial_type":"image-button-response","trial_index":49,"time_elapsed":2045533,"internal_node_id":"0.0-4.0-0.19","subject_id":"61605d3e3fe0e585cda49dc9","study_id":"6197b3f67c2b5cd3b6d9596a","session_id":"6197b583f7c9e83b8cbfae20","condition":"full-information","relevant_dimensions":["wings","pattern"],"bee_group":{"antennae":"X","wings":"1","pattern":"S","legs":"X"},"action":"harvest","summary":"good-harvest","bonus":1.620000000000001},{"rt":913,"stimulus":"\n                    <p><b>Action: <em>harvest</em></b></p>\n                    <p>This is the bee that you just saw.</p>\n                    <img src=\"bees-with-color/bee-A2DF.svg\" width=\"200\">\n                    <p><span class=\"greenText\"><b>Successful harvest!</b></span><br>Your pay has increased by $0.02. Your bonus pay is now $0.74.</p>\n            ","response":0,"trial_type":"html-button-response","trial_index":50,"time_elapsed":2046449,"internal_node_id":"0.0-4.0-1.19","subject_id":"61605d3e3fe0e585cda49dc9","study_id":"6197b3f67c2b5cd3b6d9596a","session_id":"6197b583f7c9e83b8cbfae20","condition":"full-information","relevant_dimensions":["wings","pattern"],"bee_group":{"antennae":"X","wings":"1","pattern":"S","legs":"X"},"bonus":1.620000000000001},{"rt":1139,"stimulus":"bees-with-color/bee-B2DF.svg","response":0,"trial_type":"image-button-response","trial_index":51,"time_elapsed":2047592,"internal_node_id":"0.0-4.0-0.20","subject_id":"61605d3e3fe0e585cda49dc9","study_id":"6197b3f67c2b5cd3b6d9596a","session_id":"6197b583f7c9e83b8cbfae20","condition":"full-information","relevant_dimensions":["wings","pattern"],"bee_group":{"antennae":"X","wings":"1","pattern":"S","legs":"X"},"action":"harvest","summary":"good-harvest","bonus":1.620000000000001},{"rt":1069,"stimulus":"\n                    <p><b>Action: <em>harvest</em></b></p>\n                    <p>This is the bee that you just saw.</p>\n                    <img src=\"bees-with-color/bee-B2DF.svg\" width=\"200\">\n                    <p><span class=\"greenText\"><b>Successful harvest!</b></span><br>Your pay has increased by $0.02. Your bonus pay is now $0.76.</p>\n            ","response":0,"trial_type":"html-button-response","trial_index":52,"time_elapsed":2048664,"internal_node_id":"0.0-4.0-1.20","subject_id":"61605d3e3fe0e585cda49dc9","study_id":"6197b3f67c2b5cd3b6d9596a","session_id":"6197b583f7c9e83b8cbfae20","condition":"full-information","relevant_dimensions":["wings","pattern"],"bee_group":{"antennae":"X","wings":"1","pattern":"S","legs":"X"},"bonus":1.620000000000001},{"rt":13244.000000000116,"stimulus":"bees-with-color/bee-A1DM.svg","response":0,"trial_type":"image-button-response","trial_index":53,"time_elapsed":2061911,"internal_node_id":"0.0-4.0-0.21","subject_id":"61605d3e3fe0e585cda49dc9","study_id":"6197b3f67c2b5cd3b6d9596a","session_id":"6197b583f7c9e83b8cbfae20","condition":"full-information","relevant_dimensions":["wings","pattern"],"bee_group":{"antennae":"X","wings":"1","pattern":"S","legs":"X"},"action":"harvest","summary":"good-harvest","bonus":1.620000000000001},{"rt":4549,"stimulus":"\n                    <p><b>Action: <em>harvest</em></b></p>\n                    <p>This is the bee that you just saw.</p>\n                    <img src=\"bees-with-color/bee-A1DM.svg\" width=\"200\">\n                    <p><span class=\"greenText\"><b>Successful harvest!</b></span><br>Your pay has increased by $0.02. Your bonus pay is now $0.78.</p>\n            ","response":0,"trial_type":"html-button-response","trial_index":54,"time_elapsed":2066463,"internal_node_id":"0.0-4.0-1.21","subject_id":"61605d3e3fe0e585cda49dc9","study_id":"6197b3f67c2b5cd3b6d9596a","session_id":"6197b583f7c9e83b8cbfae20","condition":"full-information","relevant_dimensions":["wings","pattern"],"bee_group":{"antennae":"X","wings":"1","pattern":"S","legs":"X"},"bonus":1.620000000000001},{"rt":2713,"stimulus":"bees-with-color/bee-A1DF.svg","response":0,"trial_type":"image-button-response","trial_index":55,"time_elapsed":2069178,"internal_node_id":"0.0-4.0-0.22","subject_id":"61605d3e3fe0e585cda49dc9","study_id":"6197b3f67c2b5cd3b6d9596a","session_id":"6197b583f7c9e83b8cbfae20","condition":"full-information","relevant_dimensions":["wings","pattern"],"bee_group":{"antennae":"X","wings":"1","pattern":"S","legs":"X"},"action":"harvest","summary":"good-harvest","bonus":1.620000000000001},{"rt":3473,"stimulus":"\n                    <p><b>Action: <em>harvest</em></b></p>\n                    <p>This is the bee that you just saw.</p>\n                    <img src=\"bees-with-color/bee-A1DF.svg\" width=\"200\">\n                    <p><span class=\"greenText\"><b>Successful harvest!</b></span><br>Your pay has increased by $0.02. Your bonus pay is now $0.80.</p>\n            ","response":0,"trial_type":"html-button-response","trial_index":56,"time_elapsed":2072654,"internal_node_id":"0.0-4.0-1.22","subject_id":"61605d3e3fe0e585cda49dc9","study_id":"6197b3f67c2b5cd3b6d9596a","session_id":"6197b583f7c9e83b8cbfae20","condition":"full-information","relevant_dimensions":["wings","pattern"],"bee_group":{"antennae":"X","wings":"1","pattern":"S","legs":"X"},"bonus":1.620000000000001},{"rt":2181.9999999998836,"stimulus":"bees-with-color/bee-B1SF.svg","response":1,"trial_type":"image-button-response","trial_index":57,"time_elapsed":2074838,"internal_node_id":"0.0-4.0-0.23","subject_id":"61605d3e3fe0e585cda49dc9","study_id":"6197b3f67c2b5cd3b6d9596a","session_id":"6197b583f7c9e83b8cbfae20","condition":"full-information","relevant_dimensions":["wings","pattern"],"bee_group":{"antennae":"X","wings":"1","pattern":"S","legs":"X"},"action":"avoid","summary":"good-avoid","bonus":1.620000000000001},{"rt":3145,"stimulus":"\n                    <p><b>Action: <em>avoid</em></b></p>\n                    <p>This is the bee that you just saw.</p>\n                    <img src=\"bees-with-color/bee-B1SF.svg\" width=\"200\">\n                    <p><span class=\"greenText\">Good choice!</span>  This bee would have stung you.<br>Your bonus pay is unchanged, and remains at $0.80.</p>\n            ","response":0,"trial_type":"html-button-response","trial_index":58,"time_elapsed":2077986,"internal_node_id":"0.0-4.0-1.23","subject_id":"61605d3e3fe0e585cda49dc9","study_id":"6197b3f67c2b5cd3b6d9596a","session_id":"6197b583f7c9e83b8cbfae20","condition":"full-information","relevant_dimensions":["wings","pattern"],"bee_group":{"antennae":"X","wings":"1","pattern":"S","legs":"X"},"bonus":1.620000000000001},{"rt":23099.999999999884,"stimulus":"bees-with-color/bee-B1SM.svg","response":0,"trial_type":"image-button-response","trial_index":59,"time_elapsed":2101088,"internal_node_id":"0.0-4.0-0.24","subject_id":"61605d3e3fe0e585cda49dc9","study_id":"6197b3f67c2b5cd3b6d9596a","session_id":"6197b583f7c9e83b8cbfae20","condition":"full-information","relevant_dimensions":["wings","pattern"],"bee_group":{"antennae":"X","wings":"1","pattern":"S","legs":"X"},"action":"harvest","summary":"bad-harvest","bonus":1.620000000000001},{"rt":4763.000000000116,"stimulus":"\n                    <p><b>Action: <em>harvest</em></b></p>\n                    <p>This is the bee that you just saw.</p>\n                    <img src=\"bees-with-color/bee-B1SM.svg\" width=\"200\">\n                    <p><span class=\"redText\">Bad choice, the bee was angry.</span><br><b>You have been stung!</b><br>Your pay has been decreased by $0.10. Your bonus pay is now $0.70.</p>\n            ","response":0,"trial_type":"html-button-response","trial_index":60,"time_elapsed":2105855,"internal_node_id":"0.0-4.0-1.24","subject_id":"61605d3e3fe0e585cda49dc9","study_id":"6197b3f67c2b5cd3b6d9596a","session_id":"6197b583f7c9e83b8cbfae20","condition":"full-information","relevant_dimensions":["wings","pattern"],"bee_group":{"antennae":"X","wings":"1","pattern":"S","legs":"X"},"bonus":1.620000000000001},{"rt":1553,"stimulus":"bees-with-color/bee-A2SF.svg","response":0,"trial_type":"image-button-response","trial_index":61,"time_elapsed":2107410,"internal_node_id":"0.0-4.0-0.25","subject_id":"61605d3e3fe0e585cda49dc9","study_id":"6197b3f67c2b5cd3b6d9596a","session_id":"6197b583f7c9e83b8cbfae20","condition":"full-information","relevant_dimensions":["wings","pattern"],"bee_group":{"antennae":"X","wings":"1","pattern":"S","legs":"X"},"action":"harvest","summary":"good-harvest","bonus":1.620000000000001},{"rt":895,"stimulus":"\n                    <p><b>Action: <em>harvest</em></b></p>\n                    <p>This is the bee that you just saw.</p>\n                    <img src=\"bees-with-color/bee-A2SF.svg\" width=\"200\">\n                    <p><span class=\"greenText\"><b>Successful harvest!</b></span><br>Your pay has increased by $0.02. Your bonus pay is now $0.72.</p>\n            ","response":0,"trial_type":"html-button-response","trial_index":62,"time_elapsed":2108308,"internal_node_id":"0.0-4.0-1.25","subject_id":"61605d3e3fe0e585cda49dc9","study_id":"6197b3f67c2b5cd3b6d9596a","session_id":"6197b583f7c9e83b8cbfae20","condition":"full-information","relevant_dimensions":["wings","pattern"],"bee_group":{"antennae":"X","wings":"1","pattern":"S","legs":"X"},"bonus":1.620000000000001},{"rt":1062.9999999998836,"stimulus":"bees-with-color/bee-B2SM.svg","response":0,"trial_type":"image-button-response","trial_index":63,"time_elapsed":2109373,"internal_node_id":"0.0-4.0-0.26","subject_id":"61605d3e3fe0e585cda49dc9","study_id":"6197b3f67c2b5cd3b6d9596a","session_id":"6197b583f7c9e83b8cbfae20","condition":"full-information","relevant_dimensions":["wings","pattern"],"bee_group":{"antennae":"X","wings":"1","pattern":"S","legs":"X"},"action":"harvest","summary":"good-harvest","bonus":1.620000000000001},{"rt":1069,"stimulus":"\n                    <p><b>Action: <em>harvest</em></b></p>\n                    <p>This is the bee that you just saw.</p>\n                    <img src=\"bees-with-color/bee-B2SM.svg\" width=\"200\">\n                    <p><span class=\"greenText\"><b>Successful harvest!</b></span><br>Your pay has increased by $0.02. Your bonus pay is now $0.74.</p>\n            ","response":0,"trial_type":"html-button-response","trial_index":64,"time_elapsed":2110446,"internal_node_id":"0.0-4.0-1.26","subject_id":"61605d3e3fe0e585cda49dc9","study_id":"6197b3f67c2b5cd3b6d9596a","session_id":"6197b583f7c9e83b8cbfae20","condition":"full-information","relevant_dimensions":["wings","pattern"],"bee_group":{"antennae":"X","wings":"1","pattern":"S","legs":"X"},"bonus":1.620000000000001},{"rt":1165.0000000001164,"stimulus":"bees-with-color/bee-A2SM.svg","response":0,"trial_type":"image-button-response","trial_index":65,"time_elapsed":2111614,"internal_node_id":"0.0-4.0-0.27","subject_id":"61605d3e3fe0e585cda49dc9","study_id":"6197b3f67c2b5cd3b6d9596a","session_id":"6197b583f7c9e83b8cbfae20","condition":"full-information","relevant_dimensions":["wings","pattern"],"bee_group":{"antennae":"X","wings":"1","pattern":"S","legs":"X"},"action":"harvest","summary":"good-harvest","bonus":1.620000000000001},{"rt":919.0000000001164,"stimulus":"\n                    <p><b>Action: <em>harvest</em></b></p>\n                    <p>This is the bee that you just saw.</p>\n                    <img src=\"bees-with-color/bee-A2SM.svg\" width=\"200\">\n                    <p><span class=\"greenText\"><b>Successful harvest!</b></span><br>Your pay has increased by $0.02. Your bonus pay is now $0.76.</p>\n            ","response":0,"trial_type":"html-button-response","trial_index":66,"time_elapsed":2112536,"internal_node_id":"0.0-4.0-1.27","subject_id":"61605d3e3fe0e585cda49dc9","study_id":"6197b3f67c2b5cd3b6d9596a","session_id":"6197b583f7c9e83b8cbfae20","condition":"full-information","relevant_dimensions":["wings","pattern"],"bee_group":{"antennae":"X","wings":"1","pattern":"S","legs":"X"},"bonus":1.620000000000001},{"rt":15907,"stimulus":"bees-with-color/bee-A1SF.svg","response":1,"trial_type":"image-button-response","trial_index":67,"time_elapsed":2128446,"internal_node_id":"0.0-4.0-0.28","subject_id":"61605d3e3fe0e585cda49dc9","study_id":"6197b3f67c2b5cd3b6d9596a","session_id":"6197b583f7c9e83b8cbfae20","condition":"full-information","relevant_dimensions":["wings","pattern"],"bee_group":{"antennae":"X","wings":"1","pattern":"S","legs":"X"},"action":"avoid","summary":"good-avoid","bonus":1.620000000000001},{"rt":1091,"stimulus":"\n                    <p><b>Action: <em>avoid</em></b></p>\n                    <p>This is the bee that you just saw.</p>\n                    <img src=\"bees-with-color/bee-A1SF.svg\" width=\"200\">\n                    <p><span class=\"greenText\">Good choice!</span>  This bee would have stung you.<br>Your bonus pay is unchanged, and remains at $0.76.</p>\n            ","response":0,"trial_type":"html-button-response","trial_index":68,"time_elapsed":2129541,"internal_node_id":"0.0-4.0-1.28","subject_id":"61605d3e3fe0e585cda49dc9","study_id":"6197b3f67c2b5cd3b6d9596a","session_id":"6197b583f7c9e83b8cbfae20","condition":"full-information","relevant_dimensions":["wings","pattern"],"bee_group":{"antennae":"X","wings":"1","pattern":"S","legs":"X"},"bonus":1.620000000000001},{"rt":7203,"stimulus":"bees-with-color/bee-B1DF.svg","response":0,"trial_type":"image-button-response","trial_index":69,"time_elapsed":2136745,"internal_node_id":"0.0-4.0-0.29","subject_id":"61605d3e3fe0e585cda49dc9","study_id":"6197b3f67c2b5cd3b6d9596a","session_id":"6197b583f7c9e83b8cbfae20","condition":"full-information","relevant_dimensions":["wings","pattern"],"bee_group":{"antennae":"X","wings":"1","pattern":"S","legs":"X"},"action":"harvest","summary":"good-harvest","bonus":1.620000000000001},{"rt":981.9999999998836,"stimulus":"\n                    <p><b>Action: <em>harvest</em></b></p>\n                    <p>This is the bee that you just saw.</p>\n                    <img src=\"bees-with-color/bee-B1DF.svg\" width=\"200\">\n                    <p><span class=\"greenText\"><b>Successful harvest!</b></span><br>Your pay has increased by $0.02. Your bonus pay is now $0.78.</p>\n            ","response":0,"trial_type":"html-button-response","trial_index":70,"time_elapsed":2137730,"internal_node_id":"0.0-4.0-1.29","subject_id":"61605d3e3fe0e585cda49dc9","study_id":"6197b3f67c2b5cd3b6d9596a","session_id":"6197b583f7c9e83b8cbfae20","condition":"full-information","relevant_dimensions":["wings","pattern"],"bee_group":{"antennae":"X","wings":"1","pattern":"S","legs":"X"},"bonus":1.620000000000001},{"rt":9851,"stimulus":"bees-with-color/bee-B1DM.svg","response":1,"trial_type":"image-button-response","trial_index":71,"time_elapsed":2147585,"internal_node_id":"0.0-4.0-0.30","subject_id":"61605d3e3fe0e585cda49dc9","study_id":"6197b3f67c2b5cd3b6d9596a","session_id":"6197b583f7c9e83b8cbfae20","condition":"full-information","relevant_dimensions":["wings","pattern"],"bee_group":{"antennae":"X","wings":"1","pattern":"S","legs":"X"},"action":"avoid","summary":"bad-avoid","bonus":1.620000000000001},{"rt":4111.000000000116,"stimulus":"\n                    <p><b>Action: <em>avoid</em></b></p>\n                    <p>This is the bee that you just saw.</p>\n                    <img src=\"bees-with-color/bee-B1DM.svg\" width=\"200\">\n                    <p><span class=\"redText\">Bad choice,</span> the bee was friendly.<br>Your bonus pay is unchanged, and remains at $0.78.</p>\n            ","response":0,"trial_type":"html-button-response","trial_index":72,"time_elapsed":2151701,"internal_node_id":"0.0-4.0-1.30","subject_id":"61605d3e3fe0e585cda49dc9","study_id":"6197b3f67c2b5cd3b6d9596a","session_id":"6197b583f7c9e83b8cbfae20","condition":"full-information","relevant_dimensions":["wings","pattern"],"bee_group":{"antennae":"X","wings":"1","pattern":"S","legs":"X"},"bonus":1.620000000000001},{"rt":985,"stimulus":"bees-with-color/bee-B2DM.svg","response":0,"trial_type":"image-button-response","trial_index":73,"time_elapsed":2152687,"internal_node_id":"0.0-4.0-0.31","subject_id":"61605d3e3fe0e585cda49dc9","study_id":"6197b3f67c2b5cd3b6d9596a","session_id":"6197b583f7c9e83b8cbfae20","condition":"full-information","relevant_dimensions":["wings","pattern"],"bee_group":{"antennae":"X","wings":"1","pattern":"S","legs":"X"},"action":"harvest","summary":"good-harvest","bonus":1.620000000000001},{"rt":914.0000000001164,"stimulus":"\n                    <p><b>Action: <em>harvest</em></b></p>\n                    <p>This is the bee that you just saw.</p>\n                    <img src=\"bees-with-color/bee-B2DM.svg\" width=\"200\">\n                    <p><span class=\"greenText\"><b>Successful harvest!</b></span><br>Your pay has increased by $0.02. Your bonus pay is now $0.80.</p>\n            ","response":0,"trial_type":"html-button-response","trial_index":74,"time_elapsed":2153604,"internal_node_id":"0.0-4.0-1.31","subject_id":"61605d3e3fe0e585cda49dc9","study_id":"6197b3f67c2b5cd3b6d9596a","session_id":"6197b583f7c9e83b8cbfae20","condition":"full-information","relevant_dimensions":["wings","pattern"],"bee_group":{"antennae":"X","wings":"1","pattern":"S","legs":"X"},"bonus":1.620000000000001},{"rt":13125,"stimulus":"bees-with-color/bee-A1SF.svg","response":1,"trial_type":"image-button-response","trial_index":75,"time_elapsed":2166730,"internal_node_id":"0.0-4.0-0.32","subject_id":"61605d3e3fe0e585cda49dc9","study_id":"6197b3f67c2b5cd3b6d9596a","session_id":"6197b583f7c9e83b8cbfae20","condition":"full-information","relevant_dimensions":["wings","pattern"],"bee_group":{"antennae":"X","wings":"1","pattern":"S","legs":"X"},"action":"avoid","summary":"good-avoid","bonus":1.620000000000001},{"rt":1662,"stimulus":"\n                    <p><b>Action: <em>avoid</em></b></p>\n                    <p>This is the bee that you just saw.</p>\n                    <img src=\"bees-with-color/bee-A1SF.svg\" width=\"200\">\n                    <p><span class=\"greenText\">Good choice!</span>  This bee would have stung you.<br>Your bonus pay is unchanged, and remains at $0.80.</p>\n            ","response":0,"trial_type":"html-button-response","trial_index":76,"time_elapsed":2168395,"internal_node_id":"0.0-4.0-1.32","subject_id":"61605d3e3fe0e585cda49dc9","study_id":"6197b3f67c2b5cd3b6d9596a","session_id":"6197b583f7c9e83b8cbfae20","condition":"full-information","relevant_dimensions":["wings","pattern"],"bee_group":{"antennae":"X","wings":"1","pattern":"S","legs":"X"},"bonus":1.620000000000001},{"rt":35147,"stimulus":"bees-with-color/bee-B1DM.svg","response":0,"trial_type":"image-button-response","trial_index":77,"time_elapsed":2203546,"internal_node_id":"0.0-4.0-0.33","subject_id":"61605d3e3fe0e585cda49dc9","study_id":"6197b3f67c2b5cd3b6d9596a","session_id":"6197b583f7c9e83b8cbfae20","condition":"full-information","relevant_dimensions":["wings","pattern"],"bee_group":{"antennae":"X","wings":"1","pattern":"S","legs":"X"},"action":"harvest","summary":"good-harvest","bonus":1.620000000000001},{"rt":905,"stimulus":"\n                    <p><b>Action: <em>harvest</em></b></p>\n                    <p>This is the bee that you just saw.</p>\n                    <img src=\"bees-with-color/bee-B1DM.svg\" width=\"200\">\n                    <p><span class=\"greenText\"><b>Successful harvest!</b></span><br>Your pay has increased by $0.02. Your bonus pay is now $0.82.</p>\n            ","response":0,"trial_type":"html-button-response","trial_index":78,"time_elapsed":2204451,"internal_node_id":"0.0-4.0-1.33","subject_id":"61605d3e3fe0e585cda49dc9","study_id":"6197b3f67c2b5cd3b6d9596a","session_id":"6197b583f7c9e83b8cbfae20","condition":"full-information","relevant_dimensions":["wings","pattern"],"bee_group":{"antennae":"X","wings":"1","pattern":"S","legs":"X"},"bonus":1.620000000000001},{"rt":2417,"stimulus":"bees-with-color/bee-B2SF.svg","response":0,"trial_type":"image-button-response","trial_index":79,"time_elapsed":2206870,"internal_node_id":"0.0-4.0-0.34","subject_id":"61605d3e3fe0e585cda49dc9","study_id":"6197b3f67c2b5cd3b6d9596a","session_id":"6197b583f7c9e83b8cbfae20","condition":"full-information","relevant_dimensions":["wings","pattern"],"bee_group":{"antennae":"X","wings":"1","pattern":"S","legs":"X"},"action":"harvest","summary":"good-harvest","bonus":1.620000000000001},{"rt":922,"stimulus":"\n                    <p><b>Action: <em>harvest</em></b></p>\n                    <p>This is the bee that you just saw.</p>\n                    <img src=\"bees-with-color/bee-B2SF.svg\" width=\"200\">\n                    <p><span class=\"greenText\"><b>Successful harvest!</b></span><br>Your pay has increased by $0.02. Your bonus pay is now $0.84.</p>\n            ","response":0,"trial_type":"html-button-response","trial_index":80,"time_elapsed":2207795,"internal_node_id":"0.0-4.0-1.34","subject_id":"61605d3e3fe0e585cda49dc9","study_id":"6197b3f67c2b5cd3b6d9596a","session_id":"6197b583f7c9e83b8cbfae20","condition":"full-information","relevant_dimensions":["wings","pattern"],"bee_group":{"antennae":"X","wings":"1","pattern":"S","legs":"X"},"bonus":1.620000000000001},{"rt":1622,"stimulus":"bees-with-color/bee-A2SM.svg","response":0,"trial_type":"image-button-response","trial_index":81,"time_elapsed":2209420,"internal_node_id":"0.0-4.0-0.35","subject_id":"61605d3e3fe0e585cda49dc9","study_id":"6197b3f67c2b5cd3b6d9596a","session_id":"6197b583f7c9e83b8cbfae20","condition":"full-information","relevant_dimensions":["wings","pattern"],"bee_group":{"antennae":"X","wings":"1","pattern":"S","legs":"X"},"action":"harvest","summary":"good-harvest","bonus":1.620000000000001},{"rt":910,"stimulus":"\n                    <p><b>Action: <em>harvest</em></b></p>\n                    <p>This is the bee that you just saw.</p>\n                    <img src=\"bees-with-color/bee-A2SM.svg\" width=\"200\">\n                    <p><span class=\"greenText\"><b>Successful harvest!</b></span><br>Your pay has increased by $0.02. Your bonus pay is now $0.86.</p>\n            ","response":0,"trial_type":"html-button-response","trial_index":82,"time_elapsed":2210331,"internal_node_id":"0.0-4.0-1.35","subject_id":"61605d3e3fe0e585cda49dc9","study_id":"6197b3f67c2b5cd3b6d9596a","session_id":"6197b583f7c9e83b8cbfae20","condition":"full-information","relevant_dimensions":["wings","pattern"],"bee_group":{"antennae":"X","wings":"1","pattern":"S","legs":"X"},"bonus":1.620000000000001},{"rt":1063,"stimulus":"bees-with-color/bee-B2DF.svg","response":0,"trial_type":"image-button-response","trial_index":83,"time_elapsed":2211397,"internal_node_id":"0.0-4.0-0.36","subject_id":"61605d3e3fe0e585cda49dc9","study_id":"6197b3f67c2b5cd3b6d9596a","session_id":"6197b583f7c9e83b8cbfae20","condition":"full-information","relevant_dimensions":["wings","pattern"],"bee_group":{"antennae":"X","wings":"1","pattern":"S","legs":"X"},"action":"harvest","summary":"good-harvest","bonus":1.620000000000001},{"rt":909,"stimulus":"\n                    <p><b>Action: <em>harvest</em></b></p>\n                    <p>This is the bee that you just saw.</p>\n                    <img src=\"bees-with-color/bee-B2DF.svg\" width=\"200\">\n                    <p><span class=\"greenText\"><b>Successful harvest!</b></span><br>Your pay has increased by $0.02. Your bonus pay is now $0.88.</p>\n            ","response":0,"trial_type":"html-button-response","trial_index":84,"time_elapsed":2212308,"internal_node_id":"0.0-4.0-1.36","subject_id":"61605d3e3fe0e585cda49dc9","study_id":"6197b3f67c2b5cd3b6d9596a","session_id":"6197b583f7c9e83b8cbfae20","condition":"full-information","relevant_dimensions":["wings","pattern"],"bee_group":{"antennae":"X","wings":"1","pattern":"S","legs":"X"},"bonus":1.620000000000001},{"rt":8343,"stimulus":"bees-with-color/bee-A1DM.svg","response":0,"trial_type":"image-button-response","trial_index":85,"time_elapsed":2220654,"internal_node_id":"0.0-4.0-0.37","subject_id":"61605d3e3fe0e585cda49dc9","study_id":"6197b3f67c2b5cd3b6d9596a","session_id":"6197b583f7c9e83b8cbfae20","condition":"full-information","relevant_dimensions":["wings","pattern"],"bee_group":{"antennae":"X","wings":"1","pattern":"S","legs":"X"},"action":"harvest","summary":"good-harvest","bonus":1.620000000000001},{"rt":963,"stimulus":"\n                    <p><b>Action: <em>harvest</em></b></p>\n                    <p>This is the bee that you just saw.</p>\n                    <img src=\"bees-with-color/bee-A1DM.svg\" width=\"200\">\n                    <p><span class=\"greenText\"><b>Successful harvest!</b></span><br>Your pay has increased by $0.02. Your bonus pay is now $0.90.</p>\n            ","response":0,"trial_type":"html-button-response","trial_index":86,"time_elapsed":2221620,"internal_node_id":"0.0-4.0-1.37","subject_id":"61605d3e3fe0e585cda49dc9","study_id":"6197b3f67c2b5cd3b6d9596a","session_id":"6197b583f7c9e83b8cbfae20","condition":"full-information","relevant_dimensions":["wings","pattern"],"bee_group":{"antennae":"X","wings":"1","pattern":"S","legs":"X"},"bonus":1.620000000000001},{"rt":18130.000000000233,"stimulus":"bees-with-color/bee-A1SM.svg","response":1,"trial_type":"image-button-response","trial_index":87,"time_elapsed":2239753,"internal_node_id":"0.0-4.0-0.38","subject_id":"61605d3e3fe0e585cda49dc9","study_id":"6197b3f67c2b5cd3b6d9596a","session_id":"6197b583f7c9e83b8cbfae20","condition":"full-information","relevant_dimensions":["wings","pattern"],"bee_group":{"antennae":"X","wings":"1","pattern":"S","legs":"X"},"action":"avoid","summary":"good-avoid","bonus":1.620000000000001},{"rt":937,"stimulus":"\n                    <p><b>Action: <em>avoid</em></b></p>\n                    <p>This is the bee that you just saw.</p>\n                    <img src=\"bees-with-color/bee-A1SM.svg\" width=\"200\">\n                    <p><span class=\"greenText\">Good choice!</span>  This bee would have stung you.<br>Your bonus pay is unchanged, and remains at $0.90.</p>\n            ","response":0,"trial_type":"html-button-response","trial_index":88,"time_elapsed":2240691,"internal_node_id":"0.0-4.0-1.38","subject_id":"61605d3e3fe0e585cda49dc9","study_id":"6197b3f67c2b5cd3b6d9596a","session_id":"6197b583f7c9e83b8cbfae20","condition":"full-information","relevant_dimensions":["wings","pattern"],"bee_group":{"antennae":"X","wings":"1","pattern":"S","legs":"X"},"bonus":1.620000000000001},{"rt":1339,"stimulus":"bees-with-color/bee-B2SM.svg","response":0,"trial_type":"image-button-response","trial_index":89,"time_elapsed":2242033,"internal_node_id":"0.0-4.0-0.39","subject_id":"61605d3e3fe0e585cda49dc9","study_id":"6197b3f67c2b5cd3b6d9596a","session_id":"6197b583f7c9e83b8cbfae20","condition":"full-information","relevant_dimensions":["wings","pattern"],"bee_group":{"antennae":"X","wings":"1","pattern":"S","legs":"X"},"action":"harvest","summary":"good-harvest","bonus":1.620000000000001},{"rt":864,"stimulus":"\n                    <p><b>Action: <em>harvest</em></b></p>\n                    <p>This is the bee that you just saw.</p>\n                    <img src=\"bees-with-color/bee-B2SM.svg\" width=\"200\">\n                    <p><span class=\"greenText\"><b>Successful harvest!</b></span><br>Your pay has increased by $0.02. Your bonus pay is now $0.92.</p>\n            ","response":0,"trial_type":"html-button-response","trial_index":90,"time_elapsed":2242899,"internal_node_id":"0.0-4.0-1.39","subject_id":"61605d3e3fe0e585cda49dc9","study_id":"6197b3f67c2b5cd3b6d9596a","session_id":"6197b583f7c9e83b8cbfae20","condition":"full-information","relevant_dimensions":["wings","pattern"],"bee_group":{"antennae":"X","wings":"1","pattern":"S","legs":"X"},"bonus":1.620000000000001},{"rt":1290,"stimulus":"bees-with-color/bee-B2DM.svg","response":0,"trial_type":"image-button-response","trial_index":91,"time_elapsed":2244191,"internal_node_id":"0.0-4.0-0.40","subject_id":"61605d3e3fe0e585cda49dc9","study_id":"6197b3f67c2b5cd3b6d9596a","session_id":"6197b583f7c9e83b8cbfae20","condition":"full-information","relevant_dimensions":["wings","pattern"],"bee_group":{"antennae":"X","wings":"1","pattern":"S","legs":"X"},"action":"harvest","summary":"good-harvest","bonus":1.620000000000001},{"rt":855,"stimulus":"\n                    <p><b>Action: <em>harvest</em></b></p>\n                    <p>This is the bee that you just saw.</p>\n                    <img src=\"bees-with-color/bee-B2DM.svg\" width=\"200\">\n                    <p><span class=\"greenText\"><b>Successful harvest!</b></span><br>Your pay has increased by $0.02. Your bonus pay is now $0.94.</p>\n            ","response":0,"trial_type":"html-button-response","trial_index":92,"time_elapsed":2245050,"internal_node_id":"0.0-4.0-1.40","subject_id":"61605d3e3fe0e585cda49dc9","study_id":"6197b3f67c2b5cd3b6d9596a","session_id":"6197b583f7c9e83b8cbfae20","condition":"full-information","relevant_dimensions":["wings","pattern"],"bee_group":{"antennae":"X","wings":"1","pattern":"S","legs":"X"},"bonus":1.620000000000001},{"rt":977,"stimulus":"bees-with-color/bee-A2DF.svg","response":0,"trial_type":"image-button-response","trial_index":93,"time_elapsed":2246028,"internal_node_id":"0.0-4.0-0.41","subject_id":"61605d3e3fe0e585cda49dc9","study_id":"6197b3f67c2b5cd3b6d9596a","session_id":"6197b583f7c9e83b8cbfae20","condition":"full-information","relevant_dimensions":["wings","pattern"],"bee_group":{"antennae":"X","wings":"1","pattern":"S","legs":"X"},"action":"harvest","summary":"good-harvest","bonus":1.620000000000001},{"rt":907,"stimulus":"\n                    <p><b>Action: <em>harvest</em></b></p>\n                    <p>This is the bee that you just saw.</p>\n                    <img src=\"bees-with-color/bee-A2DF.svg\" width=\"200\">\n                    <p><span class=\"greenText\"><b>Successful harvest!</b></span><br>Your pay has increased by $0.02. Your bonus pay is now $0.96.</p>\n            ","response":0,"trial_type":"html-button-response","trial_index":94,"time_elapsed":2246938,"internal_node_id":"0.0-4.0-1.41","subject_id":"61605d3e3fe0e585cda49dc9","study_id":"6197b3f67c2b5cd3b6d9596a","session_id":"6197b583f7c9e83b8cbfae20","condition":"full-information","relevant_dimensions":["wings","pattern"],"bee_group":{"antennae":"X","wings":"1","pattern":"S","legs":"X"},"bonus":1.620000000000001},{"rt":840,"stimulus":"bees-with-color/bee-A2DM.svg","response":0,"trial_type":"image-button-response","trial_index":95,"time_elapsed":2247778,"internal_node_id":"0.0-4.0-0.42","subject_id":"61605d3e3fe0e585cda49dc9","study_id":"6197b3f67c2b5cd3b6d9596a","session_id":"6197b583f7c9e83b8cbfae20","condition":"full-information","relevant_dimensions":["wings","pattern"],"bee_group":{"antennae":"X","wings":"1","pattern":"S","legs":"X"},"action":"harvest","summary":"good-harvest","bonus":1.620000000000001},{"rt":1159,"stimulus":"\n                    <p><b>Action: <em>harvest</em></b></p>\n                    <p>This is the bee that you just saw.</p>\n                    <img src=\"bees-with-color/bee-A2DM.svg\" width=\"200\">\n                    <p><span class=\"greenText\"><b>Successful harvest!</b></span><br>Your pay has increased by $0.02. Your bonus pay is now $0.98.</p>\n            ","response":0,"trial_type":"html-button-response","trial_index":96,"time_elapsed":2248941,"internal_node_id":"0.0-4.0-1.42","subject_id":"61605d3e3fe0e585cda49dc9","study_id":"6197b3f67c2b5cd3b6d9596a","session_id":"6197b583f7c9e83b8cbfae20","condition":"full-information","relevant_dimensions":["wings","pattern"],"bee_group":{"antennae":"X","wings":"1","pattern":"S","legs":"X"},"bonus":1.620000000000001},{"rt":17536,"stimulus":"bees-with-color/bee-B1SM.svg","response":1,"trial_type":"image-button-response","trial_index":97,"time_elapsed":2266479,"internal_node_id":"0.0-4.0-0.43","subject_id":"61605d3e3fe0e585cda49dc9","study_id":"6197b3f67c2b5cd3b6d9596a","session_id":"6197b583f7c9e83b8cbfae20","condition":"full-information","relevant_dimensions":["wings","pattern"],"bee_group":{"antennae":"X","wings":"1","pattern":"S","legs":"X"},"action":"avoid","summary":"good-avoid","bonus":1.620000000000001},{"rt":1239.9999999997672,"stimulus":"\n                    <p><b>Action: <em>avoid</em></b></p>\n                    <p>This is the bee that you just saw.</p>\n                    <img src=\"bees-with-color/bee-B1SM.svg\" width=\"200\">\n                    <p><span class=\"greenText\">Good choice!</span>  This bee would have stung you.<br>Your bonus pay is unchanged, and remains at $0.98.</p>\n            ","response":0,"trial_type":"html-button-response","trial_index":98,"time_elapsed":2267723,"internal_node_id":"0.0-4.0-1.43","subject_id":"61605d3e3fe0e585cda49dc9","study_id":"6197b3f67c2b5cd3b6d9596a","session_id":"6197b583f7c9e83b8cbfae20","condition":"full-information","relevant_dimensions":["wings","pattern"],"bee_group":{"antennae":"X","wings":"1","pattern":"S","legs":"X"},"bonus":1.620000000000001},{"rt":10778,"stimulus":"bees-with-color/bee-A1DF.svg","response":0,"trial_type":"image-button-response","trial_index":99,"time_elapsed":2278504,"internal_node_id":"0.0-4.0-0.44","subject_id":"61605d3e3fe0e585cda49dc9","study_id":"6197b3f67c2b5cd3b6d9596a","session_id":"6197b583f7c9e83b8cbfae20","condition":"full-information","relevant_dimensions":["wings","pattern"],"bee_group":{"antennae":"X","wings":"1","pattern":"S","legs":"X"},"action":"harvest","summary":"good-harvest","bonus":1.620000000000001},{"rt":909,"stimulus":"\n                    <p><b>Action: <em>harvest</em></b></p>\n                    <p>This is the bee that you just saw.</p>\n                    <img src=\"bees-with-color/bee-A1DF.svg\" width=\"200\">\n                    <p><span class=\"greenText\"><b>Successful harvest!</b></span><br>Your pay has increased by $0.02. Your bonus pay is now $1.00.</p>\n            ","response":0,"trial_type":"html-button-response","trial_index":100,"time_elapsed":2279415,"internal_node_id":"0.0-4.0-1.44","subject_id":"61605d3e3fe0e585cda49dc9","study_id":"6197b3f67c2b5cd3b6d9596a","session_id":"6197b583f7c9e83b8cbfae20","condition":"full-information","relevant_dimensions":["wings","pattern"],"bee_group":{"antennae":"X","wings":"1","pattern":"S","legs":"X"},"bonus":1.620000000000001},{"rt":1427,"stimulus":"bees-with-color/bee-A2SF.svg","response":0,"trial_type":"image-button-response","trial_index":101,"time_elapsed":2280844,"internal_node_id":"0.0-4.0-0.45","subject_id":"61605d3e3fe0e585cda49dc9","study_id":"6197b3f67c2b5cd3b6d9596a","session_id":"6197b583f7c9e83b8cbfae20","condition":"full-information","relevant_dimensions":["wings","pattern"],"bee_group":{"antennae":"X","wings":"1","pattern":"S","legs":"X"},"action":"harvest","summary":"good-harvest","bonus":1.620000000000001},{"rt":811,"stimulus":"\n                    <p><b>Action: <em>harvest</em></b></p>\n                    <p>This is the bee that you just saw.</p>\n                    <img src=\"bees-with-color/bee-A2SF.svg\" width=\"200\">\n                    <p><span class=\"greenText\"><b>Successful harvest!</b></span><br>Your pay has increased by $0.02. Your bonus pay is now $1.02.</p>\n            ","response":0,"trial_type":"html-button-response","trial_index":102,"time_elapsed":2281659,"internal_node_id":"0.0-4.0-1.45","subject_id":"61605d3e3fe0e585cda49dc9","study_id":"6197b3f67c2b5cd3b6d9596a","session_id":"6197b583f7c9e83b8cbfae20","condition":"full-information","relevant_dimensions":["wings","pattern"],"bee_group":{"antennae":"X","wings":"1","pattern":"S","legs":"X"},"bonus":1.620000000000001},{"rt":14283.000000000233,"stimulus":"bees-with-color/bee-B1DF.svg","response":0,"trial_type":"image-button-response","trial_index":103,"time_elapsed":2295946,"internal_node_id":"0.0-4.0-0.46","subject_id":"61605d3e3fe0e585cda49dc9","study_id":"6197b3f67c2b5cd3b6d9596a","session_id":"6197b583f7c9e83b8cbfae20","condition":"full-information","relevant_dimensions":["wings","pattern"],"bee_group":{"antennae":"X","wings":"1","pattern":"S","legs":"X"},"action":"harvest","summary":"good-harvest","bonus":1.620000000000001},{"rt":960,"stimulus":"\n                    <p><b>Action: <em>harvest</em></b></p>\n                    <p>This is the bee that you just saw.</p>\n                    <img src=\"bees-with-color/bee-B1DF.svg\" width=\"200\">\n                    <p><span class=\"greenText\"><b>Successful harvest!</b></span><br>Your pay has increased by $0.02. Your bonus pay is now $1.04.</p>\n            ","response":0,"trial_type":"html-button-response","trial_index":104,"time_elapsed":2296910,"internal_node_id":"0.0-4.0-1.46","subject_id":"61605d3e3fe0e585cda49dc9","study_id":"6197b3f67c2b5cd3b6d9596a","session_id":"6197b583f7c9e83b8cbfae20","condition":"full-information","relevant_dimensions":["wings","pattern"],"bee_group":{"antennae":"X","wings":"1","pattern":"S","legs":"X"},"bonus":1.620000000000001},{"rt":19558,"stimulus":"bees-with-color/bee-B1SF.svg","response":1,"trial_type":"image-button-response","trial_index":105,"time_elapsed":2316471,"internal_node_id":"0.0-4.0-0.47","subject_id":"61605d3e3fe0e585cda49dc9","study_id":"6197b3f67c2b5cd3b6d9596a","session_id":"6197b583f7c9e83b8cbfae20","condition":"full-information","relevant_dimensions":["wings","pattern"],"bee_group":{"antennae":"X","wings":"1","pattern":"S","legs":"X"},"action":"avoid","summary":"good-avoid","bonus":1.620000000000001},{"rt":2183,"stimulus":"\n                    <p><b>Action: <em>avoid</em></b></p>\n                    <p>This is the bee that you just saw.</p>\n                    <img src=\"bees-with-color/bee-B1SF.svg\" width=\"200\">\n                    <p><span class=\"greenText\">Good choice!</span>  This bee would have stung you.<br>Your bonus pay is unchanged, and remains at $1.04.</p>\n            ","response":0,"trial_type":"html-button-response","trial_index":106,"time_elapsed":2318656,"internal_node_id":"0.0-4.0-1.47","subject_id":"61605d3e3fe0e585cda49dc9","study_id":"6197b3f67c2b5cd3b6d9596a","session_id":"6197b583f7c9e83b8cbfae20","condition":"full-information","relevant_dimensions":["wings","pattern"],"bee_group":{"antennae":"X","wings":"1","pattern":"S","legs":"X"},"bonus":1.620000000000001},{"rt":1484,"stimulus":"bees-with-color/bee-B2SM.svg","response":0,"trial_type":"image-button-response","trial_index":107,"time_elapsed":2320144,"internal_node_id":"0.0-4.0-0.48","subject_id":"61605d3e3fe0e585cda49dc9","study_id":"6197b3f67c2b5cd3b6d9596a","session_id":"6197b583f7c9e83b8cbfae20","condition":"full-information","relevant_dimensions":["wings","pattern"],"bee_group":{"antennae":"X","wings":"1","pattern":"S","legs":"X"},"action":"harvest","summary":"good-harvest","bonus":1.620000000000001},{"rt":762,"stimulus":"\n                    <p><b>Action: <em>harvest</em></b></p>\n                    <p>This is the bee that you just saw.</p>\n                    <img src=\"bees-with-color/bee-B2SM.svg\" width=\"200\">\n                    <p><span class=\"greenText\"><b>Successful harvest!</b></span><br>Your pay has increased by $0.02. Your bonus pay is now $1.06.</p>\n            ","response":0,"trial_type":"html-button-response","trial_index":108,"time_elapsed":2320909,"internal_node_id":"0.0-4.0-1.48","subject_id":"61605d3e3fe0e585cda49dc9","study_id":"6197b3f67c2b5cd3b6d9596a","session_id":"6197b583f7c9e83b8cbfae20","condition":"full-information","relevant_dimensions":["wings","pattern"],"bee_group":{"antennae":"X","wings":"1","pattern":"S","legs":"X"},"bonus":1.620000000000001},{"rt":1156,"stimulus":"bees-with-color/bee-B2DF.svg","response":0,"trial_type":"image-button-response","trial_index":109,"time_elapsed":2322068,"internal_node_id":"0.0-4.0-0.49","subject_id":"61605d3e3fe0e585cda49dc9","study_id":"6197b3f67c2b5cd3b6d9596a","session_id":"6197b583f7c9e83b8cbfae20","condition":"full-information","relevant_dimensions":["wings","pattern"],"bee_group":{"antennae":"X","wings":"1","pattern":"S","legs":"X"},"action":"harvest","summary":"good-harvest","bonus":1.620000000000001},{"rt":935.9999999997672,"stimulus":"\n                    <p><b>Action: <em>harvest</em></b></p>\n                    <p>This is the bee that you just saw.</p>\n                    <img src=\"bees-with-color/bee-B2DF.svg\" width=\"200\">\n                    <p><span class=\"greenText\"><b>Successful harvest!</b></span><br>Your pay has increased by $0.02. Your bonus pay is now $1.08.</p>\n            ","response":0,"trial_type":"html-button-response","trial_index":110,"time_elapsed":2323007,"internal_node_id":"0.0-4.0-1.49","subject_id":"61605d3e3fe0e585cda49dc9","study_id":"6197b3f67c2b5cd3b6d9596a","session_id":"6197b583f7c9e83b8cbfae20","condition":"full-information","relevant_dimensions":["wings","pattern"],"bee_group":{"antennae":"X","wings":"1","pattern":"S","legs":"X"},"bonus":1.620000000000001},{"rt":13400,"stimulus":"bees-with-color/bee-B1SM.svg","response":0,"trial_type":"image-button-response","trial_index":111,"time_elapsed":2336411,"internal_node_id":"0.0-4.0-0.50","subject_id":"61605d3e3fe0e585cda49dc9","study_id":"6197b3f67c2b5cd3b6d9596a","session_id":"6197b583f7c9e83b8cbfae20","condition":"full-information","relevant_dimensions":["wings","pattern"],"bee_group":{"antennae":"X","wings":"1","pattern":"S","legs":"X"},"action":"harvest","summary":"bad-harvest","bonus":1.620000000000001},{"rt":4770,"stimulus":"\n                    <p><b>Action: <em>harvest</em></b></p>\n                    <p>This is the bee that you just saw.</p>\n                    <img src=\"bees-with-color/bee-B1SM.svg\" width=\"200\">\n                    <p><span class=\"redText\">Bad choice, the bee was angry.</span><br><b>You have been stung!</b><br>Your pay has been decreased by $0.10. Your bonus pay is now $0.98.</p>\n            ","response":0,"trial_type":"html-button-response","trial_index":112,"time_elapsed":2341183,"internal_node_id":"0.0-4.0-1.50","subject_id":"61605d3e3fe0e585cda49dc9","study_id":"6197b3f67c2b5cd3b6d9596a","session_id":"6197b583f7c9e83b8cbfae20","condition":"full-information","relevant_dimensions":["wings","pattern"],"bee_group":{"antennae":"X","wings":"1","pattern":"S","legs":"X"},"bonus":1.620000000000001},{"rt":10714,"stimulus":"bees-with-color/bee-A1DF.svg","response":0,"trial_type":"image-button-response","trial_index":113,"time_elapsed":2351901,"internal_node_id":"0.0-4.0-0.51","subject_id":"61605d3e3fe0e585cda49dc9","study_id":"6197b3f67c2b5cd3b6d9596a","session_id":"6197b583f7c9e83b8cbfae20","condition":"full-information","relevant_dimensions":["wings","pattern"],"bee_group":{"antennae":"X","wings":"1","pattern":"S","legs":"X"},"action":"harvest","summary":"good-harvest","bonus":1.620000000000001},{"rt":1084,"stimulus":"\n                    <p><b>Action: <em>harvest</em></b></p>\n                    <p>This is the bee that you just saw.</p>\n                    <img src=\"bees-with-color/bee-A1DF.svg\" width=\"200\">\n                    <p><span class=\"greenText\"><b>Successful harvest!</b></span><br>Your pay has increased by $0.02. Your bonus pay is now $1.00.</p>\n            ","response":0,"trial_type":"html-button-response","trial_index":114,"time_elapsed":2352989,"internal_node_id":"0.0-4.0-1.51","subject_id":"61605d3e3fe0e585cda49dc9","study_id":"6197b3f67c2b5cd3b6d9596a","session_id":"6197b583f7c9e83b8cbfae20","condition":"full-information","relevant_dimensions":["wings","pattern"],"bee_group":{"antennae":"X","wings":"1","pattern":"S","legs":"X"},"bonus":1.620000000000001},{"rt":34211,"stimulus":"bees-with-color/bee-B1DM.svg","response":0,"trial_type":"image-button-response","trial_index":115,"time_elapsed":2387204,"internal_node_id":"0.0-4.0-0.52","subject_id":"61605d3e3fe0e585cda49dc9","study_id":"6197b3f67c2b5cd3b6d9596a","session_id":"6197b583f7c9e83b8cbfae20","condition":"full-information","relevant_dimensions":["wings","pattern"],"bee_group":{"antennae":"X","wings":"1","pattern":"S","legs":"X"},"action":"harvest","summary":"good-harvest","bonus":1.620000000000001},{"rt":1004,"stimulus":"\n                    <p><b>Action: <em>harvest</em></b></p>\n                    <p>This is the bee that you just saw.</p>\n                    <img src=\"bees-with-color/bee-B1DM.svg\" width=\"200\">\n                    <p><span class=\"greenText\"><b>Successful harvest!</b></span><br>Your pay has increased by $0.02. Your bonus pay is now $1.02.</p>\n            ","response":0,"trial_type":"html-button-response","trial_index":116,"time_elapsed":2388211,"internal_node_id":"0.0-4.0-1.52","subject_id":"61605d3e3fe0e585cda49dc9","study_id":"6197b3f67c2b5cd3b6d9596a","session_id":"6197b583f7c9e83b8cbfae20","condition":"full-information","relevant_dimensions":["wings","pattern"],"bee_group":{"antennae":"X","wings":"1","pattern":"S","legs":"X"},"bonus":1.620000000000001},{"rt":17895,"stimulus":"bees-with-color/bee-A1SF.svg","response":1,"trial_type":"image-button-response","trial_index":117,"time_elapsed":2406110,"internal_node_id":"0.0-4.0-0.53","subject_id":"61605d3e3fe0e585cda49dc9","study_id":"6197b3f67c2b5cd3b6d9596a","session_id":"6197b583f7c9e83b8cbfae20","condition":"full-information","relevant_dimensions":["wings","pattern"],"bee_group":{"antennae":"X","wings":"1","pattern":"S","legs":"X"},"action":"avoid","summary":"good-avoid","bonus":1.620000000000001},{"rt":1121,"stimulus":"\n                    <p><b>Action: <em>avoid</em></b></p>\n                    <p>This is the bee that you just saw.</p>\n                    <img src=\"bees-with-color/bee-A1SF.svg\" width=\"200\">\n                    <p><span class=\"greenText\">Good choice!</span>  This bee would have stung you.<br>Your bonus pay is unchanged, and remains at $1.02.</p>\n            ","response":0,"trial_type":"html-button-response","trial_index":118,"time_elapsed":2407232,"internal_node_id":"0.0-4.0-1.53","subject_id":"61605d3e3fe0e585cda49dc9","study_id":"6197b3f67c2b5cd3b6d9596a","session_id":"6197b583f7c9e83b8cbfae20","condition":"full-information","relevant_dimensions":["wings","pattern"],"bee_group":{"antennae":"X","wings":"1","pattern":"S","legs":"X"},"bonus":1.620000000000001},{"rt":1993.9999999997672,"stimulus":"bees-with-color/bee-B2DM.svg","response":0,"trial_type":"image-button-response","trial_index":119,"time_elapsed":2409230,"internal_node_id":"0.0-4.0-0.54","subject_id":"61605d3e3fe0e585cda49dc9","study_id":"6197b3f67c2b5cd3b6d9596a","session_id":"6197b583f7c9e83b8cbfae20","condition":"full-information","relevant_dimensions":["wings","pattern"],"bee_group":{"antennae":"X","wings":"1","pattern":"S","legs":"X"},"action":"harvest","summary":"good-harvest","bonus":1.620000000000001},{"rt":719,"stimulus":"\n                    <p><b>Action: <em>harvest</em></b></p>\n                    <p>This is the bee that you just saw.</p>\n                    <img src=\"bees-with-color/bee-B2DM.svg\" width=\"200\">\n                    <p><span class=\"greenText\"><b>Successful harvest!</b></span><br>Your pay has increased by $0.02. Your bonus pay is now $1.04.</p>\n            ","response":0,"trial_type":"html-button-response","trial_index":120,"time_elapsed":2409952,"internal_node_id":"0.0-4.0-1.54","subject_id":"61605d3e3fe0e585cda49dc9","study_id":"6197b3f67c2b5cd3b6d9596a","session_id":"6197b583f7c9e83b8cbfae20","condition":"full-information","relevant_dimensions":["wings","pattern"],"bee_group":{"antennae":"X","wings":"1","pattern":"S","legs":"X"},"bonus":1.620000000000001},{"rt":787,"stimulus":"bees-with-color/bee-A2SF.svg","response":0,"trial_type":"image-button-response","trial_index":121,"time_elapsed":2410741,"internal_node_id":"0.0-4.0-0.55","subject_id":"61605d3e3fe0e585cda49dc9","study_id":"6197b3f67c2b5cd3b6d9596a","session_id":"6197b583f7c9e83b8cbfae20","condition":"full-information","relevant_dimensions":["wings","pattern"],"bee_group":{"antennae":"X","wings":"1","pattern":"S","legs":"X"},"action":"harvest","summary":"good-harvest","bonus":1.620000000000001},{"rt":651,"stimulus":"\n                    <p><b>Action: <em>harvest</em></b></p>\n                    <p>This is the bee that you just saw.</p>\n                    <img src=\"bees-with-color/bee-A2SF.svg\" width=\"200\">\n                    <p><span class=\"greenText\"><b>Successful harvest!</b></span><br>Your pay has increased by $0.02. Your bonus pay is now $1.06.</p>\n            ","response":0,"trial_type":"html-button-response","trial_index":122,"time_elapsed":2411397,"internal_node_id":"0.0-4.0-1.55","subject_id":"61605d3e3fe0e585cda49dc9","study_id":"6197b3f67c2b5cd3b6d9596a","session_id":"6197b583f7c9e83b8cbfae20","condition":"full-information","relevant_dimensions":["wings","pattern"],"bee_group":{"antennae":"X","wings":"1","pattern":"S","legs":"X"},"bonus":1.620000000000001},{"rt":1366.0000000002328,"stimulus":"bees-with-color/bee-B2SF.svg","response":0,"trial_type":"image-button-response","trial_index":123,"time_elapsed":2412765,"internal_node_id":"0.0-4.0-0.56","subject_id":"61605d3e3fe0e585cda49dc9","study_id":"6197b3f67c2b5cd3b6d9596a","session_id":"6197b583f7c9e83b8cbfae20","condition":"full-information","relevant_dimensions":["wings","pattern"],"bee_group":{"antennae":"X","wings":"1","pattern":"S","legs":"X"},"action":"harvest","summary":"good-harvest","bonus":1.620000000000001},{"rt":840,"stimulus":"\n                    <p><b>Action: <em>harvest</em></b></p>\n                    <p>This is the bee that you just saw.</p>\n                    <img src=\"bees-with-color/bee-B2SF.svg\" width=\"200\">\n                    <p><span class=\"greenText\"><b>Successful harvest!</b></span><br>Your pay has increased by $0.02. Your bonus pay is now $1.08.</p>\n            ","response":0,"trial_type":"html-button-response","trial_index":124,"time_elapsed":2413607,"internal_node_id":"0.0-4.0-1.56","subject_id":"61605d3e3fe0e585cda49dc9","study_id":"6197b3f67c2b5cd3b6d9596a","session_id":"6197b583f7c9e83b8cbfae20","condition":"full-information","relevant_dimensions":["wings","pattern"],"bee_group":{"antennae":"X","wings":"1","pattern":"S","legs":"X"},"bonus":1.620000000000001},{"rt":790.9999999997672,"stimulus":"bees-with-color/bee-A2DF.svg","response":0,"trial_type":"image-button-response","trial_index":125,"time_elapsed":2414401,"internal_node_id":"0.0-4.0-0.57","subject_id":"61605d3e3fe0e585cda49dc9","study_id":"6197b3f67c2b5cd3b6d9596a","session_id":"6197b583f7c9e83b8cbfae20","condition":"full-information","relevant_dimensions":["wings","pattern"],"bee_group":{"antennae":"X","wings":"1","pattern":"S","legs":"X"},"action":"harvest","summary":"good-harvest","bonus":1.620000000000001},{"rt":702,"stimulus":"\n                    <p><b>Action: <em>harvest</em></b></p>\n                    <p>This is the bee that you just saw.</p>\n                    <img src=\"bees-with-color/bee-A2DF.svg\" width=\"200\">\n                    <p><span class=\"greenText\"><b>Successful harvest!</b></span><br>Your pay has increased by $0.02. Your bonus pay is now $1.10.</p>\n            ","response":0,"trial_type":"html-button-response","trial_index":126,"time_elapsed":2415105,"internal_node_id":"0.0-4.0-1.57","subject_id":"61605d3e3fe0e585cda49dc9","study_id":"6197b3f67c2b5cd3b6d9596a","session_id":"6197b583f7c9e83b8cbfae20","condition":"full-information","relevant_dimensions":["wings","pattern"],"bee_group":{"antennae":"X","wings":"1","pattern":"S","legs":"X"},"bonus":1.620000000000001},{"rt":16842,"stimulus":"bees-with-color/bee-A1DM.svg","response":0,"trial_type":"image-button-response","trial_index":127,"time_elapsed":2431950,"internal_node_id":"0.0-4.0-0.58","subject_id":"61605d3e3fe0e585cda49dc9","study_id":"6197b3f67c2b5cd3b6d9596a","session_id":"6197b583f7c9e83b8cbfae20","condition":"full-information","relevant_dimensions":["wings","pattern"],"bee_group":{"antennae":"X","wings":"1","pattern":"S","legs":"X"},"action":"harvest","summary":"good-harvest","bonus":1.620000000000001},{"rt":772,"stimulus":"\n                    <p><b>Action: <em>harvest</em></b></p>\n                    <p>This is the bee that you just saw.</p>\n                    <img src=\"bees-with-color/bee-A1DM.svg\" width=\"200\">\n                    <p><span class=\"greenText\"><b>Successful harvest!</b></span><br>Your pay has increased by $0.02. Your bonus pay is now $1.12.</p>\n            ","response":0,"trial_type":"html-button-response","trial_index":128,"time_elapsed":2432725,"internal_node_id":"0.0-4.0-1.58","subject_id":"61605d3e3fe0e585cda49dc9","study_id":"6197b3f67c2b5cd3b6d9596a","session_id":"6197b583f7c9e83b8cbfae20","condition":"full-information","relevant_dimensions":["wings","pattern"],"bee_group":{"antennae":"X","wings":"1","pattern":"S","legs":"X"},"bonus":1.620000000000001},{"rt":20442,"stimulus":"bees-with-color/bee-A1SM.svg","response":1,"trial_type":"image-button-response","trial_index":129,"time_elapsed":2453169,"internal_node_id":"0.0-4.0-0.59","subject_id":"61605d3e3fe0e585cda49dc9","study_id":"6197b3f67c2b5cd3b6d9596a","session_id":"6197b583f7c9e83b8cbfae20","condition":"full-information","relevant_dimensions":["wings","pattern"],"bee_group":{"antennae":"X","wings":"1","pattern":"S","legs":"X"},"action":"avoid","summary":"good-avoid","bonus":1.620000000000001},{"rt":983,"stimulus":"\n                    <p><b>Action: <em>avoid</em></b></p>\n                    <p>This is the bee that you just saw.</p>\n                    <img src=\"bees-with-color/bee-A1SM.svg\" width=\"200\">\n                    <p><span class=\"greenText\">Good choice!</span>  This bee would have stung you.<br>Your bonus pay is unchanged, and remains at $1.12.</p>\n            ","response":0,"trial_type":"html-button-response","trial_index":130,"time_elapsed":2454155,"internal_node_id":"0.0-4.0-1.59","subject_id":"61605d3e3fe0e585cda49dc9","study_id":"6197b3f67c2b5cd3b6d9596a","session_id":"6197b583f7c9e83b8cbfae20","condition":"full-information","relevant_dimensions":["wings","pattern"],"bee_group":{"antennae":"X","wings":"1","pattern":"S","legs":"X"},"bonus":1.620000000000001},{"rt":10362,"stimulus":"bees-with-color/bee-B1DF.svg","response":0,"trial_type":"image-button-response","trial_index":131,"time_elapsed":2464520,"internal_node_id":"0.0-4.0-0.60","subject_id":"61605d3e3fe0e585cda49dc9","study_id":"6197b3f67c2b5cd3b6d9596a","session_id":"6197b583f7c9e83b8cbfae20","condition":"full-information","relevant_dimensions":["wings","pattern"],"bee_group":{"antennae":"X","wings":"1","pattern":"S","legs":"X"},"action":"harvest","summary":"good-harvest","bonus":1.620000000000001},{"rt":1025,"stimulus":"\n                    <p><b>Action: <em>harvest</em></b></p>\n                    <p>This is the bee that you just saw.</p>\n                    <img src=\"bees-with-color/bee-B1DF.svg\" width=\"200\">\n                    <p><span class=\"greenText\"><b>Successful harvest!</b></span><br>Your pay has increased by $0.02. Your bonus pay is now $1.14.</p>\n            ","response":0,"trial_type":"html-button-response","trial_index":132,"time_elapsed":2465547,"internal_node_id":"0.0-4.0-1.60","subject_id":"61605d3e3fe0e585cda49dc9","study_id":"6197b3f67c2b5cd3b6d9596a","session_id":"6197b583f7c9e83b8cbfae20","condition":"full-information","relevant_dimensions":["wings","pattern"],"bee_group":{"antennae":"X","wings":"1","pattern":"S","legs":"X"},"bonus":1.620000000000001},{"rt":1579,"stimulus":"bees-with-color/bee-A2DM.svg","response":0,"trial_type":"image-button-response","trial_index":133,"time_elapsed":2467128,"internal_node_id":"0.0-4.0-0.61","subject_id":"61605d3e3fe0e585cda49dc9","study_id":"6197b3f67c2b5cd3b6d9596a","session_id":"6197b583f7c9e83b8cbfae20","condition":"full-information","relevant_dimensions":["wings","pattern"],"bee_group":{"antennae":"X","wings":"1","pattern":"S","legs":"X"},"action":"harvest","summary":"good-harvest","bonus":1.620000000000001},{"rt":1124,"stimulus":"\n                    <p><b>Action: <em>harvest</em></b></p>\n                    <p>This is the bee that you just saw.</p>\n                    <img src=\"bees-with-color/bee-A2DM.svg\" width=\"200\">\n                    <p><span class=\"greenText\"><b>Successful harvest!</b></span><br>Your pay has increased by $0.02. Your bonus pay is now $1.16.</p>\n            ","response":0,"trial_type":"html-button-response","trial_index":134,"time_elapsed":2468253,"internal_node_id":"0.0-4.0-1.61","subject_id":"61605d3e3fe0e585cda49dc9","study_id":"6197b3f67c2b5cd3b6d9596a","session_id":"6197b583f7c9e83b8cbfae20","condition":"full-information","relevant_dimensions":["wings","pattern"],"bee_group":{"antennae":"X","wings":"1","pattern":"S","legs":"X"},"bonus":1.620000000000001},{"rt":12234,"stimulus":"bees-with-color/bee-B1SF.svg","response":1,"trial_type":"image-button-response","trial_index":135,"time_elapsed":2480488,"internal_node_id":"0.0-4.0-0.62","subject_id":"61605d3e3fe0e585cda49dc9","study_id":"6197b3f67c2b5cd3b6d9596a","session_id":"6197b583f7c9e83b8cbfae20","condition":"full-information","relevant_dimensions":["wings","pattern"],"bee_group":{"antennae":"X","wings":"1","pattern":"S","legs":"X"},"action":"avoid","summary":"good-avoid","bonus":1.620000000000001},{"rt":1365,"stimulus":"\n                    <p><b>Action: <em>avoid</em></b></p>\n                    <p>This is the bee that you just saw.</p>\n                    <img src=\"bees-with-color/bee-B1SF.svg\" width=\"200\">\n                    <p><span class=\"greenText\">Good choice!</span>  This bee would have stung you.<br>Your bonus pay is unchanged, and remains at $1.16.</p>\n            ","response":0,"trial_type":"html-button-response","trial_index":136,"time_elapsed":2481855,"internal_node_id":"0.0-4.0-1.62","subject_id":"61605d3e3fe0e585cda49dc9","study_id":"6197b3f67c2b5cd3b6d9596a","session_id":"6197b583f7c9e83b8cbfae20","condition":"full-information","relevant_dimensions":["wings","pattern"],"bee_group":{"antennae":"X","wings":"1","pattern":"S","legs":"X"},"bonus":1.620000000000001},{"rt":1425,"stimulus":"bees-with-color/bee-A2SM.svg","response":0,"trial_type":"image-button-response","trial_index":137,"time_elapsed":2483282,"internal_node_id":"0.0-4.0-0.63","subject_id":"61605d3e3fe0e585cda49dc9","study_id":"6197b3f67c2b5cd3b6d9596a","session_id":"6197b583f7c9e83b8cbfae20","condition":"full-information","relevant_dimensions":["wings","pattern"],"bee_group":{"antennae":"X","wings":"1","pattern":"S","legs":"X"},"action":"harvest","summary":"good-harvest","bonus":1.620000000000001},{"rt":1030.9999999997672,"stimulus":"\n                    <p><b>Action: <em>harvest</em></b></p>\n                    <p>This is the bee that you just saw.</p>\n                    <img src=\"bees-with-color/bee-A2SM.svg\" width=\"200\">\n                    <p><span class=\"greenText\"><b>Successful harvest!</b></span><br>Your pay has increased by $0.02. Your bonus pay is now $1.18.</p>\n            ","response":0,"trial_type":"html-button-response","trial_index":138,"time_elapsed":2484316,"internal_node_id":"0.0-4.0-1.63","subject_id":"61605d3e3fe0e585cda49dc9","study_id":"6197b3f67c2b5cd3b6d9596a","session_id":"6197b583f7c9e83b8cbfae20","condition":"full-information","relevant_dimensions":["wings","pattern"],"bee_group":{"antennae":"X","wings":"1","pattern":"S","legs":"X"},"bonus":1.620000000000001},{"rt":8512,"stimulus":"You have completed the first part of this experiment.<br><br>You will now begin a shorter second part, in which you will receive no feedback.<br>The same rules regarding bonus pay apply.<br><br>Press any key to begin.","response":"k","trial_type":"html-keyboard-response","trial_index":139,"time_elapsed":2492831,"internal_node_id":"0.0-5.0","subject_id":"61605d3e3fe0e585cda49dc9","study_id":"6197b3f67c2b5cd3b6d9596a","session_id":"6197b583f7c9e83b8cbfae20","condition":"full-information","relevant_dimensions":["wings","pattern"],"bee_group":{"antennae":"X","wings":"1","pattern":"S","legs":"X"},"bonus":1.620000000000001},{"rt":5260,"stimulus":"bees-with-color/bee-B1SF.svg","response":1,"trial_type":"image-button-response","trial_index":140,"time_elapsed":2498097,"internal_node_id":"0.0-6.0-0.0","subject_id":"61605d3e3fe0e585cda49dc9","study_id":"6197b3f67c2b5cd3b6d9596a","session_id":"6197b583f7c9e83b8cbfae20","condition":"full-information","relevant_dimensions":["wings","pattern"],"bee_group":{"antennae":"X","wings":"1","pattern":"S","legs":"X"},"bonus":1.620000000000001},{"rt":2722,"stimulus":"bees-with-color/bee-A2DM.svg","response":0,"trial_type":"image-button-response","trial_index":141,"time_elapsed":2500826,"internal_node_id":"0.0-6.0-0.1","subject_id":"61605d3e3fe0e585cda49dc9","study_id":"6197b3f67c2b5cd3b6d9596a","session_id":"6197b583f7c9e83b8cbfae20","condition":"full-information","relevant_dimensions":["wings","pattern"],"bee_group":{"antennae":"X","wings":"1","pattern":"S","legs":"X"},"bonus":1.620000000000001},{"rt":3821,"stimulus":"bees-with-color/bee-A2DF.svg","response":0,"trial_type":"image-button-response","trial_index":142,"time_elapsed":2504652,"internal_node_id":"0.0-6.0-0.2","subject_id":"61605d3e3fe0e585cda49dc9","study_id":"6197b3f67c2b5cd3b6d9596a","session_id":"6197b583f7c9e83b8cbfae20","condition":"full-information","relevant_dimensions":["wings","pattern"],"bee_group":{"antennae":"X","wings":"1","pattern":"S","legs":"X"},"bonus":1.620000000000001},{"rt":985,"stimulus":"bees-with-color/bee-B2SF.svg","response":0,"trial_type":"image-button-response","trial_index":143,"time_elapsed":2505643,"internal_node_id":"0.0-6.0-0.3","subject_id":"61605d3e3fe0e585cda49dc9","study_id":"6197b3f67c2b5cd3b6d9596a","session_id":"6197b583f7c9e83b8cbfae20","condition":"full-information","relevant_dimensions":["wings","pattern"],"bee_group":{"antennae":"X","wings":"1","pattern":"S","legs":"X"},"bonus":1.620000000000001},{"rt":5790.000000000233,"stimulus":"bees-with-color/bee-A1DF.svg","response":0,"trial_type":"image-button-response","trial_index":144,"time_elapsed":2511439,"internal_node_id":"0.0-6.0-0.4","subject_id":"61605d3e3fe0e585cda49dc9","study_id":"6197b3f67c2b5cd3b6d9596a","session_id":"6197b583f7c9e83b8cbfae20","condition":"full-information","relevant_dimensions":["wings","pattern"],"bee_group":{"antennae":"X","wings":"1","pattern":"S","legs":"X"},"bonus":1.620000000000001},{"rt":13460,"stimulus":"bees-with-color/bee-B2DM.svg","response":1,"trial_type":"image-button-response","trial_index":145,"time_elapsed":2524905,"internal_node_id":"0.0-6.0-0.5","subject_id":"61605d3e3fe0e585cda49dc9","study_id":"6197b3f67c2b5cd3b6d9596a","session_id":"6197b583f7c9e83b8cbfae20","condition":"full-information","relevant_dimensions":["wings","pattern"],"bee_group":{"antennae":"X","wings":"1","pattern":"S","legs":"X"},"bonus":1.620000000000001},{"rt":8896.000000000233,"stimulus":"bees-with-color/bee-A1DM.svg","response":0,"trial_type":"image-button-response","trial_index":146,"time_elapsed":2533807,"internal_node_id":"0.0-6.0-0.6","subject_id":"61605d3e3fe0e585cda49dc9","study_id":"6197b3f67c2b5cd3b6d9596a","session_id":"6197b583f7c9e83b8cbfae20","condition":"full-information","relevant_dimensions":["wings","pattern"],"bee_group":{"antennae":"X","wings":"1","pattern":"S","legs":"X"},"bonus":1.620000000000001},{"rt":10700,"stimulus":"bees-with-color/bee-B1SM.svg","response":1,"trial_type":"image-button-response","trial_index":147,"time_elapsed":2544508,"internal_node_id":"0.0-6.0-0.7","subject_id":"61605d3e3fe0e585cda49dc9","study_id":"6197b3f67c2b5cd3b6d9596a","session_id":"6197b583f7c9e83b8cbfae20","condition":"full-information","relevant_dimensions":["wings","pattern"],"bee_group":{"antennae":"X","wings":"1","pattern":"S","legs":"X"},"bonus":1.620000000000001},{"rt":1077,"stimulus":"bees-with-color/bee-A2SM.svg","response":0,"trial_type":"image-button-response","trial_index":148,"time_elapsed":2545590,"internal_node_id":"0.0-6.0-0.8","subject_id":"61605d3e3fe0e585cda49dc9","study_id":"6197b3f67c2b5cd3b6d9596a","session_id":"6197b583f7c9e83b8cbfae20","condition":"full-information","relevant_dimensions":["wings","pattern"],"bee_group":{"antennae":"X","wings":"1","pattern":"S","legs":"X"},"bonus":1.620000000000001},{"rt":14414,"stimulus":"bees-with-color/bee-A1SF.svg","response":1,"trial_type":"image-button-response","trial_index":149,"time_elapsed":2560003,"internal_node_id":"0.0-6.0-0.9","subject_id":"61605d3e3fe0e585cda49dc9","study_id":"6197b3f67c2b5cd3b6d9596a","session_id":"6197b583f7c9e83b8cbfae20","condition":"full-information","relevant_dimensions":["wings","pattern"],"bee_group":{"antennae":"X","wings":"1","pattern":"S","legs":"X"},"bonus":1.620000000000001},{"rt":26960.999999999767,"stimulus":"bees-with-color/bee-A1SM.svg","response":1,"trial_type":"image-button-response","trial_index":150,"time_elapsed":2586968,"internal_node_id":"0.0-6.0-0.10","subject_id":"61605d3e3fe0e585cda49dc9","study_id":"6197b3f67c2b5cd3b6d9596a","session_id":"6197b583f7c9e83b8cbfae20","condition":"full-information","relevant_dimensions":["wings","pattern"],"bee_group":{"antennae":"X","wings":"1","pattern":"S","legs":"X"},"bonus":1.620000000000001},{"rt":1011,"stimulus":"bees-with-color/bee-A2SF.svg","response":0,"trial_type":"image-button-response","trial_index":151,"time_elapsed":2587983,"internal_node_id":"0.0-6.0-0.11","subject_id":"61605d3e3fe0e585cda49dc9","study_id":"6197b3f67c2b5cd3b6d9596a","session_id":"6197b583f7c9e83b8cbfae20","condition":"full-information","relevant_dimensions":["wings","pattern"],"bee_group":{"antennae":"X","wings":"1","pattern":"S","legs":"X"},"bonus":1.620000000000001},{"rt":1230,"stimulus":"bees-with-color/bee-B2SM.svg","response":0,"trial_type":"image-button-response","trial_index":152,"time_elapsed":2589219,"internal_node_id":"0.0-6.0-0.12","subject_id":"61605d3e3fe0e585cda49dc9","study_id":"6197b3f67c2b5cd3b6d9596a","session_id":"6197b583f7c9e83b8cbfae20","condition":"full-information","relevant_dimensions":["wings","pattern"],"bee_group":{"antennae":"X","wings":"1","pattern":"S","legs":"X"},"bonus":1.620000000000001},{"rt":934,"stimulus":"bees-with-color/bee-B2DF.svg","response":0,"trial_type":"image-button-response","trial_index":153,"time_elapsed":2590159,"internal_node_id":"0.0-6.0-0.13","subject_id":"61605d3e3fe0e585cda49dc9","study_id":"6197b3f67c2b5cd3b6d9596a","session_id":"6197b583f7c9e83b8cbfae20","condition":"full-information","relevant_dimensions":["wings","pattern"],"bee_group":{"antennae":"X","wings":"1","pattern":"S","legs":"X"},"bonus":1.620000000000001},{"rt":23545,"stimulus":"bees-with-color/bee-B1DM.svg","response":0,"trial_type":"image-button-response","trial_index":154,"time_elapsed":2613710,"internal_node_id":"0.0-6.0-0.14","subject_id":"61605d3e3fe0e585cda49dc9","study_id":"6197b3f67c2b5cd3b6d9596a","session_id":"6197b583f7c9e83b8cbfae20","condition":"full-information","relevant_dimensions":["wings","pattern"],"bee_group":{"antennae":"X","wings":"1","pattern":"S","legs":"X"},"bonus":1.620000000000001},{"rt":6847,"stimulus":"bees-with-color/bee-B1DF.svg","response":0,"trial_type":"image-button-response","trial_index":155,"time_elapsed":2620561,"internal_node_id":"0.0-6.0-0.15","subject_id":"61605d3e3fe0e585cda49dc9","study_id":"6197b3f67c2b5cd3b6d9596a","session_id":"6197b583f7c9e83b8cbfae20","condition":"full-information","relevant_dimensions":["wings","pattern"],"bee_group":{"antennae":"X","wings":"1","pattern":"S","legs":"X"},"bonus":1.620000000000001},{"rt":11945,"stimulus":"bees-with-color/bee-A1SF.svg","response":1,"trial_type":"image-button-response","trial_index":156,"time_elapsed":2632512,"internal_node_id":"0.0-6.0-0.16","subject_id":"61605d3e3fe0e585cda49dc9","study_id":"6197b3f67c2b5cd3b6d9596a","session_id":"6197b583f7c9e83b8cbfae20","condition":"full-information","relevant_dimensions":["wings","pattern"],"bee_group":{"antennae":"X","wings":"1","pattern":"S","legs":"X"},"bonus":1.620000000000001},{"rt":5291.999999999767,"stimulus":"bees-with-color/bee-A1SM.svg","response":1,"trial_type":"image-button-response","trial_index":157,"time_elapsed":2637808,"internal_node_id":"0.0-6.0-0.17","subject_id":"61605d3e3fe0e585cda49dc9","study_id":"6197b3f67c2b5cd3b6d9596a","session_id":"6197b583f7c9e83b8cbfae20","condition":"full-information","relevant_dimensions":["wings","pattern"],"bee_group":{"antennae":"X","wings":"1","pattern":"S","legs":"X"},"bonus":1.620000000000001},{"rt":9283,"stimulus":"bees-with-color/bee-A1DF.svg","response":0,"trial_type":"image-button-response","trial_index":158,"time_elapsed":2647096,"internal_node_id":"0.0-6.0-0.18","subject_id":"61605d3e3fe0e585cda49dc9","study_id":"6197b3f67c2b5cd3b6d9596a