[{"success":true,"trial_type":"fullscreen","trial_index":0,"time_elapsed":2698,"internal_node_id":"0.0-0.0","subject_id":"5d4c06c6a8d9fb001a1470d5","study_id":"6197b3f67c2b5cd3b6d9596a","session_id":"619bef3ede4d7748e74338ff","condition":"contingent","relevant_dimensions":["wings","pattern"],"bee_group":{"antennae":"X","wings":"1","pattern":"D","legs":"X"},"bonus":1.3000000000000012},{"success":true,"timeout":false,"failed_images":[],"failed_audio":[],"failed_video":[],"trial_type":"preload","trial_index":1,"time_elapsed":6717,"internal_node_id":"0.0-1.0","subject_id":"5d4c06c6a8d9fb001a1470d5","study_id":"6197b3f67c2b5cd3b6d9596a","session_id":"619bef3ede4d7748e74338ff","condition":"contingent","relevant_dimensions":["wings","pattern"],"bee_group":{"antennae":"X","wings":"1","pattern":"D","legs":"X"},"bonus":1.3000000000000012},{"rt":3043.899999999994,"stimulus":"Welcome! Press any key to begin.","response":" ","trial_type":"html-keyboard-response","trial_index":2,"time_elapsed":9763,"internal_node_id":"0.0-2.0","subject_id":"5d4c06c6a8d9fb001a1470d5","study_id":"6197b3f67c2b5cd3b6d9596a","session_id":"619bef3ede4d7748e74338ff","condition":"contingent","relevant_dimensions":["wings","pattern"],"bee_group":{"antennae":"X","wings":"1","pattern":"D","legs":"X"},"bonus":1.3000000000000012},{"view_history":[{"page_index":0,"viewing_time":3642.5},{"page_index":1,"viewing_time":14083.799999999988},{"page_index":2,"viewing_time":10481.299999999988},{"page_index":3,"viewing_time":15099},{"page_index":4,"viewing_time":8088},{"page_index":5,"viewing_time":12913.100000000035},{"page_index":6,"viewing_time":12319.399999999965},{"page_index":7,"viewing_time":5791},{"page_index":8,"viewing_time":3988.100000000035},{"page_index":9,"viewing_time":2295},{"page_index":10,"viewing_time":1992.899999999965},{"page_index":11,"viewing_time":9983.200000000012},{"page_index":12,"viewing_time":11829.200000000012},{"page_index":13,"viewing_time":1934.5999999999767},{"page_index":14,"viewing_time":2346.7000000000116}],"rt":116788.20000000001,"trial_type":"instructions","trial_index":3,"time_elapsed":126552,"internal_node_id":"0.0-3.0-0.0","subject_id":"5d4c06c6a8d9fb001a1470d5","study_id":"6197b3f67c2b5cd3b6d9596a","session_id":"619bef3ede4d7748e74338ff","condition":"contingent","relevant_dimensions":["wings","pattern"],"bee_group":{"antennae":"X","wings":"1","pattern":"D","legs":"X"},"bonus":1.3000000000000012},{"rt":13265.799999999988,"response":{"Q0":["Two or six legs","Stripes or spots on body","Stinger or no stinger","Single or double wings","Antennae or no antennae"]},"question_order":[0],"trial_type":"survey-multi-select","trial_index":4,"time_elapsed":139824,"internal_node_id":"0.0-3.0-1.0","subject_id":"5d4c06c6a8d9fb001a1470d5","study_id":"6197b3f67c2b5cd3b6d9596a","session_id":"619bef3ede4d7748e74338ff","condition":"contingent","relevant_dimensions":["wings","pattern"],"bee_group":{"antennae":"X","wings":"1","pattern":"D","legs":"X"},"correct":false,"bonus":1.3000000000000012},{"rt":23661.29999999999,"response":{"Q1":"Yes.","Q2":"Based on the four features of the bee.","Q3":"You do not learn if it was friendly or dangerous, and do not alter your bonus."},"question_order":[0,1,2],"trial_type":"survey-multi-choice","trial_index":5,"time_elapsed":163490,"internal_node_id":"0.0-3.0-2.0","subject_id":"5d4c06c6a8d9fb001a1470d5","study_id":"6197b3f67c2b5cd3b6d9596a","session_id":"619bef3ede4d7748e74338ff","condition":"contingent","relevant_dimensions":["wings","pattern"],"bee_group":{"antennae":"X","wings":"1","pattern":"D","legs":"X"},"correct":false,"bonus":1.3000000000000012},{"rt":2626.5,"stimulus":"<p>You did not answer all comprehension questions correctly.<br>Press <b>continue</b> to review the instructions again.</p>","response":0,"trial_type":"html-button-response","trial_index":6,"time_elapsed":166118,"internal_node_id":"0.0-3.0-3.0","subject_id":"5d4c06c6a8d9fb001a1470d5","study_id":"6197b3f67c2b5cd3b6d9596a","session_id":"619bef3ede4d7748e74338ff","condition":"contingent","relevant_dimensions":["wings","pattern"],"bee_group":{"antennae":"X","wings":"1","pattern":"D","legs":"X"},"bonus":1.3000000000000012},{"view_history":[{"page_index":0,"viewing_time":1677.899999999965},{"page_index":1,"viewing_time":1922.5},{"page_index":2,"viewing_time":1204.4000000000233},{"page_index":3,"viewing_time":1813.2999999999884},{"page_index":4,"viewing_time":1339.2999999999884},{"page_index":5,"viewing_time":1157.2000000000116},{"page_index":6,"viewing_time":719.1000000000349},{"page_index":7,"viewing_time":1948},{"page_index":8,"viewing_time":985},{"page_index":9,"viewing_time":840.3999999999651},{"page_index":10,"viewing_time":1119.9000000000233},{"page_index":11,"viewing_time":1242},{"page_index":12,"viewing_time":1629.399999999965},{"page_index":13,"viewing_time":1438.7000000000116},{"page_index":14,"viewing_time":1058.9000000000233}],"rt":20096.29999999999,"trial_type":"instructions","trial_index":7,"time_elapsed":186216,"internal_node_id":"0.0-3.0-4.0-0.0","subject_id":"5d4c06c6a8d9fb001a1470d5","study_id":"6197b3f67c2b5cd3b6d9596a","session_id":"619bef3ede4d7748e74338ff","condition":"contingent","relevant_dimensions":["wings","pattern"],"bee_group":{"antennae":"X","wings":"1","pattern":"D","legs":"X"},"bonus":1.3000000000000012},{"rt":8008.900000000023,"response":{"Q0":["Two or six legs","Stripes or spots on body","Single or double wings","Antennae or no antennae"]},"question_order":[0],"trial_type":"survey-multi-select","trial_index":8,"time_elapsed":194228,"internal_node_id":"0.0-3.0-4.0-1.0","subject_id":"5d4c06c6a8d9fb001a1470d5","study_id":"6197b3f67c2b5cd3b6d9596a","session_id":"619bef3ede4d7748e74338ff","condition":"contingent","relevant_dimensions":["wings","pattern"],"bee_group":{"antennae":"X","wings":"1","pattern":"D","legs":"X"},"correct":true,"bonus":1.3000000000000012},{"rt":13555,"response":{"Q1":"No.","Q2":"Based on the four features of the bee.","Q3":"You do not learn if it was friendly or dangerous, and do not alter your bonus."},"question_order":[0,1,2],"trial_type":"survey-multi-choice","trial_index":9,"time_elapsed":207785,"internal_node_id":"0.0-3.0-4.0-2.0","subject_id":"5d4c06c6a8d9fb001a1470d5","study_id":"6197b3f67c2b5cd3b6d9596a","session_id":"619bef3ede4d7748e74338ff","condition":"contingent","relevant_dimensions":["wings","pattern"],"bee_group":{"antennae":"X","wings":"1","pattern":"D","legs":"X"},"correct":true,"bonus":1.3000000000000012},{"rt":1336.2999999999884,"stimulus":"<p>Congrats, you got everything right<br>When you're ready, click the button below to continue to the experiment.</p>","response":0,"trial_type":"html-button-response","trial_index":10,"time_elapsed":209124,"internal_node_id":"0.0-3.0-4.0-3.0","subject_id":"5d4c06c6a8d9fb001a1470d5","study_id":"6197b3f67c2b5cd3b6d9596a","session_id":"619bef3ede4d7748e74338ff","condition":"contingent","relevant_dimensions":["wings","pattern"],"bee_group":{"antennae":"X","wings":"1","pattern":"D","legs":"X"},"bonus":1.3000000000000012},{"rt":3453.7000000000116,"stimulus":"bees-with-color/bee-A2SF.svg","response":0,"trial_type":"image-button-response","trial_index":11,"time_elapsed":212581,"internal_node_id":"0.0-4.0-0.0","subject_id":"5d4c06c6a8d9fb001a1470d5","study_id":"6197b3f67c2b5cd3b6d9596a","session_id":"619bef3ede4d7748e74338ff","condition":"contingent","relevant_dimensions":["wings","pattern"],"bee_group":{"antennae":"X","wings":"1","pattern":"D","legs":"X"},"action":"harvest","summary":"good-harvest","bonus":1.3000000000000012},{"rt":4670.299999999988,"stimulus":"\n                    <p><b>Action: <em>harvest</em></b></p>\n                    <p>This is the bee that you just saw.</p>\n                    <img src=\"bees-with-color/bee-A2SF.svg\" width=\"200\">\n                    <p><span class=\"greenText\"><b>Successful harvest!</b></span><br>Your pay has increased by $0.02. Your bonus pay is now $0.56.</p>\n            ","response":0,"trial_type":"html-button-response","trial_index":12,"time_elapsed":217255,"internal_node_id":"0.0-4.0-1.0","subject_id":"5d4c06c6a8d9fb001a1470d5","study_id":"6197b3f67c2b5cd3b6d9596a","session_id":"619bef3ede4d7748e74338ff","condition":"contingent","relevant_dimensions":["wings","pattern"],"bee_group":{"antennae":"X","wings":"1","pattern":"D","legs":"X"},"bonus":1.3000000000000012},{"rt":3068.2000000000116,"stimulus":"bees-with-color/bee-A1SM.svg","response":0,"trial_type":"image-button-response","trial_index":13,"time_elapsed":220326,"internal_node_id":"0.0-4.0-0.1","subject_id":"5d4c06c6a8d9fb001a1470d5","study_id":"6197b3f67c2b5cd3b6d9596a","session_id":"619bef3ede4d7748e74338ff","condition":"contingent","relevant_dimensions":["wings","pattern"],"bee_group":{"antennae":"X","wings":"1","pattern":"D","legs":"X"},"action":"harvest","summary":"good-harvest","bonus":1.3000000000000012},{"rt":3310.2999999999884,"stimulus":"\n                    <p><b>Action: <em>harvest</em></b></p>\n                    <p>This is the bee that you just saw.</p>\n                    <img src=\"bees-with-color/bee-A1SM.svg\" width=\"200\">\n                    <p><span class=\"greenText\"><b>Successful harvest!</b></span><br>Your pay has increased by $0.02. Your bonus pay is now $0.58.</p>\n            ","response":0,"trial_type":"html-button-response","trial_index":14,"time_elapsed":223639,"internal_node_id":"0.0-4.0-1.1","subject_id":"5d4c06c6a8d9fb001a1470d5","study_id":"6197b3f67c2b5cd3b6d9596a","session_id":"619bef3ede4d7748e74338ff","condition":"contingent","relevant_dimensions":["wings","pattern"],"bee_group":{"antennae":"X","wings":"1","pattern":"D","legs":"X"},"bonus":1.3000000000000012},{"rt":4657.400000000023,"stimulus":"bees-with-color/bee-A1DF.svg","response":0,"trial_type":"image-button-response","trial_index":15,"time_elapsed":228299,"internal_node_id":"0.0-4.0-0.2","subject_id":"5d4c06c6a8d9fb001a1470d5","study_id":"6197b3f67c2b5cd3b6d9596a","session_id":"619bef3ede4d7748e74338ff","condition":"contingent","relevant_dimensions":["wings","pattern"],"bee_group":{"antennae":"X","wings":"1","pattern":"D","legs":"X"},"action":"harvest","summary":"bad-harvest","bonus":1.3000000000000012},{"rt":2360.7999999999884,"stimulus":"\n                    <p><b>Action: <em>harvest</em></b></p>\n                    <p>This is the bee that you just saw.</p>\n                    <img src=\"bees-with-color/bee-A1DF.svg\" width=\"200\">\n                    <p><span class=\"redText\">Bad choice, the bee was angry.</span><br><b>You have been stung!</b><br>Your pay has been decreased by $0.10. Your bonus pay is now $0.48.</p>\n            ","response":0,"trial_type":"html-button-response","trial_index":16,"time_elapsed":230661,"internal_node_id":"0.0-4.0-1.2","subject_id":"5d4c06c6a8d9fb001a1470d5","study_id":"6197b3f67c2b5cd3b6d9596a","session_id":"619bef3ede4d7748e74338ff","condition":"contingent","relevant_dimensions":["wings","pattern"],"bee_group":{"antennae":"X","wings":"1","pattern":"D","legs":"X"},"bonus":1.3000000000000012},{"rt":1872.0999999999767,"stimulus":"bees-with-color/bee-B1DM.svg","response":0,"trial_type":"image-button-response","trial_index":17,"time_elapsed":232536,"internal_node_id":"0.0-4.0-0.3","subject_id":"5d4c06c6a8d9fb001a1470d5","study_id":"6197b3f67c2b5cd3b6d9596a","session_id":"619bef3ede4d7748e74338ff","condition":"contingent","relevant_dimensions":["wings","pattern"],"bee_group":{"antennae":"X","wings":"1","pattern":"D","legs":"X"},"action":"harvest","summary":"bad-harvest","bonus":1.3000000000000012},{"rt":1337.5999999999767,"stimulus":"\n                    <p><b>Action: <em>harvest</em></b></p>\n                    <p>This is the bee that you just saw.</p>\n                    <img src=\"bees-with-color/bee-B1DM.svg\" width=\"200\">\n                    <p><span class=\"redText\">Bad choice, the bee was angry.</span><br><b>You have been stung!</b><br>Your pay has been decreased by $0.10. Your bonus pay is now $0.38.</p>\n            ","response":0,"trial_type":"html-button-response","trial_index":18,"time_elapsed":233876,"internal_node_id":"0.0-4.0-1.3","subject_id":"5d4c06c6a8d9fb001a1470d5","study_id":"6197b3f67c2b5cd3b6d9596a","session_id":"619bef3ede4d7748e74338ff","condition":"contingent","relevant_dimensions":["wings","pattern"],"bee_group":{"antennae":"X","wings":"1","pattern":"D","legs":"X"},"bonus":1.3000000000000012},{"rt":1386.2000000000116,"stimulus":"bees-with-color/bee-A2DM.svg","response":0,"trial_type":"image-button-response","trial_index":19,"time_elapsed":235265,"internal_node_id":"0.0-4.0-0.4","subject_id":"5d4c06c6a8d9fb001a1470d5","study_id":"6197b3f67c2b5cd3b6d9596a","session_id":"619bef3ede4d7748e74338ff","condition":"contingent","relevant_dimensions":["wings","pattern"],"bee_group":{"antennae":"X","wings":"1","pattern":"D","legs":"X"},"action":"harvest","summary":"good-harvest","bonus":1.3000000000000012},{"rt":1556,"stimulus":"\n                    <p><b>Action: <em>harvest</em></b></p>\n                    <p>This is the bee that you just saw.</p>\n                    <img src=\"bees-with-color/bee-A2DM.svg\" width=\"200\">\n                    <p><span class=\"greenText\"><b>Successful harvest!</b></span><br>Your pay has increased by $0.02. Your bonus pay is now $0.40.</p>\n            ","response":0,"trial_type":"html-button-response","trial_index":20,"time_elapsed":236823,"internal_node_id":"0.0-4.0-1.4","subject_id":"5d4c06c6a8d9fb001a1470d5","study_id":"6197b3f67c2b5cd3b6d9596a","session_id":"619bef3ede4d7748e74338ff","condition":"contingent","relevant_dimensions":["wings","pattern"],"bee_group":{"antennae":"X","wings":"1","pattern":"D","legs":"X"},"bonus":1.3000000000000012},{"rt":1372.4000000000233,"stimulus":"bees-with-color/bee-A2DF.svg","response":1,"trial_type":"image-button-response","trial_index":21,"time_elapsed":238197,"internal_node_id":"0.0-4.0-0.5","subject_id":"5d4c06c6a8d9fb001a1470d5","study_id":"6197b3f67c2b5cd3b6d9596a","session_id":"619bef3ede4d7748e74338ff","condition":"contingent","relevant_dimensions":["wings","pattern"],"bee_group":{"antennae":"X","wings":"1","pattern":"D","legs":"X"},"action":"avoid","summary":"bad-avoid","bonus":1.3000000000000012},{"rt":1242,"stimulus":"\n                    <p><b>Action: <em>avoid</em></b></p>\n                    <p>This is the bee that you just saw.</p>\n                    <img src=\"bees-with-color/bee-A2DF.svg\" width=\"200\">\n                    <p><br>Your bonus pay is unchanged, and remains at $0.40.</p>\n            ","response":0,"trial_type":"html-button-response","trial_index":22,"time_elapsed":239441,"internal_node_id":"0.0-4.0-1.5","subject_id":"5d4c06c6a8d9fb001a1470d5","study_id":"6197b3f67c2b5cd3b6d9596a","session_id":"619bef3ede4d7748e74338ff","condition":"contingent","relevant_dimensions":["wings","pattern"],"bee_group":{"antennae":"X","wings":"1","pattern":"D","legs":"X"},"bonus":1.3000000000000012},{"rt":1737.899999999965,"stimulus":"bees-with-color/bee-B1SF.svg","response":0,"trial_type":"image-button-response","trial_index":23,"time_elapsed":241183,"internal_node_id":"0.0-4.0-0.6","subject_id":"5d4c06c6a8d9fb001a1470d5","study_id":"6197b3f67c2b5cd3b6d9596a","session_id":"619bef3ede4d7748e74338ff","condition":"contingent","relevant_dimensions":["wings","pattern"],"bee_group":{"antennae":"X","wings":"1","pattern":"D","legs":"X"},"action":"harvest","summary":"good-harvest","bonus":1.3000000000000012},{"rt":1884.9000000000233,"stimulus":"\n                    <p><b>Action: <em>harvest</em></b></p>\n                    <p>This is the bee that you just saw.</p>\n                    <img src=\"bees-with-color/bee-B1SF.svg\" width=\"200\">\n                    <p><span class=\"greenText\"><b>Successful harvest!</b></span><br>Your pay has increased by $0.02. Your bonus pay is now $0.42.</p>\n            ","response":0,"trial_type":"html-button-response","trial_index":24,"time_elapsed":243069,"internal_node_id":"0.0-4.0-1.6","subject_id":"5d4c06c6a8d9fb001a1470d5","study_id":"6197b3f67c2b5cd3b6d9596a","session_id":"619bef3ede4d7748e74338ff","condition":"contingent","relevant_dimensions":["wings","pattern"],"bee_group":{"antennae":"X","wings":"1","pattern":"D","legs":"X"},"bonus":1.3000000000000012},{"rt":1617.600000000035,"stimulus":"bees-with-color/bee-B2SM.svg","response":0,"trial_type":"image-button-response","trial_index":25,"time_elapsed":244689,"internal_node_id":"0.0-4.0-0.7","subject_id":"5d4c06c6a8d9fb001a1470d5","study_id":"6197b3f67c2b5cd3b6d9596a","session_id":"619bef3ede4d7748e74338ff","condition":"contingent","relevant_dimensions":["wings","pattern"],"bee_group":{"antennae":"X","wings":"1","pattern":"D","legs":"X"},"action":"harvest","summary":"good-harvest","bonus":1.3000000000000012},{"rt":2203.0999999999767,"stimulus":"\n                    <p><b>Action: <em>harvest</em></b></p>\n                    <p>This is the bee that you just saw.</p>\n                    <img src=\"bees-with-color/bee-B2SM.svg\" width=\"200\">\n                    <p><span class=\"greenText\"><b>Successful harvest!</b></span><br>Your pay has increased by $0.02. Your bonus pay is now $0.44.</p>\n            ","response":0,"trial_type":"html-button-response","trial_index":26,"time_elapsed":246894,"internal_node_id":"0.0-4.0-1.7","subject_id":"5d4c06c6a8d9fb001a1470d5","study_id":"6197b3f67c2b5cd3b6d9596a","session_id":"619bef3ede4d7748e74338ff","condition":"contingent","relevant_dimensions":["wings","pattern"],"bee_group":{"antennae":"X","wings":"1","pattern":"D","legs":"X"},"bonus":1.3000000000000012},{"rt":1201.5,"stimulus":"bees-with-color/bee-B1DF.svg","response":1,"trial_type":"image-button-response","trial_index":27,"time_elapsed":248098,"internal_node_id":"0.0-4.0-0.8","subject_id":"5d4c06c6a8d9fb001a1470d5","study_id":"6197b3f67c2b5cd3b6d9596a","session_id":"619bef3ede4d7748e74338ff","condition":"contingent","relevant_dimensions":["wings","pattern"],"bee_group":{"antennae":"X","wings":"1","pattern":"D","legs":"X"},"action":"avoid","summary":"good-avoid","bonus":1.3000000000000012},{"rt":1093.5999999999767,"stimulus":"\n                    <p><b>Action: <em>avoid</em></b></p>\n                    <p>This is the bee that you just saw.</p>\n                    <img src=\"bees-with-color/bee-B1DF.svg\" width=\"200\">\n                    <p><br>Your bonus pay is unchanged, and remains at $0.44.</p>\n            ","response":0,"trial_type":"html-button-response","trial_index":28,"time_elapsed":249194,"internal_node_id":"0.0-4.0-1.8","subject_id":"5d4c06c6a8d9fb001a1470d5","study_id":"6197b3f67c2b5cd3b6d9596a","session_id":"619bef3ede4d7748e74338ff","condition":"contingent","relevant_dimensions":["wings","pattern"],"bee_group":{"antennae":"X","wings":"1","pattern":"D","legs":"X"},"bonus":1.3000000000000012},{"rt":1423.7000000000116,"stimulus":"bees-with-color/bee-B2DM.svg","response":1,"trial_type":"image-button-response","trial_index":29,"time_elapsed":250619,"internal_node_id":"0.0-4.0-0.9","subject_id":"5d4c06c6a8d9fb001a1470d5","study_id":"6197b3f67c2b5cd3b6d9596a","session_id":"619bef3ede4d7748e74338ff","condition":"contingent","relevant_dimensions":["wings","pattern"],"bee_group":{"antennae":"X","wings":"1","pattern":"D","legs":"X"},"action":"avoid","summary":"bad-avoid","bonus":1.3000000000000012},{"rt":729.5999999999767,"stimulus":"\n                    <p><b>Action: <em>avoid</em></b></p>\n                    <p>This is the bee that you just saw.</p>\n                    <img src=\"bees-with-color/bee-B2DM.svg\" width=\"200\">\n                    <p><br>Your bonus pay is unchanged, and remains at $0.44.</p>\n            ","response":0,"trial_type":"html-button-response","trial_index":30,"time_elapsed":251350,"internal_node_id":"0.0-4.0-1.9","subject_id":"5d4c06c6a8d9fb001a1470d5","study_id":"6197b3f67c2b5cd3b6d9596a","session_id":"619bef3ede4d7748e74338ff","condition":"contingent","relevant_dimensions":["wings","pattern"],"bee_group":{"antennae":"X","wings":"1","pattern":"D","legs":"X"},"bonus":1.3000000000000012},{"rt":2494.2000000000116,"stimulus":"bees-with-color/bee-A1SF.svg","response":0,"trial_type":"image-button-response","trial_index":31,"time_elapsed":253847,"internal_node_id":"0.0-4.0-0.10","subject_id":"5d4c06c6a8d9fb001a1470d5","study_id":"6197b3f67c2b5cd3b6d9596a","session_id":"619bef3ede4d7748e74338ff","condition":"contingent","relevant_dimensions":["wings","pattern"],"bee_group":{"antennae":"X","wings":"1","pattern":"D","legs":"X"},"action":"harvest","summary":"good-harvest","bonus":1.3000000000000012},{"rt":2385.7000000000116,"stimulus":"\n                    <p><b>Action: <em>harvest</em></b></p>\n                    <p>This is the bee that you just saw.</p>\n                    <img src=\"bees-with-color/bee-A1SF.svg\" width=\"200\">\n                    <p><span class=\"greenText\"><b>Successful harvest!</b></span><br>Your pay has increased by $0.02. Your bonus pay is now $0.46.</p>\n            ","response":0,"trial_type":"html-button-response","trial_index":32,"time_elapsed":256234,"internal_node_id":"0.0-4.0-1.10","subject_id":"5d4c06c6a8d9fb001a1470d5","study_id":"6197b3f67c2b5cd3b6d9596a","session_id":"619bef3ede4d7748e74338ff","condition":"contingent","relevant_dimensions":["wings","pattern"],"bee_group":{"antennae":"X","wings":"1","pattern":"D","legs":"X"},"bonus":1.3000000000000012},{"rt":2837.2000000000116,"stimulus":"bees-with-color/bee-B2DF.svg","response":1,"trial_type":"image-button-response","trial_index":33,"time_elapsed":259074,"internal_node_id":"0.0-4.0-0.11","subject_id":"5d4c06c6a8d9fb001a1470d5","study_id":"6197b3f67c2b5cd3b6d9596a","session_id":"619bef3ede4d7748e74338ff","condition":"contingent","relevant_dimensions":["wings","pattern"],"bee_group":{"antennae":"X","wings":"1","pattern":"D","legs":"X"},"action":"avoid","summary":"bad-avoid","bonus":1.3000000000000012},{"rt":1606.1999999999534,"stimulus":"\n                    <p><b>Action: <em>avoid</em></b></p>\n                    <p>This is the bee that you just saw.</p>\n                    <img src=\"bees-with-color/bee-B2DF.svg\" width=\"200\">\n                    <p><br>Your bonus pay is unchanged, and remains at $0.46.</p>\n            ","response":0,"trial_type":"html-button-response","trial_index":34,"time_elapsed":260681,"internal_node_id":"0.0-4.0-1.11","subject_id":"5d4c06c6a8d9fb001a1470d5","study_id":"6197b3f67c2b5cd3b6d9596a","session_id":"619bef3ede4d7748e74338ff","condition":"contingent","relevant_dimensions":["wings","pattern"],"bee_group":{"antennae":"X","wings":"1","pattern":"D","legs":"X"},"bonus":1.3000000000000012},{"rt":3808,"stimulus":"bees-with-color/bee-A1DM.svg","response":1,"trial_type":"image-button-response","trial_index":35,"time_elapsed":264492,"internal_node_id":"0.0-4.0-0.12","subject_id":"5d4c06c6a8d9fb001a1470d5","study_id":"6197b3f67c2b5cd3b6d9596a","session_id":"619bef3ede4d7748e74338ff","condition":"contingent","relevant_dimensions":["wings","pattern"],"bee_group":{"antennae":"X","wings":"1","pattern":"D","legs":"X"},"action":"avoid","summary":"good-avoid","bonus":1.3000000000000012},{"rt":889,"stimulus":"\n                    <p><b>Action: <em>avoid</em></b></p>\n                    <p>This is the bee that you just saw.</p>\n                    <img src=\"bees-with-color/bee-A1DM.svg\" width=\"200\">\n                    <p><br>Your bonus pay is unchanged, and remains at $0.46.</p>\n            ","response":0,"trial_type":"html-button-response","trial_index":36,"time_elapsed":265383,"internal_node_id":"0.0-4.0-1.12","subject_id":"5d4c06c6a8d9fb001a1470d5","study_id":"6197b3f67c2b5cd3b6d9596a","session_id":"619bef3ede4d7748e74338ff","condition":"contingent","relevant_dimensions":["wings","pattern"],"bee_group":{"antennae":"X","wings":"1","pattern":"D","legs":"X"},"bonus":1.3000000000000012},{"rt":850.1000000000349,"stimulus":"bees-with-color/bee-A2SM.svg","response":0,"trial_type":"image-button-response","trial_index":37,"time_elapsed":266235,"internal_node_id":"0.0-4.0-0.13","subject_id":"5d4c06c6a8d9fb001a1470d5","study_id":"6197b3f67c2b5cd3b6d9596a","session_id":"619bef3ede4d7748e74338ff","condition":"contingent","relevant_dimensions":["wings","pattern"],"bee_group":{"antennae":"X","wings":"1","pattern":"D","legs":"X"},"action":"harvest","summary":"good-harvest","bonus":1.3000000000000012},{"rt":1106.5,"stimulus":"\n                    <p><b>Action: <em>harvest</em></b></p>\n                    <p>This is the bee that you just saw.</p>\n                    <img src=\"bees-with-color/bee-A2SM.svg\" width=\"200\">\n                    <p><span class=\"greenText\"><b>Successful harvest!</b></span><br>Your pay has increased by $0.02. Your bonus pay is now $0.48.</p>\n            ","response":0,"trial_type":"html-button-response","trial_index":38,"time_elapsed":267343,"internal_node_id":"0.0-4.0-1.13","subject_id":"5d4c06c6a8d9fb001a1470d5","study_id":"6197b3f67c2b5cd3b6d9596a","session_id":"619bef3ede4d7748e74338ff","condition":"contingent","relevant_dimensions":["wings","pattern"],"bee_group":{"antennae":"X","wings":"1","pattern":"D","legs":"X"},"bonus":1.3000000000000012},{"rt":1034.1999999999534,"stimulus":"bees-with-color/bee-B2SF.svg","response":0,"trial_type":"image-button-response","trial_index":39,"time_elapsed":268379,"internal_node_id":"0.0-4.0-0.14","subject_id":"5d4c06c6a8d9fb001a1470d5","study_id":"6197b3f67c2b5cd3b6d9596a","session_id":"619bef3ede4d7748e74338ff","condition":"contingent","relevant_dimensions":["wings","pattern"],"bee_group":{"antennae":"X","wings":"1","pattern":"D","legs":"X"},"action":"harvest","summary":"good-harvest","bonus":1.3000000000000012},{"rt":2846.399999999965,"stimulus":"\n                    <p><b>Action: <em>harvest</em></b></p>\n                    <p>This is the bee that you just saw.</p>\n                    <img src=\"bees-with-color/bee-B2SF.svg\" width=\"200\">\n                    <p><span class=\"greenText\"><b>Successful harvest!</b></span><br>Your pay has increased by $0.02. Your bonus pay is now $0.50.</p>\n            ","response":0,"trial_type":"html-button-response","trial_index":40,"time_elapsed":271227,"internal_node_id":"0.0-4.0-1.14","subject_id":"5d4c06c6a8d9fb001a1470d5","study_id":"6197b3f67c2b5cd3b6d9596a","session_id":"619bef3ede4d7748e74338ff","condition":"contingent","relevant_dimensions":["wings","pattern"],"bee_group":{"antennae":"X","wings":"1","pattern":"D","legs":"X"},"bonus":1.3000000000000012},{"rt":1485,"stimulus":"bees-with-color/bee-B1SM.svg","response":0,"trial_type":"image-button-response","trial_index":41,"time_elapsed":272714,"internal_node_id":"0.0-4.0-0.15","subject_id":"5d4c06c6a8d9fb001a1470d5","study_id":"6197b3f67c2b5cd3b6d9596a","session_id":"619bef3ede4d7748e74338ff","condition":"contingent","relevant_dimensions":["wings","pattern"],"bee_group":{"antennae":"X","wings":"1","pattern":"D","legs":"X"},"action":"harvest","summary":"good-harvest","bonus":1.3000000000000012},{"rt":958.8999999999651,"stimulus":"\n                    <p><b>Action: <em>harvest</em></b></p>\n                    <p>This is the bee that you just saw.</p>\n                    <img src=\"bees-with-color/bee-B1SM.svg\" width=\"200\">\n                    <p><span class=\"greenText\"><b>Successful harvest!</b></span><br>Your pay has increased by $0.02. Your bonus pay is now $0.52.</p>\n            ","response":0,"trial_type":"html-button-response","trial_index":42,"time_elapsed":273675,"internal_node_id":"0.0-4.0-1.15","subject_id":"5d4c06c6a8d9fb001a1470d5","study_id":"6197b3f67c2b5cd3b6d9596a","session_id":"619bef3ede4d7748e74338ff","condition":"contingent","relevant_dimensions":["wings","pattern"],"bee_group":{"antennae":"X","wings":"1","pattern":"D","legs":"X"},"bonus":1.3000000000000012},{"rt":1409.7999999999884,"stimulus":"bees-with-color/bee-B1SF.svg","response":0,"trial_type":"image-button-response","trial_index":43,"time_elapsed":275088,"internal_node_id":"0.0-4.0-0.16","subject_id":"5d4c06c6a8d9fb001a1470d5","study_id":"6197b3f67c2b5cd3b6d9596a","session_id":"619bef3ede4d7748e74338ff","condition":"contingent","relevant_dimensions":["wings","pattern"],"bee_group":{"antennae":"X","wings":"1","pattern":"D","legs":"X"},"action":"harvest","summary":"good-harvest","bonus":1.3000000000000012},{"rt":1227.5,"stimulus":"\n                    <p><b>Action: <em>harvest</em></b></p>\n                    <p>This is the bee that you just saw.</p>\n                    <img src=\"bees-with-color/bee-B1SF.svg\" width=\"200\">\n                    <p><span class=\"greenText\"><b>Successful harvest!</b></span><br>Your pay has increased by $0.02. Your bonus pay is now $0.54.</p>\n            ","response":0,"trial_type":"html-button-response","trial_index":44,"time_elapsed":276317,"internal_node_id":"0.0-4.0-1.16","subject_id":"5d4c06c6a8d9fb001a1470d5","study_id":"6197b3f67c2b5cd3b6d9596a","session_id":"619bef3ede4d7748e74338ff","condition":"contingent","relevant_dimensions":["wings","pattern"],"bee_group":{"antennae":"X","wings":"1","pattern":"D","legs":"X"},"bonus":1.3000000000000012},{"rt":1009.5,"stimulus":"bees-with-color/bee-B2SM.svg","response":0,"trial_type":"image-button-response","trial_index":45,"time_elapsed":277329,"internal_node_id":"0.0-4.0-0.17","subject_id":"5d4c06c6a8d9fb001a1470d5","study_id":"6197b3f67c2b5cd3b6d9596a","session_id":"619bef3ede4d7748e74338ff","condition":"contingent","relevant_dimensions":["wings","pattern"],"bee_group":{"antennae":"X","wings":"1","pattern":"D","legs":"X"},"action":"harvest","summary":"good-harvest","bonus":1.3000000000000012},{"rt":1153.7999999999884,"stimulus":"\n                    <p><b>Action: <em>harvest</em></b></p>\n                    <p>This is the bee that you just saw.</p>\n                    <img src=\"bees-with-color/bee-B2SM.svg\" width=\"200\">\n                    <p><span class=\"greenText\"><b>Successful harvest!</b></span><br>Your pay has increased by $0.02. Your bonus pay is now $0.56.</p>\n            ","response":0,"trial_type":"html-button-response","trial_index":46,"time_elapsed":278485,"internal_node_id":"0.0-4.0-1.17","subject_id":"5d4c06c6a8d9fb001a1470d5","study_id":"6197b3f67c2b5cd3b6d9596a","session_id":"619bef3ede4d7748e74338ff","condition":"contingent","relevant_dimensions":["wings","pattern"],"bee_group":{"antennae":"X","wings":"1","pattern":"D","legs":"X"},"bonus":1.3000000000000012},{"rt":1485,"stimulus":"bees-with-color/bee-B2DF.svg","response":1,"trial_type":"image-button-response","trial_index":47,"time_elapsed":279972,"internal_node_id":"0.0-4.0-0.18","subject_id":"5d4c06c6a8d9fb001a1470d5","study_id":"6197b3f67c2b5cd3b6d9596a","session_id":"619bef3ede4d7748e74338ff","condition":"contingent","relevant_dimensions":["wings","pattern"],"bee_group":{"antennae":"X","wings":"1","pattern":"D","legs":"X"},"action":"avoid","summary":"bad-avoid","bonus":1.3000000000000012},{"rt":1105.399999999965,"stimulus":"\n                    <p><b>Action: <em>avoid</em></b></p>\n                    <p>This is the bee that you just saw.</p>\n                    <img src=\"bees-with-color/bee-B2DF.svg\" width=\"200\">\n                    <p><br>Your bonus pay is unchanged, and remains at $0.56.</p>\n            ","response":0,"trial_type":"html-button-response","trial_index":48,"time_elapsed":281079,"internal_node_id":"0.0-4.0-1.18","subject_id":"5d4c06c6a8d9fb001a1470d5","study_id":"6197b3f67c2b5cd3b6d9596a","session_id":"619bef3ede4d7748e74338ff","condition":"contingent","relevant_dimensions":["wings","pattern"],"bee_group":{"antennae":"X","wings":"1","pattern":"D","legs":"X"},"bonus":1.3000000000000012},{"rt":3312.0999999999767,"stimulus":"bees-with-color/bee-B2DM.svg","response":1,"trial_type":"image-button-response","trial_index":49,"time_elapsed":284393,"internal_node_id":"0.0-4.0-0.19","subject_id":"5d4c06c6a8d9fb001a1470d5","study_id":"6197b3f67c2b5cd3b6d9596a","session_id":"619bef3ede4d7748e74338ff","condition":"contingent","relevant_dimensions":["wings","pattern"],"bee_group":{"antennae":"X","wings":"1","pattern":"D","legs":"X"},"action":"avoid","summary":"bad-avoid","bonus":1.3000000000000012},{"rt":959.4000000000233,"stimulus":"\n                    <p><b>Action: <em>avoid</em></b></p>\n                    <p>This is the bee that you just saw.</p>\n                    <img src=\"bees-with-color/bee-B2DM.svg\" width=\"200\">\n                    <p><br>Your bonus pay is unchanged, and remains at $0.56.</p>\n            ","response":0,"trial_type":"html-button-response","trial_index":50,"time_elapsed":285355,"internal_node_id":"0.0-4.0-1.19","subject_id":"5d4c06c6a8d9fb001a1470d5","study_id":"6197b3f67c2b5cd3b6d9596a","session_id":"619bef3ede4d7748e74338ff","condition":"contingent","relevant_dimensions":["wings","pattern"],"bee_group":{"antennae":"X","wings":"1","pattern":"D","legs":"X"},"bonus":1.3000000000000012},{"rt":1046.0999999999767,"stimulus":"bees-with-color/bee-A1SM.svg","response":0,"trial_type":"image-button-response","trial_index":51,"time_elapsed":286404,"internal_node_id":"0.0-4.0-0.20","subject_id":"5d4c06c6a8d9fb001a1470d5","study_id":"6197b3f67c2b5cd3b6d9596a","session_id":"619bef3ede4d7748e74338ff","condition":"contingent","relevant_dimensions":["wings","pattern"],"bee_group":{"antennae":"X","wings":"1","pattern":"D","legs":"X"},"action":"harvest","summary":"good-harvest","bonus":1.3000000000000012},{"rt":749.6999999999534,"stimulus":"\n                    <p><b>Action: <em>harvest</em></b></p>\n                    <p>This is the bee that you just saw.</p>\n                    <img src=\"bees-with-color/bee-A1SM.svg\" width=\"200\">\n                    <p><span class=\"greenText\"><b>Successful harvest!</b></span><br>Your pay has increased by $0.02. Your bonus pay is now $0.58.</p>\n            ","response":0,"trial_type":"html-button-response","trial_index":52,"time_elapsed":287157,"internal_node_id":"0.0-4.0-1.20","subject_id":"5d4c06c6a8d9fb001a1470d5","study_id":"6197b3f67c2b5cd3b6d9596a","session_id":"619bef3ede4d7748e74338ff","condition":"contingent","relevant_dimensions":["wings","pattern"],"bee_group":{"antennae":"X","wings":"1","pattern":"D","legs":"X"},"bonus":1.3000000000000012},{"rt":1554.7999999999302,"stimulus":"bees-with-color/bee-B1DM.svg","response":1,"trial_type":"image-button-response","trial_index":53,"time_elapsed":288714,"internal_node_id":"0.0-4.0-0.21","subject_id":"5d4c06c6a8d9fb001a1470d5","study_id":"6197b3f67c2b5cd3b6d9596a","session_id":"619bef3ede4d7748e74338ff","condition":"contingent","relevant_dimensions":["wings","pattern"],"bee_group":{"antennae":"X","wings":"1","pattern":"D","legs":"X"},"action":"avoid","summary":"good-avoid","bonus":1.3000000000000012},{"rt":919.6999999999534,"stimulus":"\n                    <p><b>Action: <em>avoid</em></b></p>\n                    <p>This is the bee that you just saw.</p>\n                    <img src=\"bees-with-color/bee-B1DM.svg\" width=\"200\">\n                    <p><br>Your bonus pay is unchanged, and remains at $0.58.</p>\n            ","response":0,"trial_type":"html-button-response","trial_index":54,"time_elapsed":289636,"internal_node_id":"0.0-4.0-1.21","subject_id":"5d4c06c6a8d9fb001a1470d5","study_id":"6197b3f67c2b5cd3b6d9596a","session_id":"619bef3ede4d7748e74338ff","condition":"contingent","relevant_dimensions":["wings","pattern"],"bee_group":{"antennae":"X","wings":"1","pattern":"D","legs":"X"},"bonus":1.3000000000000012},{"rt":1313.7000000000698,"stimulus":"bees-with-color/bee-A2DM.svg","response":0,"trial_type":"image-button-response","trial_index":55,"time_elapsed":290953,"internal_node_id":"0.0-4.0-0.22","subject_id":"5d4c06c6a8d9fb001a1470d5","study_id":"6197b3f67c2b5cd3b6d9596a","session_id":"619bef3ede4d7748e74338ff","condition":"contingent","relevant_dimensions":["wings","pattern"],"bee_group":{"antennae":"X","wings":"1","pattern":"D","legs":"X"},"action":"harvest","summary":"good-harvest","bonus":1.3000000000000012},{"rt":1025.1000000000931,"stimulus":"\n                    <p><b>Action: <em>harvest</em></b></p>\n                    <p>This is the bee that you just saw.</p>\n                    <img src=\"bees-with-color/bee-A2DM.svg\" width=\"200\">\n                    <p><span class=\"greenText\"><b>Successful harvest!</b></span><br>Your pay has increased by $0.02. Your bonus pay is now $0.60.</p>\n            ","response":0,"trial_type":"html-button-response","trial_index":56,"time_elapsed":291980,"internal_node_id":"0.0-4.0-1.22","subject_id":"5d4c06c6a8d9fb001a1470d5","study_id":"6197b3f67c2b5cd3b6d9596a","session_id":"619bef3ede4d7748e74338ff","condition":"contingent","relevant_dimensions":["wings","pattern"],"bee_group":{"antennae":"X","wings":"1","pattern":"D","legs":"X"},"bonus":1.3000000000000012},{"rt":1350.5,"stimulus":"bees-with-color/bee-B1DF.svg","response":1,"trial_type":"image-button-response","trial_index":57,"time_elapsed":293333,"internal_node_id":"0.0-4.0-0.23","subject_id":"5d4c06c6a8d9fb001a1470d5","study_id":"6197b3f67c2b5cd3b6d9596a","session_id":"619bef3ede4d7748e74338ff","condition":"contingent","relevant_dimensions":["wings","pattern"],"bee_group":{"antennae":"X","wings":"1","pattern":"D","legs":"X"},"action":"avoid","summary":"good-avoid","bonus":1.3000000000000012},{"rt":1009,"stimulus":"\n                    <p><b>Action: <em>avoid</em></b></p>\n                    <p>This is the bee that you just saw.</p>\n                    <img src=\"bees-with-color/bee-B1DF.svg\" width=\"200\">\n                    <p><br>Your bonus pay is unchanged, and remains at $0.60.</p>\n            ","response":0,"trial_type":"html-button-response","trial_index":58,"time_elapsed":294345,"internal_node_id":"0.0-4.0-1.23","subject_id":"5d4c06c6a8d9fb001a1470d5","study_id":"6197b3f67c2b5cd3b6d9596a","session_id":"619bef3ede4d7748e74338ff","condition":"contingent","relevant_dimensions":["wings","pattern"],"bee_group":{"antennae":"X","wings":"1","pattern":"D","legs":"X"},"bonus":1.3000000000000012},{"rt":1507.0999999999767,"stimulus":"bees-with-color/bee-A2SM.svg","response":0,"trial_type":"image-button-response","trial_index":59,"time_elapsed":295854,"internal_node_id":"0.0-4.0-0.24","subject_id":"5d4c06c6a8d9fb001a1470d5","study_id":"6197b3f67c2b5cd3b6d9596a","session_id":"619bef3ede4d7748e74338ff","condition":"contingent","relevant_dimensions":["wings","pattern"],"bee_group":{"antennae":"X","wings":"1","pattern":"D","legs":"X"},"action":"harvest","summary":"good-harvest","bonus":1.3000000000000012},{"rt":1666.8999999999069,"stimulus":"\n                    <p><b>Action: <em>harvest</em></b></p>\n                    <p>This is the bee that you just saw.</p>\n                    <img src=\"bees-with-color/bee-A2SM.svg\" width=\"200\">\n                    <p><span class=\"greenText\"><b>Successful harvest!</b></span><br>Your pay has increased by $0.02. Your bonus pay is now $0.62.</p>\n            ","response":0,"trial_type":"html-button-response","trial_index":60,"time_elapsed":297525,"internal_node_id":"0.0-4.0-1.24","subject_id":"5d4c06c6a8d9fb001a1470d5","study_id":"6197b3f67c2b5cd3b6d9596a","session_id":"619bef3ede4d7748e74338ff","condition":"contingent","relevant_dimensions":["wings","pattern"],"bee_group":{"antennae":"X","wings":"1","pattern":"D","legs":"X"},"bonus":1.3000000000000012},{"rt":1835.4000000000233,"stimulus":"bees-with-color/bee-A2DF.svg","response":1,"trial_type":"image-button-response","trial_index":61,"time_elapsed":299363,"internal_node_id":"0.0-4.0-0.25","subject_id":"5d4c06c6a8d9fb001a1470d5","study_id":"6197b3f67c2b5cd3b6d9596a","session_id":"619bef3ede4d7748e74338ff","condition":"contingent","relevant_dimensions":["wings","pattern"],"bee_group":{"antennae":"X","wings":"1","pattern":"D","legs":"X"},"action":"avoid","summary":"bad-avoid","bonus":1.3000000000000012},{"rt":886.5999999999767,"stimulus":"\n                    <p><b>Action: <em>avoid</em></b></p>\n                    <p>This is the bee that you just saw.</p>\n                    <img src=\"bees-with-color/bee-A2DF.svg\" width=\"200\">\n                    <p><br>Your bonus pay is unchanged, and remains at $0.62.</p>\n            ","response":0,"trial_type":"html-button-response","trial_index":62,"time_elapsed":300252,"internal_node_id":"0.0-4.0-1.25","subject_id":"5d4c06c6a8d9fb001a1470d5","study_id":"6197b3f67c2b5cd3b6d9596a","session_id":"619bef3ede4d7748e74338ff","condition":"contingent","relevant_dimensions":["wings","pattern"],"bee_group":{"antennae":"X","wings":"1","pattern":"D","legs":"X"},"bonus":1.3000000000000012},{"rt":1362.4000000000233,"stimulus":"bees-with-color/bee-B1SM.svg","response":0,"trial_type":"image-button-response","trial_index":63,"time_elapsed":301616,"internal_node_id":"0.0-4.0-0.26","subject_id":"5d4c06c6a8d9fb001a1470d5","study_id":"6197b3f67c2b5cd3b6d9596a","session_id":"619bef3ede4d7748e74338ff","condition":"contingent","relevant_dimensions":["wings","pattern"],"bee_group":{"antennae":"X","wings":"1","pattern":"D","legs":"X"},"action":"harvest","summary":"good-harvest","bonus":1.3000000000000012},{"rt":1093.8000000000466,"stimulus":"\n                    <p><b>Action: <em>harvest</em></b></p>\n                    <p>This is the bee that you just saw.</p>\n                    <img src=\"bees-with-color/bee-B1SM.svg\" width=\"200\">\n                    <p><span class=\"greenText\"><b>Successful harvest!</b></span><br>Your pay has increased by $0.02. Your bonus pay is now $0.64.</p>\n            ","response":0,"trial_type":"html-button-response","trial_index":64,"time_elapsed":302713,"internal_node_id":"0.0-4.0-1.26","subject_id":"5d4c06c6a8d9fb001a1470d5","study_id":"6197b3f67c2b5cd3b6d9596a","session_id":"619bef3ede4d7748e74338ff","condition":"contingent","relevant_dimensions":["wings","pattern"],"bee_group":{"antennae":"X","wings":"1","pattern":"D","legs":"X"},"bonus":1.3000000000000012},{"rt":2081.29999999993,"stimulus":"bees-with-color/bee-A1DF.svg","response":0,"trial_type":"image-button-response","trial_index":65,"time_elapsed":304796,"internal_node_id":"0.0-4.0-0.27","subject_id":"5d4c06c6a8d9fb001a1470d5","study_id":"6197b3f67c2b5cd3b6d9596a","session_id":"619bef3ede4d7748e74338ff","condition":"contingent","relevant_dimensions":["wings","pattern"],"bee_group":{"antennae":"X","wings":"1","pattern":"D","legs":"X"},"action":"harvest","summary":"bad-harvest","bonus":1.3000000000000012},{"rt":1203.6999999999534,"stimulus":"\n                    <p><b>Action: <em>harvest</em></b></p>\n                    <p>This is the bee that you just saw.</p>\n                    <img src=\"bees-with-color/bee-A1DF.svg\" width=\"200\">\n                    <p><span class=\"redText\">Bad choice, the bee was angry.</span><br><b>You have been stung!</b><br>Your pay has been decreased by $0.10. Your bonus pay is now $0.54.</p>\n            ","response":0,"trial_type":"html-button-response","trial_index":66,"time_elapsed":306002,"internal_node_id":"0.0-4.0-1.27","subject_id":"5d4c06c6a8d9fb001a1470d5","study_id":"6197b3f67c2b5cd3b6d9596a","session_id":"619bef3ede4d7748e74338ff","condition":"contingent","relevant_dimensions":["wings","pattern"],"bee_group":{"antennae":"X","wings":"1","pattern":"D","legs":"X"},"bonus":1.3000000000000012},{"rt":1287.3000000000466,"stimulus":"bees-with-color/bee-A1SF.svg","response":0,"trial_type":"image-button-response","trial_index":67,"time_elapsed":307292,"internal_node_id":"0.0-4.0-0.28","subject_id":"5d4c06c6a8d9fb001a1470d5","study_id":"6197b3f67c2b5cd3b6d9596a","session_id":"619bef3ede4d7748e74338ff","condition":"contingent","relevant_dimensions":["wings","pattern"],"bee_group":{"antennae":"X","wings":"1","pattern":"D","legs":"X"},"action":"harvest","summary":"good-harvest","bonus":1.3000000000000012},{"rt":839.4000000000233,"stimulus":"\n                    <p><b>Action: <em>harvest</em></b></p>\n                    <p>This is the bee that you just saw.</p>\n                    <img src=\"bees-with-color/bee-A1SF.svg\" width=\"200\">\n                    <p><span class=\"greenText\"><b>Successful harvest!</b></span><br>Your pay has increased by $0.02. Your bonus pay is now $0.56.</p>\n            ","response":0,"trial_type":"html-button-response","trial_index":68,"time_elapsed":308134,"internal_node_id":"0.0-4.0-1.28","subject_id":"5d4c06c6a8d9fb001a1470d5","study_id":"6197b3f67c2b5cd3b6d9596a","session_id":"619bef3ede4d7748e74338ff","condition":"contingent","relevant_dimensions":["wings","pattern"],"bee_group":{"antennae":"X","wings":"1","pattern":"D","legs":"X"},"bonus":1.3000000000000012},{"rt":909.7999999999302,"stimulus":"bees-with-color/bee-A1DM.svg","response":1,"trial_type":"image-button-response","trial_index":69,"time_elapsed":309047,"internal_node_id":"0.0-4.0-0.29","subject_id":"5d4c06c6a8d9fb001a1470d5","study_id":"6197b3f67c2b5cd3b6d9596a","session_id":"619bef3ede4d7748e74338ff","condition":"contingent","relevant_dimensions":["wings","pattern"],"bee_group":{"antennae":"X","wings":"1","pattern":"D","legs":"X"},"action":"avoid","summary":"good-avoid","bonus":1.3000000000000012},{"rt":1740.1000000000931,"stimulus":"\n                    <p><b>Action: <em>avoid</em></b></p>\n                    <p>This is the bee that you just saw.</p>\n                    <img src=\"bees-with-color/bee-A1DM.svg\" width=\"200\">\n                    <p><br>Your bonus pay is unchanged, and remains at $0.56.</p>\n            ","response":0,"trial_type":"html-button-response","trial_index":70,"time_elapsed":310789,"internal_node_id":"0.0-4.0-1.29","subject_id":"5d4c06c6a8d9fb001a1470d5","study_id":"6197b3f67c2b5cd3b6d9596a","session_id":"619bef3ede4d7748e74338ff","condition":"contingent","relevant_dimensions":["wings","pattern"],"bee_group":{"antennae":"X","wings":"1","pattern":"D","legs":"X"},"bonus":1.3000000000000012},{"rt":1470.3000000000466,"stimulus":"bees-with-color/bee-A2SF.svg","response":0,"trial_type":"image-button-response","trial_index":71,"time_elapsed":312262,"internal_node_id":"0.0-4.0-0.30","subject_id":"5d4c06c6a8d9fb001a1470d5","study_id":"6197b3f67c2b5cd3b6d9596a","session_id":"619bef3ede4d7748e74338ff","condition":"contingent","relevant_dimensions":["wings","pattern"],"bee_group":{"antennae":"X","wings":"1","pattern":"D","legs":"X"},"action":"harvest","summary":"good-harvest","bonus":1.3000000000000012},{"rt":655.5,"stimulus":"\n                    <p><b>Action: <em>harvest</em></b></p>\n                    <p>This is the bee that you just saw.</p>\n                    <img src=\"bees-with-color/bee-A2SF.svg\" width=\"200\">\n                    <p><span class=\"greenText\"><b>Successful harvest!</b></span><br>Your pay has increased by $0.02. Your bonus pay is now $0.58.</p>\n            ","response":0,"trial_type":"html-button-response","trial_index":72,"time_elapsed":312920,"internal_node_id":"0.0-4.0-1.30","subject_id":"5d4c06c6a8d9fb001a1470d5","study_id":"6197b3f67c2b5cd3b6d9596a","session_id":"619bef3ede4d7748e74338ff","condition":"contingent","relevant_dimensions":["wings","pattern"],"bee_group":{"antennae":"X","wings":"1","pattern":"D","legs":"X"},"bonus":1.3000000000000012},{"rt":740.0999999999767,"stimulus":"bees-with-color/bee-B2SF.svg","response":0,"trial_type":"image-button-response","trial_index":73,"time_elapsed":313663,"internal_node_id":"0.0-4.0-0.31","subject_id":"5d4c06c6a8d9fb001a1470d5","study_id":"6197b3f67c2b5cd3b6d9596a","session_id":"619bef3ede4d7748e74338ff","condition":"contingent","relevant_dimensions":["wings","pattern"],"bee_group":{"antennae":"X","wings":"1","pattern":"D","legs":"X"},"action":"harvest","summary":"good-harvest","bonus":1.3000000000000012},{"rt":690.8000000000466,"stimulus":"\n                    <p><b>Action: <em>harvest</em></b></p>\n                    <p>This is the bee that you just saw.</p>\n                    <img src=\"bees-with-color/bee-B2SF.svg\" width=\"200\">\n                    <p><span class=\"greenText\"><b>Successful harvest!</b></span><br>Your pay has increased by $0.02. Your bonus pay is now $0.60.</p>\n            ","response":0,"trial_type":"html-button-response","trial_index":74,"time_elapsed":314357,"internal_node_id":"0.0-4.0-1.31","subject_id":"5d4c06c6a8d9fb001a1470d5","study_id":"6197b3f67c2b5cd3b6d9596a","session_id":"619bef3ede4d7748e74338ff","condition":"contingent","relevant_dimensions":["wings","pattern"],"bee_group":{"antennae":"X","wings":"1","pattern":"D","legs":"X"},"bonus":1.3000000000000012},{"rt":998.4000000000233,"stimulus":"bees-with-color/bee-B1SM.svg","response":0,"trial_type":"image-button-response","trial_index":75,"time_elapsed":315357,"internal_node_id":"0.0-4.0-0.32","subject_id":"5d4c06c6a8d9fb001a1470d5","study_id":"6197b3f67c2b5cd3b6d9596a","session_id":"619bef3ede4d7748e74338ff","condition":"contingent","relevant_dimensions":["wings","pattern"],"bee_group":{"antennae":"X","wings":"1","pattern":"D","legs":"X"},"action":"harvest","summary":"good-harvest","bonus":1.3000000000000012},{"rt":763,"stimulus":"\n                    <p><b>Action: <em>harvest</em></b></p>\n                    <p>This is the bee that you just saw.</p>\n                    <img src=\"bees-with-color/bee-B1SM.svg\" width=\"200\">\n                    <p><span class=\"greenText\"><b>Successful harvest!</b></span><br>Your pay has increased by $0.02. Your bonus pay is now $0.62.</p>\n            ","response":0,"trial_type":"html-button-response","trial_index":76,"time_elapsed":316123,"internal_node_id":"0.0-4.0-1.32","subject_id":"5d4c06c6a8d9fb001a1470d5","study_id":"6197b3f67c2b5cd3b6d9596a","session_id":"619bef3ede4d7748e74338ff","condition":"contingent","relevant_dimensions":["wings","pattern"],"bee_group":{"antennae":"X","wings":"1","pattern":"D","legs":"X"},"bonus":1.3000000000000012},{"rt":1058.5,"stimulus":"bees-with-color/bee-A2SM.svg","response":0,"trial_type":"image-button-response","trial_index":77,"time_elapsed":317184,"internal_node_id":"0.0-4.0-0.33","subject_id":"5d4c06c6a8d9fb001a1470d5","study_id":"6197b3f67c2b5cd3b6d9596a","session_id":"619bef3ede4d7748e74338ff","condition":"contingent","relevant_dimensions":["wings","pattern"],"bee_group":{"antennae":"X","wings":"1","pattern":"D","legs":"X"},"action":"harvest","summary":"good-harvest","bonus":1.3000000000000012},{"rt":921.9000000000233,"stimulus":"\n                    <p><b>Action: <em>harvest</em></b></p>\n                    <p>This is the bee that you just saw.</p>\n                    <img src=\"bees-with-color/bee-A2SM.svg\" width=\"200\">\n                    <p><span class=\"greenText\"><b>Successful harvest!</b></span><br>Your pay has increased by $0.02. Your bonus pay is now $0.64.</p>\n            ","response":0,"trial_type":"html-button-response","trial_index":78,"time_elapsed":318109,"internal_node_id":"0.0-4.0-1.33","subject_id":"5d4c06c6a8d9fb001a1470d5","study_id":"6197b3f67c2b5cd3b6d9596a","session_id":"619bef3ede4d7748e74338ff","condition":"contingent","relevant_dimensions":["wings","pattern"],"bee_group":{"antennae":"X","wings":"1","pattern":"D","legs":"X"},"bonus":1.3000000000000012},{"rt":1167.1000000000931,"stimulus":"bees-with-color/bee-A1DM.svg","response":0,"trial_type":"image-button-response","trial_index":79,"time_elapsed":319278,"internal_node_id":"0.0-4.0-0.34","subject_id":"5d4c06c6a8d9fb001a1470d5","study_id":"6197b3f67c2b5cd3b6d9596a","session_id":"619bef3ede4d7748e74338ff","condition":"contingent","relevant_dimensions":["wings","pattern"],"bee_group":{"antennae":"X","wings":"1","pattern":"D","legs":"X"},"action":"harvest","summary":"bad-harvest","bonus":1.3000000000000012},{"rt":2508.1999999999534,"stimulus":"\n                    <p><b>Action: <em>harvest</em></b></p>\n                    <p>This is the bee that you just saw.</p>\n                    <img src=\"bees-with-color/bee-A1DM.svg\" width=\"200\">\n                    <p><span class=\"redText\">Bad choice, the bee was angry.</span><br><b>You have been stung!</b><br>Your pay has been decreased by $0.10. Your bonus pay is now $0.54.</p>\n            ","response":0,"trial_type":"html-button-response","trial_index":80,"time_elapsed":321789,"internal_node_id":"0.0-4.0-1.34","subject_id":"5d4c06c6a8d9fb001a1470d5","study_id":"6197b3f67c2b5cd3b6d9596a","session_id":"619bef3ede4d7748e74338ff","condition":"contingent","relevant_dimensions":["wings","pattern"],"bee_group":{"antennae":"X","wings":"1","pattern":"D","legs":"X"},"bonus":1.3000000000000012},{"rt":1368.4000000000233,"stimulus":"bees-with-color/bee-A2DM.svg","response":0,"trial_type":"image-button-response","trial_index":81,"time_elapsed":323163,"internal_node_id":"0.0-4.0-0.35","subject_id":"5d4c06c6a8d9fb001a1470d5","study_id":"6197b3f67c2b5cd3b6d9596a","session_id":"619bef3ede4d7748e74338ff","condition":"contingent","relevant_dimensions":["wings","pattern"],"bee_group":{"antennae":"X","wings":"1","pattern":"D","legs":"X"},"action":"harvest","summary":"good-harvest","bonus":1.3000000000000012},{"rt":1544.7000000000698,"stimulus":"\n                    <p><b>Action: <em>harvest</em></b></p>\n                    <p>This is the bee that you just saw.</p>\n                    <img src=\"bees-with-color/bee-A2DM.svg\" width=\"200\">\n                    <p><span class=\"greenText\"><b>Successful harvest!</b></span><br>Your pay has increased by $0.02. Your bonus pay is now $0.56.</p>\n            ","response":0,"trial_type":"html-button-response","trial_index":82,"time_elapsed":324710,"internal_node_id":"0.0-4.0-1.35","subject_id":"5d4c06c6a8d9fb001a1470d5","study_id":"6197b3f67c2b5cd3b6d9596a","session_id":"619bef3ede4d7748e74338ff","condition":"contingent","relevant_dimensions":["wings","pattern"],"bee_group":{"antennae":"X","wings":"1","pattern":"D","legs":"X"},"bonus":1.3000000000000012},{"rt":1484.3000000000466,"stimulus":"bees-with-color/bee-B1DF.svg","response":1,"trial_type":"image-button-response","trial_index":83,"time_elapsed":326196,"internal_node_id":"0.0-4.0-0.36","subject_id":"5d4c06c6a8d9fb001a1470d5","study_id":"6197b3f67c2b5cd3b6d9596a","session_id":"619bef3ede4d7748e74338ff","condition":"contingent","relevant_dimensions":["wings","pattern"],"bee_group":{"antennae":"X","wings":"1","pattern":"D","legs":"X"},"action":"avoid","summary":"good-avoid","bonus":1.3000000000000012},{"rt":1056.4000000000233,"stimulus":"\n                    <p><b>Action: <em>avoid</em></b></p>\n                    <p>This is the bee that you just saw.</p>\n                    <img src=\"bees-with-color/bee-B1DF.svg\" width=\"200\">\n                    <p><br>Your bonus pay is unchanged, and remains at $0.56.</p>\n            ","response":0,"trial_type":"html-button-response","trial_index":84,"time_elapsed":327255,"internal_node_id":"0.0-4.0-1.36","subject_id":"5d4c06c6a8d9fb001a1470d5","study_id":"6197b3f67c2b5cd3b6d9596a","session_id":"619bef3ede4d7748e74338ff","condition":"contingent","relevant_dimensions":["wings","pattern"],"bee_group":{"antennae":"X","wings":"1","pattern":"D","legs":"X"},"bonus":1.3000000000000012},{"rt":1046.7000000000698,"stimulus":"bees-with-color/bee-A1SM.svg","response":0,"trial_type":"image-button-response","trial_index":85,"time_elapsed":328304,"internal_node_id":"0.0-4.0-0.37","subject_id":"5d4c06c6a8d9fb001a1470d5","study_id":"6197b3f67c2b5cd3b6d9596a","session_id":"619bef3ede4d7748e74338ff","condition":"contingent","relevant_dimensions":["wings","pattern"],"bee_group":{"antennae":"X","wings":"1","pattern":"D","legs":"X"},"action":"harvest","summary":"good-harvest","bonus":1.3000000000000012},{"rt":1082,"stimulus":"\n                    <p><b>Action: <em>harvest</em></b></p>\n                    <p>This is the bee that you just saw.</p>\n                    <img src=\"bees-with-color/bee-A1SM.svg\" width=\"200\">\n                    <p><span class=\"greenText\"><b>Successful harvest!</b></span><br>Your pay has increased by $0.02. Your bonus pay is now $0.58.</p>\n            ","response":0,"trial_type":"html-button-response","trial_index":86,"time_elapsed":329388,"internal_node_id":"0.0-4.0-1.37","subject_id":"5d4c06c6a8d9fb001a1470d5","study_id":"6197b3f67c2b5cd3b6d9596a","session_id":"619bef3ede4d7748e74338ff","condition":"contingent","relevant_dimensions":["wings","pattern"],"bee_group":{"antennae":"X","wings":"1","pattern":"D","legs":"X"},"bonus":1.3000000000000012},{"rt":1251.5999999999767,"stimulus":"bees-with-color/bee-A2SF.svg","response":0,"trial_type":"image-button-response","trial_index":87,"time_elapsed":330642,"internal_node_id":"0.0-4.0-0.38","subject_id":"5d4c06c6a8d9fb001a1470d5","study_id":"6197b3f67c2b5cd3b6d9596a","session_id":"619bef3ede4d7748e74338ff","condition":"contingent","relevant_dimensions":["wings","pattern"],"bee_group":{"antennae":"X","wings":"1","pattern":"D","legs":"X"},"action":"harvest","summary":"good-harvest","bonus":1.3000000000000012},{"rt":680.0999999999767,"stimulus":"\n                    <p><b>Action: <em>harvest</em></b></p>\n                    <p>This is the bee that you just saw.</p>\n                    <img src=\"bees-with-color/bee-A2SF.svg\" width=\"200\">\n                    <p><span class=\"greenText\"><b>Successful harvest!</b></span><br>Your pay has increased by $0.02. Your bonus pay is now $0.60.</p>\n            ","response":0,"trial_type":"html-button-response","trial_index":88,"time_elapsed":331324,"internal_node_id":"0.0-4.0-1.38","subject_id":"5d4c06c6a8d9fb001a1470d5","study_id":"6197b3f67c2b5cd3b6d9596a","session_id":"619bef3ede4d7748e74338ff","condition":"contingent","relevant_dimensions":["wings","pattern"],"bee_group":{"antennae":"X","wings":"1","pattern":"D","legs":"X"},"bonus":1.3000000000000012},{"rt":1557.9000000000233,"stimulus":"bees-with-color/bee-B2DF.svg","response":1,"trial_type":"image-button-response","trial_index":89,"time_elapsed":332884,"internal_node_id":"0.0-4.0-0.39","subject_id":"5d4c06c6a8d9fb001a1470d5","study_id":"6197b3f67c2b5cd3b6d9596a","session_id":"619bef3ede4d7748e74338ff","condition":"contingent","relevant_dimensions":["wings","pattern"],"bee_group":{"antennae":"X","wings":"1","pattern":"D","legs":"X"},"action":"avoid","summary":"bad-avoid","bonus":1.3000000000000012},{"rt":692,"stimulus":"\n                    <p><b>Action: <em>avoid</em></b></p>\n                    <p>This is the bee that you just saw.</p>\n                    <img src=\"bees-with-color/bee-B2DF.svg\" width=\"200\">\n                    <p><br>Your bonus pay is unchanged, and remains at $0.60.</p>\n            ","response":0,"trial_type":"html-button-response","trial_index":90,"time_elapsed":333578,"internal_node_id":"0.0-4.0-1.39","subject_id":"5d4c06c6a8d9fb001a1470d5","study_id":"6197b3f67c2b5cd3b6d9596a","session_id":"619bef3ede4d7748e74338ff","condition":"contingent","relevant_dimensions":["wings","pattern"],"bee_group":{"antennae":"X","wings":"1","pattern":"D","legs":"X"},"bonus":1.3000000000000012},{"rt":1302,"stimulus":"bees-with-color/bee-B1SF.svg","response":0,"trial_type":"image-button-response","trial_index":91,"time_elapsed":334882,"internal_node_id":"0.0-4.0-0.40","subject_id":"5d4c06c6a8d9fb001a1470d5","study_id":"6197b3f67c2b5cd3b6d9596a","session_id":"619bef3ede4d7748e74338ff","condition":"contingent","relevant_dimensions":["wings","pattern"],"bee_group":{"antennae":"X","wings":"1","pattern":"D","legs":"X"},"action":"harvest","summary":"good-harvest","bonus":1.3000000000000012},{"rt":692.1999999999534,"stimulus":"\n                    <p><b>Action: <em>harvest</em></b></p>\n                    <p>This is the bee that you just saw.</p>\n                    <img src=\"bees-with-color/bee-B1SF.svg\" width=\"200\">\n                    <p><span class=\"greenText\"><b>Successful harvest!</b></span><br>Your pay has increased by $0.02. Your bonus pay is now $0.62.</p>\n            ","response":0,"trial_type":"html-button-response","trial_index":92,"time_elapsed":335576,"internal_node_id":"0.0-4.0-1.40","subject_id":"5d4c06c6a8d9fb001a1470d5","study_id":"6197b3f67c2b5cd3b6d9596a","session_id":"619bef3ede4d7748e74338ff","condition":"contingent","relevant_dimensions":["wings","pattern"],"bee_group":{"antennae":"X","wings":"1","pattern":"D","legs":"X"},"bonus":1.3000000000000012},{"rt":2178.9000000000233,"stimulus":"bees-with-color/bee-A1DF.svg","response":1,"trial_type":"image-button-response","trial_index":93,"time_elapsed":337757,"internal_node_id":"0.0-4.0-0.41","subject_id":"5d4c06c6a8d9fb001a1470d5","study_id":"6197b3f67c2b5cd3b6d9596a","session_id":"619bef3ede4d7748e74338ff","condition":"contingent","relevant_dimensions":["wings","pattern"],"bee_group":{"antennae":"X","wings":"1","pattern":"D","legs":"X"},"action":"avoid","summary":"good-avoid","bonus":1.3000000000000012},{"rt":1082.0999999999767,"stimulus":"\n                    <p><b>Action: <em>avoid</em></b></p>\n                    <p>This is the bee that you just saw.</p>\n                    <img src=\"bees-with-color/bee-A1DF.svg\" width=\"200\">\n                    <p><br>Your bonus pay is unchanged, and remains at $0.62.</p>\n            ","response":0,"trial_type":"html-button-response","trial_index":94,"time_elapsed":338841,"internal_node_id":"0.0-4.0-1.41","subject_id":"5d4c06c6a8d9fb001a1470d5","study_id":"6197b3f67c2b5cd3b6d9596a","session_id":"619bef3ede4d7748e74338ff","condition":"contingent","relevant_dimensions":["wings","pattern"],"bee_group":{"antennae":"X","wings":"1","pattern":"D","legs":"X"},"bonus":1.3000000000000012},{"rt":1812.1999999999534,"stimulus":"bees-with-color/bee-B2DM.svg","response":1,"trial_type":"image-button-response","trial_index":95,"time_elapsed":340655,"internal_node_id":"0.0-4.0-0.42","subject_id":"5d4c06c6a8d9fb001a1470d5","study_id":"6197b3f67c2b5cd3b6d9596a","session_id":"619bef3ede4d7748e74338ff","condition":"contingent","relevant_dimensions":["wings","pattern"],"bee_group":{"antennae":"X","wings":"1","pattern":"D","legs":"X"},"action":"avoid","summary":"bad-avoid","bonus":1.3000000000000012},{"rt":644.3000000000466,"stimulus":"\n                    <p><b>Action: <em>avoid</em></b></p>\n                    <p>This is the bee that you just saw.</p>\n                    <img src=\"bees-with-color/bee-B2DM.svg\" width=\"200\">\n                    <p><br>Your bonus pay is unchanged, and remains at $0.62.</p>\n            ","response":0,"trial_type":"html-button-response","trial_index":96,"time_elapsed":341302,"internal_node_id":"0.0-4.0-1.42","subject_id":"5d4c06c6a8d9fb001a1470d5","study_id":"6197b3f67c2b5cd3b6d9596a","session_id":"619bef3ede4d7748e74338ff","condition":"contingent","relevant_dimensions":["wings","pattern"],"bee_group":{"antennae":"X","wings":"1","pattern":"D","legs":"X"},"bonus":1.3000000000000012},{"rt":814.5,"stimulus":"bees-with-color/bee-B2SM.svg","response":0,"trial_type":"image-button-response","trial_index":97,"time_elapsed":342118,"internal_node_id":"0.0-4.0-0.43","subject_id":"5d4c06c6a8d9fb001a1470d5","study_id":"6197b3f67c2b5cd3b6d9596a","session_id":"619bef3ede4d7748e74338ff","condition":"contingent","relevant_dimensions":["wings","pattern"],"bee_group":{"antennae":"X","wings":"1","pattern":"D","legs":"X"},"action":"harvest","summary":"good-harvest","bonus":1.3000000000000012},{"rt":899.1000000000931,"stimulus":"\n                    <p><b>Action: <em>harvest</em></b></p>\n                    <p>This is the bee that you just saw.</p>\n                    <img src=\"bees-with-color/bee-B2SM.svg\" width=\"200\">\n                    <p><span class=\"greenText\"><b>Successful harvest!</b></span><br>Your pay has increased by $0.02. Your bonus pay is now $0.64.</p>\n            ","response":0,"trial_type":"html-button-response","trial_index":98,"time_elapsed":343020,"internal_node_id":"0.0-4.0-1.43","subject_id":"5d4c06c6a8d9fb001a1470d5","study_id":"6197b3f67c2b5cd3b6d9596a","session_id":"619bef3ede4d7748e74338ff","condition":"contingent","relevant_dimensions":["wings","pattern"],"bee_group":{"antennae":"X","wings":"1","pattern":"D","legs":"X"},"bonus":1.3000000000000012},{"rt":1215.5,"stimulus":"bees-with-color/bee-A2DF.svg","response":0,"trial_type":"image-button-response","trial_index":99,"time_elapsed":344237,"internal_node_id":"0.0-4.0-0.44","subject_id":"5d4c06c6a8d9fb001a1470d5","study_id":"6197b3f67c2b5cd3b6d9596a","session_id":"619bef3ede4d7748e74338ff","condition":"contingent","relevant_dimensions":["wings","pattern"],"bee_group":{"antennae":"X","wings":"1","pattern":"D","legs":"X"},"action":"harvest","summary":"good-harvest","bonus":1.3000000000000012},{"rt":1057.2999999999302,"stimulus":"\n                    <p><b>Action: <em>harvest</em></b></p>\n                    <p>This is the bee that you just saw.</p>\n                    <img src=\"bees-with-color/bee-A2DF.svg\" width=\"200\">\n                    <p><span class=\"greenText\"><b>Successful harvest!</b></span><br>Your pay has increased by $0.02. Your bonus pay is now $0.66.</p>\n            ","response":0,"trial_type":"html-button-response","trial_index":100,"time_elapsed":345297,"internal_node_id":"0.0-4.0-1.44","subject_id":"5d4c06c6a8d9fb001a1470d5","study_id":"6197b3f67c2b5cd3b6d9596a","session_id":"619bef3ede4d7748e74338ff","condition":"contingent","relevant_dimensions":["wings","pattern"],"bee_group":{"antennae":"X","wings":"1","pattern":"D","legs":"X"},"bonus":1.3000000000000012},{"rt":1800.7000000000698,"stimulus":"bees-with-color/bee-A1SF.svg","response":0,"trial_type":"image-button-response","trial_index":101,"time_elapsed":347100,"internal_node_id":"0.0-4.0-0.45","subject_id":"5d4c06c6a8d9fb001a1470d5","study_id":"6197b3f67c2b5cd3b6d9596a","session_id":"619bef3ede4d7748e74338ff","condition":"contingent","relevant_dimensions":["wings","pattern"],"bee_group":{"antennae":"X","wings":"1","pattern":"D","legs":"X"},"action":"harvest","summary":"good-harvest","bonus":1.3000000000000012},{"rt":801.6000000000931,"stimulus":"\n                    <p><b>Action: <em>harvest</em></b></p>\n                    <p>This is the bee that you just saw.</p>\n                    <img src=\"bees-with-color/bee-A1SF.svg\" width=\"200\">\n                    <p><span class=\"greenText\"><b>Successful harvest!</b></span><br>Your pay has increased by $0.02. Your bonus pay is now $0.68.</p>\n            ","response":0,"trial_type":"html-button-response","trial_index":102,"time_elapsed":347903,"internal_node_id":"0.0-4.0-1.45","subject_id":"5d4c06c6a8d9fb001a1470d5","study_id":"6197b3f67c2b5cd3b6d9596a","session_id":"619bef3ede4d7748e74338ff","condition":"contingent","relevant_dimensions":["wings","pattern"],"bee_group":{"antennae":"X","wings":"1","pattern":"D","legs":"X"},"bonus":1.3000000000000012},{"rt":900.3000000000466,"stimulus":"bees-with-color/bee-B2SF.svg","response":0,"trial_type":"image-button-response","trial_index":103,"time_elapsed":348806,"internal_node_id":"0.0-4.0-0.46","subject_id":"5d4c06c6a8d9fb001a1470d5","study_id":"6197b3f67c2b5cd3b6d9596a","session_id":"619bef3ede4d7748e74338ff","condition":"contingent","relevant_dimensions":["wings","pattern"],"bee_group":{"antennae":"X","wings":"1","pattern":"D","legs":"X"},"action":"harvest","summary":"good-harvest","bonus":1.3000000000000012},{"rt":826.1999999999534,"stimulus":"\n                    <p><b>Action: <em>harvest</em></b></p>\n                    <p>This is the bee that you just saw.</p>\n                    <img src=\"bees-with-color/bee-B2SF.svg\" width=\"200\">\n                    <p><span class=\"greenText\"><b>Successful harvest!</b></span><br>Your pay has increased by $0.02. Your bonus pay is now $0.70.</p>\n            ","response":0,"trial_type":"html-button-response","trial_index":104,"time_elapsed":349634,"internal_node_id":"0.0-4.0-1.46","subject_id":"5d4c06c6a8d9fb001a1470d5","study_id":"6197b3f67c2b5cd3b6d9596a","session_id":"619bef3ede4d7748e74338ff","condition":"contingent","relevant_dimensions":["wings","pattern"],"bee_group":{"antennae":"X","wings":"1","pattern":"D","legs":"X"},"bonus":1.3000000000000012},{"rt":1143.3000000000466,"stimulus":"bees-with-color/bee-B1DM.svg","response":1,"trial_type":"image-button-response","trial_index":105,"time_elapsed":350779,"internal_node_id":"0.0-4.0-0.47","subject_id":"5d4c06c6a8d9fb001a1470d5","study_id":"6197b3f67c2b5cd3b6d9596a","session_id":"619bef3ede4d7748e74338ff","condition":"contingent","relevant_dimensions":["wings","pattern"],"bee_group":{"antennae":"X","wings":"1","pattern":"D","legs":"X"},"action":"avoid","summary":"good-avoid","bonus":1.3000000000000012},{"rt":680.0999999999767,"stimulus":"\n                    <p><b>Action: <em>avoid</em></b></p>\n                    <p>This is the bee that you just saw.</p>\n                    <img src=\"bees-with-color/bee-B1DM.svg\" width=\"200\">\n                    <p><br>Your bonus pay is unchanged, and remains at $0.70.</p>\n            ","response":0,"trial_type":"html-button-response","trial_index":106,"time_elapsed":351461,"internal_node_id":"0.0-4.0-1.47","subject_id":"5d4c06c6a8d9fb001a1470d5","study_id":"6197b3f67c2b5cd3b6d9596a","session_id":"619bef3ede4d7748e74338ff","condition":"contingent","relevant_dimensions":["wings","pattern"],"bee_group":{"antennae":"X","wings":"1","pattern":"D","legs":"X"},"bonus":1.3000000000000012},{"rt":790,"stimulus":"bees-with-color/bee-A2SM.svg","response":0,"trial_type":"image-button-response","trial_index":107,"time_elapsed":352253,"internal_node_id":"0.0-4.0-0.48","subject_id":"5d4c06c6a8d9fb001a1470d5","study_id":"6197b3f67c2b5cd3b6d9596a","session_id":"619bef3ede4d7748e74338ff","condition":"contingent","relevant_dimensions":["wings","pattern"],"bee_group":{"antennae":"X","wings":"1","pattern":"D","legs":"X"},"action":"harvest","summary":"good-harvest","bonus":1.3000000000000012},{"rt":631.5,"stimulus":"\n                    <p><b>Action: <em>harvest</em></b></p>\n                    <p>This is the bee that you just saw.</p>\n                    <img src=\"bees-with-color/bee-A2SM.svg\" width=\"200\">\n                    <p><span class=\"greenText\"><b>Successful harvest!</b></span><br>Your pay has increased by $0.02. Your bonus pay is now $0.72.</p>\n            ","response":0,"trial_type":"html-button-response","trial_index":108,"time_elapsed":352887,"internal_node_id":"0.0-4.0-1.48","subject_id":"5d4c06c6a8d9fb001a1470d5","study_id":"6197b3f67c2b5cd3b6d9596a","session_id":"619bef3ede4d7748e74338ff","condition":"contingent","relevant_dimensions":["wings","pattern"],"bee_group":{"antennae":"X","wings":"1","pattern":"D","legs":"X"},"bonus":1.3000000000000012},{"rt":1667.0999999999767,"stimulus":"bees-with-color/bee-A1DM.svg","response":1,"trial_type":"image-button-response","trial_index":109,"time_elapsed":354556,"internal_node_id":"0.0-4.0-0.49","subject_id":"5d4c06c6a8d9fb001a1470d5","study_id":"6197b3f67c2b5cd3b6d9596a","session_id":"619bef3ede4d7748e74338ff","condition":"contingent","relevant_dimensions":["wings","pattern"],"bee_group":{"antennae":"X","wings":"1","pattern":"D","legs":"X"},"action":"avoid","summary":"good-avoid","bonus":1.3000000000000012},{"rt":946.9000000000233,"stimulus":"\n                    <p><b>Action: <em>avoid</em></b></p>\n                    <p>This is the bee that you just saw.</p>\n                    <img src=\"bees-with-color/bee-A1DM.svg\" width=\"200\">\n                    <p><br>Your bonus pay is unchanged, and remains at $0.72.</p>\n            ","response":0,"trial_type":"html-button-response","trial_index":110,"time_elapsed":355505,"internal_node_id":"0.0-4.0-1.49","subject_id":"5d4c06c6a8d9fb001a1470d5","study_id":"6197b3f67c2b5cd3b6d9596a","session_id":"619bef3ede4d7748e74338ff","condition":"contingent","relevant_dimensions":["wings","pattern"],"bee_group":{"antennae":"X","wings":"1","pattern":"D","legs":"X"},"bonus":1.3000000000000012},{"rt":960.6999999999534,"stimulus":"bees-with-color/bee-A1SF.svg","response":0,"trial_type":"image-button-response","trial_index":111,"time_elapsed":356468,"internal_node_id":"0.0-4.0-0.50","subject_id":"5d4c06c6a8d9fb001a1470d5","study_id":"6197b3f67c2b5cd3b6d9596a","session_id":"619bef3ede4d7748e74338ff","condition":"contingent","relevant_dimensions":["wings","pattern"],"bee_group":{"antennae":"X","wings":"1","pattern":"D","legs":"X"},"action":"harvest","summary":"good-harvest","bonus":1.3000000000000012},{"rt":655,"stimulus":"\n                    <p><b>Action: <em>harvest</em></b></p>\n                    <p>This is the bee that you just saw.</p>\n                    <img src=\"bees-with-color/bee-A1SF.svg\" width=\"200\">\n                    <p><span class=\"greenText\"><b>Successful harvest!</b></span><br>Your pay has increased by $0.02. Your bonus pay is now $0.74.</p>\n            ","response":0,"trial_type":"html-button-response","trial_index":112,"time_elapsed":357125,"internal_node_id":"0.0-4.0-1.50","subject_id":"5d4c06c6a8d9fb001a1470d5","study_id":"6197b3f67c2b5cd3b6d9596a","session_id":"619bef3ede4d7748e74338ff","condition":"contingent","relevant_dimensions":["wings","pattern"],"bee_group":{"antennae":"X","wings":"1","pattern":"D","legs":"X"},"bonus":1.3000000000000012},{"rt":692.3000000000466,"stimulus":"bees-with-color/bee-A1SM.svg","response":0,"trial_type":"image-button-response","trial_index":113,"time_elapsed":357820,"internal_node_id":"0.0-4.0-0.51","subject_id":"5d4c06c6a8d9fb001a1470d5","study_id":"6197b3f67c2b5cd3b6d9596a","session_id":"619bef3ede4d7748e74338ff","condition":"contingent","relevant_dimensions":["wings","pattern"],"bee_group":{"antennae":"X","wings":"1","pattern":"D","legs":"X"},"action":"harvest","summary":"good-harvest","bonus":1.3000000000000012},{"rt":765.4000000000233,"stimulus":"\n                    <p><b>Action: <em>harvest</em></b></p>\n                    <p>This is the bee that you just saw.</p>\n                    <img src=\"bees-with-color/bee-A1SM.svg\" width=\"200\">\n                    <p><span class=\"greenText\"><b>Successful harvest!</b></span><br>Your pay has increased by $0.02. Your bonus pay is now $0.76.</p>\n            ","response":0,"trial_type":"html-button-response","trial_index":114,"time_elapsed":358588,"internal_node_id":"0.0-4.0-1.51","subject_id":"5d4c06c6a8d9fb001a1470d5","study_id":"6197b3f67c2b5cd3b6d9596a","session_id":"619bef3ede4d7748e74338ff","condition":"contingent","relevant_dimensions":["wings","pattern"],"bee_group":{"antennae":"X","wings":"1","pattern":"D","legs":"X"},"bonus":1.3000000000000012},{"rt":1154.6999999999534,"stimulus":"bees-with-color/bee-B2DM.svg","response":1,"trial_type":"image-button-response","trial_index":115,"time_elapsed":359745,"internal_node_id":"0.0-4.0-0.52","subject_id":"5d4c06c6a8d9fb001a1470d5","study_id":"6197b3f67c2b5cd3b6d9596a","session_id":"619bef3ede4d7748e74338ff","condition":"contingent","relevant_dimensions":["wings","pattern"],"bee_group":{"antennae":"X","wings":"1","pattern":"D","legs":"X"},"action":"avoid","summary":"bad-avoid","bonus":1.3000000000000012},{"rt":778.0999999999767,"stimulus":"\n                    <p><b>Action: <em>avoid</em></b></p>\n                    <p>This is the bee that you just saw.</p>\n                    <img src=\"bees-with-color/bee-B2DM.svg\" width=\"200\">\n                    <p><br>Your bonus pay is unchanged, and remains at $0.76.</p>\n            ","response":0,"trial_type":"html-button-response","trial_index":116,"time_elapsed":360525,"internal_node_id":"0.0-4.0-1.52","subject_id":"5d4c06c6a8d9fb001a1470d5","study_id":"6197b3f67c2b5cd3b6d9596a","session_id":"619bef3ede4d7748e74338ff","condition":"contingent","relevant_dimensions":["wings","pattern"],"bee_group":{"antennae":"X","wings":"1","pattern":"D","legs":"X"},"bonus":1.3000000000000012},{"rt":691.5,"stimulus":"bees-with-color/bee-B2SM.svg","response":0,"trial_type":"image-button-response","trial_index":117,"time_elapsed":361219,"internal_node_id":"0.0-4.0-0.53","subject_id":"5d4c06c6a8d9fb001a1470d5","study_id":"6197b3f67c2b5cd3b6d9596a","session_id":"619bef3ede4d7748e74338ff","condition":"contingent","relevant_dimensions":["wings","pattern"],"bee_group":{"antennae":"X","wings":"1","pattern":"D","legs":"X"},"action":"harvest","summary":"good-harvest","bonus":1.3000000000000012},{"rt":1019.8000000000466,"stimulus":"\n                    <p><b>Action: <em>harvest</em></b></p>\n                    <p>This is the bee that you just saw.</p>\n                    <img src=\"bees-with-color/bee-B2SM.svg\" width=\"200\">\n                    <p><span class=\"greenText\"><b>Successful harvest!</b></span><br>Your pay has increased by $0.02. Your bonus pay is now $0.78.</p>\n            ","response":0,"trial_type":"html-button-response","trial_index":118,"time_elapsed":362242,"internal_node_id":"0.0-4.0-1.53","subject_id":"5d4c06c6a8d9fb001a1470d5","study_id":"6197b3f67c2b5cd3b6d9596a","session_id":"619bef3ede4d7748e74338ff","condition":"contingent","relevant_dimensions":["wings","pattern"],"bee_group":{"antennae":"X","wings":"1","pattern":"D","legs":"X"},"bonus":1.3000000000000012},{"rt":2922.6999999999534,"stimulus":"bees-with-color/bee-A1DF.svg","response":1,"trial_type":"image-button-response","trial_index":119,"time_elapsed":365167,"internal_node_id":"0.0-4.0-0.54","subject_id":"5d4c06c6a8d9fb001a1470d5","study_id":"6197b3f67c2b5cd3b6d9596a","session_id":"619bef3ede4d7748e74338ff","condition":"contingent","relevant_dimensions":["wings","pattern"],"bee_group":{"antennae":"X","wings":"1","pattern":"D","legs":"X"},"action":"avoid","summary":"good-avoid","bonus":1.3000000000000012},{"rt":703.5,"stimulus":"\n                    <p><b>Action: <em>avoid</em></b></p>\n                    <p>This is the bee that you just saw.</p>\n                    <img src=\"bees-with-color/bee-A1DF.svg\" width=\"200\">\n                    <p><br>Your bonus pay is unchanged, and remains at $0.78.</p>\n            ","response":0,"trial_type":"html-button-response","trial_index":120,"time_elapsed":365872,"internal_node_id":"0.0-4.0-1.54","subject_id":"5d4c06c6a8d9fb001a1470d5","study_id":"6197b3f67c2b5cd3b6d9596a","session_id":"619bef3ede4d7748e74338ff","condition":"contingent","relevant_dimensions":["wings","pattern"],"bee_group":{"antennae":"X","wings":"1","pattern":"D","legs":"X"},"bonus":1.3000000000000012},{"rt":1569.5,"stimulus":"bees-with-color/bee-B2DF.svg","response":1,"trial_type":"image-button-response","trial_index":121,"time_elapsed":367445,"internal_node_id":"0.0-4.0-0.55","subject_id":"5d4c06c6a8d9fb001a1470d5","study_id":"6197b3f67c2b5cd3b6d9596a","session_id":"619bef3ede4d7748e74338ff","condition":"contingent","relevant_dimensions":["wings","pattern"],"bee_group":{"antennae":"X","wings":"1","pattern":"D","legs":"X"},"action":"avoid","summary":"bad-avoid","bonus":1.3000000000000012},{"rt":777.7999999999302,"stimulus":"\n                    <p><b>Action: <em>avoid</em></b></p>\n                    <p>This is the bee that you just saw.</p>\n                    <img src=\"bees-with-color/bee-B2DF.svg\" width=\"200\">\n                    <p><br>Your bonus pay is unchanged, and remains at $0.78.</p>\n            ","response":0,"trial_type":"html-button-response","trial_index":122,"time_elapsed":368225,"internal_node_id":"0.0-4.0-1.55","subject_id":"5d4c06c6a8d9fb001a1470d5","study_id":"6197b3f67c2b5cd3b6d9596a","session_id":"619bef3ede4d7748e74338ff","condition":"contingent","relevant_dimensions":["wings","pattern"],"bee_group":{"antennae":"X","wings":"1","pattern":"D","legs":"X"},"bonus":1.3000000000000012},{"rt":825.3000000000466,"stimulus":"bees-with-color/bee-B1SM.svg","response":0,"trial_type":"image-button-response","trial_index":123,"time_elapsed":369052,"internal_node_id":"0.0-4.0-0.56","subject_id":"5d4c06c6a8d9fb001a1470d5","study_id":"6197b3f67c2b5cd3b6d9596a","session_id":"619bef3ede4d7748e74338ff","condition":"contingent","relevant_dimensions":["wings","pattern"],"bee_group":{"antennae":"X","wings":"1","pattern":"D","legs":"X"},"action":"harvest","summary":"good-harvest","bonus":1.3000000000000012},{"rt":707.8000000000466,"stimulus":"\n                    <p><b>Action: <em>harvest</em></b></p>\n                    <p>This is the bee that you just saw.</p>\n                    <img src=\"bees-with-color/bee-B1SM.svg\" width=\"200\">\n                    <p><span class=\"greenText\"><b>Successful harvest!</b></span><br>Your pay has increased by $0.02. Your bonus pay is now $0.80.</p>\n            ","response":0,"trial_type":"html-button-response","trial_index":124,"time_elapsed":369762,"internal_node_id":"0.0-4.0-1.56","subject_id":"5d4c06c6a8d9fb001a1470d5","study_id":"6197b3f67c2b5cd3b6d9596a","session_id":"619bef3ede4d7748e74338ff","condition":"contingent","relevant_dimensions":["wings","pattern"],"bee_group":{"antennae":"X","wings":"1","pattern":"D","legs":"X"},"bonus":1.3000000000000012},{"rt":994.0999999999767,"stimulus":"bees-with-color/bee-B1DM.svg","response":1,"trial_type":"image-button-response","trial_index":125,"time_elapsed":370758,"internal_node_id":"0.0-4.0-0.57","subject_id":"5d4c06c6a8d9fb001a1470d5","study_id":"6197b3f67c2b5cd3b6d9596a","session_id":"619bef3ede4d7748e74338ff","condition":"contingent","relevant_dimensions":["wings","pattern"],"bee_group":{"antennae":"X","wings":"1","pattern":"D","legs":"X"},"action":"avoid","summary":"good-avoid","bonus":1.3000000000000012},{"rt":802.4000000000233,"stimulus":"\n                    <p><b>Action: <em>avoid</em></b></p>\n                    <p>This is the bee that you just saw.</p>\n                    <img src=\"bees-with-color/bee-B1DM.svg\" width=\"200\">\n                    <p><br>Your bonus pay is unchanged, and remains at $0.80.</p>\n            ","response":0,"trial_type":"html-button-response","trial_index":126,"time_elapsed":371563,"internal_node_id":"0.0-4.0-1.57","subject_id":"5d4c06c6a8d9fb001a1470d5","study_id":"6197b3f67c2b5cd3b6d9596a","session_id":"619bef3ede4d7748e74338ff","condition":"contingent","relevant_dimensions":["wings","pattern"],"bee_group":{"antennae":"X","wings":"1","pattern":"D","legs":"X"},"bonus":1.3000000000000012},{"rt":3130.0999999999767,"stimulus":"bees-with-color/bee-A2DM.svg","response":0,"trial_type":"image-button-response","trial_index":127,"time_elapsed":374694,"internal_node_id":"0.0-4.0-0.58","subject_id":"5d4c06c6a8d9fb001a1470d5","study_id":"6197b3f67c2b5cd3b6d9596a","session_id":"619bef3ede4d7748e74338ff","condition":"contingent","relevant_dimensions":["wings","pattern"],"bee_group":{"antennae":"X","wings":"1","pattern":"D","legs":"X"},"action":"harvest","summary":"good-harvest","bonus":1.3000000000000012},{"rt":634.5,"stimulus":"\n                    <p><b>Action: <em>harvest</em></b></p>\n                    <p>This is the bee that you just saw.</p>\n                    <img src=\"bees-with-color/bee-A2DM.svg\" width=\"200\">\n                    <p><span class=\"greenText\"><b>Successful harvest!</b></span><br>Your pay has increased by $0.02. Your bonus pay is now $0.82.</p>\n            ","response":0,"trial_type":"html-button-response","trial_index":128,"time_elapsed":375331,"internal_node_id":"0.0-4.0-1.58","subject_id":"5d4c06c6a8d9fb001a1470d5","study_id":"6197b3f67c2b5cd3b6d9596a","session_id":"619bef3ede4d7748e74338ff","condition":"contingent","relevant_dimensions":["wings","pattern"],"bee_group":{"antennae":"X","wings":"1","pattern":"D","legs":"X"},"bonus":1.3000000000000012},{"rt":713.3000000000466,"stimulus":"bees-with-color/bee-B2SF.svg","response":0,"trial_type":"image-button-response","trial_index":129,"time_elapsed":376046,"internal_node_id":"0.0-4.0-0.59","subject_id":"5d4c06c6a8d9fb001a1470d5","study_id":"6197b3f67c2b5cd3b6d9596a","session_id":"619bef3ede4d7748e74338ff","condition":"contingent","relevant_dimensions":["wings","pattern"],"bee_group":{"antennae":"X","wings":"1","pattern":"D","legs":"X"},"action":"harvest","summary":"good-harvest","bonus":1.3000000000000012},{"rt":692.9000000000233,"stimulus":"\n                    <p><b>Action: <em>harvest</em></b></p>\n                    <p>This is the bee that you just saw.</p>\n                    <img src=\"bees-with-color/bee-B2SF.svg\" width=\"200\">\n                    <p><span class=\"greenText\"><b>Successful harvest!</b></span><br>Your pay has increased by $0.02. Your bonus pay is now $0.84.</p>\n            ","response":0,"trial_type":"html-button-response","trial_index":130,"time_elapsed":376741,"internal_node_id":"0.0-4.0-1.59","subject_id":"5d4c06c6a8d9fb001a1470d5","study_id":"6197b3f67c2b5cd3b6d9596a","session_id":"619bef3ede4d7748e74338ff","condition":"contingent","relevant_dimensions":["wings","pattern"],"bee_group":{"antennae":"X","wings":"1","pattern":"D","legs":"X"},"bonus":1.3000000000000012},{"rt":2544.5999999999767,"stimulus":"bees-with-color/bee-A2DF.svg","response":0,"trial_type":"image-button-response","trial_index":131,"time_elapsed":379287,"internal_node_id":"0.0-4.0-0.60","subject_id":"5d4c06c6a8d9fb001a1470d5","study_id":"6197b3f67c2b5cd3b6d9596a","session_id":"619bef3ede4d7748e74338ff","condition":"contingent","relevant_dimensions":["wings","pattern"],"bee_group":{"antennae":"X","wings":"1","pattern":"D","legs":"X"},"action":"harvest","summary":"good-harvest","bonus":1.3000000000000012},{"rt":801.4000000000233,"stimulus":"\n                    <p><b>Action: <em>harvest</em></b></p>\n                    <p>This is the bee that you just saw.</p>\n                    <img src=\"bees-with-color/bee-A2DF.svg\" width=\"200\">\n                    <p><span class=\"greenText\"><b>Successful harvest!</b></span><br>Your pay has increased by $0.02. Your bonus pay is now $0.86.</p>\n            ","response":0,"trial_type":"html-button-response","trial_index":132,"time_elapsed":380090,"internal_node_id":"0.0-4.0-1.60","subject_id":"5d4c06c6a8d9fb001a1470d5","study_id":"6197b3f67c2b5cd3b6d9596a","session_id":"619bef3ede4d7748e74338ff","condition":"contingent","relevant_dimensions":["wings","pattern"],"bee_group":{"antennae":"X","wings":"1","pattern":"D","legs":"X"},"bonus":1.3000000000000012},{"rt":1300.5999999999767,"stimulus":"bees-with-color/bee-B1DF.svg","response":1,"trial_type":"image-button-response","trial_index":133,"time_elapsed":381393,"internal_node_id":"0.0-4.0-0.61","subject_id":"5d4c06c6a8d9fb001a1470d5","study_id":"6197b3f67c2b5cd3b6d9596a","session_id":"619bef3ede4d7748e74338ff","condition":"contingent","relevant_dimensions":["wings","pattern"],"bee_group":{"antennae":"X","wings":"1","pattern":"D","legs":"X"},"action":"avoid","summary":"good-avoid","bonus":1.3000000000000012},{"rt":851.2000000000698,"stimulus":"\n                    <p><b>Action: <em>avoid</em></b></p>\n                    <p>This is the bee that you just saw.</p>\n                    <img src=\"bees-with-color/bee-B1DF.svg\" width=\"200\">\n                    <p><br>Your bonus pay is unchanged, and remains at $0.86.</p>\n            ","response":0,"trial_type":"html-button-response","trial_index":134,"time_elapsed":382247,"internal_node_id":"0.0-4.0-1.61","subject_id":"5d4c06c6a8d9fb001a1470d5","study_id":"6197b3f67c2b5cd3b6d9596a","session_id":"619bef3ede4d7748e74338ff","condition":"contingent","relevant_dimensions":["wings","pattern"],"bee_group":{"antennae":"X","wings":"1","pattern":"D","legs":"X"},"bonus":1.3000000000000012},{"rt":1095.1999999999534,"stimulus":"bees-with-color/bee-B1SF.svg","response":0,"trial_type":"image-button-response","trial_index":135,"time_elapsed":383343,"internal_node_id":"0.0-4.0-0.62","subject_id":"5d4c06c6a8d9fb001a1470d5","study_id":"6197b3f67c2b5cd3b6d9596a","session_id":"619bef3ede4d7748e74338ff","condition":"contingent","relevant_dimensions":["wings","pattern"],"bee_group":{"antennae":"X","wings":"1","pattern":"D","legs":"X"},"action":"harvest","summary":"good-harvest","bonus":1.3000000000000012},{"rt":874.7999999999302,"stimulus":"\n                    <p><b>Action: <em>harvest</em></b></p>\n                    <p>This is the bee that you just saw.</p>\n                    <img src=\"bees-with-color/bee-B1SF.svg\" width=\"200\">\n                    <p><span class=\"greenText\"><b>Successful harvest!</b></span><br>Your pay has increased by $0.02. Your bonus pay is now $0.88.</p>\n            ","response":0,"trial_type":"html-button-response","trial_index":136,"time_elapsed":384220,"internal_node_id":"0.0-4.0-1.62","subject_id":"5d4c06c6a8d9fb001a1470d5","study_id":"6197b3f67c2b5cd3b6d9596a","session_id":"619bef3ede4d7748e74338ff","condition":"contingent","relevant_dimensions":["wings","pattern"],"bee_group":{"antennae":"X","wings":"1","pattern":"D","legs":"X"},"bonus":1.3000000000000012},{"rt":1082,"stimulus":"bees-with-color/bee-A2SF.svg","response":0,"trial_type":"image-button-response","trial_index":137,"time_elapsed":385304,"internal_node_id":"0.0-4.0-0.63","subject_id":"5d4c06c6a8d9fb001a1470d5","study_id":"6197b3f67c2b5cd3b6d9596a","session_id":"619bef3ede4d7748e74338ff","condition":"contingent","relevant_dimensions":["wings","pattern"],"bee_group":{"antennae":"X","wings":"1","pattern":"D","legs":"X"},"action":"harvest","summary":"good-harvest","bonus":1.3000000000000012},{"rt":1995.9000000000233,"stimulus":"\n                    <p><b>Action: <em>harvest</em></b></p>\n                    <p>This is the bee that you just saw.</p>\n                    <img src=\"bees-with-color/bee-A2SF.svg\" width=\"200\">\n                    <p><span class=\"greenText\"><b>Successful harvest!</b></span><br>Your pay has increased by $0.02. Your bonus pay is now $0.90.</p>\n            ","response":0,"trial_type":"html-button-response","trial_index":138,"time_elapsed":387302,"internal_node_id":"0.0-4.0-1.63","subject_id":"5d4c06c6a8d9fb001a1470d5","study_id":"6197b3f67c2b5cd3b6d9596a","session_id":"619bef3ede4d7748e74338ff","condition":"contingent","relevant_dimensions":["wings","pattern"],"bee_group":{"antennae":"X","wings":"1","pattern":"D","legs":"X"},"bonus":1.3000000000000012},{"rt":5977.099999999977,"stimulus":"You have completed the first part of this experiment.<br><br>You will now begin a shorter second part, in which you will receive no feedback.<br>The same rules regarding bonus pay apply.<br><br>Press any key to begin.","response":" ","trial_type":"html-keyboard-response","trial_index":139,"time_elapsed":393281,"internal_node_id":"0.0-5.0","subject_id":"5d4c06c6a8d9fb001a1470d5","study_id":"6197b3f67c2b5cd3b6d9596a","session_id":"619bef3ede4d7748e74338ff","condition":"contingent","relevant_dimensions":["wings","pattern"],"bee_group":{"antennae":"X","wings":"1","pattern":"D","legs":"X"},"bonus":1.3000000000000012},{"rt":1717.0999999999767,"stimulus":"bees-with-color/bee-B1DM.svg","response":1,"trial_type":"image-button-response","trial_index":140,"time_elapsed":395018,"internal_node_id":"0.0-6.0-0.0","subject_id":"5d4c06c6a8d9fb001a1470d5","study_id":"6197b3f67c2b5cd3b6d9596a","session_id":"619bef3ede4d7748e74338ff","condition":"contingent","relevant_dimensions":["wings","pattern"],"bee_group":{"antennae":"X","wings":"1","pattern":"D","legs":"X"},"bonus":1.3000000000000012},{"rt":1650.4000000000233,"stimulus":"bees-with-color/bee-A1SM.svg","response":0,"trial_type":"image-button-response","trial_index":141,"time_elapsed":396672,"internal_node_id":"0.0-6.0-0.1","subject_id":"5d4c06c6a8d9fb001a1470d5","study_id":"6197b3f67c2b5cd3b6d9596a","session_id":"619bef3ede4d7748e74338ff","condition":"contingent","relevant_dimensions":["wings","pattern"],"bee_group":{"antennae":"X","wings":"1","pattern":"D","legs":"X"},"bonus":1.3000000000000012},{"rt":679.1000000000931,"stimulus":"bees-with-color/bee-B1SF.svg","response":0,"trial_type":"image-button-response","trial_index":142,"time_elapsed":397355,"internal_node_id":"0.0-6.0-0.2","subject_id":"5d4c06c6a8d9fb001a1470d5","study_id":"6197b3f67c2b5cd3b6d9596a","session_id":"619bef3ede4d7748e74338ff","condition":"contingent","relevant_dimensions":["wings","pattern"],"bee_group":{"antennae":"X","wings":"1","pattern":"D","legs":"X"},"bonus":1.3000000000000012},{"rt":580.9000000000233,"stimulus":"bees-with-color/bee-B2SF.svg","response":0,"trial_type":"image-button-response","trial_index":143,"time_elapsed":397939,"internal_node_id":"0.0-6.0-0.3","subject_id":"5d4c06c6a8d9fb001a1470d5","study_id":"6197b3f67c2b5cd3b6d9596a","session_id":"619bef3ede4d7748e74338ff","condition":"contingent","relevant_dimensions":["wings","pattern"],"bee_group":{"antennae":"X","wings":"1","pattern":"D","legs":"X"},"bonus":1.3000000000000012},{"rt":2702.0999999999767,"stimulus":"bees-with-color/bee-A2DF.svg","response":0,"trial_type":"image-button-response","trial_index":144,"time_elapsed":400644,"internal_node_id":"0.0-6.0-0.4","subject_id":"5d4c06c6a8d9fb001a1470d5","study_id":"6197b3f67c2b5cd3b6d9596a","session_id":"619bef3ede4d7748e74338ff","condition":"contingent","relevant_dimensions":["wings","pattern"],"bee_group":{"antennae":"X","wings":"1","pattern":"D","legs":"X"},"bonus":1.3000000000000012},{"rt":1043,"stimulus":"bees-with-color/bee-A1DM.svg","response":1,"trial_type":"image-button-response","trial_index":145,"time_elapsed":401690,"internal_node_id":"0.0-6.0-0.5","subject_id":"5d4c06c6a8d9fb001a1470d5","study_id":"6197b3f67c2b5cd3b6d9596a","session_id":"619bef3ede4d7748e74338ff","condition":"contingent","relevant_dimensions":["wings","pattern"],"bee_group":{"antennae":"X","wings":"1","pattern":"D","legs":"X"},"bonus":1.3000000000000012},{"rt":996.0999999999767,"stimulus":"bees-with-color/bee-A2SF.svg","response":0,"trial_type":"image-button-response","trial_index":146,"time_elapsed":402689,"internal_node_id":"0.0-6.0-0.6","subject_id":"5d4c06c6a8d9fb001a1470d5","study_id":"6197b3f67c2b5cd3b6d9596a","session_id":"619bef3ede4d7748e74338ff","condition":"contingent","relevant_dimensions":["wings","pattern"],"bee_group":{"antennae":"X","wings":"1","pattern":"D","legs":"X"},"bonus":1.3000000000000012},{"rt":837.5,"stimulus":"bees-with-color/bee-A1SF.svg","response":0,"trial_type":"image-button-response","trial_index":147,"time_elapsed":403530,"internal_node_id":"0.0-6.0-0.7","subject_id":"5d4c06c6a8d9fb001a1470d5","study_id":"6197b3f67c2b5cd3b6d9596a","session_id":"619bef3ede4d7748e74338ff","condition":"contingent","relevant_dimensions":["wings","pattern"],"bee_group":{"antennae":"X","wings":"1","pattern":"D","legs":"X"},"bonus":1.3000000000000012},{"rt":1569.6999999999534,"stimulus":"bees-with-color/bee-A1DF.svg","response":1,"trial_type":"image-button-response","trial_index":148,"time_elapsed":405102,"internal_node_id":"0.0-6.0-0.8","subject_id":"5d4c06c6a8d9fb001a1470d5","study_id":"6197b3f67c2b5cd3b6d9596a","session_id":"619bef3ede4d7748e74338ff","condition":"contingent","relevant_dimensions":["wings","pattern"],"bee_group":{"antennae":"X","wings":"1","pattern":"D","legs":"X"},"bonus":1.3000000000000012},{"rt":1724.7000000000698,"stimulus":"bees-with-color/bee-B2DM.svg","response":1,"trial_type":"image-button-response","trial_index":149,"time_elapsed":406830,"internal_node_id":"0.0-6.0-0.9","subject_id":"5d4c06c6a8d9fb001a1470d5","study_id":"6197b3f67c2b5cd3b6d9596a","session_id":"619bef3ede4d7748e74338ff","condition":"contingent","relevant_dimensions":["wings","pattern"],"bee_group":{"antennae":"X","wings":"1","pattern":"D","legs":"X"},"bonus":1.3000000000000012},{"rt":1094.7000000000698,"stimulus":"bees-with-color/bee-A2SM.svg","response":0,"trial_type":"image-button-response","trial_index":150,"time_elapsed":407927,"internal_node_id":"0.0-6.0-0.10","subject_id":"5d4c06c6a8d9fb001a1470d5","study_id":"6197b3f67c2b5cd3b6d9596a","session_id":"619bef3ede4d7748e74338ff","condition":"contingent","relevant_dimensions":["wings","pattern"],"bee_group":{"antennae":"X","wings":"1","pattern":"D","legs":"X"},"bonus":1.3000000000000012},{"rt":513.4000000000233,"stimulus":"bees-with-color/bee-B1SM.svg","response":0,"trial_type":"image-button-response","trial_index":151,"time_elapsed":408444,"internal_node_id":"0.0-6.0-0.11","subject_id":"5d4c06c6a8d9fb001a1470d5","study_id":"6197b3f67c2b5cd3b6d9596a","session_id":"619bef3ede4d7748e74338ff","condition":"contingent","relevant_dimensions":["wings","pattern"],"bee_group":{"antennae":"X","wings":"1","pattern":"D","legs":"X"},"bonus":1.3000000000000012},{"rt":1673.4000000000233,"stimulus":"bees-with-color/bee-A2DM.svg","response":0,"trial_type":"image-button-response","trial_index":152,"time_elapsed":410120,"internal_node_id":"0.0-6.0-0.12","subject_id":"5d4c06c6a8d9fb001a1470d5","study_id":"6197b3f67c2b5cd3b6d9596a","session_id":"619bef3ede4d7748e74338ff","condition":"contingent","relevant_dimensions":["wings","pattern"],"bee_group":{"antennae":"X","wings":"1","pattern":"D","legs":"X"},"bonus":1.3000000000000012},{"rt":1374.7000000000698,"stimulus":"bees-with-color/bee-B2DF.svg","response":1,"trial_type":"image-button-response","trial_index":153,"time_elapsed":411497,"internal_node_id":"0.0-6.0-0.13","subject_id":"5d4c06c6a8d9fb001a1470d5","study_id":"6197b3f67c2b5cd3b6d9596a","session_id":"619bef3ede4d7748e74338ff","condition":"contingent","relevant_dimensions":["wings","pattern"],"bee_group":{"antennae":"X","wings":"1","pattern":"D","legs":"X"},"bonus":1.3000000000000012},{"rt":897.9000000000233,"stimulus":"bees-with-color/bee-B1DF.svg","response":1,"trial_type":"image-button-response","trial_index":154,"time_elapsed":412397,"internal_node_id":"0.0-6.0-0.14","subject_id":"5d4c06c6a8d9fb001a1470d5","study_id":"6197b3f67c2b5cd3b6d9596a","session_id":"619bef3ede4d7748e74338ff","condition":"contingent","relevant_dimensions":["wings","pattern"],"bee_group":{"antennae":"X","wings":"1","pattern":"D","legs":"X"},"bonus":1.3000000000000012},{"rt":825.8000000000466,"stimulus":"bees-with-color/bee-B2SM.svg","response":0,"trial_type":"image-button-response","trial_index":155,"time_elapsed":413226,"internal_node_id":"0.0-6.0-0.15","subject_id":"5d4c06c6a8d9fb001a1470d5","study_id":"6197b3f67c2b5cd3b6d9596a","session_id":"619bef3ede4d7748e74338ff","condition":"contingent","relevant_dimensions":["wings","pattern"],"bee_group":{"antennae":"X","wings":"1","pattern":"D","legs":"X"},"bonus":1.3000000000000012},{"rt":1362.3000000000466,"stimulus":"bees-with-color/bee-A2DF.svg","response":1,"trial_type":"image-button-response","trial_index":156,"time_elapsed":414591,"internal_node_id":"0.0-6.0-0.16","subject_id":"5d4c06c6a8d9fb001a1470d5","study_id":"6197b3f67c2b5cd3b6d9596a","session_id":"619bef3ede4d7748e74338ff","condition":"contingent","relevant_dimensions":["wings","pattern"],"bee_group":{"antennae":"X","wings":"1","pattern":"D","legs":"X"},"bonus":1.3000000000000012},{"rt":1204.9000000000233,"stimulus":"bees-with-color/bee-A2SF.svg","response":0,"trial_type":"image-button-response","trial_index":157,"time_elapsed":415798,"internal_node_id":"0.0-6.0-0.17","subject_id":"5d4c06c6a8d9fb001a1470d5","study_id":"6197b3f67c2b5cd3b6d9596a","session_id":"619bef3ede4d7748e74338ff","condition":"contingent","relevant_dimensions":["wings","pattern"],"bee_group":{"antennae":"X","wings":"1","pattern":"D","legs":"X"},"bonus":1.3000000000000012},{"rt":2249.5999999999767,"stimulus":"bees-with-color/bee-A2DM.svg","response":0,"trial_type":"image-button-response","trial_index":158,"time_elapsed":418050,"internal_node_id":"0.0-6.0-0.18","subject_id":"5d4c06c6a8d9fb001a1470d5","study_id":"6197b3f67c2b5cd3b6d9596a","session_id":"619bef3ede4d7748e74338ff","condition":"contingent","relevant_dimensions":["wings","pattern"],"bee_group":{"antennae":"X","wings":"1","pattern":"D","legs":"X"},"bonus":1.3000000000000012},{"rt":619.2000000000698,"stimulus":"bees-with-color/bee-A1SM.svg","response":0,"trial_type":"image-button-response","trial_index":159,"time_elapsed":418672,"internal_node_id":"0.0-6.0-0.19","subject_id":"5d4c06c6a8d9fb001a1470d5","study_id":"6197b3f67c2b5cd3b6d9596a","session_id":"619bef3ede4d7748e74338ff","condition":"contingent","relevant_dimensions":["wings","pattern"],"bee_group":{"antennae":"X","wings":"1","pattern":"D","legs":"X"},"bonus":1.3000000000000012},{"rt":508.69999999995343,"stimulus":"bees-with-color/bee-A1SF.svg","response":0,"trial_type":"image-button-response","trial_index":160,"time_elapsed":419184,"internal_node_id":"0.0-6.0-0.20","subject_id":"5d4c06c6a8d9fb001a1470d5","study_id":"6197b3f67c2b5cd3b6d9596a","session_id":"619bef3ede4d7748e74338ff","condition":"contingent","relevant_dimensi