[{"success":true,"trial_type":"fullscreen","trial_index":0,"time_elapsed":65660,"internal_node_id":"0.0-0.0","subject_id":"5f6bf2714d79b7164c7778c0","study_id":"6197b3f67c2b5cd3b6d9596a","session_id":"619be787ea3bfaf2bc3ab906","condition":"contingent","relevant_dimensions":["pattern","legs"],"bee_group":{"antennae":"X","wings":"X","pattern":"S","legs":"M"},"bonus":1.200000000000001},{"success":true,"timeout":false,"failed_images":[],"failed_audio":[],"failed_video":[],"trial_type":"preload","trial_index":1,"time_elapsed":68132,"internal_node_id":"0.0-1.0","subject_id":"5f6bf2714d79b7164c7778c0","study_id":"6197b3f67c2b5cd3b6d9596a","session_id":"619be787ea3bfaf2bc3ab906","condition":"contingent","relevant_dimensions":["pattern","legs"],"bee_group":{"antennae":"X","wings":"X","pattern":"S","legs":"M"},"bonus":1.200000000000001},{"rt":1791.5,"stimulus":"Welcome! Press any key to begin.","response":" ","trial_type":"html-keyboard-response","trial_index":2,"time_elapsed":69925,"internal_node_id":"0.0-2.0","subject_id":"5f6bf2714d79b7164c7778c0","study_id":"6197b3f67c2b5cd3b6d9596a","session_id":"619be787ea3bfaf2bc3ab906","condition":"contingent","relevant_dimensions":["pattern","legs"],"bee_group":{"antennae":"X","wings":"X","pattern":"S","legs":"M"},"bonus":1.200000000000001},{"view_history":[{"page_index":0,"viewing_time":4665.699999988079},{"page_index":1,"viewing_time":18309.900000035763},{"page_index":2,"viewing_time":11387},{"page_index":3,"viewing_time":15733},{"page_index":4,"viewing_time":5082.199999988079},{"page_index":5,"viewing_time":6368.699999988079},{"page_index":6,"viewing_time":11377.800000011921},{"page_index":7,"viewing_time":3725.899999976158},{"page_index":6,"viewing_time":7416.100000023842},{"page_index":7,"viewing_time":3831.199999988079},{"page_index":8,"viewing_time":4383.800000011921},{"page_index":9,"viewing_time":5577.300000011921},{"page_index":10,"viewing_time":1872.7999999523163},{"page_index":11,"viewing_time":14982.900000035763},{"page_index":12,"viewing_time":6769},{"page_index":13,"viewing_time":1305.5},{"page_index":14,"viewing_time":3797}],"rt":126586.10000002384,"trial_type":"instructions","trial_index":3,"time_elapsed":196511,"internal_node_id":"0.0-3.0-0.0","subject_id":"5f6bf2714d79b7164c7778c0","study_id":"6197b3f67c2b5cd3b6d9596a","session_id":"619be787ea3bfaf2bc3ab906","condition":"contingent","relevant_dimensions":["pattern","legs"],"bee_group":{"antennae":"X","wings":"X","pattern":"S","legs":"M"},"bonus":1.200000000000001},{"rt":13390.399999976158,"response":{"Q0":["Two or six legs","Stripes or spots on body","Single or double wings","Antennae or no antennae"]},"question_order":[0],"trial_type":"survey-multi-select","trial_index":4,"time_elapsed":209905,"internal_node_id":"0.0-3.0-1.0","subject_id":"5f6bf2714d79b7164c7778c0","study_id":"6197b3f67c2b5cd3b6d9596a","session_id":"619be787ea3bfaf2bc3ab906","condition":"contingent","relevant_dimensions":["pattern","legs"],"bee_group":{"antennae":"X","wings":"X","pattern":"S","legs":"M"},"correct":true,"bonus":1.200000000000001},{"rt":30330.5,"response":{"Q1":"No.","Q2":"Based on the four features of the bee.","Q3":"You do not learn if it was friendly or dangerous, and do not alter your bonus."},"question_order":[0,1,2],"trial_type":"survey-multi-choice","trial_index":5,"time_elapsed":240237,"internal_node_id":"0.0-3.0-2.0","subject_id":"5f6bf2714d79b7164c7778c0","study_id":"6197b3f67c2b5cd3b6d9596a","session_id":"619be787ea3bfaf2bc3ab906","condition":"contingent","relevant_dimensions":["pattern","legs"],"bee_group":{"antennae":"X","wings":"X","pattern":"S","legs":"M"},"correct":true,"bonus":1.200000000000001},{"rt":3290.199999988079,"stimulus":"<p>Congrats, you got everything right<br>When you're ready, click the button below to continue to the experiment.</p>","response":0,"trial_type":"html-button-response","trial_index":6,"time_elapsed":243529,"internal_node_id":"0.0-3.0-3.0","subject_id":"5f6bf2714d79b7164c7778c0","study_id":"6197b3f67c2b5cd3b6d9596a","session_id":"619be787ea3bfaf2bc3ab906","condition":"contingent","relevant_dimensions":["pattern","legs"],"bee_group":{"antennae":"X","wings":"X","pattern":"S","legs":"M"},"bonus":1.200000000000001},{"rt":13960.200000047684,"stimulus":"bees-with-color/bee-B1DM.svg","response":0,"trial_type":"image-button-response","trial_index":7,"time_elapsed":257491,"internal_node_id":"0.0-4.0-0.0","subject_id":"5f6bf2714d79b7164c7778c0","study_id":"6197b3f67c2b5cd3b6d9596a","session_id":"619be787ea3bfaf2bc3ab906","condition":"contingent","relevant_dimensions":["pattern","legs"],"bee_group":{"antennae":"X","wings":"X","pattern":"S","legs":"M"},"action":"harvest","summary":"good-harvest","bonus":1.200000000000001},{"rt":11464.5,"stimulus":"\n                    <p><b>Action: <em>harvest</em></b></p>\n                    <p>This is the bee that you just saw.</p>\n                    <img src=\"bees-with-color/bee-B1DM.svg\" width=\"200\">\n                    <p><span class=\"greenText\"><b>Successful harvest!</b></span><br>Your pay has increased by $0.02. Your bonus pay is now $0.56.</p>\n            ","response":0,"trial_type":"html-button-response","trial_index":8,"time_elapsed":268958,"internal_node_id":"0.0-4.0-1.0","subject_id":"5f6bf2714d79b7164c7778c0","study_id":"6197b3f67c2b5cd3b6d9596a","session_id":"619be787ea3bfaf2bc3ab906","condition":"contingent","relevant_dimensions":["pattern","legs"],"bee_group":{"antennae":"X","wings":"X","pattern":"S","legs":"M"},"bonus":1.200000000000001},{"rt":4765,"stimulus":"bees-with-color/bee-B1DF.svg","response":0,"trial_type":"image-button-response","trial_index":9,"time_elapsed":273724,"internal_node_id":"0.0-4.0-0.1","subject_id":"5f6bf2714d79b7164c7778c0","study_id":"6197b3f67c2b5cd3b6d9596a","session_id":"619be787ea3bfaf2bc3ab906","condition":"contingent","relevant_dimensions":["pattern","legs"],"bee_group":{"antennae":"X","wings":"X","pattern":"S","legs":"M"},"action":"harvest","summary":"good-harvest","bonus":1.200000000000001},{"rt":732,"stimulus":"\n                    <p><b>Action: <em>harvest</em></b></p>\n                    <p>This is the bee that you just saw.</p>\n                    <img src=\"bees-with-color/bee-B1DF.svg\" width=\"200\">\n                    <p><span class=\"greenText\"><b>Successful harvest!</b></span><br>Your pay has increased by $0.02. Your bonus pay is now $0.58.</p>\n            ","response":0,"trial_type":"html-button-response","trial_index":10,"time_elapsed":274458,"internal_node_id":"0.0-4.0-1.1","subject_id":"5f6bf2714d79b7164c7778c0","study_id":"6197b3f67c2b5cd3b6d9596a","session_id":"619be787ea3bfaf2bc3ab906","condition":"contingent","relevant_dimensions":["pattern","legs"],"bee_group":{"antennae":"X","wings":"X","pattern":"S","legs":"M"},"bonus":1.200000000000001},{"rt":3740.199999988079,"stimulus":"bees-with-color/bee-A1SM.svg","response":1,"trial_type":"image-button-response","trial_index":11,"time_elapsed":278200,"internal_node_id":"0.0-4.0-0.2","subject_id":"5f6bf2714d79b7164c7778c0","study_id":"6197b3f67c2b5cd3b6d9596a","session_id":"619be787ea3bfaf2bc3ab906","condition":"contingent","relevant_dimensions":["pattern","legs"],"bee_group":{"antennae":"X","wings":"X","pattern":"S","legs":"M"},"action":"avoid","summary":"good-avoid","bonus":1.200000000000001},{"rt":4219.100000023842,"stimulus":"\n                    <p><b>Action: <em>avoid</em></b></p>\n                    <p>This is the bee that you just saw.</p>\n                    <img src=\"bees-with-color/bee-A1SM.svg\" width=\"200\">\n                    <p><br>Your bonus pay is unchanged, and remains at $0.58.</p>\n            ","response":0,"trial_type":"html-button-response","trial_index":12,"time_elapsed":282421,"internal_node_id":"0.0-4.0-1.2","subject_id":"5f6bf2714d79b7164c7778c0","study_id":"6197b3f67c2b5cd3b6d9596a","session_id":"619be787ea3bfaf2bc3ab906","condition":"contingent","relevant_dimensions":["pattern","legs"],"bee_group":{"antennae":"X","wings":"X","pattern":"S","legs":"M"},"bonus":1.200000000000001},{"rt":1987.0999999642372,"stimulus":"bees-with-color/bee-A2DM.svg","response":1,"trial_type":"image-button-response","trial_index":13,"time_elapsed":284411,"internal_node_id":"0.0-4.0-0.3","subject_id":"5f6bf2714d79b7164c7778c0","study_id":"6197b3f67c2b5cd3b6d9596a","session_id":"619be787ea3bfaf2bc3ab906","condition":"contingent","relevant_dimensions":["pattern","legs"],"bee_group":{"antennae":"X","wings":"X","pattern":"S","legs":"M"},"action":"avoid","summary":"bad-avoid","bonus":1.200000000000001},{"rt":941.8000000119209,"stimulus":"\n                    <p><b>Action: <em>avoid</em></b></p>\n                    <p>This is the bee that you just saw.</p>\n                    <img src=\"bees-with-color/bee-A2DM.svg\" width=\"200\">\n                    <p><br>Your bonus pay is unchanged, and remains at $0.58.</p>\n            ","response":0,"trial_type":"html-button-response","trial_index":14,"time_elapsed":285354,"internal_node_id":"0.0-4.0-1.3","subject_id":"5f6bf2714d79b7164c7778c0","study_id":"6197b3f67c2b5cd3b6d9596a","session_id":"619be787ea3bfaf2bc3ab906","condition":"contingent","relevant_dimensions":["pattern","legs"],"bee_group":{"antennae":"X","wings":"X","pattern":"S","legs":"M"},"bonus":1.200000000000001},{"rt":1486,"stimulus":"bees-with-color/bee-B2DF.svg","response":0,"trial_type":"image-button-response","trial_index":15,"time_elapsed":286841,"internal_node_id":"0.0-4.0-0.4","subject_id":"5f6bf2714d79b7164c7778c0","study_id":"6197b3f67c2b5cd3b6d9596a","session_id":"619be787ea3bfaf2bc3ab906","condition":"contingent","relevant_dimensions":["pattern","legs"],"bee_group":{"antennae":"X","wings":"X","pattern":"S","legs":"M"},"action":"harvest","summary":"good-harvest","bonus":1.200000000000001},{"rt":9849,"stimulus":"\n                    <p><b>Action: <em>harvest</em></b></p>\n                    <p>This is the bee that you just saw.</p>\n                    <img src=\"bees-with-color/bee-B2DF.svg\" width=\"200\">\n                    <p><span class=\"greenText\"><b>Successful harvest!</b></span><br>Your pay has increased by $0.02. Your bonus pay is now $0.60.</p>\n            ","response":0,"trial_type":"html-button-response","trial_index":16,"time_elapsed":296691,"internal_node_id":"0.0-4.0-1.4","subject_id":"5f6bf2714d79b7164c7778c0","study_id":"6197b3f67c2b5cd3b6d9596a","session_id":"619be787ea3bfaf2bc3ab906","condition":"contingent","relevant_dimensions":["pattern","legs"],"bee_group":{"antennae":"X","wings":"X","pattern":"S","legs":"M"},"bonus":1.200000000000001},{"rt":1848.5999999642372,"stimulus":"bees-with-color/bee-B2SF.svg","response":0,"trial_type":"image-button-response","trial_index":17,"time_elapsed":298541,"internal_node_id":"0.0-4.0-0.5","subject_id":"5f6bf2714d79b7164c7778c0","study_id":"6197b3f67c2b5cd3b6d9596a","session_id":"619be787ea3bfaf2bc3ab906","condition":"contingent","relevant_dimensions":["pattern","legs"],"bee_group":{"antennae":"X","wings":"X","pattern":"S","legs":"M"},"action":"harvest","summary":"good-harvest","bonus":1.200000000000001},{"rt":8364.400000035763,"stimulus":"\n                    <p><b>Action: <em>harvest</em></b></p>\n                    <p>This is the bee that you just saw.</p>\n                    <img src=\"bees-with-color/bee-B2SF.svg\" width=\"200\">\n                    <p><span class=\"greenText\"><b>Successful harvest!</b></span><br>Your pay has increased by $0.02. Your bonus pay is now $0.62.</p>\n            ","response":0,"trial_type":"html-button-response","trial_index":18,"time_elapsed":306907,"internal_node_id":"0.0-4.0-1.5","subject_id":"5f6bf2714d79b7164c7778c0","study_id":"6197b3f67c2b5cd3b6d9596a","session_id":"619be787ea3bfaf2bc3ab906","condition":"contingent","relevant_dimensions":["pattern","legs"],"bee_group":{"antennae":"X","wings":"X","pattern":"S","legs":"M"},"bonus":1.200000000000001},{"rt":7222.200000047684,"stimulus":"bees-with-color/bee-A1DM.svg","response":0,"trial_type":"image-button-response","trial_index":19,"time_elapsed":314131,"internal_node_id":"0.0-4.0-0.6","subject_id":"5f6bf2714d79b7164c7778c0","study_id":"6197b3f67c2b5cd3b6d9596a","session_id":"619be787ea3bfaf2bc3ab906","condition":"contingent","relevant_dimensions":["pattern","legs"],"bee_group":{"antennae":"X","wings":"X","pattern":"S","legs":"M"},"action":"harvest","summary":"good-harvest","bonus":1.200000000000001},{"rt":10264.5,"stimulus":"\n                    <p><b>Action: <em>harvest</em></b></p>\n                    <p>This is the bee that you just saw.</p>\n                    <img src=\"bees-with-color/bee-A1DM.svg\" width=\"200\">\n                    <p><span class=\"greenText\"><b>Successful harvest!</b></span><br>Your pay has increased by $0.02. Your bonus pay is now $0.64.</p>\n            ","response":0,"trial_type":"html-button-response","trial_index":20,"time_elapsed":324397,"internal_node_id":"0.0-4.0-1.6","subject_id":"5f6bf2714d79b7164c7778c0","study_id":"6197b3f67c2b5cd3b6d9596a","session_id":"619be787ea3bfaf2bc3ab906","condition":"contingent","relevant_dimensions":["pattern","legs"],"bee_group":{"antennae":"X","wings":"X","pattern":"S","legs":"M"},"bonus":1.200000000000001},{"rt":2448.5,"stimulus":"bees-with-color/bee-A2SM.svg","response":1,"trial_type":"image-button-response","trial_index":21,"time_elapsed":326847,"internal_node_id":"0.0-4.0-0.7","subject_id":"5f6bf2714d79b7164c7778c0","study_id":"6197b3f67c2b5cd3b6d9596a","session_id":"619be787ea3bfaf2bc3ab906","condition":"contingent","relevant_dimensions":["pattern","legs"],"bee_group":{"antennae":"X","wings":"X","pattern":"S","legs":"M"},"action":"avoid","summary":"good-avoid","bonus":1.200000000000001},{"rt":678.6000000238419,"stimulus":"\n                    <p><b>Action: <em>avoid</em></b></p>\n                    <p>This is the bee that you just saw.</p>\n                    <img src=\"bees-with-color/bee-A2SM.svg\" width=\"200\">\n                    <p><br>Your bonus pay is unchanged, and remains at $0.64.</p>\n            ","response":0,"trial_type":"html-button-response","trial_index":22,"time_elapsed":327527,"internal_node_id":"0.0-4.0-1.7","subject_id":"5f6bf2714d79b7164c7778c0","study_id":"6197b3f67c2b5cd3b6d9596a","session_id":"619be787ea3bfaf2bc3ab906","condition":"contingent","relevant_dimensions":["pattern","legs"],"bee_group":{"antennae":"X","wings":"X","pattern":"S","legs":"M"},"bonus":1.200000000000001},{"rt":1970.9000000357628,"stimulus":"bees-with-color/bee-B1SM.svg","response":0,"trial_type":"image-button-response","trial_index":23,"time_elapsed":329499,"internal_node_id":"0.0-4.0-0.8","subject_id":"5f6bf2714d79b7164c7778c0","study_id":"6197b3f67c2b5cd3b6d9596a","session_id":"619be787ea3bfaf2bc3ab906","condition":"contingent","relevant_dimensions":["pattern","legs"],"bee_group":{"antennae":"X","wings":"X","pattern":"S","legs":"M"},"action":"harvest","summary":"bad-harvest","bonus":1.200000000000001},{"rt":12013.5,"stimulus":"\n                    <p><b>Action: <em>harvest</em></b></p>\n                    <p>This is the bee that you just saw.</p>\n                    <img src=\"bees-with-color/bee-B1SM.svg\" width=\"200\">\n                    <p><span class=\"redText\">Bad choice, the bee was angry.</span><br><b>You have been stung!</b><br>Your pay has been decreased by $0.10. Your bonus pay is now $0.54.</p>\n            ","response":0,"trial_type":"html-button-response","trial_index":24,"time_elapsed":341514,"internal_node_id":"0.0-4.0-1.8","subject_id":"5f6bf2714d79b7164c7778c0","study_id":"6197b3f67c2b5cd3b6d9596a","session_id":"619be787ea3bfaf2bc3ab906","condition":"contingent","relevant_dimensions":["pattern","legs"],"bee_group":{"antennae":"X","wings":"X","pattern":"S","legs":"M"},"bonus":1.200000000000001},{"rt":1831.4000000357628,"stimulus":"bees-with-color/bee-A1DF.svg","response":0,"trial_type":"image-button-response","trial_index":25,"time_elapsed":343347,"internal_node_id":"0.0-4.0-0.9","subject_id":"5f6bf2714d79b7164c7778c0","study_id":"6197b3f67c2b5cd3b6d9596a","session_id":"619be787ea3bfaf2bc3ab906","condition":"contingent","relevant_dimensions":["pattern","legs"],"bee_group":{"antennae":"X","wings":"X","pattern":"S","legs":"M"},"action":"harvest","summary":"good-harvest","bonus":1.200000000000001},{"rt":14044.900000035763,"stimulus":"\n                    <p><b>Action: <em>harvest</em></b></p>\n                    <p>This is the bee that you just saw.</p>\n                    <img src=\"bees-with-color/bee-A1DF.svg\" width=\"200\">\n                    <p><span class=\"greenText\"><b>Successful harvest!</b></span><br>Your pay has increased by $0.02. Your bonus pay is now $0.56.</p>\n            ","response":0,"trial_type":"html-button-response","trial_index":26,"time_elapsed":357393,"internal_node_id":"0.0-4.0-1.9","subject_id":"5f6bf2714d79b7164c7778c0","study_id":"6197b3f67c2b5cd3b6d9596a","session_id":"619be787ea3bfaf2bc3ab906","condition":"contingent","relevant_dimensions":["pattern","legs"],"bee_group":{"antennae":"X","wings":"X","pattern":"S","legs":"M"},"bonus":1.200000000000001},{"rt":6909.699999988079,"stimulus":"bees-with-color/bee-B1SF.svg","response":0,"trial_type":"image-button-response","trial_index":27,"time_elapsed":364304,"internal_node_id":"0.0-4.0-0.10","subject_id":"5f6bf2714d79b7164c7778c0","study_id":"6197b3f67c2b5cd3b6d9596a","session_id":"619be787ea3bfaf2bc3ab906","condition":"contingent","relevant_dimensions":["pattern","legs"],"bee_group":{"antennae":"X","wings":"X","pattern":"S","legs":"M"},"action":"harvest","summary":"good-harvest","bonus":1.200000000000001},{"rt":800.8000000119209,"stimulus":"\n                    <p><b>Action: <em>harvest</em></b></p>\n                    <p>This is the bee that you just saw.</p>\n                    <img src=\"bees-with-color/bee-B1SF.svg\" width=\"200\">\n                    <p><span class=\"greenText\"><b>Successful harvest!</b></span><br>Your pay has increased by $0.02. Your bonus pay is now $0.58.</p>\n            ","response":0,"trial_type":"html-button-response","trial_index":28,"time_elapsed":365106,"internal_node_id":"0.0-4.0-1.10","subject_id":"5f6bf2714d79b7164c7778c0","study_id":"6197b3f67c2b5cd3b6d9596a","session_id":"619be787ea3bfaf2bc3ab906","condition":"contingent","relevant_dimensions":["pattern","legs"],"bee_group":{"antennae":"X","wings":"X","pattern":"S","legs":"M"},"bonus":1.200000000000001},{"rt":2848.199999988079,"stimulus":"bees-with-color/bee-A2SF.svg","response":0,"trial_type":"image-button-response","trial_index":29,"time_elapsed":367956,"internal_node_id":"0.0-4.0-0.11","subject_id":"5f6bf2714d79b7164c7778c0","study_id":"6197b3f67c2b5cd3b6d9596a","session_id":"619be787ea3bfaf2bc3ab906","condition":"contingent","relevant_dimensions":["pattern","legs"],"bee_group":{"antennae":"X","wings":"X","pattern":"S","legs":"M"},"action":"harvest","summary":"good-harvest","bonus":1.200000000000001},{"rt":13839.600000023842,"stimulus":"\n                    <p><b>Action: <em>harvest</em></b></p>\n                    <p>This is the bee that you just saw.</p>\n                    <img src=\"bees-with-color/bee-A2SF.svg\" width=\"200\">\n                    <p><span class=\"greenText\"><b>Successful harvest!</b></span><br>Your pay has increased by $0.02. Your bonus pay is now $0.60.</p>\n            ","response":0,"trial_type":"html-button-response","trial_index":30,"time_elapsed":381797,"internal_node_id":"0.0-4.0-1.11","subject_id":"5f6bf2714d79b7164c7778c0","study_id":"6197b3f67c2b5cd3b6d9596a","session_id":"619be787ea3bfaf2bc3ab906","condition":"contingent","relevant_dimensions":["pattern","legs"],"bee_group":{"antennae":"X","wings":"X","pattern":"S","legs":"M"},"bonus":1.200000000000001},{"rt":1556.800000011921,"stimulus":"bees-with-color/bee-B2DM.svg","response":1,"trial_type":"image-button-response","trial_index":31,"time_elapsed":383355,"internal_node_id":"0.0-4.0-0.12","subject_id":"5f6bf2714d79b7164c7778c0","study_id":"6197b3f67c2b5cd3b6d9596a","session_id":"619be787ea3bfaf2bc3ab906","condition":"contingent","relevant_dimensions":["pattern","legs"],"bee_group":{"antennae":"X","wings":"X","pattern":"S","legs":"M"},"action":"avoid","summary":"bad-avoid","bonus":1.200000000000001},{"rt":569.5,"stimulus":"\n                    <p><b>Action: <em>avoid</em></b></p>\n                    <p>This is the bee that you just saw.</p>\n                    <img src=\"bees-with-color/bee-B2DM.svg\" width=\"200\">\n                    <p><br>Your bonus pay is unchanged, and remains at $0.60.</p>\n            ","response":0,"trial_type":"html-button-response","trial_index":32,"time_elapsed":383926,"internal_node_id":"0.0-4.0-1.12","subject_id":"5f6bf2714d79b7164c7778c0","study_id":"6197b3f67c2b5cd3b6d9596a","session_id":"619be787ea3bfaf2bc3ab906","condition":"contingent","relevant_dimensions":["pattern","legs"],"bee_group":{"antennae":"X","wings":"X","pattern":"S","legs":"M"},"bonus":1.200000000000001},{"rt":8002.899999976158,"stimulus":"bees-with-color/bee-A1SF.svg","response":0,"trial_type":"image-button-response","trial_index":33,"time_elapsed":391930,"internal_node_id":"0.0-4.0-0.13","subject_id":"5f6bf2714d79b7164c7778c0","study_id":"6197b3f67c2b5cd3b6d9596a","session_id":"619be787ea3bfaf2bc3ab906","condition":"contingent","relevant_dimensions":["pattern","legs"],"bee_group":{"antennae":"X","wings":"X","pattern":"S","legs":"M"},"action":"harvest","summary":"good-harvest","bonus":1.200000000000001},{"rt":11057.300000011921,"stimulus":"\n                    <p><b>Action: <em>harvest</em></b></p>\n                    <p>This is the bee that you just saw.</p>\n                    <img src=\"bees-with-color/bee-A1SF.svg\" width=\"200\">\n                    <p><span class=\"greenText\"><b>Successful harvest!</b></span><br>Your pay has increased by $0.02. Your bonus pay is now $0.62.</p>\n            ","response":0,"trial_type":"html-button-response","trial_index":34,"time_elapsed":402989,"internal_node_id":"0.0-4.0-1.13","subject_id":"5f6bf2714d79b7164c7778c0","study_id":"6197b3f67c2b5cd3b6d9596a","session_id":"619be787ea3bfaf2bc3ab906","condition":"contingent","relevant_dimensions":["pattern","legs"],"bee_group":{"antennae":"X","wings":"X","pattern":"S","legs":"M"},"bonus":1.200000000000001},{"rt":7059.899999976158,"stimulus":"bees-with-color/bee-B2SM.svg","response":1,"trial_type":"image-button-response","trial_index":35,"time_elapsed":410051,"internal_node_id":"0.0-4.0-0.14","subject_id":"5f6bf2714d79b7164c7778c0","study_id":"6197b3f67c2b5cd3b6d9596a","session_id":"619be787ea3bfaf2bc3ab906","condition":"contingent","relevant_dimensions":["pattern","legs"],"bee_group":{"antennae":"X","wings":"X","pattern":"S","legs":"M"},"action":"avoid","summary":"good-avoid","bonus":1.200000000000001},{"rt":1586.8999999761581,"stimulus":"\n                    <p><b>Action: <em>avoid</em></b></p>\n                    <p>This is the bee that you just saw.</p>\n                    <img src=\"bees-with-color/bee-B2SM.svg\" width=\"200\">\n                    <p><br>Your bonus pay is unchanged, and remains at $0.62.</p>\n            ","response":0,"trial_type":"html-button-response","trial_index":36,"time_elapsed":411639,"internal_node_id":"0.0-4.0-1.14","subject_id":"5f6bf2714d79b7164c7778c0","study_id":"6197b3f67c2b5cd3b6d9596a","session_id":"619be787ea3bfaf2bc3ab906","condition":"contingent","relevant_dimensions":["pattern","legs"],"bee_group":{"antennae":"X","wings":"X","pattern":"S","legs":"M"},"bonus":1.200000000000001},{"rt":5346.699999988079,"stimulus":"bees-with-color/bee-A2DF.svg","response":0,"trial_type":"image-button-response","trial_index":37,"time_elapsed":416987,"internal_node_id":"0.0-4.0-0.15","subject_id":"5f6bf2714d79b7164c7778c0","study_id":"6197b3f67c2b5cd3b6d9596a","session_id":"619be787ea3bfaf2bc3ab906","condition":"contingent","relevant_dimensions":["pattern","legs"],"bee_group":{"antennae":"X","wings":"X","pattern":"S","legs":"M"},"action":"harvest","summary":"good-harvest","bonus":1.200000000000001},{"rt":2839.199999988079,"stimulus":"\n                    <p><b>Action: <em>harvest</em></b></p>\n                    <p>This is the bee that you just saw.</p>\n                    <img src=\"bees-with-color/bee-A2DF.svg\" width=\"200\">\n                    <p><span class=\"greenText\"><b>Successful harvest!</b></span><br>Your pay has increased by $0.02. Your bonus pay is now $0.64.</p>\n            ","response":0,"trial_type":"html-button-response","trial_index":38,"time_elapsed":419827,"internal_node_id":"0.0-4.0-1.15","subject_id":"5f6bf2714d79b7164c7778c0","study_id":"6197b3f67c2b5cd3b6d9596a","session_id":"619be787ea3bfaf2bc3ab906","condition":"contingent","relevant_dimensions":["pattern","legs"],"bee_group":{"antennae":"X","wings":"X","pattern":"S","legs":"M"},"bonus":1.200000000000001},{"rt":6345.900000035763,"stimulus":"bees-with-color/bee-A1DF.svg","response":0,"trial_type":"image-button-response","trial_index":39,"time_elapsed":426175,"internal_node_id":"0.0-4.0-0.16","subject_id":"5f6bf2714d79b7164c7778c0","study_id":"6197b3f67c2b5cd3b6d9596a","session_id":"619be787ea3bfaf2bc3ab906","condition":"contingent","relevant_dimensions":["pattern","legs"],"bee_group":{"antennae":"X","wings":"X","pattern":"S","legs":"M"},"action":"harvest","summary":"good-harvest","bonus":1.200000000000001},{"rt":8485.800000011921,"stimulus":"\n                    <p><b>Action: <em>harvest</em></b></p>\n                    <p>This is the bee that you just saw.</p>\n                    <img src=\"bees-with-color/bee-A1DF.svg\" width=\"200\">\n                    <p><span class=\"greenText\"><b>Successful harvest!</b></span><br>Your pay has increased by $0.02. Your bonus pay is now $0.66.</p>\n            ","response":0,"trial_type":"html-button-response","trial_index":40,"time_elapsed":434662,"internal_node_id":"0.0-4.0-1.16","subject_id":"5f6bf2714d79b7164c7778c0","study_id":"6197b3f67c2b5cd3b6d9596a","session_id":"619be787ea3bfaf2bc3ab906","condition":"contingent","relevant_dimensions":["pattern","legs"],"bee_group":{"antennae":"X","wings":"X","pattern":"S","legs":"M"},"bonus":1.200000000000001},{"rt":4025.900000035763,"stimulus":"bees-with-color/bee-A2DF.svg","response":0,"trial_type":"image-button-response","trial_index":41,"time_elapsed":438689,"internal_node_id":"0.0-4.0-0.17","subject_id":"5f6bf2714d79b7164c7778c0","study_id":"6197b3f67c2b5cd3b6d9596a","session_id":"619be787ea3bfaf2bc3ab906","condition":"contingent","relevant_dimensions":["pattern","legs"],"bee_group":{"antennae":"X","wings":"X","pattern":"S","legs":"M"},"action":"harvest","summary":"good-harvest","bonus":1.200000000000001},{"rt":605.8000000119209,"stimulus":"\n                    <p><b>Action: <em>harvest</em></b></p>\n                    <p>This is the bee that you just saw.</p>\n                    <img src=\"bees-with-color/bee-A2DF.svg\" width=\"200\">\n                    <p><span class=\"greenText\"><b>Successful harvest!</b></span><br>Your pay has increased by $0.02. Your bonus pay is now $0.68.</p>\n            ","response":0,"trial_type":"html-button-response","trial_index":42,"time_elapsed":439296,"internal_node_id":"0.0-4.0-1.17","subject_id":"5f6bf2714d79b7164c7778c0","study_id":"6197b3f67c2b5cd3b6d9596a","session_id":"619be787ea3bfaf2bc3ab906","condition":"contingent","relevant_dimensions":["pattern","legs"],"bee_group":{"antennae":"X","wings":"X","pattern":"S","legs":"M"},"bonus":1.200000000000001},{"rt":6756,"stimulus":"bees-with-color/bee-A1DM.svg","response":1,"trial_type":"image-button-response","trial_index":43,"time_elapsed":446054,"internal_node_id":"0.0-4.0-0.18","subject_id":"5f6bf2714d79b7164c7778c0","study_id":"6197b3f67c2b5cd3b6d9596a","session_id":"619be787ea3bfaf2bc3ab906","condition":"contingent","relevant_dimensions":["pattern","legs"],"bee_group":{"antennae":"X","wings":"X","pattern":"S","legs":"M"},"action":"avoid","summary":"bad-avoid","bonus":1.200000000000001},{"rt":1009.1000000238419,"stimulus":"\n                    <p><b>Action: <em>avoid</em></b></p>\n                    <p>This is the bee that you just saw.</p>\n                    <img src=\"bees-with-color/bee-A1DM.svg\" width=\"200\">\n                    <p><br>Your bonus pay is unchanged, and remains at $0.68.</p>\n            ","response":0,"trial_type":"html-button-response","trial_index":44,"time_elapsed":447064,"internal_node_id":"0.0-4.0-1.18","subject_id":"5f6bf2714d79b7164c7778c0","study_id":"6197b3f67c2b5cd3b6d9596a","session_id":"619be787ea3bfaf2bc3ab906","condition":"contingent","relevant_dimensions":["pattern","legs"],"bee_group":{"antennae":"X","wings":"X","pattern":"S","legs":"M"},"bonus":1.200000000000001},{"rt":4237.199999988079,"stimulus":"bees-with-color/bee-A2SM.svg","response":0,"trial_type":"image-button-response","trial_index":45,"time_elapsed":451303,"internal_node_id":"0.0-4.0-0.19","subject_id":"5f6bf2714d79b7164c7778c0","study_id":"6197b3f67c2b5cd3b6d9596a","session_id":"619be787ea3bfaf2bc3ab906","condition":"contingent","relevant_dimensions":["pattern","legs"],"bee_group":{"antennae":"X","wings":"X","pattern":"S","legs":"M"},"action":"harvest","summary":"bad-harvest","bonus":1.200000000000001},{"rt":13866.599999964237,"stimulus":"\n                    <p><b>Action: <em>harvest</em></b></p>\n                    <p>This is the bee that you just saw.</p>\n                    <img src=\"bees-with-color/bee-A2SM.svg\" width=\"200\">\n                    <p><span class=\"redText\">Bad choice, the bee was angry.</span><br><b>You have been stung!</b><br>Your pay has been decreased by $0.10. Your bonus pay is now $0.58.</p>\n            ","response":0,"trial_type":"html-button-response","trial_index":46,"time_elapsed":465171,"internal_node_id":"0.0-4.0-1.19","subject_id":"5f6bf2714d79b7164c7778c0","study_id":"6197b3f67c2b5cd3b6d9596a","session_id":"619be787ea3bfaf2bc3ab906","condition":"contingent","relevant_dimensions":["pattern","legs"],"bee_group":{"antennae":"X","wings":"X","pattern":"S","legs":"M"},"bonus":1.200000000000001},{"rt":7366.400000035763,"stimulus":"bees-with-color/bee-B1DM.svg","response":0,"trial_type":"image-button-response","trial_index":47,"time_elapsed":472539,"internal_node_id":"0.0-4.0-0.20","subject_id":"5f6bf2714d79b7164c7778c0","study_id":"6197b3f67c2b5cd3b6d9596a","session_id":"619be787ea3bfaf2bc3ab906","condition":"contingent","relevant_dimensions":["pattern","legs"],"bee_group":{"antennae":"X","wings":"X","pattern":"S","legs":"M"},"action":"harvest","summary":"good-harvest","bonus":1.200000000000001},{"rt":733.5,"stimulus":"\n                    <p><b>Action: <em>harvest</em></b></p>\n                    <p>This is the bee that you just saw.</p>\n                    <img src=\"bees-with-color/bee-B1DM.svg\" width=\"200\">\n                    <p><span class=\"greenText\"><b>Successful harvest!</b></span><br>Your pay has increased by $0.02. Your bonus pay is now $0.60.</p>\n            ","response":0,"trial_type":"html-button-response","trial_index":48,"time_elapsed":473273,"internal_node_id":"0.0-4.0-1.20","subject_id":"5f6bf2714d79b7164c7778c0","study_id":"6197b3f67c2b5cd3b6d9596a","session_id":"619be787ea3bfaf2bc3ab906","condition":"contingent","relevant_dimensions":["pattern","legs"],"bee_group":{"antennae":"X","wings":"X","pattern":"S","legs":"M"},"bonus":1.200000000000001},{"rt":7977.099999964237,"stimulus":"bees-with-color/bee-A1SM.svg","response":0,"trial_type":"image-button-response","trial_index":49,"time_elapsed":481252,"internal_node_id":"0.0-4.0-0.21","subject_id":"5f6bf2714d79b7164c7778c0","study_id":"6197b3f67c2b5cd3b6d9596a","session_id":"619be787ea3bfaf2bc3ab906","condition":"contingent","relevant_dimensions":["pattern","legs"],"bee_group":{"antennae":"X","wings":"X","pattern":"S","legs":"M"},"action":"harvest","summary":"bad-harvest","bonus":1.200000000000001},{"rt":1020.5,"stimulus":"\n                    <p><b>Action: <em>harvest</em></b></p>\n                    <p>This is the bee that you just saw.</p>\n                    <img src=\"bees-with-color/bee-A1SM.svg\" width=\"200\">\n                    <p><span class=\"redText\">Bad choice, the bee was angry.</span><br><b>You have been stung!</b><br>Your pay has been decreased by $0.10. Your bonus pay is now $0.50.</p>\n            ","response":0,"trial_type":"html-button-response","trial_index":50,"time_elapsed":482274,"internal_node_id":"0.0-4.0-1.21","subject_id":"5f6bf2714d79b7164c7778c0","study_id":"6197b3f67c2b5cd3b6d9596a","session_id":"619be787ea3bfaf2bc3ab906","condition":"contingent","relevant_dimensions":["pattern","legs"],"bee_group":{"antennae":"X","wings":"X","pattern":"S","legs":"M"},"bonus":1.200000000000001},{"rt":7203.300000011921,"stimulus":"bees-with-color/bee-A2DM.svg","response":1,"trial_type":"image-button-response","trial_index":51,"time_elapsed":489478,"internal_node_id":"0.0-4.0-0.22","subject_id":"5f6bf2714d79b7164c7778c0","study_id":"6197b3f67c2b5cd3b6d9596a","session_id":"619be787ea3bfaf2bc3ab906","condition":"contingent","relevant_dimensions":["pattern","legs"],"bee_group":{"antennae":"X","wings":"X","pattern":"S","legs":"M"},"action":"avoid","summary":"bad-avoid","bonus":1.200000000000001},{"rt":699.0999999642372,"stimulus":"\n                    <p><b>Action: <em>avoid</em></b></p>\n                    <p>This is the bee that you just saw.</p>\n                    <img src=\"bees-with-color/bee-A2DM.svg\" width=\"200\">\n                    <p><br>Your bonus pay is unchanged, and remains at $0.50.</p>\n            ","response":0,"trial_type":"html-button-response","trial_index":52,"time_elapsed":490179,"internal_node_id":"0.0-4.0-1.22","subject_id":"5f6bf2714d79b7164c7778c0","study_id":"6197b3f67c2b5cd3b6d9596a","session_id":"619be787ea3bfaf2bc3ab906","condition":"contingent","relevant_dimensions":["pattern","legs"],"bee_group":{"antennae":"X","wings":"X","pattern":"S","legs":"M"},"bonus":1.200000000000001},{"rt":1425.300000011921,"stimulus":"bees-with-color/bee-B2DF.svg","response":0,"trial_type":"image-button-response","trial_index":53,"time_elapsed":491605,"internal_node_id":"0.0-4.0-0.23","subject_id":"5f6bf2714d79b7164c7778c0","study_id":"6197b3f67c2b5cd3b6d9596a","session_id":"619be787ea3bfaf2bc3ab906","condition":"contingent","relevant_dimensions":["pattern","legs"],"bee_group":{"antennae":"X","wings":"X","pattern":"S","legs":"M"},"action":"harvest","summary":"good-harvest","bonus":1.200000000000001},{"rt":4438.900000035763,"stimulus":"\n                    <p><b>Action: <em>harvest</em></b></p>\n                    <p>This is the bee that you just saw.</p>\n                    <img src=\"bees-with-color/bee-B2DF.svg\" width=\"200\">\n                    <p><span class=\"greenText\"><b>Successful harvest!</b></span><br>Your pay has increased by $0.02. Your bonus pay is now $0.52.</p>\n            ","response":0,"trial_type":"html-button-response","trial_index":54,"time_elapsed":496046,"internal_node_id":"0.0-4.0-1.23","subject_id":"5f6bf2714d79b7164c7778c0","study_id":"6197b3f67c2b5cd3b6d9596a","session_id":"619be787ea3bfaf2bc3ab906","condition":"contingent","relevant_dimensions":["pattern","legs"],"bee_group":{"antennae":"X","wings":"X","pattern":"S","legs":"M"},"bonus":1.200000000000001},{"rt":6700.199999988079,"stimulus":"bees-with-color/bee-A2SF.svg","response":0,"trial_type":"image-button-response","trial_index":55,"time_elapsed":502748,"internal_node_id":"0.0-4.0-0.24","subject_id":"5f6bf2714d79b7164c7778c0","study_id":"6197b3f67c2b5cd3b6d9596a","session_id":"619be787ea3bfaf2bc3ab906","condition":"contingent","relevant_dimensions":["pattern","legs"],"bee_group":{"antennae":"X","wings":"X","pattern":"S","legs":"M"},"action":"harvest","summary":"good-harvest","bonus":1.200000000000001},{"rt":709.2999999523163,"stimulus":"\n                    <p><b>Action: <em>harvest</em></b></p>\n                    <p>This is the bee that you just saw.</p>\n                    <img src=\"bees-with-color/bee-A2SF.svg\" width=\"200\">\n                    <p><span class=\"greenText\"><b>Successful harvest!</b></span><br>Your pay has increased by $0.02. Your bonus pay is now $0.54.</p>\n            ","response":0,"trial_type":"html-button-response","trial_index":56,"time_elapsed":503458,"internal_node_id":"0.0-4.0-1.24","subject_id":"5f6bf2714d79b7164c7778c0","study_id":"6197b3f67c2b5cd3b6d9596a","session_id":"619be787ea3bfaf2bc3ab906","condition":"contingent","relevant_dimensions":["pattern","legs"],"bee_group":{"antennae":"X","wings":"X","pattern":"S","legs":"M"},"bonus":1.200000000000001},{"rt":5615.899999976158,"stimulus":"bees-with-color/bee-B1SM.svg","response":0,"trial_type":"image-button-response","trial_index":57,"time_elapsed":509076,"internal_node_id":"0.0-4.0-0.25","subject_id":"5f6bf2714d79b7164c7778c0","study_id":"6197b3f67c2b5cd3b6d9596a","session_id":"619be787ea3bfaf2bc3ab906","condition":"contingent","relevant_dimensions":["pattern","legs"],"bee_group":{"antennae":"X","wings":"X","pattern":"S","legs":"M"},"action":"harvest","summary":"bad-harvest","bonus":1.200000000000001},{"rt":1038.800000011921,"stimulus":"\n                    <p><b>Action: <em>harvest</em></b></p>\n                    <p>This is the bee that you just saw.</p>\n                    <img src=\"bees-with-color/bee-B1SM.svg\" width=\"200\">\n                    <p><span class=\"redText\">Bad choice, the bee was angry.</span><br><b>You have been stung!</b><br>Your pay has been decreased by $0.10. Your bonus pay is now $0.44.</p>\n            ","response":0,"trial_type":"html-button-response","trial_index":58,"time_elapsed":510117,"internal_node_id":"0.0-4.0-1.25","subject_id":"5f6bf2714d79b7164c7778c0","study_id":"6197b3f67c2b5cd3b6d9596a","session_id":"619be787ea3bfaf2bc3ab906","condition":"contingent","relevant_dimensions":["pattern","legs"],"bee_group":{"antennae":"X","wings":"X","pattern":"S","legs":"M"},"bonus":1.200000000000001},{"rt":1862.8999999761581,"stimulus":"bees-with-color/bee-B2SM.svg","response":0,"trial_type":"image-button-response","trial_index":59,"time_elapsed":511981,"internal_node_id":"0.0-4.0-0.26","subject_id":"5f6bf2714d79b7164c7778c0","study_id":"6197b3f67c2b5cd3b6d9596a","session_id":"619be787ea3bfaf2bc3ab906","condition":"contingent","relevant_dimensions":["pattern","legs"],"bee_group":{"antennae":"X","wings":"X","pattern":"S","legs":"M"},"action":"harvest","summary":"bad-harvest","bonus":1.200000000000001},{"rt":740.5,"stimulus":"\n                    <p><b>Action: <em>harvest</em></b></p>\n                    <p>This is the bee that you just saw.</p>\n                    <img src=\"bees-with-color/bee-B2SM.svg\" width=\"200\">\n                    <p><span class=\"redText\">Bad choice, the bee was angry.</span><br><b>You have been stung!</b><br>Your pay has been decreased by $0.10. Your bonus pay is now $0.34.</p>\n            ","response":0,"trial_type":"html-button-response","trial_index":60,"time_elapsed":512723,"internal_node_id":"0.0-4.0-1.26","subject_id":"5f6bf2714d79b7164c7778c0","study_id":"6197b3f67c2b5cd3b6d9596a","session_id":"619be787ea3bfaf2bc3ab906","condition":"contingent","relevant_dimensions":["pattern","legs"],"bee_group":{"antennae":"X","wings":"X","pattern":"S","legs":"M"},"bonus":1.200000000000001},{"rt":2278.7999999523163,"stimulus":"bees-with-color/bee-B1DF.svg","response":0,"trial_type":"image-button-response","trial_index":61,"time_elapsed":515003,"internal_node_id":"0.0-4.0-0.27","subject_id":"5f6bf2714d79b7164c7778c0","study_id":"6197b3f67c2b5cd3b6d9596a","session_id":"619be787ea3bfaf2bc3ab906","condition":"contingent","relevant_dimensions":["pattern","legs"],"bee_group":{"antennae":"X","wings":"X","pattern":"S","legs":"M"},"action":"harvest","summary":"good-harvest","bonus":1.200000000000001},{"rt":683,"stimulus":"\n                    <p><b>Action: <em>harvest</em></b></p>\n                    <p>This is the bee that you just saw.</p>\n                    <img src=\"bees-with-color/bee-B1DF.svg\" width=\"200\">\n                    <p><span class=\"greenText\"><b>Successful harvest!</b></span><br>Your pay has increased by $0.02. Your bonus pay is now $0.36.</p>\n            ","response":0,"trial_type":"html-button-response","trial_index":62,"time_elapsed":515687,"internal_node_id":"0.0-4.0-1.27","subject_id":"5f6bf2714d79b7164c7778c0","study_id":"6197b3f67c2b5cd3b6d9596a","session_id":"619be787ea3bfaf2bc3ab906","condition":"contingent","relevant_dimensions":["pattern","legs"],"bee_group":{"antennae":"X","wings":"X","pattern":"S","legs":"M"},"bonus":1.200000000000001},{"rt":1930,"stimulus":"bees-with-color/bee-B2DM.svg","response":0,"trial_type":"image-button-response","trial_index":63,"time_elapsed":517619,"internal_node_id":"0.0-4.0-0.28","subject_id":"5f6bf2714d79b7164c7778c0","study_id":"6197b3f67c2b5cd3b6d9596a","session_id":"619be787ea3bfaf2bc3ab906","condition":"contingent","relevant_dimensions":["pattern","legs"],"bee_group":{"antennae":"X","wings":"X","pattern":"S","legs":"M"},"action":"harvest","summary":"good-harvest","bonus":1.200000000000001},{"rt":625.7999999523163,"stimulus":"\n                    <p><b>Action: <em>harvest</em></b></p>\n                    <p>This is the bee that you just saw.</p>\n                    <img src=\"bees-with-color/bee-B2DM.svg\" width=\"200\">\n                    <p><span class=\"greenText\"><b>Successful harvest!</b></span><br>Your pay has increased by $0.02. Your bonus pay is now $0.38.</p>\n            ","response":0,"trial_type":"html-button-response","trial_index":64,"time_elapsed":518246,"internal_node_id":"0.0-4.0-1.28","subject_id":"5f6bf2714d79b7164c7778c0","study_id":"6197b3f67c2b5cd3b6d9596a","session_id":"619be787ea3bfaf2bc3ab906","condition":"contingent","relevant_dimensions":["pattern","legs"],"bee_group":{"antennae":"X","wings":"X","pattern":"S","legs":"M"},"bonus":1.200000000000001},{"rt":6997.600000023842,"stimulus":"bees-with-color/bee-A1SF.svg","response":0,"trial_type":"image-button-response","trial_index":65,"time_elapsed":525245,"internal_node_id":"0.0-4.0-0.29","subject_id":"5f6bf2714d79b7164c7778c0","study_id":"6197b3f67c2b5cd3b6d9596a","session_id":"619be787ea3bfaf2bc3ab906","condition":"contingent","relevant_dimensions":["pattern","legs"],"bee_group":{"antennae":"X","wings":"X","pattern":"S","legs":"M"},"action":"harvest","summary":"good-harvest","bonus":1.200000000000001},{"rt":665.1000000238419,"stimulus":"\n                    <p><b>Action: <em>harvest</em></b></p>\n                    <p>This is the bee that you just saw.</p>\n                    <img src=\"bees-with-color/bee-A1SF.svg\" width=\"200\">\n                    <p><span class=\"greenText\"><b>Successful harvest!</b></span><br>Your pay has increased by $0.02. Your bonus pay is now $0.40.</p>\n            ","response":0,"trial_type":"html-button-response","trial_index":66,"time_elapsed":525911,"internal_node_id":"0.0-4.0-1.29","subject_id":"5f6bf2714d79b7164c7778c0","study_id":"6197b3f67c2b5cd3b6d9596a","session_id":"619be787ea3bfaf2bc3ab906","condition":"contingent","relevant_dimensions":["pattern","legs"],"bee_group":{"antennae":"X","wings":"X","pattern":"S","legs":"M"},"bonus":1.200000000000001},{"rt":5048.400000035763,"stimulus":"bees-with-color/bee-B1SF.svg","response":0,"trial_type":"image-button-response","trial_index":67,"time_elapsed":530961,"internal_node_id":"0.0-4.0-0.30","subject_id":"5f6bf2714d79b7164c7778c0","study_id":"6197b3f67c2b5cd3b6d9596a","session_id":"619be787ea3bfaf2bc3ab906","condition":"contingent","relevant_dimensions":["pattern","legs"],"bee_group":{"antennae":"X","wings":"X","pattern":"S","legs":"M"},"action":"harvest","summary":"good-harvest","bonus":1.200000000000001},{"rt":589.6000000238419,"stimulus":"\n                    <p><b>Action: <em>harvest</em></b></p>\n                    <p>This is the bee that you just saw.</p>\n                    <img src=\"bees-with-color/bee-B1SF.svg\" width=\"200\">\n                    <p><span class=\"greenText\"><b>Successful harvest!</b></span><br>Your pay has increased by $0.02. Your bonus pay is now $0.42.</p>\n            ","response":0,"trial_type":"html-button-response","trial_index":68,"time_elapsed":531552,"internal_node_id":"0.0-4.0-1.30","subject_id":"5f6bf2714d79b7164c7778c0","study_id":"6197b3f67c2b5cd3b6d9596a","session_id":"619be787ea3bfaf2bc3ab906","condition":"contingent","relevant_dimensions":["pattern","legs"],"bee_group":{"antennae":"X","wings":"X","pattern":"S","legs":"M"},"bonus":1.200000000000001},{"rt":6874.900000035763,"stimulus":"bees-with-color/bee-B2SF.svg","response":0,"trial_type":"image-button-response","trial_index":69,"time_elapsed":538428,"internal_node_id":"0.0-4.0-0.31","subject_id":"5f6bf2714d79b7164c7778c0","study_id":"6197b3f67c2b5cd3b6d9596a","session_id":"619be787ea3bfaf2bc3ab906","condition":"contingent","relevant_dimensions":["pattern","legs"],"bee_group":{"antennae":"X","wings":"X","pattern":"S","legs":"M"},"action":"harvest","summary":"good-harvest","bonus":1.200000000000001},{"rt":623.3000000119209,"stimulus":"\n                    <p><b>Action: <em>harvest</em></b></p>\n                    <p>This is the bee that you just saw.</p>\n                    <img src=\"bees-with-color/bee-B2SF.svg\" width=\"200\">\n                    <p><span class=\"greenText\"><b>Successful harvest!</b></span><br>Your pay has increased by $0.02. Your bonus pay is now $0.44.</p>\n            ","response":0,"trial_type":"html-button-response","trial_index":70,"time_elapsed":539053,"internal_node_id":"0.0-4.0-1.31","subject_id":"5f6bf2714d79b7164c7778c0","study_id":"6197b3f67c2b5cd3b6d9596a","session_id":"619be787ea3bfaf2bc3ab906","condition":"contingent","relevant_dimensions":["pattern","legs"],"bee_group":{"antennae":"X","wings":"X","pattern":"S","legs":"M"},"bonus":1.200000000000001},{"rt":13875.699999988079,"stimulus":"bees-with-color/bee-B1DM.svg","response":0,"trial_type":"image-button-response","trial_index":71,"time_elapsed":552930,"internal_node_id":"0.0-4.0-0.32","subject_id":"5f6bf2714d79b7164c7778c0","study_id":"6197b3f67c2b5cd3b6d9596a","session_id":"619be787ea3bfaf2bc3ab906","condition":"contingent","relevant_dimensions":["pattern","legs"],"bee_group":{"antennae":"X","wings":"X","pattern":"S","legs":"M"},"action":"harvest","summary":"good-harvest","bonus":1.200000000000001},{"rt":618.4000000357628,"stimulus":"\n                    <p><b>Action: <em>harvest</em></b></p>\n                    <p>This is the bee that you just saw.</p>\n                    <img src=\"bees-with-color/bee-B1DM.svg\" width=\"200\">\n                    <p><span class=\"greenText\"><b>Successful harvest!</b></span><br>Your pay has increased by $0.02. Your bonus pay is now $0.46.</p>\n            ","response":0,"trial_type":"html-button-response","trial_index":72,"time_elapsed":553550,"internal_node_id":"0.0-4.0-1.32","subject_id":"5f6bf2714d79b7164c7778c0","study_id":"6197b3f67c2b5cd3b6d9596a","session_id":"619be787ea3bfaf2bc3ab906","condition":"contingent","relevant_dimensions":["pattern","legs"],"bee_group":{"antennae":"X","wings":"X","pattern":"S","legs":"M"},"bonus":1.200000000000001},{"rt":6181.5,"stimulus":"bees-with-color/bee-B1SM.svg","response":1,"trial_type":"image-button-response","trial_index":73,"time_elapsed":559733,"internal_node_id":"0.0-4.0-0.33","subject_id":"5f6bf2714d79b7164c7778c0","study_id":"6197b3f67c2b5cd3b6d9596a","session_id":"619be787ea3bfaf2bc3ab906","condition":"contingent","relevant_dimensions":["pattern","legs"],"bee_group":{"antennae":"X","wings":"X","pattern":"S","legs":"M"},"action":"avoid","summary":"good-avoid","bonus":1.200000000000001},{"rt":786.6999999880791,"stimulus":"\n                    <p><b>Action: <em>avoid</em></b></p>\n                    <p>This is the bee that you just saw.</p>\n                    <img src=\"bees-with-color/bee-B1SM.svg\" width=\"200\">\n                    <p><br>Your bonus pay is unchanged, and remains at $0.46.</p>\n            ","response":0,"trial_type":"html-button-response","trial_index":74,"time_elapsed":560521,"internal_node_id":"0.0-4.0-1.33","subject_id":"5f6bf2714d79b7164c7778c0","study_id":"6197b3f67c2b5cd3b6d9596a","session_id":"619be787ea3bfaf2bc3ab906","condition":"contingent","relevant_dimensions":["pattern","legs"],"bee_group":{"antennae":"X","wings":"X","pattern":"S","legs":"M"},"bonus":1.200000000000001},{"rt":7905.899999976158,"stimulus":"bees-with-color/bee-A1DF.svg","response":0,"trial_type":"image-button-response","trial_index":75,"time_elapsed":568428,"internal_node_id":"0.0-4.0-0.34","subject_id":"5f6bf2714d79b7164c7778c0","study_id":"6197b3f67c2b5cd3b6d9596a","session_id":"619be787ea3bfaf2bc3ab906","condition":"contingent","relevant_dimensions":["pattern","legs"],"bee_group":{"antennae":"X","wings":"X","pattern":"S","legs":"M"},"action":"harvest","summary":"good-harvest","bonus":1.200000000000001},{"rt":570.1999999880791,"stimulus":"\n                    <p><b>Action: <em>harvest</em></b></p>\n                    <p>This is the bee that you just saw.</p>\n                    <img src=\"bees-with-color/bee-A1DF.svg\" width=\"200\">\n                    <p><span class=\"greenText\"><b>Successful harvest!</b></span><br>Your pay has increased by $0.02. Your bonus pay is now $0.48.</p>\n            ","response":0,"trial_type":"html-button-response","trial_index":76,"time_elapsed":568999,"internal_node_id":"0.0-4.0-1.34","subject_id":"5f6bf2714d79b7164c7778c0","study_id":"6197b3f67c2b5cd3b6d9596a","session_id":"619be787ea3bfaf2bc3ab906","condition":"contingent","relevant_dimensions":["pattern","legs"],"bee_group":{"antennae":"X","wings":"X","pattern":"S","legs":"M"},"bonus":1.200000000000001},{"rt":6147.600000023842,"stimulus":"bees-with-color/bee-A2DF.svg","response":0,"trial_type":"image-button-response","trial_index":77,"time_elapsed":575148,"internal_node_id":"0.0-4.0-0.35","subject_id":"5f6bf2714d79b7164c7778c0","study_id":"6197b3f67c2b5cd3b6d9596a","session_id":"619be787ea3bfaf2bc3ab906","condition":"contingent","relevant_dimensions":["pattern","legs"],"bee_group":{"antennae":"X","wings":"X","pattern":"S","legs":"M"},"action":"harvest","summary":"good-harvest","bonus":1.200000000000001},{"rt":513.1000000238419,"stimulus":"\n                    <p><b>Action: <em>harvest</em></b></p>\n                    <p>This is the bee that you just saw.</p>\n                    <img src=\"bees-with-color/bee-A2DF.svg\" width=\"200\">\n                    <p><span class=\"greenText\"><b>Successful harvest!</b></span><br>Your pay has increased by $0.02. Your bonus pay is now $0.50.</p>\n            ","response":0,"trial_type":"html-button-response","trial_index":78,"time_elapsed":575662,"internal_node_id":"0.0-4.0-1.35","subject_id":"5f6bf2714d79b7164c7778c0","study_id":"6197b3f67c2b5cd3b6d9596a","session_id":"619be787ea3bfaf2bc3ab906","condition":"contingent","relevant_dimensions":["pattern","legs"],"bee_group":{"antennae":"X","wings":"X","pattern":"S","legs":"M"},"bonus":1.200000000000001},{"rt":3626.599999964237,"stimulus":"bees-with-color/bee-B1DF.svg","response":0,"trial_type":"image-button-response","trial_index":79,"time_elapsed":579290,"internal_node_id":"0.0-4.0-0.36","subject_id":"5f6bf2714d79b7164c7778c0","study_id":"6197b3f67c2b5cd3b6d9596a","session_id":"619be787ea3bfaf2bc3ab906","condition":"contingent","relevant_dimensions":["pattern","legs"],"bee_group":{"antennae":"X","wings":"X","pattern":"S","legs":"M"},"action":"harvest","summary":"good-harvest","bonus":1.200000000000001},{"rt":611.8000000119209,"stimulus":"\n                    <p><b>Action: <em>harvest</em></b></p>\n                    <p>This is the bee that you just saw.</p>\n                    <img src=\"bees-with-color/bee-B1DF.svg\" width=\"200\">\n                    <p><span class=\"greenText\"><b>Successful harvest!</b></span><br>Your pay has increased by $0.02. Your bonus pay is now $0.52.</p>\n            ","response":0,"trial_type":"html-button-response","trial_index":80,"time_elapsed":579904,"internal_node_id":"0.0-4.0-1.36","subject_id":"5f6bf2714d79b7164c7778c0","study_id":"6197b3f67c2b5cd3b6d9596a","session_id":"619be787ea3bfaf2bc3ab906","condition":"contingent","relevant_dimensions":["pattern","legs"],"bee_group":{"antennae":"X","wings":"X","pattern":"S","legs":"M"},"bonus":1.200000000000001},{"rt":10187.899999976158,"stimulus":"bees-with-color/bee-A2SM.svg","response":1,"trial_type":"image-button-response","trial_index":81,"time_elapsed":590093,"internal_node_id":"0.0-4.0-0.37","subject_id":"5f6bf2714d79b7164c7778c0","study_id":"6197b3f67c2b5cd3b6d9596a","session_id":"619be787ea3bfaf2bc3ab906","condition":"contingent","relevant_dimensions":["pattern","legs"],"bee_group":{"antennae":"X","wings":"X","pattern":"S","legs":"M"},"action":"avoid","summary":"good-avoid","bonus":1.200000000000001},{"rt":1395.2000000476837,"stimulus":"\n                    <p><b>Action: <em>avoid</em></b></p>\n                    <p>This is the bee that you just saw.</p>\n                    <img src=\"bees-with-color/bee-A2SM.svg\" width=\"200\">\n                    <p><br>Your bonus pay is unchanged, and remains at $0.52.</p>\n            ","response":0,"trial_type":"html-button-response","trial_index":82,"time_elapsed":591490,"internal_node_id":"0.0-4.0-1.37","subject_id":"5f6bf2714d79b7164c7778c0","study_id":"6197b3f67c2b5cd3b6d9596a","session_id":"619be787ea3bfaf2bc3ab906","condition":"contingent","relevant_dimensions":["pattern","legs"],"bee_group":{"antennae":"X","wings":"X","pattern":"S","legs":"M"},"bonus":1.200000000000001},{"rt":5029.599999964237,"stimulus":"bees-with-color/bee-B2DM.svg","response":0,"trial_type":"image-button-response","trial_index":83,"time_elapsed":596521,"internal_node_id":"0.0-4.0-0.38","subject_id":"5f6bf2714d79b7164c7778c0","study_id":"6197b3f67c2b5cd3b6d9596a","session_id":"619be787ea3bfaf2bc3ab906","condition":"contingent","relevant_dimensions":["pattern","legs"],"bee_group":{"antennae":"X","wings":"X","pattern":"S","legs":"M"},"action":"harvest","summary":"good-harvest","bonus":1.200000000000001},{"rt":625.1999999880791,"stimulus":"\n                    <p><b>Action: <em>harvest</em></b></p>\n                    <p>This is the bee that you just saw.</p>\n                    <img src=\"bees-with-color/bee-B2DM.svg\" width=\"200\">\n                    <p><span class=\"greenText\"><b>Successful harvest!</b></span><br>Your pay has increased by $0.02. Your bonus pay is now $0.54.</p>\n            ","response":0,"trial_type":"html-button-response","trial_index":84,"time_elapsed":597148,"internal_node_id":"0.0-4.0-1.38","subject_id":"5f6bf2714d79b7164c7778c0","study_id":"6197b3f67c2b5cd3b6d9596a","session_id":"619be787ea3bfaf2bc3ab906","condition":"contingent","relevant_dimensions":["pattern","legs"],"bee_group":{"antennae":"X","wings":"X","pattern":"S","legs":"M"},"bonus":1.200000000000001},{"rt":9898.699999988079,"stimulus":"bees-with-color/bee-A1DM.svg","response":1,"trial_type":"image-button-response","trial_index":85,"time_elapsed":607048,"internal_node_id":"0.0-4.0-0.39","subject_id":"5f6bf2714d79b7164c7778c0","study_id":"6197b3f67c2b5cd3b6d9596a","session_id":"619be787ea3bfaf2bc3ab906","condition":"contingent","relevant_dimensions":["pattern","legs"],"bee_group":{"antennae":"X","wings":"X","pattern":"S","legs":"M"},"action":"avoid","summary":"bad-avoid","bonus":1.200000000000001},{"rt":707.0999999642372,"stimulus":"\n                    <p><b>Action: <em>avoid</em></b></p>\n                    <p>This is the bee that you just saw.</p>\n                    <img src=\"bees-with-color/bee-A1DM.svg\" width=\"200\">\n                    <p><br>Your bonus pay is unchanged, and remains at $0.54.</p>\n            ","response":0,"trial_type":"html-button-response","trial_index":86,"time_elapsed":607756,"internal_node_id":"0.0-4.0-1.39","subject_id":"5f6bf2714d79b7164c7778c0","study_id":"6197b3f67c2b5cd3b6d9596a","session_id":"619be787ea3bfaf2bc3ab906","condition":"contingent","relevant_dimensions":["pattern","legs"],"bee_group":{"antennae":"X","wings":"X","pattern":"S","legs":"M"},"bonus":1.200000000000001},{"rt":4549.100000023842,"stimulus":"bees-with-color/bee-B2DF.svg","response":0,"trial_type":"image-button-response","trial_index":87,"time_elapsed":612307,"internal_node_id":"0.0-4.0-0.40","subject_id":"5f6bf2714d79b7164c7778c0","study_id":"6197b3f67c2b5cd3b6d9596a","session_id":"619be787ea3bfaf2bc3ab906","condition":"contingent","relevant_dimensions":["pattern","legs"],"bee_group":{"antennae":"X","wings":"X","pattern":"S","legs":"M"},"action":"harvest","summary":"good-harvest","bonus":1.200000000000001},{"rt":662.7000000476837,"stimulus":"\n                    <p><b>Action: <em>harvest</em></b></p>\n                    <p>This is the bee that you just saw.</p>\n                    <img src=\"bees-with-color/bee-B2DF.svg\" width=\"200\">\n                    <p><span class=\"greenText\"><b>Successful harvest!</b></span><br>Your pay has increased by $0.02. Your bonus pay is now $0.56.</p>\n            ","response":0,"trial_type":"html-button-response","trial_index":88,"time_elapsed":612970,"internal_node_id":"0.0-4.0-1.40","subject_id":"5f6bf2714d79b7164c7778c0","study_id":"6197b3f67c2b5cd3b6d9596a","session_id":"619be787ea3bfaf2bc3ab906","condition":"contingent","relevant_dimensions":["pattern","legs"],"bee_group":{"antennae":"X","wings":"X","pattern":"S","legs":"M"},"bonus":1.200000000000001},{"rt":4731.5,"stimulus":"bees-with-color/bee-A1SF.svg","response":0,"trial_type":"image-button-response","trial_index":89,"time_elapsed":617704,"internal_node_id":"0.0-4.0-0.41","subject_id":"5f6bf2714d79b7164c7778c0","study_id":"6197b3f67c2b5cd3b6d9596a","session_id":"619be787ea3bfaf2bc3ab906","condition":"contingent","relevant_dimensions":["pattern","legs"],"bee_group":{"antennae":"X","wings":"X","pattern":"S","legs":"M"},"action":"harvest","summary":"good-harvest","bonus":1.200000000000001},{"rt":511.80000001192093,"stimulus":"\n                    <p><b>Action: <em>harvest</em></b></p>\n                    <p>This is the bee that you just saw.</p>\n                    <img src=\"bees-with-color/bee-A1SF.svg\" width=\"200\">\n                    <p><span class=\"greenText\"><b>Successful harvest!</b></span><br>Your pay has increased by $0.02. Your bonus pay is now $0.58.</p>\n            ","response":0,"trial_type":"html-button-response","trial_index":90,"time_elapsed":618216,"internal_node_id":"0.0-4.0-1.41","subject_id":"5f6bf2714d79b7164c7778c0","study_id":"6197b3f67c2b5cd3b6d9596a","session_id":"619be787ea3bfaf2bc3ab906","condition":"contingent","relevant_dimensions":["pattern","legs"],"bee_group":{"antennae":"X","wings":"X","pattern":"S","legs":"M"},"bonus":1.200000000000001},{"rt":10936.599999964237,"stimulus":"bees-with-color/bee-A2SF.svg","response":0,"trial_type":"image-button-response","trial_index":91,"time_elapsed":629154,"internal_node_id":"0.0-4.0-0.42","subject_id":"5f6bf2714d79b7164c7778c0","study_id":"6197b3f67c2b5cd3b6d9596a","session_id":"619be787ea3bfaf2bc3ab906","condition":"contingent","relevant_dimensions":["pattern","legs"],"bee_group":{"antennae":"X","wings":"X","pattern":"S","legs":"M"},"action":"harvest","summary":"good-harvest","bonus":1.200000000000001},{"rt":595.5,"stimulus":"\n                    <p><b>Action: <em>harvest</em></b></p>\n                    <p>This is the bee that you just saw.</p>\n                    <img src=\"bees-with-color/bee-A2SF.svg\" width=\"200\">\n                    <p><span class=\"greenText\"><b>Successful harvest!</b></span><br>Your pay has increased by $0.02. Your bonus pay is now $0.60.</p>\n            ","response":0,"trial_type":"html-button-response","trial_index":92,"time_elapsed":629751,"internal_node_id":"0.0-4.0-1.42","subject_id":"5f6bf2714d79b7164c7778c0","study_id":"6197b3f67c2b5cd3b6d9596a","session_id":"619be787ea3bfaf2bc3ab906","condition":"contingent","relevant_dimensions":["pattern","legs"],"bee_group":{"antennae":"X","wings":"X","pattern":"S","legs":"M"},"bonus":1.200000000000001},{"rt":2016.199999988079,"stimulus":"bees-with-color/bee-A2DM.svg","response":1,"trial_type":"image-button-response","trial_index":93,"time_elapsed":631769,"internal_node_id":"0.0-4.0-0.43","subject_id":"5f6bf2714d79b7164c7778c0","study_id":"6197b3f67c2b5cd3b6d9596a","session_id":"619be787ea3bfaf2bc3ab906","condition":"contingent","relevant_dimensions":["pattern","legs"],"bee_group":{"antennae":"X","wings":"X","pattern":"S","legs":"M"},"action":"avoid","summary":"bad-avoid","bonus":1.200000000000001},{"rt":1179.5999999642372,"stimulus":"\n                    <p><b>Action: <em>avoid</em></b></p>\n                    <p>This is the bee that you just saw.</p>\n                    <img src=\"bees-with-color/bee-A2DM.svg\" width=\"200\">\n                    <p><br>Your bonus pay is unchanged, and remains at $0.60.</p>\n            ","response":0,"trial_type":"html-button-response","trial_index":94,"time_elapsed":632949,"internal_node_id":"0.0-4.0-1.43","subject_id":"5f6bf2714d79b7164c7778c0","study_id":"6197b3f67c2b5cd3b6d9596a","session_id":"619be787ea3bfaf2bc3ab906","condition":"contingent","relevant_dimensions":["pattern","legs"],"bee_group":{"antennae":"X","wings":"X","pattern":"S","legs":"M"},"bonus":1.200000000000001},{"rt":5084.100000023842,"stimulus":"bees-with-color/bee-A1SM.svg","response":1,"trial_type":"image-button-response","trial_index":95,"time_elapsed":638035,"internal_node_id":"0.0-4.0-0.44","subject_id":"5f6bf2714d79b7164c7778c0","study_id":"6197b3f67c2b5cd3b6d9596a","session_id":"619be787ea3bfaf2bc3ab906","condition":"contingent","relevant_dimensions":["pattern","legs"],"bee_group":{"antennae":"X","wings":"X","pattern":"S","legs":"M"},"action":"avoid","summary":"good-avoid","bonus":1.200000000000001},{"rt":581,"stimulus":"\n                    <p><b>Action: <em>avoid</em></b></p>\n                    <p>This is the bee that you just saw.</p>\n                    <img src=\"bees-with-color/bee-A1SM.svg\" width=\"200\">\n                    <p><br>Your bonus pay is unchanged, and remains at $0.60.</p>\n            ","response":0,"trial_type":"html-button-response","trial_index":96,"time_elapsed":638617,"internal_node_id":"0.0-4.0-1.44","subject_id":"5f6bf2714d79b7164c7778c0","study_id":"6197b3f67c2b5cd3b6d9596a","session_id":"619be787ea3bfaf2bc3ab906","condition":"contingent","relevant_dimensions":["pattern","legs"],"bee_group":{"antennae":"X","wings":"X","pattern":"S","legs":"M"},"bonus":1.200000000000001},{"rt":6588.399999976158,"stimulus":"bees-with-color/bee-B1SF.svg","response":0,"trial_type":"image-button-response","trial_index":97,"time_elapsed":645207,"internal_node_id":"0.0-4.0-0.45","subject_id":"5f6bf2714d79b7164c7778c0","study_id":"6197b3f67c2b5cd3b6d9596a","session_id":"619be787ea3bfaf2bc3ab906","condition":"contingent","relevant_dimensions":["pattern","legs"],"bee_group":{"antennae":"X","wings":"X","pattern":"S","legs":"M"},"action":"harvest","summary":"good-harvest","bonus":1.200000000000001},{"rt":699.8000000119209,"stimulus":"\n                    <p><b>Action: <em>harvest</em></b></p>\n                    <p>This is the bee that you just saw.</p>\n                    <img src=\"bees-with-color/bee-B1SF.svg\" width=\"200\">\n                    <p><span class=\"greenText\"><b>Successful harvest!</b></span><br>Your pay has increased by $0.02. Your bonus pay is now $0.62.</p>\n            ","response":0,"trial_type":"html-button-response","trial_index":98,"time_elapsed":645908,"internal_node_id":"0.0-4.0-1.45","subject_id":"5f6bf2714d79b7164c7778c0","study_id":"6197b3f67c2b5cd3b6d9596a","session_id":"619be787ea3bfaf2bc3ab906","condition":"contingent","relevant_dimensions":["pattern","legs"],"bee_group":{"antennae":"X","wings":"X","pattern":"S","legs":"M"},"bonus":1.200000000000001},{"rt":7662.600000023842,"stimulus":"bees-with-color/bee-B2SF.svg","response":0,"trial_type":"image-button-response","trial_index":99,"time_elapsed":653572,"internal_node_id":"0.0-4.0-0.46","subject_id":"5f6bf2714d79b7164c7778c0","study_id":"6197b3f67c2b5cd3b6d9596a","session_id":"619be787ea3bfaf2bc3ab906","condition":"contingent","relevant_dimensions":["pattern","legs"],"bee_group":{"antennae":"X","wings":"X","pattern":"S","legs":"M"},"action":"harvest","summary":"good-harvest","bonus":1.200000000000001},{"rt":620.7000000476837,"stimulus":"\n                    <p><b>Action: <em>harvest</em></b></p>\n                    <p>This is the bee that you just saw.</p>\n                    <img src=\"bees-with-color/bee-B2SF.svg\" width=\"200\">\n                    <p><span class=\"greenText\"><b>Successful harvest!</b></span><br>Your pay has increased by $0.02. Your bonus pay is now $0.64.</p>\n            ","response":0,"trial_type":"html-button-response","trial_index":100,"time_elapsed":654194,"internal_node_id":"0.0-4.0-1.46","subject_id":"5f6bf2714d79b7164c7778c0","study_id":"6197b3f67c2b5cd3b6d9596a","session_id":"619be787ea3bfaf2bc3ab906","condition":"contingent","relevant_dimensions":["pattern","legs"],"bee_group":{"antennae":"X","wings":"X","pattern":"S","legs":"M"},"bonus":1.200000000000001},{"rt":7574,"stimulus":"bees-with-color/bee-B2SM.svg","response":1,"trial_type":"image-button-response","trial_index":101,"time_elapsed":661770,"internal_node_id":"0.0-4.0-0.47","subject_id":"5f6bf2714d79b7164c7778c0","study_id":"6197b3f67c2b5cd3b6d9596a","session_id":"619be787ea3bfaf2bc3ab906","condition":"contingent","relevant_dimensions":["pattern","legs"],"bee_group":{"antennae":"X","wings":"X","pattern":"S","legs":"M"},"action":"avoid","summary":"good-avoid","bonus":1.200000000000001},{"rt":469.60000002384186,"stimulus":"\n                    <p><b>Action: <em>avoid</em></b></p>\n                    <p>This is the bee that you just saw.</p>\n                    <img src=\"bees-with-color/bee-B2SM.svg\" width=\"200\">\n                    <p><br>Your bonus pay is unchanged, and remains at $0.64.</p>\n            ","response":0,"trial_type":"html-button-response","trial_index":102,"time_elapsed":662241,"internal_node_id":"0.0-4.0-1.47","subject_id":"5f6bf2714d79b7164c7778c0","study_id":"6197b3f67c2b5cd3b6d9596a","session_id":"619be787ea3bfaf2bc3ab906","condition":"contingent","relevant_dimensions":["pattern","legs"],"bee_group":{"antennae":"X","wings":"X","pattern":"S","legs":"M"},"bonus":1.200000000000001},{"rt":16621.200000047684,"stimulus":"bees-with-color/bee-A2SF.svg","response":0,"trial_type":"image-button-response","trial_index":103,"time_elapsed":678863,"internal_node_id":"0.0-4.0-0.48","subject_id":"5f6bf2714d79b7164c7778c0","study_id":"6197b3f67c2b5cd3b6d9596a","session_id":"619be787ea3bfaf2bc3ab906","condition":"contingent","relevant_dimensions":["pattern","legs"],"bee_group":{"antennae":"X","wings":"X","pattern":"S","legs":"M"},"action":"harvest","summary":"good-harvest","bonus":1.200000000000001},{"rt":794.6000000238419,"stimulus":"\n                    <p><b>Action: <em>harvest</em></b></p>\n                    <p>This is the bee that you just saw.</p>\n                    <img src=\"bees-with-color/bee-A2SF.svg\" width=\"200\">\n                    <p><span class=\"greenText\"><b>Successful harvest!</b></span><br>Your pay has increased by $0.02. Your bonus pay is now $0.66.</p>\n            ","response":0,"trial_type":"html-button-response","trial_index":104,"time_elapsed":679659,"internal_node_id":"0.0-4.0-1.48","subject_id":"5f6bf2714d79b7164c7778c0","study_id":"6197b3f67c2b5cd3b6d9596a","session_id":"619be787ea3bfaf2bc3ab906","condition":"contingent","relevant_dimensions":["pattern","legs"],"bee_group":{"antennae":"X","wings":"X","pattern":"S","legs":"M"},"bonus":1.200000000000001},{"rt":7540.700000047684,"stimulus":"bees-with-color/bee-A2DM.svg","response":1,"trial_type":"image-button-response","trial_index":105,"time_elapsed":687201,"internal_node_id":"0.0-4.0-0.49","subject_id":"5f6bf2714d79b7164c7778c0","study_id":"6197b3f67c2b5cd3b6d9596a","session_id":"619be787ea3bfaf2bc3ab906","condition":"contingent","relevant_dimensions":["pattern","legs"],"bee_group":{"antennae":"X","wings":"X","pattern":"S","legs":"M"},"action":"avoid","summary":"bad-avoid","bonus":1.200000000000001},{"rt":1154.699999988079,"stimulus":"\n                    <p><b>Action: <em>avoid</em></b></p>\n                    <p>This is the bee that you just saw.</p>\n                    <img src=\"bees-with-color/bee-A2DM.svg\" width=\"200\">\n                    <p><br>Your bonus pay is unchanged, and remains at $0.66.</p>\n            ","response":0,"trial_type":"html-button-response","trial_index":106,"time_elapsed":688357,"internal_node_id":"0.0-4.0-1.49","subject_id":"5f6bf2714d79b7164c7778c0","study_id":"6197b3f67c2b5cd3b6d9596a","session_id":"619be787ea3bfaf2bc3ab906","condition":"contingent","relevant_dimensions":["pattern","legs"],"bee_group":{"antennae":"X","wings":"X","pattern":"S","legs":"M"},"bonus":1.200000000000001},{"rt":5164.399999976158,"stimulus":"bees-with-color/bee-B2SM.svg","response":1,"trial_type":"image-button-response","trial_index":107,"time_elapsed":693523,"internal_node_id":"0.0-4.0-0.50","subject_id":"5f6bf2714d79b7164c7778c0","study_id":"6197b3f67c2b5cd3b6d9596a","session_id":"619be787ea3bfaf2bc3ab906","condition":"contingent","relevant_dimensions":["pattern","legs"],"bee_group":{"antennae":"X","wings":"X","pattern":"S","legs":"M"},"action":"avoid","summary":"good-avoid","bonus":1.200000000000001},{"rt":553.8000000119209,"stimulus":"\n                    <p><b>Action: <em>avoid</em></b></p>\n                    <p>This is the bee that you just saw.</p>\n                    <img src=\"bees-with-color/bee-B2SM.svg\" width=\"200\">\n                    <p><br>Your bonus pay is unchanged, and remains at $0.66.</p>\n            ","response":0,"trial_type":"html-button-response","trial_index":108,"time_elapsed":694078,"internal_node_id":"0.0-4.0-1.50","subject_id":"5f6bf2714d79b7164c7778c0","study_id":"6197b3f67c2b5cd3b6d9596a","session_id":"619be787ea3bfaf2bc3ab906","condition":"contingent","relevant_dimensions":["pattern","legs"],"bee_group":{"antennae":"X","wings":"X","pattern":"S","legs":"M"},"bonus":1.200000000000001},{"rt":5674.5,"stimulus":"bees-with-color/bee-A1DF.svg","response":0,"trial_type":"image-button-response","trial_index":109,"time_elapsed":699754,"internal_node_id":"0.0-4.0-0.51","subject_id":"5f6bf2714d79b7164c7778c0","study_id":"6197b3f67c2b5cd3b6d9596a","session_id":"619be787ea3bfaf2bc3ab906","condition":"contingent","relevant_dimensions":["pattern","legs"],"bee_group":{"antennae":"X","wings":"X","pattern":"S","legs":"M"},"action":"harvest","summary":"good-harvest","bonus":1.200000000000001},{"rt":557.6000000238419,"stimulus":"\n                    <p><b>Action: <em>harvest</em></b></p>\n                    <p>This is the bee that you just saw.</p>\n                    <img src=\"bees-with-color/bee-A1DF.svg\" width=\"200\">\n                    <p><span class=\"greenText\"><b>Successful harvest!</b></span><br>Your pay has increased by $0.02. Your bonus pay is now $0.68.</p>\n            ","response":0,"trial_type":"html-button-response","trial_index":110,"time_elapsed":700313,"internal_node_id":"0.0-4.0-1.51","subject_id":"5f6bf2714d79b7164c7778c0","study_id":"6197b3f67c2b5cd3b6d9596a","session_id":"619be787ea3bfaf2bc3ab906","condition":"contingent","relevant_dimensions":["pattern","legs"],"bee_group":{"antennae":"X","wings":"X","pattern":"S","legs":"M"},"bonus":1.200000000000001},{"rt":1281.6000000238419,"stimulus":"bees-with-color/bee-B1DF.svg","response":0,"trial_type":"image-button-response","trial_index":111,"time_elapsed":701596,"internal_node_id":"0.0-4.0-0.52","subject_id":"5f6bf2714d79b7164c7778c0","study_id":"6197b3f67c2b5cd3b6d9596a","session_id":"619be787ea3bfaf2bc3ab906","condition":"contingent","relevant_dimensions":["pattern","legs"],"bee_group":{"antennae":"X","wings":"X","pattern":"S","legs":"M"},"action":"harvest","summary":"good-harvest","bonus":1.200000000000001},{"rt":965.8000000119209,"stimulus":"\n                    <p><b>Action: <em>harvest</em></b></p>\n                    <p>This is the bee that you just saw.</p>\n                    <img src=\"bees-with-color/bee-B1DF.svg\" width=\"200\">\n                    <p><span class=\"greenText\"><b>Successful harvest!</b></span><br>Your pay has increased by $0.02. Your bonus pay is now $0.70.</p>\n            ","response":0,"trial_type":"html-button-response","trial_index":112,"time_elapsed":702563,"internal_node_id":"0.0-4.0-1.52","subject_id":"5f6bf2714d79b7164c7778c0","study_id":"6197b3f67c2b5cd3b6d9596a","session_id":"619be787ea3bfaf2bc3ab906","condition":"contingent","relevant_dimensions":["pattern","legs"],"bee_group":{"antennae":"X","wings":"X","pattern":"S","legs":"M"},"bonus":1.200000000000001},{"rt":3285.699999988079,"stimulus":"bees-with-color/bee-A1SF.svg","response":0,"trial_type":"image-button-response","trial_index":113,"time_elapsed":705850,"internal_node_id":"0.0-4.0-0.53","subject_id":"5f6bf2714d79b7164c7778c0","study_id":"6197b3f67c2b5cd3b6d9596a","session_id":"619be787ea3bfaf2bc3ab906","condition":"contingent","relevant_dimensions":["pattern","legs"],"bee_group":{"antennae":"X","wings":"X","pattern":"S","legs":"M"},"action":"harvest","summary":"good-harvest","bonus":1.200000000000001},{"rt":592.3999999761581,"stimulus":"\n                    <p><b>Action: <em>harvest</em></b></p>\n                    <p>This is the bee that you just saw.</p>\n                    <img src=\"bees-with-color/bee-A1SF.svg\" width=\"200\">\n                    <p><span class=\"greenText\"><b>Successful harvest!</b></span><br>Your pay has increased by $0.02. Your bonus pay is now $0.72.</p>\n            ","response":0,"trial_type":"html-button-response","trial_index":114,"time_elapsed":706444,"internal_node_id":"0.0-4.0-1.53","subject_id":"5f6bf2714d79b7164c7778c0","study_id":"6197b3f67c2b5cd3b6d9596a","session_id":"619be787ea3bfaf2bc3ab906","condition":"contingent","relevant_dimensions":["pattern","legs"],"bee_group":{"antennae":"X","wings":"X","pattern":"S","legs":"M"},"bonus":1.200000000000001},{"rt":8197,"stimulus":"bees-with-color/bee-A1SM.svg","response":1,"trial_type":"image-button-response","trial_index":115,"time_elapsed":714642,"internal_node_id":"0.0-4.0-0.54","subject_id":"5f6bf2714d79b7164c7778c0","study_id":"6197b3f67c2b5cd3b6d9596a","session_id":"619be787ea3bfaf2bc3ab906","condition":"contingent","relevant_dimensions":["pattern","legs"],"bee_group":{"antennae":"X","wings":"X","pattern":"S","legs":"M"},"action":"avoid","summary":"good-avoid","bonus":1.200000000000001},{"rt":519.5,"stimulus":"\n                    <p><b>Action: <em>avoid</em></b></p>\n                    <p>This is the bee that you just saw.</p>\n                    <img src=\"bees-with-color/bee-A1SM.svg\" width=\"200\">\n                    <p><br>Your bonus pay is unchanged, and remains at $0.72.</p>\n            ","response":0,"trial_type":"html-button-response","trial_index":116,"time_elapsed":715163,"internal_node_id":"0.0-4.0-1.54","subject_id":"5f6bf2714d79b7164c7778c0","study_id":"6197b3f67c2b5cd3b6d9596a","session_id":"619be787ea3bfaf2bc3ab906","condition":"contingent","relevant_dimensions":["pattern","legs"],"bee_group":{"antennae":"X","wings":"X","pattern":"S","legs":"M"},"bonus":1.200000000000001},{"rt":5281.400000035763,"stimulus":"bees-with-color/bee-A2DF.svg","response":0,"trial_type":"image-button-response","trial_index":117,"time_elapsed":720446,"internal_node_id":"0.0-4.0-0.55","subject_id":"5f6bf2714d79b7164c7778c0","study_id":"6197b3f67c2b5cd3b6d9596a","session_id":"619be787ea3bfaf2bc3ab906","condition":"contingent","relevant_dimensions":["pattern","legs"],"bee_group":{"antennae":"X","wings":"X","pattern":"S","legs":"M"},"action":"harvest","summary":"good-harvest","bonus":1.200000000000001},{"rt":596.5,"stimulus":"\n                    <p><b>Action: <em>harvest</em></b></p>\n                    <p>This is the bee that you just saw.</p>\n                    <img src=\"bees-with-color/bee-A2DF.svg\" width=\"200\">\n                    <p><span class=\"greenText\"><b>Successful harvest!</b></span><br>Your pay has increased by $0.02. Your bonus pay is now $0.74.</p>\n            ","response":0,"trial_type":"html-button-response","trial_index":118,"time_elapsed":721044,"internal_node_id":"0.0-4.0-1.55","subject_id":"5f6bf2714d79b7164c7778c0","study_id":"6197b3f67c2b5cd3b6d9596a","session_id":"619be787ea3bfaf2bc3ab906","condition":"contingent","relevant_dimensions":["pattern","legs"],"bee_group":{"antennae":"X","wings":"X","pattern":"S","legs":"M"},"bonus":1.200000000000001},{"rt":3720.2999999523163,"stimulus":"bees-with-color/bee-B2DM.svg","response":1,"trial_type":"image-button-response","trial_index":119,"time_elapsed":724765,"internal_node_id":"0.0-4.0-0.56","subject_id":"5f6bf2714d79b7164c7778c0","study_id":"6197b3f67c2b5cd3b6d9596a","session_id":"619be787ea3bfaf2bc3ab906","condition":"contingent","relevant_dimensions":["pattern","legs"],"bee_group":{"antennae":"X","wings":"X","pattern":"S","legs":"M"},"action":"avoid","summary":"bad-avoid","bonus":1.200000000000001},{"rt":7630.5,"stimulus":"\n                    <p><b>Action: <em>avoid</em></b></p>\n                    <p>This is the bee that you just saw.</p>\n                    <img src=\"bees-with-color/bee-B2DM.svg\" width=\"200\">\n                    <p><br>Your bonus pay is unchanged, and remains at $0.74.</p>\n            ","response":0,"trial_type":"html-button-response","trial_index":120,"time_elapsed":732397,"internal_node_id":"0.0-4.0-1.56","subject_id":"5f6bf2714d79b7164c7778c0","study_id":"6197b3f67c2b5cd3b6d9596a","session_id":"619be787ea3bfaf2bc3ab906","condition":"contingent","relevant_dimensions":["pattern","legs"],"bee_group":{"antennae":"X","wings":"X","pattern":"S","legs":"M"},"bonus":1.200000000000001},{"rt":2395.5,"stimulus":"bees-with-color/bee-A1DM.svg","response":1,"trial_type":"image-button-response","trial_index":121,"time_elapsed":734794,"internal_node_id":"0.0-4.0-0.57","subject_id":"5f6bf2714d79b7164c7778c0","study_id":"6197b3f67c2b5cd3b6d9596a","session_id":"619be787ea3bfaf2bc3ab906","condition":"contingent","relevant_dimensions":["pattern","legs"],"bee_group":{"antennae":"X","wings":"X","pattern":"S","legs":"M"},"action":"avoid","summary":"bad-avoid","bonus":1.200000000000001},{"rt":498.39999997615814,"stimulus":"\n                    <p><b>Action: <em>avoid</em></b></p>\n                    <p>This is the bee that you just saw.</p>\n                    <img src=\"bees-with-color/bee-A1DM.svg\" width=\"200\">\n                    <p><br>Your bonus pay is unchanged, and remains at $0.74.</p>\n            ","response":0,"trial_type":"html-button-response","trial_index":122,"time_elapsed":735294,"internal_node_id":"0.0-4.0-1.57","subject_id":"5f6bf2714d79b7164c7778c0","study_id":"6197b3f67c2b5cd3b6d9596a","session_id":"619be787ea3bfaf2bc3ab906","condition":"contingent","relevant_dimensions":["pattern","legs"],"bee_group":{"antennae":"X","wings":"X","pattern":"S","legs":"M"},"bonus":1.200000000000001},{"rt":3350.400000035763,"stimulus":"bees-with-color/bee-B1DM.svg","response":0,"trial_type":"image-button-response","trial_index":123,"time_elapsed":738646,"internal_node_id":"0.0-4.0-0.58","subject_id":"5f6bf2714d79b7164c7778c0","study_id":"6197b3f67c2b5cd3b6d9596a","session_id":"619be787ea3bfaf2bc3ab906","condition":"contingent","relevant_dimensions":["pattern","legs"],"bee_group":{"antennae":"X","wings":"X","pattern":"S","legs":"M"},"action":"harvest","summary":"good-harvest","bonus":1.200000000000001},{"rt":541.8000000119209,"stimulus":"\n                    <p><b>Action: <em>harvest</em></b></p>\n                    <p>This is the bee that you just saw.</p>\n                    <img src=\"bees-with-color/bee-B1DM.svg\" width=\"200\">\n                    <p><span class=\"greenText\"><b>Successful harvest!</b></span><br>Your pay has increased by $0.02. Your bonus pay is now $0.76.</p>\n            ","response":0,"trial_type":"html-button-response","trial_index":124,"time_elapsed":739189,"internal_node_id":"0.0-4.0-1.58","subject_id":"5f6bf2714d79b7164c7778c0","study_id":"6197b3f67c2b5cd3b6d9596a","session_id":"619be787ea3bfaf2bc3ab906","condition":"contingent","relevant_dimensions":["pattern","legs"],"bee_group":{"antennae":"X","wings":"X","pattern":"S","legs":"M"},"bonus":1.200000000000001},{"rt":5384.200000047684,"stimulus":"bees-with-color/bee-B1SF.svg","response":0,"trial_type":"image-button-response","trial_index":125,"time_elapsed":744575,"internal_node_id":"0.0-4.0-0.59","subject_id":"5f6bf2714d79b7164c7778c0","study_id":"6197b3f67c2b5cd3b6d9596a","session_id":"619be787ea3bfaf2bc3ab906","condition":"contingent","relevant_dimensions":["pattern","legs"],"bee_group":{"antennae":"X","wings":"X","pattern":"S","legs":"M"},"action":"harvest","summary":"good-harvest","bonus":1.200000000000001},{"rt":581.9000000357628,"stimulus":"\n                    <p><b>Action: <em>harvest</em></b></p>\n                    <p>This is the bee that you just saw.</p>\n                    <img src=\"bees-with-color/bee-B1SF.svg\" width=\"200\">\n                    <p><span class=\"greenText\"><b>Successful harvest!</b></span><br>Your pay has increased by $0.02. Your bonus pay is now $0.78.</p>\n            ","response":0,"trial_type":"html-button-response","trial_index":126,"time_elapsed":745158,"internal_node_id":"0.0-4.0-1.59","subject_id":"5f6bf2714d79b7164c7778c0","study_id":"6197b3f67c2b5cd3b6d9596a","session_id":"619be787ea3bfaf2bc3ab906","condition":"contingent","relevant_dimensions":["pattern","legs"],"bee_group":{"antennae":"X","wings":"X","pattern":"S","legs":"M"},"bonus":1.200000000000001},{"rt":6561.199999988079,"stimulus":"bees-with-color/bee-B2DF.svg","response":0,"trial_type":"image-button-response","trial_index":127,"time_elapsed":751721,"internal_node_id":"0.0-4.0-0.60","subject_id":"5f6bf2714d79b7164c7778c0","study_id":"6197b3f67c2b5cd3b6d9596a","session_id":"619be787ea3bfaf2bc3ab906","condition":"contingent","relevant_dimensions":["pattern","legs"],"bee_group":{"antennae":"X","wings":"X","pattern":"S","legs":"M"},"action":"harvest","summary":"good-harvest","bonus":1.200000000000001},{"rt":1038.0999999642372,"stimulus":"\n                    <p><b>Action: <em>harvest</em></b></p>\n                    <p>This is the bee that you just saw.</p>\n                    <img src=\"bees-with-color/bee-B2DF.svg\" width=\"200\">\n                    <p><span class=\"greenText\"><b>Successful harvest!</b></span><br>Your pay has increased by $0.02. Your bonus pay is now $0.80.</p>\n            ","response":0,"trial_type":"html-button-response","trial_index":128,"time_elapsed":752760,"internal_node_id":"0.0-4.0-1.60","subject_id":"5f6bf2714d79b7164c7778c0","study_id":"6197b3f67c2b5cd3b6d9596a","session_id":"619be787ea3bfaf2bc3ab906","condition":"contingent","relevant_dimensions":["pattern","legs"],"bee_group":{"antennae":"X","wings":"X","pattern":"S","legs":"M"},"bonus":1.200000000000001},{"rt":5510.300000011921,"stimulus":"bees-with-color/bee-A2SM.svg","response":1,"trial_type":"image-button-response","trial_index":129,"time_elapsed":758272,"internal_node_id":"0.0-4.0-0.61","subject_id":"5f6bf2714d79b7164c7778c0","study_id":"6197b3f67c2b5cd3b6d9596a","session_id":"619be787ea3bfaf2bc3ab906","condition":"contingent","relevant_dimensions":["pattern","legs"],"bee_group":{"antennae":"X","wings":"X","pattern":"S","legs":"M"},"action":"avoid","summary":"good-avoid","bonus":1.200000000000001},{"rt":668.5,"stimulus":"\n                    <p><b>Action: <em>avoid</em></b></p>\n                    <p>This is the bee that you just saw.</p>\n                    <img src=\"bees-with-color/bee-A2SM.svg\" width=\"200\">\n                    <p><br>Your bonus pay is unchanged, and remains at $0.80.</p>\n            ","response":0,"trial_type":"html-button-response","trial_index":130,"time_elapsed":758942,"internal_node_id":"0.0-4.0-1.61","subject_id":"5f6bf2714d79b7164c7778c0","study_id":"6197b3f67c2b5cd3b6d9596a","session_id":"619be787ea3bfaf2bc3ab906","condition":"contingent","relevant_dimensions":["pattern","legs"],"bee_group":{"antennae":"X","wings":"X","pattern":"S","legs":"M"},"bonus":1.200000000000001},{"rt":5503.399999976158,"stimulus":"bees-with-color/bee-B1SM.svg","response":1,"trial_type":"image-button-response","trial_index":131,"time_elapsed":764447,"internal_node_id":"0.0-4.0-0.62","subject_id":"5f6bf2714d79b7164c7778c0","study_id":"6197b3f67c2b5cd3b6d9596a","session_id":"619be787ea3bfaf2bc3ab906","condition":"contingent","relevant_dimensions":["pattern","legs"],"bee_group":{"antennae":"X","wings":"X","pattern":"S","legs":"M"},"action":"avoid","summary":"good-avoid","bonus":1.200000000000001},{"rt":545.3999999761581,"stimulus":"\n                    <p><b>Action: <em>avoid</em></b></p>\n                    <p>This is the bee that you just saw.</p>\n                    <img src=\"bees-with-color/bee-B1SM.svg\" width=\"200\">\n                    <p><br>Your bonus pay is unchanged, and remains at $0.80.</p>\n            ","response":0,"trial_type":"html-button-response","trial_index":132,"time_elapsed":764994,"internal_node_id":"0.0-4.0-1.62","subject_id":"5f6bf2714d79b7164c7778c0","study_id":"6197b3f67c2b5cd3b6d9596a","session_id":"619be787ea3bfaf2bc3ab906","condition":"contingent","relevant_dimensions":["pattern","legs"],"bee_group":{"antennae":"X","wings":"X","pattern":"S","legs":"M"},"bonus":1.200000000000001},{"rt":5579.5,"stimulus":"bees-with-color/bee-B2SF.svg","response":0,"trial_type":"image-button-response","trial_index":133,"time_elapsed":770575,"internal_node_id":"0.0-4.0-0.63","subject_id":"5f6bf2714d79b7164c7778c0","study_id":"6197b3f67c2b5cd3b6d9596a","session_id":"619be787ea3bfaf2bc3ab906","condition":"contingent","relevant_dimensions":["pattern","legs"],"bee_group":{"antennae":"X","wings":"X","pattern":"S","legs":"M"},"action":"harvest","summary":"good-harvest","bonus":1.200000000000001},{"rt":525.5,"stimulus":"\n                    <p><b>Action: <em>harvest</em></b></p>\n                    <p>This is the bee that you just saw.</p>\n                    <img src=\"bees-with-color/bee-B2SF.svg\" width=\"200\">\n                    <p><span class=\"greenText\"><b>Successful harvest!</b></span><br>Your pay has increased by $0.02. Your bonus pay is now $0.82.</p>\n            ","response":0,"trial_type":"html-button-response","trial_index":134,"time_elapsed":771102,"internal_node_id":"0.0-4.0-1.63","subject_id":"5f6bf2714d79b7164c7778c0","study_id":"6197b3f67c2b5cd3b6d9596a","session_id":"619be787ea3bfaf2bc3ab906","condition":"contingent","relevant_dimensions":["pattern","legs"],"bee_group":{"antennae":"X","wings":"X","pattern":"S","legs":"M"},"bonus":1.200000000000001},{"rt":8907.600000023842,"stimulus":"You have completed the first part of this experiment.<br><br>You will now begin a shorter second part, in which you will receive no feedback.<br>The same rules regarding bonus pay apply.<br><br>Press any key to begin.","response":" ","trial_type":"html-keyboard-response","trial_index":135,"time_elapsed":780011,"internal_node_id":"0.0-5.0","subject_id":"5f6bf2714d79b7164c7778c0","study_id":"6197b3f67c2b5cd3b6d9596a","session_id":"619be787ea3bfaf2bc3ab906","condition":"contingent","relevant_dimensions":["pattern","legs"],"bee_group":{"antennae":"X","wings":"X","pattern":"S","legs":"M"},"bonus":1.200000000000001},{"rt":12726.699999988079,"stimulus":"bees-with-color/bee-B2SF.svg","response":0,"trial_type":"image-button-response","trial_index":136,"time_elapsed":792747,"internal_node_id":"0.0-6.0-0.0","subject_id":"5f6bf2714d79b7164c7778c0","study_id":"6197b3f67c2b5cd3b6d9596a","session_id":"619be787ea3bfaf2bc3ab906","condition":"contingent","relevant_dimensions":["pattern","legs"],"bee_group":{"antennae":"X","wings":"X","pattern":"S","legs":"M"},"bonus":1.200000000000001},{"rt":7579.400000035763,"stimulus":"bees-with-color/bee-A1DF.svg","response":0,"trial_type":"image-button-response","trial_index":137,"time_elapsed":800328,"internal_node_id":"0.0-6.0-0.1","subject_id":"5f6bf2714d79b7164c7778c0","study_id":"6197b3f67c2b5cd3b6d9596a","session_id":"619be787ea3bfaf2bc3ab906","condition":"contingent","relevant_dimensions":["pattern","legs"],"bee_group":{"antennae":"X","wings":"X","pattern":"S","legs":"M"},"bonus":1.200000000000001},{"rt":6320.799999952316,"stimulus":"bees-with-color/bee-A1DM.svg","response":1,"trial_type":"image-button-response","trial_index":138,"time_elapsed":806651,"internal_node_id":"0.0-6.0-0.2","subject_id":"5f6bf2714d79b7164c7778c0","study_id":"6197b3f67c2b5cd3b6d9596a","session_id":"619be787ea3bfaf2bc3ab906","condition":"contingent","relevant_dimensions":["pattern","legs"],"bee_group":{"antennae":"X","wings":"X","pattern":"S","legs":"M"},"bonus":1.200000000000001},{"rt":10362.899999976158,"stimulus":"bees-with-color/bee-A1SF.svg","response":0,"trial_type":"image-button-response","trial_index":139,"time_elapsed":817016,"internal_node_id":"0.0-6.0-0.3","subject_id":"5f6bf2714d79b7164c7778c0","study_id":"6197b3f67c2b5cd3b6d9596a","session_id":"619be787ea3bfaf2bc3ab906","condition":"contingent","relevant_dimensions":["pattern","legs"],"bee_group":{"antennae":"X","wings":"X","pattern":"S","legs":"M"},"bonus":1.200000000000001},{"rt":3377.399999976158,"stimulus":"bees-with-color/bee-B1SM.svg","response":1,"trial_type":"image-button-response","trial_index":140,"time_elapsed":820396,"internal_node_id":"0.0-6.0-0.4","subject_id":"5f6bf2714d79b7164c7778c0","study_id":"6197b3f67c2b5cd3b6d9596a","session_id":"619be787ea3bfaf2bc3ab906","condition":"contingent","relevant_dimensions":["pattern","legs"],"bee_group":{"antennae":"X","wings":"X","pattern":"S","legs":"M"},"bonus":1.200000000000001},{"rt":1189,"stimulus":"bees-with-color/bee-A2SF.svg","response":1,"trial_type":"image-button-response","trial_index":141,"time_elapsed":821586,"internal_node_id":"0.0-6.0-0.5","subject_id":"5f6bf2714d79b7164c7778c0","study_id":"6197b3f67c2b5cd3b6d9596a","session_id":"619be787ea3bfaf2bc3ab906","condition":"contingent","relevant_dimensions":["pattern","legs"],"bee_group":{"antennae":"X","wings":"X","pattern":"S","legs":"M"},"bonus":1.200000000000001},{"rt":1229,"stimulus":"bees-with-color/bee-B2DF.svg","response":0,"trial_type":"image-button-response","trial_index":142,"time_elapsed":822817,"internal_node_id":"0.0-6.0-0.6","subject_id":"5f6bf2714d79b7164c7778c0","study_id":"6197b3f67c2b5cd3b6d9596a","session_id":"619be787ea3bfaf2bc3ab906","condition":"contingent","relevant_dimensions":["pattern","legs"],"bee_group":{"antennae":"X","wings":"X","pattern":"S","legs":"M"},"bonus":1.200000000000001},{"rt":6561.199999988079,"stimulus":"bees-with-color/bee-A1SM.svg","response":1,"trial_type":"image-button-response","trial_index":143,"time_elapsed":829380,"internal_node_id":"0.0-6.0-0.7","subject_id":"5f6bf2714d79b7164c7778c0","study_id":"6197b3f67c2b5cd3b6d9596a","session_id":"619be787ea3bfaf2bc3ab906","condition":"contingent","relevant_dimensions":["pattern","legs"],"bee_group":{"antennae":"X","wings":"X","pattern":"S","legs":"M"},"bonus":1.200000000000001},{"rt":1612.6000000238419,"stimulus":"bees-with-color/bee-A2DM.svg","response":0,"trial_type":"image-button-response","trial_index":144,"time_elapsed":830995,"internal_node_id":"0.0-6.0-0.8","subject_id":"5f6bf2714d79b7164c7778c0","study_id":"6197b3f67c2b5cd3b6d9596a","session_id":"619be787ea3bfaf2bc3ab906","condition":"contingent","relevant_dimensions":["pattern","legs"],"bee_group":{"antennae":"X","wings":"X","pattern":"S","legs":"M"},"bonus":1.200000000000001},{"rt":3087.5,"stimulus":"bees-with-color/bee-B1DF.svg","response":0,"trial_type":"image-button-response","trial_index":145,"time_elapsed":834084,"internal_node_id":"0.0-6.0-0.9","subject_id":"5f6bf2714d79b7164c7778c0","study_id":"6197b3f67c2b5cd3b6d9596a","session_id":"619be787ea3bfaf2bc3ab906","condition":"contingent","relevant_dimensions":["pattern","legs"],"bee_group":{"antennae":"X","wings":"X","pattern":"S","legs":"M"},"bonus":1.200000000000001},{"rt":2504.2999999523163,"stimulus":"bees-with-color/bee-B1SF.svg","response":0,"trial_type":"image-button-response","trial_index":146,"time_elapsed":836590,"internal_node_id":"0.0-6.0-0.10","subject_id":"5f6bf2714d79b7164c7778c0","study_id":"6197b3f67c2b5cd3b6d9596a","session_id":"619be787ea3bfaf2bc3ab906","condition":"contingent","relevant_dimensions":["pattern","legs"],"bee_group":{"antennae":"X","wings":"X","pattern":"S","legs":"M"},"bonus":1.200000000000001},{"rt":1741.9000000357628,"stimulus":"bees-with-color/bee-A2SM.svg","response":1,"trial_type":"image-button-response","trial_index":147,"time_elapsed":838334,"internal_node_id":"0.0-6.0-0.11","subject_id":"5f6bf2714d79b7164c7778c0","study_id":"6197b3f67c2b5cd3b6d9596a","session_id":"619be787ea3bfaf2bc3ab906","condition":"contingent","relevant_dimensions":["pattern","legs"],"bee_group":{"antennae":"X","wings":"X","pattern":"S","legs":"M"},"bonus":1.200000000000001},{"rt":1182.5,"stimulus":"bees-with-color/bee-B1DM.svg","response":0,"trial_type":"image-button-response","trial_index":148,"time_elapsed":839518,"internal_node_id":"0.0-6.0-0.12","subject_id":"5f6bf2714d79b7164c7778c0","study_id":"6197b3f67c2b5cd3b6d9596a","session_id":"619be787ea3bfaf2bc3ab906","condition":"contingent","relevant_dimensions":["pattern","legs"],"bee_group":{"antennae":"X","wings":"X","pattern":"S","legs":"M"},"bonus":1.200000000000001},{"rt":1336.5999999642372,"stimulus":"bees-with-color/bee-B2SM.svg","response":1,"trial_type":"image-button-response","trial_index":149,"time_elapsed":840856,"internal_node_id":"0.0-6.0-0.13","subject_id":"5f6bf2714d79b7164c7778c0","study_id":"6197b3f67c2b5cd3b6d9596a","session_id":"619be787ea3bfaf2bc3ab906","condition":"contingent","relevant_dimensions":["pattern","legs"],"bee_group":{"antennae":"X","wings":"X","pattern":"S","legs":"M"},"bonus":1.200000000000001},{"rt":2607.399999976158,"stimulus":"bees-with-color/bee-A2DF.svg","response":0,"trial_type":"image-button-response","trial_index":150,"time_elapsed":843465,"internal_node_id":"0.0-6.0-0.14","subject_id":"5f6bf2714d79b7164c7778c0","study_id":"6197b3f67c2b5cd3b6d9596a","session_id":"619be787ea3bfaf2bc3ab906","condition":"contingent","relevant_dimensions":["pattern","legs"],"bee_group":{"antennae":"X","wings":"X","pattern":"S","legs":"M"},"bonus":1.200000000000001},{"rt":1557.199999988079,"stimulus":"bees-with-color/bee-B2DM.svg","response":0,"trial_type":"image-button-response","trial_index":151,"time_elapsed":845024,"internal_node_id":"0.0-6.0-0.15","subject_id":"5f6bf2714d79b7164c7778c0","study_id":"6197b3f67c2b5cd3b6d9596a","session_id":"619be787ea3bfaf2bc3ab906","condition":"contingent","relevant_dimensions":["pattern","legs"],"bee_group":{"antennae":"X","wings":"X","pattern":"S","legs":"M"},"bonus":1.200000000000001},{"rt":1163.199999988079,"stimulus":"bees-with-color/bee-B1DF.svg","response":0,"trial_type":"image-button-response","trial_index":152,"time_elapsed":846189,"internal_node_id":"0.0-6.0-0.16","subject_id":"5f6bf2714d79b7164c7778c0","study_id":"6197b3f67c2b5cd3b6d9596a","session_id":"619be787ea3bfaf2bc3ab906","condition":"contingent","relevant_dimensions":["pattern","legs"],"bee_group":{"antennae":"X","wings":"X","pattern":"S","legs":"M"},"bonus":1.200000000000001},{"rt":946.5,"stimulus":"bees-with-color/bee-A2DF.svg","response":1,"trial_type":"image-button-response","trial_index":153,"time_elapsed":847137,"internal_node_id":"0.0-6.0-0.17","subject_id":"5f6bf2714d79b7164c7778c0","study_id":"6197b3f67c2b5cd3b6d9596a","session_id":"619be787ea3bfaf2bc3ab906","condition":"contingent","relevant_dimensions":["pattern","legs"],"bee_group":{"antennae":"X","wings":"X","pattern":"S","legs":"M"},"bonus":1.200000000000001},{"rt":1345.699999988079,"stimulus":"bees-with-color/bee-A1DF.svg","response":0,"trial_type":"image-button-response","trial_index":154,"time_elapsed":848484,"internal_node_id":"0.0-6.0-0.18","subject_id":"5f6bf2714d79b7164c7778c0","study_id":"6197b3f67c2b5cd3b6d9596a","session_id":"619be787ea3bfaf2bc3ab906","condition":"contingent","relevant_dimensions":["pattern","legs"],"bee_group":{"antennae":"X","wings":"X","pattern":"S","legs":"M"},"bonus":1.200000000000001},{"rt":1409.5,"stimulus":"bees-with-color/bee-B2DF.svg","response":0,"trial_type":"image-button-response","trial_index":155,"time_elapsed":849895,"internal_node_id":"0.0-6.0-0.19","subject_id":"5f6bf2714d79b7164c7778c0","study_id":"6197b3f67c2b5cd3b6d9596a","session_id":"619be787ea3bfaf2bc3ab906","condition":"contingent","relevant_dimensions":["pattern","legs"],"bee_group":{"antennae":"X","wings":"X","pattern":"S","legs":"M"},"bonus":1.200000000000001},{"rt":4230.100000023842,"stimulus":"bees-with-color/bee-A1DM.svg","response":1,"trial_type":"image-button-response","trial_index":156,"time_elapsed":854127,"internal_node_id":"0.0-6.0-0.20","subject_id":"5f6bf2714d79b7164c7778c0","study_id":"6197b3f67c2b5cd3b6d9596a","session_id":"619be787ea3bfaf2bc3ab906","condition":"contingent","relevant_dimensions":["pattern","legs"],"bee_group":{"antennae":"X","wings":"X","pattern":"S","legs":"M"},"bonus":1.200000000000001},{"rt":1188.3999999761581,"stimulus":"bees-with-color/bee-A1SM.svg","response":1,"trial_type":"image-button-response","trial_index":157,"time_elapsed":855317,"internal_node_id":"0.0-6.0-0.21","subject_id":"5f6bf2714d79b7164c7778c0","study_id":"6197b3f67c2b5cd3b6d9596a","session_id":"619be787ea3bfaf2bc3ab906","condition":"contingent","relevant_dimensions":["pattern","legs"],"bee_group":{"antennae":"X","wings":"X","pattern":"S","legs":"M"},"bonus":1.200000000000001},{"rt":5778.700000047684,"stimulus":"bees-with-color/bee-A2SF.svg","response":0,"trial_type":"image-button-response","trial_index":158,"time_elapsed":861097,"internal_node_id":"0.0-6.0-0.22","subject_id":"5f6bf2714d79b7164c7778c0","study_id":"6197b3f67c2b5cd3b6d9596a","session_id":"619be787ea3bfaf2bc3ab906","condition":"contingent","relevant_dimensions":["pattern","legs"],"bee_group":{"antennae":"X","wings":"X","pattern":"S","legs":"M"},"bonus":1.200000000000001},{"rt":1395.7000000476837,"stimulus":"bees-with-color/bee-B2SM.svg","response":1,"trial_type":"image-button-response","trial_index":159,"time_elapsed":862495,"internal_node_id":"0.0-6.0-0.23","subject_id":"5f6bf2714d79b7164c7778c0","study_id":"6197b3f67c2b5cd3b6d9596a","session_id":"619be787ea3bfaf2bc3ab906","condition":"contingent","relevant_dimensions":["pattern","legs"],"bee_group":{"antennae":"X","wings":"X","pattern":"S","legs":"M"},"bonus":1.200000000000001},{"rt":3050.899999976158,"stimulus":"bees-with-color/bee-A2SM.svg","response":1,"trial_type":"image-button-response","trial_index":160,"time_elapsed":865547,"internal_node_id":"0.0-6.0-0.24","subject_id":"5f6bf2714d79b7164c7778c0","study_id":"6197b3f67c2b5cd3b6d9596a","session_id":"619be787ea3bfaf2bc3ab906","condition":"contingent","relevant_dimensions":["pattern","legs"],"bee_group":{"antennae":"X","wings":"X","pattern":"S","legs":"M"},"bonus":1.200000000000001},{"rt":3970.399999976158,"stimulus":"bees-with-color/bee-B1DM.svg","response":0,"trial_type":"image-button-response","trial_index":161,"time_elapsed":869519,"internal_node_id":"0.0-6.0-0.25","subject_id":"5f6bf2714d79b7164c7778c0","study_id":"6197b3f67c2b5cd3b6d9596a","session_id":"619be787ea3bfaf2bc3ab906","condition":"contingent","relevant_dimensions":["pattern","legs"],"bee_group":{"antennae":"X","wings":"X","pattern":"S","legs":"M"},"bonus":1.200000000000001},{"rt":3259,"stimulus":"bees-with-color/bee-B2SF.svg","response":0,"trial_type":"image-button-response","trial_index":162,"time_elapsed":872780,"internal_node_id":"0.0-6.0-0.26","subject_id":"5f6bf2714d79b7164c7778c0","study_id":"6197b3f67c2b5cd3b6d9596a","session_id":"619be787ea3bfaf2bc3ab906","condition":"contingent","relevant_dimensions":["pattern","legs"],"bee_group":{"antennae":"X","wings":"X","pattern":"S","legs":"M"},"bonus":1.200000000000001},{"rt":839.6999999880791,"stimulus":"bees-with-color/bee-B1SF.svg","response":0,"trial_type":"image-but