[{"success":true,"trial_type":"fullscreen","trial_index":0,"time_elapsed":6885,"internal_node_id":"0.0-0.0","subject_id":"613ab7f2f840366b66c2b920","study_id":"6197b3f67c2b5cd3b6d9596a","session_id":"619bfbdf6627b0f1c87fcb58","condition":"full-information","relevant_dimensions":["wings","legs"],"bee_group":{"antennae":"X","wings":"1","pattern":"X","legs":"F"},"bonus":1.1400000000000012},{"success":true,"timeout":false,"failed_images":[],"failed_audio":[],"failed_video":[],"trial_type":"preload","trial_index":1,"time_elapsed":16132,"internal_node_id":"0.0-1.0","subject_id":"613ab7f2f840366b66c2b920","study_id":"6197b3f67c2b5cd3b6d9596a","session_id":"619bfbdf6627b0f1c87fcb58","condition":"full-information","relevant_dimensions":["wings","legs"],"bee_group":{"antennae":"X","wings":"1","pattern":"X","legs":"F"},"bonus":1.1400000000000012},{"rt":2926.2000000476837,"stimulus":"Welcome! Press any key to begin.","response":"enter","trial_type":"html-keyboard-response","trial_index":2,"time_elapsed":19059,"internal_node_id":"0.0-2.0","subject_id":"613ab7f2f840366b66c2b920","study_id":"6197b3f67c2b5cd3b6d9596a","session_id":"619bfbdf6627b0f1c87fcb58","condition":"full-information","relevant_dimensions":["wings","legs"],"bee_group":{"antennae":"X","wings":"1","pattern":"X","legs":"F"},"bonus":1.1400000000000012},{"view_history":[{"page_index":0,"viewing_time":3184.8000000715256},{"page_index":1,"viewing_time":23605.399999976158},{"page_index":2,"viewing_time":6791.899999976158},{"page_index":3,"viewing_time":10857.899999976158},{"page_index":4,"viewing_time":4568.300000071526},{"page_index":5,"viewing_time":7444.799999952316},{"page_index":6,"viewing_time":5540.200000047684},{"page_index":7,"viewing_time":3100},{"page_index":8,"viewing_time":2230.399999976158},{"page_index":9,"viewing_time":2317.7999999523163},{"page_index":10,"viewing_time":2006.6000000238419},{"page_index":11,"viewing_time":7009.700000047684},{"page_index":12,"viewing_time":11554.699999928474},{"page_index":13,"viewing_time":2041.7000000476837},{"page_index":14,"viewing_time":1742.2000000476837}],"rt":93997,"trial_type":"instructions","trial_index":3,"time_elapsed":113058,"internal_node_id":"0.0-3.0-0.0","subject_id":"613ab7f2f840366b66c2b920","study_id":"6197b3f67c2b5cd3b6d9596a","session_id":"619bfbdf6627b0f1c87fcb58","condition":"full-information","relevant_dimensions":["wings","legs"],"bee_group":{"antennae":"X","wings":"1","pattern":"X","legs":"F"},"bonus":1.1400000000000012},{"rt":11004.600000023842,"response":{"Q0":["Two or six legs","Stripes or spots on body","Single or double wings","Antennae or no antennae"]},"question_order":[0],"trial_type":"survey-multi-select","trial_index":4,"time_elapsed":124073,"internal_node_id":"0.0-3.0-1.0","subject_id":"613ab7f2f840366b66c2b920","study_id":"6197b3f67c2b5cd3b6d9596a","session_id":"619bfbdf6627b0f1c87fcb58","condition":"full-information","relevant_dimensions":["wings","legs"],"bee_group":{"antennae":"X","wings":"1","pattern":"X","legs":"F"},"correct":true,"bonus":1.1400000000000012},{"rt":16882.200000047684,"response":{"Q1":"No.","Q2":"Based on the four features of the bee.","Q3":"You learn if it was friendly or dangerous, but do not alter your bonus."},"question_order":[0,1,2],"trial_type":"survey-multi-choice","trial_index":5,"time_elapsed":140959,"internal_node_id":"0.0-3.0-2.0","subject_id":"613ab7f2f840366b66c2b920","study_id":"6197b3f67c2b5cd3b6d9596a","session_id":"619bfbdf6627b0f1c87fcb58","condition":"full-information","relevant_dimensions":["wings","legs"],"bee_group":{"antennae":"X","wings":"1","pattern":"X","legs":"F"},"correct":true,"bonus":1.1400000000000012},{"rt":1693.7000000476837,"stimulus":"<p>Congrats, you got everything right<br>When you're ready, click the button below to continue to the experiment.</p>","response":0,"trial_type":"html-button-response","trial_index":6,"time_elapsed":142656,"internal_node_id":"0.0-3.0-3.0","subject_id":"613ab7f2f840366b66c2b920","study_id":"6197b3f67c2b5cd3b6d9596a","session_id":"619bfbdf6627b0f1c87fcb58","condition":"full-information","relevant_dimensions":["wings","legs"],"bee_group":{"antennae":"X","wings":"1","pattern":"X","legs":"F"},"bonus":1.1400000000000012},{"rt":2427.899999976158,"stimulus":"bees-with-color/bee-B1SF.svg","response":0,"trial_type":"image-button-response","trial_index":7,"time_elapsed":145089,"internal_node_id":"0.0-4.0-0.0","subject_id":"613ab7f2f840366b66c2b920","study_id":"6197b3f67c2b5cd3b6d9596a","session_id":"619bfbdf6627b0f1c87fcb58","condition":"full-information","relevant_dimensions":["wings","legs"],"bee_group":{"antennae":"X","wings":"1","pattern":"X","legs":"F"},"action":"harvest","summary":"bad-harvest","bonus":1.1400000000000012},{"rt":2806.899999976158,"stimulus":"\n                    <p><b>Action: <em>harvest</em></b></p>\n                    <p>This is the bee that you just saw.</p>\n                    <img src=\"bees-with-color/bee-B1SF.svg\" width=\"200\">\n                    <p><span class=\"redText\">Bad choice, the bee was angry.</span><br><b>You have been stung!</b><br>Your pay has been decreased by $0.10. Your bonus pay is now $0.44.</p>\n            ","response":0,"trial_type":"html-button-response","trial_index":8,"time_elapsed":147900,"internal_node_id":"0.0-4.0-1.0","subject_id":"613ab7f2f840366b66c2b920","study_id":"6197b3f67c2b5cd3b6d9596a","session_id":"619bfbdf6627b0f1c87fcb58","condition":"full-information","relevant_dimensions":["wings","legs"],"bee_group":{"antennae":"X","wings":"1","pattern":"X","legs":"F"},"bonus":1.1400000000000012},{"rt":3514.7999999523163,"stimulus":"bees-with-color/bee-B1SM.svg","response":1,"trial_type":"image-button-response","trial_index":9,"time_elapsed":151417,"internal_node_id":"0.0-4.0-0.1","subject_id":"613ab7f2f840366b66c2b920","study_id":"6197b3f67c2b5cd3b6d9596a","session_id":"619bfbdf6627b0f1c87fcb58","condition":"full-information","relevant_dimensions":["wings","legs"],"bee_group":{"antennae":"X","wings":"1","pattern":"X","legs":"F"},"action":"avoid","summary":"bad-avoid","bonus":1.1400000000000012},{"rt":5741.5,"stimulus":"\n                    <p><b>Action: <em>avoid</em></b></p>\n                    <p>This is the bee that you just saw.</p>\n                    <img src=\"bees-with-color/bee-B1SM.svg\" width=\"200\">\n                    <p><span class=\"redText\">Bad choice,</span> the bee was friendly.<br>Your bonus pay is unchanged, and remains at $0.44.</p>\n            ","response":0,"trial_type":"html-button-response","trial_index":10,"time_elapsed":157162,"internal_node_id":"0.0-4.0-1.1","subject_id":"613ab7f2f840366b66c2b920","study_id":"6197b3f67c2b5cd3b6d9596a","session_id":"619bfbdf6627b0f1c87fcb58","condition":"full-information","relevant_dimensions":["wings","legs"],"bee_group":{"antennae":"X","wings":"1","pattern":"X","legs":"F"},"bonus":1.1400000000000012},{"rt":1847.2999999523163,"stimulus":"bees-with-color/bee-A2DF.svg","response":1,"trial_type":"image-button-response","trial_index":11,"time_elapsed":159012,"internal_node_id":"0.0-4.0-0.2","subject_id":"613ab7f2f840366b66c2b920","study_id":"6197b3f67c2b5cd3b6d9596a","session_id":"619bfbdf6627b0f1c87fcb58","condition":"full-information","relevant_dimensions":["wings","legs"],"bee_group":{"antennae":"X","wings":"1","pattern":"X","legs":"F"},"action":"avoid","summary":"bad-avoid","bonus":1.1400000000000012},{"rt":1507.5,"stimulus":"\n                    <p><b>Action: <em>avoid</em></b></p>\n                    <p>This is the bee that you just saw.</p>\n                    <img src=\"bees-with-color/bee-A2DF.svg\" width=\"200\">\n                    <p><span class=\"redText\">Bad choice,</span> the bee was friendly.<br>Your bonus pay is unchanged, and remains at $0.44.</p>\n            ","response":0,"trial_type":"html-button-response","trial_index":12,"time_elapsed":160521,"internal_node_id":"0.0-4.0-1.2","subject_id":"613ab7f2f840366b66c2b920","study_id":"6197b3f67c2b5cd3b6d9596a","session_id":"619bfbdf6627b0f1c87fcb58","condition":"full-information","relevant_dimensions":["wings","legs"],"bee_group":{"antennae":"X","wings":"1","pattern":"X","legs":"F"},"bonus":1.1400000000000012},{"rt":2270,"stimulus":"bees-with-color/bee-A2SM.svg","response":0,"trial_type":"image-button-response","trial_index":13,"time_elapsed":162793,"internal_node_id":"0.0-4.0-0.3","subject_id":"613ab7f2f840366b66c2b920","study_id":"6197b3f67c2b5cd3b6d9596a","session_id":"619bfbdf6627b0f1c87fcb58","condition":"full-information","relevant_dimensions":["wings","legs"],"bee_group":{"antennae":"X","wings":"1","pattern":"X","legs":"F"},"action":"harvest","summary":"good-harvest","bonus":1.1400000000000012},{"rt":6448.599999904633,"stimulus":"\n                    <p><b>Action: <em>harvest</em></b></p>\n                    <p>This is the bee that you just saw.</p>\n                    <img src=\"bees-with-color/bee-A2SM.svg\" width=\"200\">\n                    <p><span class=\"greenText\"><b>Successful harvest!</b></span><br>Your pay has increased by $0.02. Your bonus pay is now $0.46.</p>\n            ","response":0,"trial_type":"html-button-response","trial_index":14,"time_elapsed":169244,"internal_node_id":"0.0-4.0-1.3","subject_id":"613ab7f2f840366b66c2b920","study_id":"6197b3f67c2b5cd3b6d9596a","session_id":"619bfbdf6627b0f1c87fcb58","condition":"full-information","relevant_dimensions":["wings","legs"],"bee_group":{"antennae":"X","wings":"1","pattern":"X","legs":"F"},"bonus":1.1400000000000012},{"rt":1866,"stimulus":"bees-with-color/bee-B2SM.svg","response":0,"trial_type":"image-button-response","trial_index":15,"time_elapsed":171113,"internal_node_id":"0.0-4.0-0.4","subject_id":"613ab7f2f840366b66c2b920","study_id":"6197b3f67c2b5cd3b6d9596a","session_id":"619bfbdf6627b0f1c87fcb58","condition":"full-information","relevant_dimensions":["wings","legs"],"bee_group":{"antennae":"X","wings":"1","pattern":"X","legs":"F"},"action":"harvest","summary":"good-harvest","bonus":1.1400000000000012},{"rt":1635.9000000953674,"stimulus":"\n                    <p><b>Action: <em>harvest</em></b></p>\n                    <p>This is the bee that you just saw.</p>\n                    <img src=\"bees-with-color/bee-B2SM.svg\" width=\"200\">\n                    <p><span class=\"greenText\"><b>Successful harvest!</b></span><br>Your pay has increased by $0.02. Your bonus pay is now $0.48.</p>\n            ","response":0,"trial_type":"html-button-response","trial_index":16,"time_elapsed":172752,"internal_node_id":"0.0-4.0-1.4","subject_id":"613ab7f2f840366b66c2b920","study_id":"6197b3f67c2b5cd3b6d9596a","session_id":"619bfbdf6627b0f1c87fcb58","condition":"full-information","relevant_dimensions":["wings","legs"],"bee_group":{"antennae":"X","wings":"1","pattern":"X","legs":"F"},"bonus":1.1400000000000012},{"rt":2874.7999999523163,"stimulus":"bees-with-color/bee-A1DM.svg","response":0,"trial_type":"image-button-response","trial_index":17,"time_elapsed":175629,"internal_node_id":"0.0-4.0-0.5","subject_id":"613ab7f2f840366b66c2b920","study_id":"6197b3f67c2b5cd3b6d9596a","session_id":"619bfbdf6627b0f1c87fcb58","condition":"full-information","relevant_dimensions":["wings","legs"],"bee_group":{"antennae":"X","wings":"1","pattern":"X","legs":"F"},"action":"harvest","summary":"good-harvest","bonus":1.1400000000000012},{"rt":1536.3999999761581,"stimulus":"\n                    <p><b>Action: <em>harvest</em></b></p>\n                    <p>This is the bee that you just saw.</p>\n                    <img src=\"bees-with-color/bee-A1DM.svg\" width=\"200\">\n                    <p><span class=\"greenText\"><b>Successful harvest!</b></span><br>Your pay has increased by $0.02. Your bonus pay is now $0.50.</p>\n            ","response":0,"trial_type":"html-button-response","trial_index":18,"time_elapsed":177168,"internal_node_id":"0.0-4.0-1.5","subject_id":"613ab7f2f840366b66c2b920","study_id":"6197b3f67c2b5cd3b6d9596a","session_id":"619bfbdf6627b0f1c87fcb58","condition":"full-information","relevant_dimensions":["wings","legs"],"bee_group":{"antennae":"X","wings":"1","pattern":"X","legs":"F"},"bonus":1.1400000000000012},{"rt":1815.6999999284744,"stimulus":"bees-with-color/bee-B1DM.svg","response":1,"trial_type":"image-button-response","trial_index":19,"time_elapsed":178987,"internal_node_id":"0.0-4.0-0.6","subject_id":"613ab7f2f840366b66c2b920","study_id":"6197b3f67c2b5cd3b6d9596a","session_id":"619bfbdf6627b0f1c87fcb58","condition":"full-information","relevant_dimensions":["wings","legs"],"bee_group":{"antennae":"X","wings":"1","pattern":"X","legs":"F"},"action":"avoid","summary":"bad-avoid","bonus":1.1400000000000012},{"rt":2680.5,"stimulus":"\n                    <p><b>Action: <em>avoid</em></b></p>\n                    <p>This is the bee that you just saw.</p>\n                    <img src=\"bees-with-color/bee-B1DM.svg\" width=\"200\">\n                    <p><span class=\"redText\">Bad choice,</span> the bee was friendly.<br>Your bonus pay is unchanged, and remains at $0.50.</p>\n            ","response":0,"trial_type":"html-button-response","trial_index":20,"time_elapsed":181670,"internal_node_id":"0.0-4.0-1.6","subject_id":"613ab7f2f840366b66c2b920","study_id":"6197b3f67c2b5cd3b6d9596a","session_id":"619bfbdf6627b0f1c87fcb58","condition":"full-information","relevant_dimensions":["wings","legs"],"bee_group":{"antennae":"X","wings":"1","pattern":"X","legs":"F"},"bonus":1.1400000000000012},{"rt":1945.6999999284744,"stimulus":"bees-with-color/bee-B1DF.svg","response":1,"trial_type":"image-button-response","trial_index":21,"time_elapsed":183618,"internal_node_id":"0.0-4.0-0.7","subject_id":"613ab7f2f840366b66c2b920","study_id":"6197b3f67c2b5cd3b6d9596a","session_id":"619bfbdf6627b0f1c87fcb58","condition":"full-information","relevant_dimensions":["wings","legs"],"bee_group":{"antennae":"X","wings":"1","pattern":"X","legs":"F"},"action":"avoid","summary":"good-avoid","bonus":1.1400000000000012},{"rt":4789.399999976158,"stimulus":"\n                    <p><b>Action: <em>avoid</em></b></p>\n                    <p>This is the bee that you just saw.</p>\n                    <img src=\"bees-with-color/bee-B1DF.svg\" width=\"200\">\n                    <p><span class=\"greenText\">Good choice!</span>  This bee would have stung you.<br>Your bonus pay is unchanged, and remains at $0.50.</p>\n            ","response":0,"trial_type":"html-button-response","trial_index":22,"time_elapsed":188411,"internal_node_id":"0.0-4.0-1.7","subject_id":"613ab7f2f840366b66c2b920","study_id":"6197b3f67c2b5cd3b6d9596a","session_id":"619bfbdf6627b0f1c87fcb58","condition":"full-information","relevant_dimensions":["wings","legs"],"bee_group":{"antennae":"X","wings":"1","pattern":"X","legs":"F"},"bonus":1.1400000000000012},{"rt":2252.7000000476837,"stimulus":"bees-with-color/bee-A1SM.svg","response":0,"trial_type":"image-button-response","trial_index":23,"time_elapsed":190667,"internal_node_id":"0.0-4.0-0.8","subject_id":"613ab7f2f840366b66c2b920","study_id":"6197b3f67c2b5cd3b6d9596a","session_id":"619bfbdf6627b0f1c87fcb58","condition":"full-information","relevant_dimensions":["wings","legs"],"bee_group":{"antennae":"X","wings":"1","pattern":"X","legs":"F"},"action":"harvest","summary":"good-harvest","bonus":1.1400000000000012},{"rt":1647.7000000476837,"stimulus":"\n                    <p><b>Action: <em>harvest</em></b></p>\n                    <p>This is the bee that you just saw.</p>\n                    <img src=\"bees-with-color/bee-A1SM.svg\" width=\"200\">\n                    <p><span class=\"greenText\"><b>Successful harvest!</b></span><br>Your pay has increased by $0.02. Your bonus pay is now $0.52.</p>\n            ","response":0,"trial_type":"html-button-response","trial_index":24,"time_elapsed":192317,"internal_node_id":"0.0-4.0-1.8","subject_id":"613ab7f2f840366b66c2b920","study_id":"6197b3f67c2b5cd3b6d9596a","session_id":"619bfbdf6627b0f1c87fcb58","condition":"full-information","relevant_dimensions":["wings","legs"],"bee_group":{"antennae":"X","wings":"1","pattern":"X","legs":"F"},"bonus":1.1400000000000012},{"rt":1483.3999999761581,"stimulus":"bees-with-color/bee-B2DM.svg","response":0,"trial_type":"image-button-response","trial_index":25,"time_elapsed":193803,"internal_node_id":"0.0-4.0-0.9","subject_id":"613ab7f2f840366b66c2b920","study_id":"6197b3f67c2b5cd3b6d9596a","session_id":"619bfbdf6627b0f1c87fcb58","condition":"full-information","relevant_dimensions":["wings","legs"],"bee_group":{"antennae":"X","wings":"1","pattern":"X","legs":"F"},"action":"harvest","summary":"good-harvest","bonus":1.1400000000000012},{"rt":1224.7999999523163,"stimulus":"\n                    <p><b>Action: <em>harvest</em></b></p>\n                    <p>This is the bee that you just saw.</p>\n                    <img src=\"bees-with-color/bee-B2DM.svg\" width=\"200\">\n                    <p><span class=\"greenText\"><b>Successful harvest!</b></span><br>Your pay has increased by $0.02. Your bonus pay is now $0.54.</p>\n            ","response":0,"trial_type":"html-button-response","trial_index":26,"time_elapsed":195030,"internal_node_id":"0.0-4.0-1.9","subject_id":"613ab7f2f840366b66c2b920","study_id":"6197b3f67c2b5cd3b6d9596a","session_id":"619bfbdf6627b0f1c87fcb58","condition":"full-information","relevant_dimensions":["wings","legs"],"bee_group":{"antennae":"X","wings":"1","pattern":"X","legs":"F"},"bonus":1.1400000000000012},{"rt":1259.3999999761581,"stimulus":"bees-with-color/bee-B2SF.svg","response":1,"trial_type":"image-button-response","trial_index":27,"time_elapsed":196292,"internal_node_id":"0.0-4.0-0.10","subject_id":"613ab7f2f840366b66c2b920","study_id":"6197b3f67c2b5cd3b6d9596a","session_id":"619bfbdf6627b0f1c87fcb58","condition":"full-information","relevant_dimensions":["wings","legs"],"bee_group":{"antennae":"X","wings":"1","pattern":"X","legs":"F"},"action":"avoid","summary":"bad-avoid","bonus":1.1400000000000012},{"rt":4048.5,"stimulus":"\n                    <p><b>Action: <em>avoid</em></b></p>\n                    <p>This is the bee that you just saw.</p>\n                    <img src=\"bees-with-color/bee-B2SF.svg\" width=\"200\">\n                    <p><span class=\"redText\">Bad choice,</span> the bee was friendly.<br>Your bonus pay is unchanged, and remains at $0.54.</p>\n            ","response":0,"trial_type":"html-button-response","trial_index":28,"time_elapsed":200343,"internal_node_id":"0.0-4.0-1.10","subject_id":"613ab7f2f840366b66c2b920","study_id":"6197b3f67c2b5cd3b6d9596a","session_id":"619bfbdf6627b0f1c87fcb58","condition":"full-information","relevant_dimensions":["wings","legs"],"bee_group":{"antennae":"X","wings":"1","pattern":"X","legs":"F"},"bonus":1.1400000000000012},{"rt":1744.5,"stimulus":"bees-with-color/bee-A2SF.svg","response":0,"trial_type":"image-button-response","trial_index":29,"time_elapsed":202090,"internal_node_id":"0.0-4.0-0.11","subject_id":"613ab7f2f840366b66c2b920","study_id":"6197b3f67c2b5cd3b6d9596a","session_id":"619bfbdf6627b0f1c87fcb58","condition":"full-information","relevant_dimensions":["wings","legs"],"bee_group":{"antennae":"X","wings":"1","pattern":"X","legs":"F"},"action":"harvest","summary":"good-harvest","bonus":1.1400000000000012},{"rt":5679,"stimulus":"\n                    <p><b>Action: <em>harvest</em></b></p>\n                    <p>This is the bee that you just saw.</p>\n                    <img src=\"bees-with-color/bee-A2SF.svg\" width=\"200\">\n                    <p><span class=\"greenText\"><b>Successful harvest!</b></span><br>Your pay has increased by $0.02. Your bonus pay is now $0.56.</p>\n            ","response":0,"trial_type":"html-button-response","trial_index":30,"time_elapsed":207771,"internal_node_id":"0.0-4.0-1.11","subject_id":"613ab7f2f840366b66c2b920","study_id":"6197b3f67c2b5cd3b6d9596a","session_id":"619bfbdf6627b0f1c87fcb58","condition":"full-information","relevant_dimensions":["wings","legs"],"bee_group":{"antennae":"X","wings":"1","pattern":"X","legs":"F"},"bonus":1.1400000000000012},{"rt":2110.5999999046326,"stimulus":"bees-with-color/bee-A2DM.svg","response":0,"trial_type":"image-button-response","trial_index":31,"time_elapsed":209885,"internal_node_id":"0.0-4.0-0.12","subject_id":"613ab7f2f840366b66c2b920","study_id":"6197b3f67c2b5cd3b6d9596a","session_id":"619bfbdf6627b0f1c87fcb58","condition":"full-information","relevant_dimensions":["wings","legs"],"bee_group":{"antennae":"X","wings":"1","pattern":"X","legs":"F"},"action":"harvest","summary":"good-harvest","bonus":1.1400000000000012},{"rt":1453,"stimulus":"\n                    <p><b>Action: <em>harvest</em></b></p>\n                    <p>This is the bee that you just saw.</p>\n                    <img src=\"bees-with-color/bee-A2DM.svg\" width=\"200\">\n                    <p><span class=\"greenText\"><b>Successful harvest!</b></span><br>Your pay has increased by $0.02. Your bonus pay is now $0.58.</p>\n            ","response":0,"trial_type":"html-button-response","trial_index":32,"time_elapsed":211340,"internal_node_id":"0.0-4.0-1.12","subject_id":"613ab7f2f840366b66c2b920","study_id":"6197b3f67c2b5cd3b6d9596a","session_id":"619bfbdf6627b0f1c87fcb58","condition":"full-information","relevant_dimensions":["wings","legs"],"bee_group":{"antennae":"X","wings":"1","pattern":"X","legs":"F"},"bonus":1.1400000000000012},{"rt":2011.0999999046326,"stimulus":"bees-with-color/bee-B2DF.svg","response":1,"trial_type":"image-button-response","trial_index":33,"time_elapsed":213353,"internal_node_id":"0.0-4.0-0.13","subject_id":"613ab7f2f840366b66c2b920","study_id":"6197b3f67c2b5cd3b6d9596a","session_id":"619bfbdf6627b0f1c87fcb58","condition":"full-information","relevant_dimensions":["wings","legs"],"bee_group":{"antennae":"X","wings":"1","pattern":"X","legs":"F"},"action":"avoid","summary":"bad-avoid","bonus":1.1400000000000012},{"rt":1769.1999999284744,"stimulus":"\n                    <p><b>Action: <em>avoid</em></b></p>\n                    <p>This is the bee that you just saw.</p>\n                    <img src=\"bees-with-color/bee-B2DF.svg\" width=\"200\">\n                    <p><span class=\"redText\">Bad choice,</span> the bee was friendly.<br>Your bonus pay is unchanged, and remains at $0.58.</p>\n            ","response":0,"trial_type":"html-button-response","trial_index":34,"time_elapsed":215125,"internal_node_id":"0.0-4.0-1.13","subject_id":"613ab7f2f840366b66c2b920","study_id":"6197b3f67c2b5cd3b6d9596a","session_id":"619bfbdf6627b0f1c87fcb58","condition":"full-information","relevant_dimensions":["wings","legs"],"bee_group":{"antennae":"X","wings":"1","pattern":"X","legs":"F"},"bonus":1.1400000000000012},{"rt":1414.2999999523163,"stimulus":"bees-with-color/bee-A1DF.svg","response":1,"trial_type":"image-button-response","trial_index":35,"time_elapsed":216542,"internal_node_id":"0.0-4.0-0.14","subject_id":"613ab7f2f840366b66c2b920","study_id":"6197b3f67c2b5cd3b6d9596a","session_id":"619bfbdf6627b0f1c87fcb58","condition":"full-information","relevant_dimensions":["wings","legs"],"bee_group":{"antennae":"X","wings":"1","pattern":"X","legs":"F"},"action":"avoid","summary":"good-avoid","bonus":1.1400000000000012},{"rt":4787.299999952316,"stimulus":"\n                    <p><b>Action: <em>avoid</em></b></p>\n                    <p>This is the bee that you just saw.</p>\n                    <img src=\"bees-with-color/bee-A1DF.svg\" width=\"200\">\n                    <p><span class=\"greenText\">Good choice!</span>  This bee would have stung you.<br>Your bonus pay is unchanged, and remains at $0.58.</p>\n            ","response":0,"trial_type":"html-button-response","trial_index":36,"time_elapsed":221332,"internal_node_id":"0.0-4.0-1.14","subject_id":"613ab7f2f840366b66c2b920","study_id":"6197b3f67c2b5cd3b6d9596a","session_id":"619bfbdf6627b0f1c87fcb58","condition":"full-information","relevant_dimensions":["wings","legs"],"bee_group":{"antennae":"X","wings":"1","pattern":"X","legs":"F"},"bonus":1.1400000000000012},{"rt":1803.5,"stimulus":"bees-with-color/bee-A1SF.svg","response":0,"trial_type":"image-button-response","trial_index":37,"time_elapsed":223138,"internal_node_id":"0.0-4.0-0.15","subject_id":"613ab7f2f840366b66c2b920","study_id":"6197b3f67c2b5cd3b6d9596a","session_id":"619bfbdf6627b0f1c87fcb58","condition":"full-information","relevant_dimensions":["wings","legs"],"bee_group":{"antennae":"X","wings":"1","pattern":"X","legs":"F"},"action":"harvest","summary":"bad-harvest","bonus":1.1400000000000012},{"rt":1868.7999999523163,"stimulus":"\n                    <p><b>Action: <em>harvest</em></b></p>\n                    <p>This is the bee that you just saw.</p>\n                    <img src=\"bees-with-color/bee-A1SF.svg\" width=\"200\">\n                    <p><span class=\"redText\">Bad choice, the bee was angry.</span><br><b>You have been stung!</b><br>Your pay has been decreased by $0.10. Your bonus pay is now $0.48.</p>\n            ","response":0,"trial_type":"html-button-response","trial_index":38,"time_elapsed":225009,"internal_node_id":"0.0-4.0-1.15","subject_id":"613ab7f2f840366b66c2b920","study_id":"6197b3f67c2b5cd3b6d9596a","session_id":"619bfbdf6627b0f1c87fcb58","condition":"full-information","relevant_dimensions":["wings","legs"],"bee_group":{"antennae":"X","wings":"1","pattern":"X","legs":"F"},"bonus":1.1400000000000012},{"rt":1755.2999999523163,"stimulus":"bees-with-color/bee-A1DM.svg","response":0,"trial_type":"image-button-response","trial_index":39,"time_elapsed":226767,"internal_node_id":"0.0-4.0-0.16","subject_id":"613ab7f2f840366b66c2b920","study_id":"6197b3f67c2b5cd3b6d9596a","session_id":"619bfbdf6627b0f1c87fcb58","condition":"full-information","relevant_dimensions":["wings","legs"],"bee_group":{"antennae":"X","wings":"1","pattern":"X","legs":"F"},"action":"harvest","summary":"good-harvest","bonus":1.1400000000000012},{"rt":1184.7000000476837,"stimulus":"\n                    <p><b>Action: <em>harvest</em></b></p>\n                    <p>This is the bee that you just saw.</p>\n                    <img src=\"bees-with-color/bee-A1DM.svg\" width=\"200\">\n                    <p><span class=\"greenText\"><b>Successful harvest!</b></span><br>Your pay has increased by $0.02. Your bonus pay is now $0.50.</p>\n            ","response":0,"trial_type":"html-button-response","trial_index":40,"time_elapsed":227954,"internal_node_id":"0.0-4.0-1.16","subject_id":"613ab7f2f840366b66c2b920","study_id":"6197b3f67c2b5cd3b6d9596a","session_id":"619bfbdf6627b0f1c87fcb58","condition":"full-information","relevant_dimensions":["wings","legs"],"bee_group":{"antennae":"X","wings":"1","pattern":"X","legs":"F"},"bonus":1.1400000000000012},{"rt":1769.7999999523163,"stimulus":"bees-with-color/bee-B2SM.svg","response":0,"trial_type":"image-button-response","trial_index":41,"time_elapsed":229727,"internal_node_id":"0.0-4.0-0.17","subject_id":"613ab7f2f840366b66c2b920","study_id":"6197b3f67c2b5cd3b6d9596a","session_id":"619bfbdf6627b0f1c87fcb58","condition":"full-information","relevant_dimensions":["wings","legs"],"bee_group":{"antennae":"X","wings":"1","pattern":"X","legs":"F"},"action":"harvest","summary":"good-harvest","bonus":1.1400000000000012},{"rt":1129.2999999523163,"stimulus":"\n                    <p><b>Action: <em>harvest</em></b></p>\n                    <p>This is the bee that you just saw.</p>\n                    <img src=\"bees-with-color/bee-B2SM.svg\" width=\"200\">\n                    <p><span class=\"greenText\"><b>Successful harvest!</b></span><br>Your pay has increased by $0.02. Your bonus pay is now $0.52.</p>\n            ","response":0,"trial_type":"html-button-response","trial_index":42,"time_elapsed":230859,"internal_node_id":"0.0-4.0-1.17","subject_id":"613ab7f2f840366b66c2b920","study_id":"6197b3f67c2b5cd3b6d9596a","session_id":"619bfbdf6627b0f1c87fcb58","condition":"full-information","relevant_dimensions":["wings","legs"],"bee_group":{"antennae":"X","wings":"1","pattern":"X","legs":"F"},"bonus":1.1400000000000012},{"rt":2083.1999999284744,"stimulus":"bees-with-color/bee-B2SF.svg","response":0,"trial_type":"image-button-response","trial_index":43,"time_elapsed":232945,"internal_node_id":"0.0-4.0-0.18","subject_id":"613ab7f2f840366b66c2b920","study_id":"6197b3f67c2b5cd3b6d9596a","session_id":"619bfbdf6627b0f1c87fcb58","condition":"full-information","relevant_dimensions":["wings","legs"],"bee_group":{"antennae":"X","wings":"1","pattern":"X","legs":"F"},"action":"harvest","summary":"good-harvest","bonus":1.1400000000000012},{"rt":1144.1000000238419,"stimulus":"\n                    <p><b>Action: <em>harvest</em></b></p>\n                    <p>This is the bee that you just saw.</p>\n                    <img src=\"bees-with-color/bee-B2SF.svg\" width=\"200\">\n                    <p><span class=\"greenText\"><b>Successful harvest!</b></span><br>Your pay has increased by $0.02. Your bonus pay is now $0.54.</p>\n            ","response":0,"trial_type":"html-button-response","trial_index":44,"time_elapsed":234092,"internal_node_id":"0.0-4.0-1.18","subject_id":"613ab7f2f840366b66c2b920","study_id":"6197b3f67c2b5cd3b6d9596a","session_id":"619bfbdf6627b0f1c87fcb58","condition":"full-information","relevant_dimensions":["wings","legs"],"bee_group":{"antennae":"X","wings":"1","pattern":"X","legs":"F"},"bonus":1.1400000000000012},{"rt":1553.6000000238419,"stimulus":"bees-with-color/bee-A2DF.svg","response":1,"trial_type":"image-button-response","trial_index":45,"time_elapsed":235648,"internal_node_id":"0.0-4.0-0.19","subject_id":"613ab7f2f840366b66c2b920","study_id":"6197b3f67c2b5cd3b6d9596a","session_id":"619bfbdf6627b0f1c87fcb58","condition":"full-information","relevant_dimensions":["wings","legs"],"bee_group":{"antennae":"X","wings":"1","pattern":"X","legs":"F"},"action":"avoid","summary":"bad-avoid","bonus":1.1400000000000012},{"rt":1399.6000000238419,"stimulus":"\n                    <p><b>Action: <em>avoid</em></b></p>\n                    <p>This is the bee that you just saw.</p>\n                    <img src=\"bees-with-color/bee-A2DF.svg\" width=\"200\">\n                    <p><span class=\"redText\">Bad choice,</span> the bee was friendly.<br>Your bonus pay is unchanged, and remains at $0.54.</p>\n            ","response":0,"trial_type":"html-button-response","trial_index":46,"time_elapsed":237050,"internal_node_id":"0.0-4.0-1.19","subject_id":"613ab7f2f840366b66c2b920","study_id":"6197b3f67c2b5cd3b6d9596a","session_id":"619bfbdf6627b0f1c87fcb58","condition":"full-information","relevant_dimensions":["wings","legs"],"bee_group":{"antennae":"X","wings":"1","pattern":"X","legs":"F"},"bonus":1.1400000000000012},{"rt":1553.7999999523163,"stimulus":"bees-with-color/bee-A1DF.svg","response":1,"trial_type":"image-button-response","trial_index":47,"time_elapsed":238606,"internal_node_id":"0.0-4.0-0.20","subject_id":"613ab7f2f840366b66c2b920","study_id":"6197b3f67c2b5cd3b6d9596a","session_id":"619bfbdf6627b0f1c87fcb58","condition":"full-information","relevant_dimensions":["wings","legs"],"bee_group":{"antennae":"X","wings":"1","pattern":"X","legs":"F"},"action":"avoid","summary":"good-avoid","bonus":1.1400000000000012},{"rt":1424.2000000476837,"stimulus":"\n                    <p><b>Action: <em>avoid</em></b></p>\n                    <p>This is the bee that you just saw.</p>\n                    <img src=\"bees-with-color/bee-A1DF.svg\" width=\"200\">\n                    <p><span class=\"greenText\">Good choice!</span>  This bee would have stung you.<br>Your bonus pay is unchanged, and remains at $0.54.</p>\n            ","response":0,"trial_type":"html-button-response","trial_index":48,"time_elapsed":240032,"internal_node_id":"0.0-4.0-1.20","subject_id":"613ab7f2f840366b66c2b920","study_id":"6197b3f67c2b5cd3b6d9596a","session_id":"619bfbdf6627b0f1c87fcb58","condition":"full-information","relevant_dimensions":["wings","legs"],"bee_group":{"antennae":"X","wings":"1","pattern":"X","legs":"F"},"bonus":1.1400000000000012},{"rt":1646.2999999523163,"stimulus":"bees-with-color/bee-B1SF.svg","response":0,"trial_type":"image-button-response","trial_index":49,"time_elapsed":241681,"internal_node_id":"0.0-4.0-0.21","subject_id":"613ab7f2f840366b66c2b920","study_id":"6197b3f67c2b5cd3b6d9596a","session_id":"619bfbdf6627b0f1c87fcb58","condition":"full-information","relevant_dimensions":["wings","legs"],"bee_group":{"antennae":"X","wings":"1","pattern":"X","legs":"F"},"action":"harvest","summary":"bad-harvest","bonus":1.1400000000000012},{"rt":3223.6999999284744,"stimulus":"\n                    <p><b>Action: <em>harvest</em></b></p>\n                    <p>This is the bee that you just saw.</p>\n                    <img src=\"bees-with-color/bee-B1SF.svg\" width=\"200\">\n                    <p><span class=\"redText\">Bad choice, the bee was angry.</span><br><b>You have been stung!</b><br>Your pay has been decreased by $0.10. Your bonus pay is now $0.44.</p>\n            ","response":0,"trial_type":"html-button-response","trial_index":50,"time_elapsed":244906,"internal_node_id":"0.0-4.0-1.21","subject_id":"613ab7f2f840366b66c2b920","study_id":"6197b3f67c2b5cd3b6d9596a","session_id":"619bfbdf6627b0f1c87fcb58","condition":"full-information","relevant_dimensions":["wings","legs"],"bee_group":{"antennae":"X","wings":"1","pattern":"X","legs":"F"},"bonus":1.1400000000000012},{"rt":3717.5,"stimulus":"bees-with-color/bee-A2SM.svg","response":0,"trial_type":"image-button-response","trial_index":51,"time_elapsed":248627,"internal_node_id":"0.0-4.0-0.22","subject_id":"613ab7f2f840366b66c2b920","study_id":"6197b3f67c2b5cd3b6d9596a","session_id":"619bfbdf6627b0f1c87fcb58","condition":"full-information","relevant_dimensions":["wings","legs"],"bee_group":{"antennae":"X","wings":"1","pattern":"X","legs":"F"},"action":"harvest","summary":"good-harvest","bonus":1.1400000000000012},{"rt":1011.7999999523163,"stimulus":"\n                    <p><b>Action: <em>harvest</em></b></p>\n                    <p>This is the bee that you just saw.</p>\n                    <img src=\"bees-with-color/bee-A2SM.svg\" width=\"200\">\n                    <p><span class=\"greenText\"><b>Successful harvest!</b></span><br>Your pay has increased by $0.02. Your bonus pay is now $0.46.</p>\n            ","response":0,"trial_type":"html-button-response","trial_index":52,"time_elapsed":249642,"internal_node_id":"0.0-4.0-1.22","subject_id":"613ab7f2f840366b66c2b920","study_id":"6197b3f67c2b5cd3b6d9596a","session_id":"619bfbdf6627b0f1c87fcb58","condition":"full-information","relevant_dimensions":["wings","legs"],"bee_group":{"antennae":"X","wings":"1","pattern":"X","legs":"F"},"bonus":1.1400000000000012},{"rt":1520.5,"stimulus":"bees-with-color/bee-B1SM.svg","response":0,"trial_type":"image-button-response","trial_index":53,"time_elapsed":251165,"internal_node_id":"0.0-4.0-0.23","subject_id":"613ab7f2f840366b66c2b920","study_id":"6197b3f67c2b5cd3b6d9596a","session_id":"619bfbdf6627b0f1c87fcb58","condition":"full-information","relevant_dimensions":["wings","legs"],"bee_group":{"antennae":"X","wings":"1","pattern":"X","legs":"F"},"action":"harvest","summary":"good-harvest","bonus":1.1400000000000012},{"rt":1087.6000000238419,"stimulus":"\n                    <p><b>Action: <em>harvest</em></b></p>\n                    <p>This is the bee that you just saw.</p>\n                    <img src=\"bees-with-color/bee-B1SM.svg\" width=\"200\">\n                    <p><span class=\"greenText\"><b>Successful harvest!</b></span><br>Your pay has increased by $0.02. Your bonus pay is now $0.48.</p>\n            ","response":0,"trial_type":"html-button-response","trial_index":54,"time_elapsed":252255,"internal_node_id":"0.0-4.0-1.23","subject_id":"613ab7f2f840366b66c2b920","study_id":"6197b3f67c2b5cd3b6d9596a","session_id":"619bfbdf6627b0f1c87fcb58","condition":"full-information","relevant_dimensions":["wings","legs"],"bee_group":{"antennae":"X","wings":"1","pattern":"X","legs":"F"},"bonus":1.1400000000000012},{"rt":2953,"stimulus":"bees-with-color/bee-B1DM.svg","response":1,"trial_type":"image-button-response","trial_index":55,"time_elapsed":255211,"internal_node_id":"0.0-4.0-0.24","subject_id":"613ab7f2f840366b66c2b920","study_id":"6197b3f67c2b5cd3b6d9596a","session_id":"619bfbdf6627b0f1c87fcb58","condition":"full-information","relevant_dimensions":["wings","legs"],"bee_group":{"antennae":"X","wings":"1","pattern":"X","legs":"F"},"action":"avoid","summary":"bad-avoid","bonus":1.1400000000000012},{"rt":1192.2000000476837,"stimulus":"\n                    <p><b>Action: <em>avoid</em></b></p>\n                    <p>This is the bee that you just saw.</p>\n                    <img src=\"bees-with-color/bee-B1DM.svg\" width=\"200\">\n                    <p><span class=\"redText\">Bad choice,</span> the bee was friendly.<br>Your bonus pay is unchanged, and remains at $0.48.</p>\n            ","response":0,"trial_type":"html-button-response","trial_index":56,"time_elapsed":256405,"internal_node_id":"0.0-4.0-1.24","subject_id":"613ab7f2f840366b66c2b920","study_id":"6197b3f67c2b5cd3b6d9596a","session_id":"619bfbdf6627b0f1c87fcb58","condition":"full-information","relevant_dimensions":["wings","legs"],"bee_group":{"antennae":"X","wings":"1","pattern":"X","legs":"F"},"bonus":1.1400000000000012},{"rt":1712.7000000476837,"stimulus":"bees-with-color/bee-A2SF.svg","response":0,"trial_type":"image-button-response","trial_index":57,"time_elapsed":258121,"internal_node_id":"0.0-4.0-0.25","subject_id":"613ab7f2f840366b66c2b920","study_id":"6197b3f67c2b5cd3b6d9596a","session_id":"619bfbdf6627b0f1c87fcb58","condition":"full-information","relevant_dimensions":["wings","legs"],"bee_group":{"antennae":"X","wings":"1","pattern":"X","legs":"F"},"action":"harvest","summary":"good-harvest","bonus":1.1400000000000012},{"rt":1027.5999999046326,"stimulus":"\n                    <p><b>Action: <em>harvest</em></b></p>\n                    <p>This is the bee that you just saw.</p>\n                    <img src=\"bees-with-color/bee-A2SF.svg\" width=\"200\">\n                    <p><span class=\"greenText\"><b>Successful harvest!</b></span><br>Your pay has increased by $0.02. Your bonus pay is now $0.50.</p>\n            ","response":0,"trial_type":"html-button-response","trial_index":58,"time_elapsed":259150,"internal_node_id":"0.0-4.0-1.25","subject_id":"613ab7f2f840366b66c2b920","study_id":"6197b3f67c2b5cd3b6d9596a","session_id":"619bfbdf6627b0f1c87fcb58","condition":"full-information","relevant_dimensions":["wings","legs"],"bee_group":{"antennae":"X","wings":"1","pattern":"X","legs":"F"},"bonus":1.1400000000000012},{"rt":2010.5,"stimulus":"bees-with-color/bee-B2DM.svg","response":0,"trial_type":"image-button-response","trial_index":59,"time_elapsed":261162,"internal_node_id":"0.0-4.0-0.26","subject_id":"613ab7f2f840366b66c2b920","study_id":"6197b3f67c2b5cd3b6d9596a","session_id":"619bfbdf6627b0f1c87fcb58","condition":"full-information","relevant_dimensions":["wings","legs"],"bee_group":{"antennae":"X","wings":"1","pattern":"X","legs":"F"},"action":"harvest","summary":"good-harvest","bonus":1.1400000000000012},{"rt":1181.6000000238419,"stimulus":"\n                    <p><b>Action: <em>harvest</em></b></p>\n                    <p>This is the bee that you just saw.</p>\n                    <img src=\"bees-with-color/bee-B2DM.svg\" width=\"200\">\n                    <p><span class=\"greenText\"><b>Successful harvest!</b></span><br>Your pay has increased by $0.02. Your bonus pay is now $0.52.</p>\n            ","response":0,"trial_type":"html-button-response","trial_index":60,"time_elapsed":262346,"internal_node_id":"0.0-4.0-1.26","subject_id":"613ab7f2f840366b66c2b920","study_id":"6197b3f67c2b5cd3b6d9596a","session_id":"619bfbdf6627b0f1c87fcb58","condition":"full-information","relevant_dimensions":["wings","legs"],"bee_group":{"antennae":"X","wings":"1","pattern":"X","legs":"F"},"bonus":1.1400000000000012},{"rt":2295,"stimulus":"bees-with-color/bee-A1SF.svg","response":0,"trial_type":"image-button-response","trial_index":61,"time_elapsed":264644,"internal_node_id":"0.0-4.0-0.27","subject_id":"613ab7f2f840366b66c2b920","study_id":"6197b3f67c2b5cd3b6d9596a","session_id":"619bfbdf6627b0f1c87fcb58","condition":"full-information","relevant_dimensions":["wings","legs"],"bee_group":{"antennae":"X","wings":"1","pattern":"X","legs":"F"},"action":"harvest","summary":"bad-harvest","bonus":1.1400000000000012},{"rt":1345.8000000715256,"stimulus":"\n                    <p><b>Action: <em>harvest</em></b></p>\n                    <p>This is the bee that you just saw.</p>\n                    <img src=\"bees-with-color/bee-A1SF.svg\" width=\"200\">\n                    <p><span class=\"redText\">Bad choice, the bee was angry.</span><br><b>You have been stung!</b><br>Your pay has been decreased by $0.10. Your bonus pay is now $0.42.</p>\n            ","response":0,"trial_type":"html-button-response","trial_index":62,"time_elapsed":265992,"internal_node_id":"0.0-4.0-1.27","subject_id":"613ab7f2f840366b66c2b920","study_id":"6197b3f67c2b5cd3b6d9596a","session_id":"619bfbdf6627b0f1c87fcb58","condition":"full-information","relevant_dimensions":["wings","legs"],"bee_group":{"antennae":"X","wings":"1","pattern":"X","legs":"F"},"bonus":1.1400000000000012},{"rt":1760.3999999761581,"stimulus":"bees-with-color/bee-B1DF.svg","response":1,"trial_type":"image-button-response","trial_index":63,"time_elapsed":267755,"internal_node_id":"0.0-4.0-0.28","subject_id":"613ab7f2f840366b66c2b920","study_id":"6197b3f67c2b5cd3b6d9596a","session_id":"619bfbdf6627b0f1c87fcb58","condition":"full-information","relevant_dimensions":["wings","legs"],"bee_group":{"antennae":"X","wings":"1","pattern":"X","legs":"F"},"action":"avoid","summary":"good-avoid","bonus":1.1400000000000012},{"rt":1286.7999999523163,"stimulus":"\n                    <p><b>Action: <em>avoid</em></b></p>\n                    <p>This is the bee that you just saw.</p>\n                    <img src=\"bees-with-color/bee-B1DF.svg\" width=\"200\">\n                    <p><span class=\"greenText\">Good choice!</span>  This bee would have stung you.<br>Your bonus pay is unchanged, and remains at $0.42.</p>\n            ","response":0,"trial_type":"html-button-response","trial_index":64,"time_elapsed":269044,"internal_node_id":"0.0-4.0-1.28","subject_id":"613ab7f2f840366b66c2b920","study_id":"6197b3f67c2b5cd3b6d9596a","session_id":"619bfbdf6627b0f1c87fcb58","condition":"full-information","relevant_dimensions":["wings","legs"],"bee_group":{"antennae":"X","wings":"1","pattern":"X","legs":"F"},"bonus":1.1400000000000012},{"rt":1182.6000000238419,"stimulus":"bees-with-color/bee-A2DM.svg","response":0,"trial_type":"image-button-response","trial_index":65,"time_elapsed":270229,"internal_node_id":"0.0-4.0-0.29","subject_id":"613ab7f2f840366b66c2b920","study_id":"6197b3f67c2b5cd3b6d9596a","session_id":"619bfbdf6627b0f1c87fcb58","condition":"full-information","relevant_dimensions":["wings","legs"],"bee_group":{"antennae":"X","wings":"1","pattern":"X","legs":"F"},"action":"harvest","summary":"good-harvest","bonus":1.1400000000000012},{"rt":1354.5,"stimulus":"\n                    <p><b>Action: <em>harvest</em></b></p>\n                    <p>This is the bee that you just saw.</p>\n                    <img src=\"bees-with-color/bee-A2DM.svg\" width=\"200\">\n                    <p><span class=\"greenText\"><b>Successful harvest!</b></span><br>Your pay has increased by $0.02. Your bonus pay is now $0.44.</p>\n            ","response":0,"trial_type":"html-button-response","trial_index":66,"time_elapsed":271586,"internal_node_id":"0.0-4.0-1.29","subject_id":"613ab7f2f840366b66c2b920","study_id":"6197b3f67c2b5cd3b6d9596a","session_id":"619bfbdf6627b0f1c87fcb58","condition":"full-information","relevant_dimensions":["wings","legs"],"bee_group":{"antennae":"X","wings":"1","pattern":"X","legs":"F"},"bonus":1.1400000000000012},{"rt":2332.1999999284744,"stimulus":"bees-with-color/bee-A1SM.svg","response":0,"trial_type":"image-button-response","trial_index":67,"time_elapsed":273921,"internal_node_id":"0.0-4.0-0.30","subject_id":"613ab7f2f840366b66c2b920","study_id":"6197b3f67c2b5cd3b6d9596a","session_id":"619bfbdf6627b0f1c87fcb58","condition":"full-information","relevant_dimensions":["wings","legs"],"bee_group":{"antennae":"X","wings":"1","pattern":"X","legs":"F"},"action":"harvest","summary":"good-harvest","bonus":1.1400000000000012},{"rt":1150.1999999284744,"stimulus":"\n                    <p><b>Action: <em>harvest</em></b></p>\n                    <p>This is the bee that you just saw.</p>\n                    <img src=\"bees-with-color/bee-A1SM.svg\" width=\"200\">\n                    <p><span class=\"greenText\"><b>Successful harvest!</b></span><br>Your pay has increased by $0.02. Your bonus pay is now $0.46.</p>\n            ","response":0,"trial_type":"html-button-response","trial_index":68,"time_elapsed":275073,"internal_node_id":"0.0-4.0-1.30","subject_id":"613ab7f2f840366b66c2b920","study_id":"6197b3f67c2b5cd3b6d9596a","session_id":"619bfbdf6627b0f1c87fcb58","condition":"full-information","relevant_dimensions":["wings","legs"],"bee_group":{"antennae":"X","wings":"1","pattern":"X","legs":"F"},"bonus":1.1400000000000012},{"rt":2739.0999999046326,"stimulus":"bees-with-color/bee-B2DF.svg","response":1,"trial_type":"image-button-response","trial_index":69,"time_elapsed":277816,"internal_node_id":"0.0-4.0-0.31","subject_id":"613ab7f2f840366b66c2b920","study_id":"6197b3f67c2b5cd3b6d9596a","session_id":"619bfbdf6627b0f1c87fcb58","condition":"full-information","relevant_dimensions":["wings","legs"],"bee_group":{"antennae":"X","wings":"1","pattern":"X","legs":"F"},"action":"avoid","summary":"bad-avoid","bonus":1.1400000000000012},{"rt":1043.7000000476837,"stimulus":"\n                    <p><b>Action: <em>avoid</em></b></p>\n                    <p>This is the bee that you just saw.</p>\n                    <img src=\"bees-with-color/bee-B2DF.svg\" width=\"200\">\n                    <p><span class=\"redText\">Bad choice,</span> the bee was friendly.<br>Your bonus pay is unchanged, and remains at $0.46.</p>\n            ","response":0,"trial_type":"html-button-response","trial_index":70,"time_elapsed":278862,"internal_node_id":"0.0-4.0-1.31","subject_id":"613ab7f2f840366b66c2b920","study_id":"6197b3f67c2b5cd3b6d9596a","session_id":"619bfbdf6627b0f1c87fcb58","condition":"full-information","relevant_dimensions":["wings","legs"],"bee_group":{"antennae":"X","wings":"1","pattern":"X","legs":"F"},"bonus":1.1400000000000012},{"rt":1491,"stimulus":"bees-with-color/bee-B2DM.svg","response":0,"trial_type":"image-button-response","trial_index":71,"time_elapsed":280355,"internal_node_id":"0.0-4.0-0.32","subject_id":"613ab7f2f840366b66c2b920","study_id":"6197b3f67c2b5cd3b6d9596a","session_id":"619bfbdf6627b0f1c87fcb58","condition":"full-information","relevant_dimensions":["wings","legs"],"bee_group":{"antennae":"X","wings":"1","pattern":"X","legs":"F"},"action":"harvest","summary":"good-harvest","bonus":1.1400000000000012},{"rt":1136.7000000476837,"stimulus":"\n                    <p><b>Action: <em>harvest</em></b></p>\n                    <p>This is the bee that you just saw.</p>\n                    <img src=\"bees-with-color/bee-B2DM.svg\" width=\"200\">\n                    <p><span class=\"greenText\"><b>Successful harvest!</b></span><br>Your pay has increased by $0.02. Your bonus pay is now $0.48.</p>\n            ","response":0,"trial_type":"html-button-response","trial_index":72,"time_elapsed":281495,"internal_node_id":"0.0-4.0-1.32","subject_id":"613ab7f2f840366b66c2b920","study_id":"6197b3f67c2b5cd3b6d9596a","session_id":"619bfbdf6627b0f1c87fcb58","condition":"full-information","relevant_dimensions":["wings","legs"],"bee_group":{"antennae":"X","wings":"1","pattern":"X","legs":"F"},"bonus":1.1400000000000012},{"rt":3094.7999999523163,"stimulus":"bees-with-color/bee-A2DF.svg","response":1,"trial_type":"image-button-response","trial_index":73,"time_elapsed":284592,"internal_node_id":"0.0-4.0-0.33","subject_id":"613ab7f2f840366b66c2b920","study_id":"6197b3f67c2b5cd3b6d9596a","session_id":"619bfbdf6627b0f1c87fcb58","condition":"full-information","relevant_dimensions":["wings","legs"],"bee_group":{"antennae":"X","wings":"1","pattern":"X","legs":"F"},"action":"avoid","summary":"bad-avoid","bonus":1.1400000000000012},{"rt":1038.6999999284744,"stimulus":"\n                    <p><b>Action: <em>avoid</em></b></p>\n                    <p>This is the bee that you just saw.</p>\n                    <img src=\"bees-with-color/bee-A2DF.svg\" width=\"200\">\n                    <p><span class=\"redText\">Bad choice,</span> the bee was friendly.<br>Your bonus pay is unchanged, and remains at $0.48.</p>\n            ","response":0,"trial_type":"html-button-response","trial_index":74,"time_elapsed":285633,"internal_node_id":"0.0-4.0-1.33","subject_id":"613ab7f2f840366b66c2b920","study_id":"6197b3f67c2b5cd3b6d9596a","session_id":"619bfbdf6627b0f1c87fcb58","condition":"full-information","relevant_dimensions":["wings","legs"],"bee_group":{"antennae":"X","wings":"1","pattern":"X","legs":"F"},"bonus":1.1400000000000012},{"rt":1456.5,"stimulus":"bees-with-color/bee-B1DF.svg","response":1,"trial_type":"image-button-response","trial_index":75,"time_elapsed":287093,"internal_node_id":"0.0-4.0-0.34","subject_id":"613ab7f2f840366b66c2b920","study_id":"6197b3f67c2b5cd3b6d9596a","session_id":"619bfbdf6627b0f1c87fcb58","condition":"full-information","relevant_dimensions":["wings","legs"],"bee_group":{"antennae":"X","wings":"1","pattern":"X","legs":"F"},"action":"avoid","summary":"good-avoid","bonus":1.1400000000000012},{"rt":1038.3999999761581,"stimulus":"\n                    <p><b>Action: <em>avoid</em></b></p>\n                    <p>This is the bee that you just saw.</p>\n                    <img src=\"bees-with-color/bee-B1DF.svg\" width=\"200\">\n                    <p><span class=\"greenText\">Good choice!</span>  This bee would have stung you.<br>Your bonus pay is unchanged, and remains at $0.48.</p>\n            ","response":0,"trial_type":"html-button-response","trial_index":76,"time_elapsed":288134,"internal_node_id":"0.0-4.0-1.34","subject_id":"613ab7f2f840366b66c2b920","study_id":"6197b3f67c2b5cd3b6d9596a","session_id":"619bfbdf6627b0f1c87fcb58","condition":"full-information","relevant_dimensions":["wings","legs"],"bee_group":{"antennae":"X","wings":"1","pattern":"X","legs":"F"},"bonus":1.1400000000000012},{"rt":1395.7000000476837,"stimulus":"bees-with-color/bee-B1DM.svg","response":1,"trial_type":"image-button-response","trial_index":77,"time_elapsed":289533,"internal_node_id":"0.0-4.0-0.35","subject_id":"613ab7f2f840366b66c2b920","study_id":"6197b3f67c2b5cd3b6d9596a","session_id":"619bfbdf6627b0f1c87fcb58","condition":"full-information","relevant_dimensions":["wings","legs"],"bee_group":{"antennae":"X","wings":"1","pattern":"X","legs":"F"},"action":"avoid","summary":"bad-avoid","bonus":1.1400000000000012},{"rt":803.8999999761581,"stimulus":"\n                    <p><b>Action: <em>avoid</em></b></p>\n                    <p>This is the bee that you just saw.</p>\n                    <img src=\"bees-with-color/bee-B1DM.svg\" width=\"200\">\n                    <p><span class=\"redText\">Bad choice,</span> the bee was friendly.<br>Your bonus pay is unchanged, and remains at $0.48.</p>\n            ","response":0,"trial_type":"html-button-response","trial_index":78,"time_elapsed":290340,"internal_node_id":"0.0-4.0-1.35","subject_id":"613ab7f2f840366b66c2b920","study_id":"6197b3f67c2b5cd3b6d9596a","session_id":"619bfbdf6627b0f1c87fcb58","condition":"full-information","relevant_dimensions":["wings","legs"],"bee_group":{"antennae":"X","wings":"1","pattern":"X","legs":"F"},"bonus":1.1400000000000012},{"rt":1244.1999999284744,"stimulus":"bees-with-color/bee-B2SM.svg","response":0,"trial_type":"image-button-response","trial_index":79,"time_elapsed":291587,"internal_node_id":"0.0-4.0-0.36","subject_id":"613ab7f2f840366b66c2b920","study_id":"6197b3f67c2b5cd3b6d9596a","session_id":"619bfbdf6627b0f1c87fcb58","condition":"full-information","relevant_dimensions":["wings","legs"],"bee_group":{"antennae":"X","wings":"1","pattern":"X","legs":"F"},"action":"harvest","summary":"good-harvest","bonus":1.1400000000000012},{"rt":856.3999999761581,"stimulus":"\n                    <p><b>Action: <em>harvest</em></b></p>\n                    <p>This is the bee that you just saw.</p>\n                    <img src=\"bees-with-color/bee-B2SM.svg\" width=\"200\">\n                    <p><span class=\"greenText\"><b>Successful harvest!</b></span><br>Your pay has increased by $0.02. Your bonus pay is now $0.50.</p>\n            ","response":0,"trial_type":"html-button-response","trial_index":80,"time_elapsed":292445,"internal_node_id":"0.0-4.0-1.36","subject_id":"613ab7f2f840366b66c2b920","study_id":"6197b3f67c2b5cd3b6d9596a","session_id":"619bfbdf6627b0f1c87fcb58","condition":"full-information","relevant_dimensions":["wings","legs"],"bee_group":{"antennae":"X","wings":"1","pattern":"X","legs":"F"},"bonus":1.1400000000000012},{"rt":1093.8999999761581,"stimulus":"bees-with-color/bee-A2SM.svg","response":0,"trial_type":"image-button-response","trial_index":81,"time_elapsed":293541,"internal_node_id":"0.0-4.0-0.37","subject_id":"613ab7f2f840366b66c2b920","study_id":"6197b3f67c2b5cd3b6d9596a","session_id":"619bfbdf6627b0f1c87fcb58","condition":"full-information","relevant_dimensions":["wings","legs"],"bee_group":{"antennae":"X","wings":"1","pattern":"X","legs":"F"},"action":"harvest","summary":"good-harvest","bonus":1.1400000000000012},{"rt":859.1999999284744,"stimulus":"\n                    <p><b>Action: <em>harvest</em></b></p>\n                    <p>This is the bee that you just saw.</p>\n                    <img src=\"bees-with-color/bee-A2SM.svg\" width=\"200\">\n                    <p><span class=\"greenText\"><b>Successful harvest!</b></span><br>Your pay has increased by $0.02. Your bonus pay is now $0.52.</p>\n            ","response":0,"trial_type":"html-button-response","trial_index":82,"time_elapsed":294401,"internal_node_id":"0.0-4.0-1.37","subject_id":"613ab7f2f840366b66c2b920","study_id":"6197b3f67c2b5cd3b6d9596a","session_id":"619bfbdf6627b0f1c87fcb58","condition":"full-information","relevant_dimensions":["wings","legs"],"bee_group":{"antennae":"X","wings":"1","pattern":"X","legs":"F"},"bonus":1.1400000000000012},{"rt":3405.1999999284744,"stimulus":"bees-with-color/bee-A1DF.svg","response":1,"trial_type":"image-button-response","trial_index":83,"time_elapsed":297808,"internal_node_id":"0.0-4.0-0.38","subject_id":"613ab7f2f840366b66c2b920","study_id":"6197b3f67c2b5cd3b6d9596a","session_id":"619bfbdf6627b0f1c87fcb58","condition":"full-information","relevant_dimensions":["wings","legs"],"bee_group":{"antennae":"X","wings":"1","pattern":"X","legs":"F"},"action":"avoid","summary":"good-avoid","bonus":1.1400000000000012},{"rt":1136,"stimulus":"\n                    <p><b>Action: <em>avoid</em></b></p>\n                    <p>This is the bee that you just saw.</p>\n                    <img src=\"bees-with-color/bee-A1DF.svg\" width=\"200\">\n                    <p><span class=\"greenText\">Good choice!</span>  This bee would have stung you.<br>Your bonus pay is unchanged, and remains at $0.52.</p>\n            ","response":0,"trial_type":"html-button-response","trial_index":84,"time_elapsed":298947,"internal_node_id":"0.0-4.0-1.38","subject_id":"613ab7f2f840366b66c2b920","study_id":"6197b3f67c2b5cd3b6d9596a","session_id":"619bfbdf6627b0f1c87fcb58","condition":"full-information","relevant_dimensions":["wings","legs"],"bee_group":{"antennae":"X","wings":"1","pattern":"X","legs":"F"},"bonus":1.1400000000000012},{"rt":1268.5,"stimulus":"bees-with-color/bee-B1SM.svg","response":0,"trial_type":"image-button-response","trial_index":85,"time_elapsed":300219,"internal_node_id":"0.0-4.0-0.39","subject_id":"613ab7f2f840366b66c2b920","study_id":"6197b3f67c2b5cd3b6d9596a","session_id":"619bfbdf6627b0f1c87fcb58","condition":"full-information","relevant_dimensions":["wings","legs"],"bee_group":{"antennae":"X","wings":"1","pattern":"X","legs":"F"},"action":"harvest","summary":"good-harvest","bonus":1.1400000000000012},{"rt":1007.1999999284744,"stimulus":"\n                    <p><b>Action: <em>harvest</em></b></p>\n                    <p>This is the bee that you just saw.</p>\n                    <img src=\"bees-with-color/bee-B1SM.svg\" width=\"200\">\n                    <p><span class=\"greenText\"><b>Successful harvest!</b></span><br>Your pay has increased by $0.02. Your bonus pay is now $0.54.</p>\n            ","response":0,"trial_type":"html-button-response","trial_index":86,"time_elapsed":301228,"internal_node_id":"0.0-4.0-1.39","subject_id":"613ab7f2f840366b66c2b920","study_id":"6197b3f67c2b5cd3b6d9596a","session_id":"619bfbdf6627b0f1c87fcb58","condition":"full-information","relevant_dimensions":["wings","legs"],"bee_group":{"antennae":"X","wings":"1","pattern":"X","legs":"F"},"bonus":1.1400000000000012},{"rt":1837.6999999284744,"stimulus":"bees-with-color/bee-A1SF.svg","response":0,"trial_type":"image-button-response","trial_index":87,"time_elapsed":303068,"internal_node_id":"0.0-4.0-0.40","subject_id":"613ab7f2f840366b66c2b920","study_id":"6197b3f67c2b5cd3b6d9596a","session_id":"619bfbdf6627b0f1c87fcb58","condition":"full-information","relevant_dimensions":["wings","legs"],"bee_group":{"antennae":"X","wings":"1","pattern":"X","legs":"F"},"action":"harvest","summary":"bad-harvest","bonus":1.1400000000000012},{"rt":4932.100000023842,"stimulus":"\n                    <p><b>Action: <em>harvest</em></b></p>\n                    <p>This is the bee that you just saw.</p>\n                    <img src=\"bees-with-color/bee-A1SF.svg\" width=\"200\">\n                    <p><span class=\"redText\">Bad choice, the bee was angry.</span><br><b>You have been stung!</b><br>Your pay has been decreased by $0.10. Your bonus pay is now $0.44.</p>\n            ","response":0,"trial_type":"html-button-response","trial_index":88,"time_elapsed":308002,"internal_node_id":"0.0-4.0-1.40","subject_id":"613ab7f2f840366b66c2b920","study_id":"6197b3f67c2b5cd3b6d9596a","session_id":"619bfbdf6627b0f1c87fcb58","condition":"full-information","relevant_dimensions":["wings","legs"],"bee_group":{"antennae":"X","wings":"1","pattern":"X","legs":"F"},"bonus":1.1400000000000012},{"rt":1618.1000000238419,"stimulus":"bees-with-color/bee-B1SF.svg","response":0,"trial_type":"image-button-response","trial_index":89,"time_elapsed":309623,"internal_node_id":"0.0-4.0-0.41","subject_id":"613ab7f2f840366b66c2b920","study_id":"6197b3f67c2b5cd3b6d9596a","session_id":"619bfbdf6627b0f1c87fcb58","condition":"full-information","relevant_dimensions":["wings","legs"],"bee_group":{"antennae":"X","wings":"1","pattern":"X","legs":"F"},"action":"harvest","summary":"bad-harvest","bonus":1.1400000000000012},{"rt":1302.2999999523163,"stimulus":"\n                    <p><b>Action: <em>harvest</em></b></p>\n                    <p>This is the bee that you just saw.</p>\n                    <img src=\"bees-with-color/bee-B1SF.svg\" width=\"200\">\n                    <p><span class=\"redText\">Bad choice, the bee was angry.</span><br><b>You have been stung!</b><br>Your pay has been decreased by $0.10. Your bonus pay is now $0.34.</p>\n            ","response":0,"trial_type":"html-button-response","trial_index":90,"time_elapsed":310928,"internal_node_id":"0.0-4.0-1.41","subject_id":"613ab7f2f840366b66c2b920","study_id":"6197b3f67c2b5cd3b6d9596a","session_id":"619bfbdf6627b0f1c87fcb58","condition":"full-information","relevant_dimensions":["wings","legs"],"bee_group":{"antennae":"X","wings":"1","pattern":"X","legs":"F"},"bonus":1.1400000000000012},{"rt":1741.2000000476837,"stimulus":"bees-with-color/bee-B2DF.svg","response":0,"trial_type":"image-button-response","trial_index":91,"time_elapsed":312671,"internal_node_id":"0.0-4.0-0.42","subject_id":"613ab7f2f840366b66c2b920","study_id":"6197b3f67c2b5cd3b6d9596a","session_id":"619bfbdf6627b0f1c87fcb58","condition":"full-information","relevant_dimensions":["wings","legs"],"bee_group":{"antennae":"X","wings":"1","pattern":"X","legs":"F"},"action":"harvest","summary":"good-harvest","bonus":1.1400000000000012},{"rt":992.6000000238419,"stimulus":"\n                    <p><b>Action: <em>harvest</em></b></p>\n                    <p>This is the bee that you just saw.</p>\n                    <img src=\"bees-with-color/bee-B2DF.svg\" width=\"200\">\n                    <p><span class=\"greenText\"><b>Successful harvest!</b></span><br>Your pay has increased by $0.02. Your bonus pay is now $0.36.</p>\n            ","response":0,"trial_type":"html-button-response","trial_index":92,"time_elapsed":313666,"internal_node_id":"0.0-4.0-1.42","subject_id":"613ab7f2f840366b66c2b920","study_id":"6197b3f67c2b5cd3b6d9596a","session_id":"619bfbdf6627b0f1c87fcb58","condition":"full-information","relevant_dimensions":["wings","legs"],"bee_group":{"antennae":"X","wings":"1","pattern":"X","legs":"F"},"bonus":1.1400000000000012},{"rt":1160.1000000238419,"stimulus":"bees-with-color/bee-A2SF.svg","response":0,"trial_type":"image-button-response","trial_index":93,"time_elapsed":314828,"internal_node_id":"0.0-4.0-0.43","subject_id":"613ab7f2f840366b66c2b920","study_id":"6197b3f67c2b5cd3b6d9596a","session_id":"619bfbdf6627b0f1c87fcb58","condition":"full-information","relevant_dimensions":["wings","legs"],"bee_group":{"antennae":"X","wings":"1","pattern":"X","legs":"F"},"action":"harvest","summary":"good-harvest","bonus":1.1400000000000012},{"rt":948.0999999046326,"stimulus":"\n                    <p><b>Action: <em>harvest</em></b></p>\n                    <p>This is the bee that you just saw.</p>\n                    <img src=\"bees-with-color/bee-A2SF.svg\" width=\"200\">\n                    <p><span class=\"greenText\"><b>Successful harvest!</b></span><br>Your pay has increased by $0.02. Your bonus pay is now $0.38.</p>\n            ","response":0,"trial_type":"html-button-response","trial_index":94,"time_elapsed":315778,"internal_node_id":"0.0-4.0-1.43","subject_id":"613ab7f2f840366b66c2b920","study_id":"6197b3f67c2b5cd3b6d9596a","session_id":"619bfbdf6627b0f1c87fcb58","condition":"full-information","relevant_dimensions":["wings","legs"],"bee_group":{"antennae":"X","wings":"1","pattern":"X","legs":"F"},"bonus":1.1400000000000012},{"rt":1833.7999999523163,"stimulus":"bees-with-color/bee-B2SF.svg","response":0,"trial_type":"image-button-response","trial_index":95,"time_elapsed":317614,"internal_node_id":"0.0-4.0-0.44","subject_id":"613ab7f2f840366b66c2b920","study_id":"6197b3f67c2b5cd3b6d9596a","session_id":"619bfbdf6627b0f1c87fcb58","condition":"full-information","relevant_dimensions":["wings","legs"],"bee_group":{"antennae":"X","wings":"1","pattern":"X","legs":"F"},"action":"harvest","summary":"good-harvest","bonus":1.1400000000000012},{"rt":1182.3999999761581,"stimulus":"\n                    <p><b>Action: <em>harvest</em></b></p>\n                    <p>This is the bee that you just saw.</p>\n                    <img src=\"bees-with-color/bee-B2SF.svg\" width=\"200\">\n                    <p><span class=\"greenText\"><b>Successful harvest!</b></span><br>Your pay has increased by $0.02. Your bonus pay is now $0.40.</p>\n            ","response":0,"trial_type":"html-button-response","trial_index":96,"time_elapsed":318799,"internal_node_id":"0.0-4.0-1.44","subject_id":"613ab7f2f840366b66c2b920","study_id":"6197b3f67c2b5cd3b6d9596a","session_id":"619bfbdf6627b0f1c87fcb58","condition":"full-information","relevant_dimensions":["wings","legs"],"bee_group":{"antennae":"X","wings":"1","pattern":"X","legs":"F"},"bonus":1.1400000000000012},{"rt":1221.9000000953674,"stimulus":"bees-with-color/bee-A2DM.svg","response":0,"trial_type":"image-button-response","trial_index":97,"time_elapsed":320024,"internal_node_id":"0.0-4.0-0.45","subject_id":"613ab7f2f840366b66c2b920","study_id":"6197b3f67c2b5cd3b6d9596a","session_id":"619bfbdf6627b0f1c87fcb58","condition":"full-information","relevant_dimensions":["wings","legs"],"bee_group":{"antennae":"X","wings":"1","pattern":"X","legs":"F"},"action":"harvest","summary":"good-harvest","bonus":1.1400000000000012},{"rt":1117.8999999761581,"stimulus":"\n                    <p><b>Action: <em>harvest</em></b></p>\n                    <p>This is the bee that you just saw.</p>\n                    <img src=\"bees-with-color/bee-A2DM.svg\" width=\"200\">\n                    <p><span class=\"greenText\"><b>Successful harvest!</b></span><br>Your pay has increased by $0.02. Your bonus pay is now $0.42.</p>\n            ","response":0,"trial_type":"html-button-response","trial_index":98,"time_elapsed":321144,"internal_node_id":"0.0-4.0-1.45","subject_id":"613ab7f2f840366b66c2b920","study_id":"6197b3f67c2b5cd3b6d9596a","session_id":"619bfbdf6627b0f1c87fcb58","condition":"full-information","relevant_dimensions":["wings","legs"],"bee_group":{"antennae":"X","wings":"1","pattern":"X","legs":"F"},"bonus":1.1400000000000012},{"rt":1376.0999999046326,"stimulus":"bees-with-color/bee-A1DM.svg","response":0,"trial_type":"image-button-response","trial_index":99,"time_elapsed":322524,"internal_node_id":"0.0-4.0-0.46","subject_id":"613ab7f2f840366b66c2b920","study_id":"6197b3f67c2b5cd3b6d9596a","session_id":"619bfbdf6627b0f1c87fcb58","condition":"full-information","relevant_dimensions":["wings","legs"],"bee_group":{"antennae":"X","wings":"1","pattern":"X","legs":"F"},"action":"harvest","summary":"good-harvest","bonus":1.1400000000000012},{"rt":1025.1000000238419,"stimulus":"\n                    <p><b>Action: <em>harvest</em></b></p>\n                    <p>This is the bee that you just saw.</p>\n                    <img src=\"bees-with-color/bee-A1DM.svg\" width=\"200\">\n                    <p><span class=\"greenText\"><b>Successful harvest!</b></span><br>Your pay has increased by $0.02. Your bonus pay is now $0.44.</p>\n            ","response":0,"trial_type":"html-button-response","trial_index":100,"time_elapsed":323552,"internal_node_id":"0.0-4.0-1.46","subject_id":"613ab7f2f840366b66c2b920","study_id":"6197b3f67c2b5cd3b6d9596a","session_id":"619bfbdf6627b0f1c87fcb58","condition":"full-information","relevant_dimensions":["wings","legs"],"bee_group":{"antennae":"X","wings":"1","pattern":"X","legs":"F"},"bonus":1.1400000000000012},{"rt":2163.899999976158,"stimulus":"bees-with-color/bee-A1SM.svg","response":0,"trial_type":"image-button-response","trial_index":101,"time_elapsed":325718,"internal_node_id":"0.0-4.0-0.47","subject_id":"613ab7f2f840366b66c2b920","study_id":"6197b3f67c2b5cd3b6d9596a","session_id":"619bfbdf6627b0f1c87fcb58","condition":"full-information","relevant_dimensions":["wings","legs"],"bee_group":{"antennae":"X","wings":"1","pattern":"X","legs":"F"},"action":"harvest","summary":"good-harvest","bonus":1.1400000000000012},{"rt":853.2000000476837,"stimulus":"\n                    <p><b>Action: <em>harvest</em></b></p>\n                    <p>This is the bee that you just saw.</p>\n                    <img src=\"bees-with-color/bee-A1SM.svg\" width=\"200\">\n                    <p><span class=\"greenText\"><b>Successful harvest!</b></span><br>Your pay has increased by $0.02. Your bonus pay is now $0.46.</p>\n            ","response":0,"trial_type":"html-button-response","trial_index":102,"time_elapsed":326573,"internal_node_id":"0.0-4.0-1.47","subject_id":"613ab7f2f840366b66c2b920","study_id":"6197b3f67c2b5cd3b6d9596a","session_id":"619bfbdf6627b0f1c87fcb58","condition":"full-information","relevant_dimensions":["wings","legs"],"bee_group":{"antennae":"X","wings":"1","pattern":"X","legs":"F"},"bonus":1.1400000000000012},{"rt":1378.1999999284744,"stimulus":"bees-with-color/bee-A1DM.svg","response":0,"trial_type":"image-button-response","trial_index":103,"time_elapsed":327953,"internal_node_id":"0.0-4.0-0.48","subject_id":"613ab7f2f840366b66c2b920","study_id":"6197b3f67c2b5cd3b6d9596a","session_id":"619bfbdf6627b0f1c87fcb58","condition":"full-information","relevant_dimensions":["wings","legs"],"bee_group":{"antennae":"X","wings":"1","pattern":"X","legs":"F"},"action":"harvest","summary":"good-harvest","bonus":1.1400000000000012},{"rt":1103.2000000476837,"stimulus":"\n                    <p><b>Action: <em>harvest</em></b></p>\n                    <p>This is the bee that you just saw.</p>\n                    <img src=\"bees-with-color/bee-A1DM.svg\" width=\"200\">\n                    <p><span class=\"greenText\"><b>Successful harvest!</b></span><br>Your pay has increased by $0.02. Your bonus pay is now $0.48.</p>\n            ","response":0,"trial_type":"html-button-response","trial_index":104,"time_elapsed":329059,"internal_node_id":"0.0-4.0-1.48","subject_id":"613ab7f2f840366b66c2b920","study_id":"6197b3f67c2b5cd3b6d9596a","session_id":"619bfbdf6627b0f1c87fcb58","condition":"full-information","relevant_dimensions":["wings","legs"],"bee_group":{"antennae":"X","wings":"1","pattern":"X","legs":"F"},"bonus":1.1400000000000012},{"rt":1677.6000000238419,"stimulus":"bees-with-color/bee-A1SM.svg","response":0,"trial_type":"image-button-response","trial_index":105,"time_elapsed":330739,"internal_node_id":"0.0-4.0-0.49","subject_id":"613ab7f2f840366b66c2b920","study_id":"6197b3f67c2b5cd3b6d9596a","session_id":"619bfbdf6627b0f1c87fcb58","condition":"full-information","relevant_dimensions":["wings","legs"],"bee_group":{"antennae":"X","wings":"1","pattern":"X","legs":"F"},"action":"harvest","summary":"good-harvest","bonus":1.1400000000000012},{"rt":1057.3000000715256,"stimulus":"\n                    <p><b>Action: <em>harvest</em></b></p>\n                    <p>This is the bee that you just saw.</p>\n                    <img src=\"bees-with-color/bee-A1SM.svg\" width=\"200\">\n                    <p><span class=\"greenText\"><b>Successful harvest!</b></span><br>Your pay has increased by $0.02. Your bonus pay is now $0.50.</p>\n            ","response":0,"trial_type":"html-button-response","trial_index":106,"time_elapsed":331798,"internal_node_id":"0.0-4.0-1.49","subject_id":"613ab7f2f840366b66c2b920","study_id":"6197b3f67c2b5cd3b6d9596a","session_id":"619bfbdf6627b0f1c87fcb58","condition":"full-information","relevant_dimensions":["wings","legs"],"bee_group":{"antennae":"X","wings":"1","pattern":"X","legs":"F"},"bonus":1.1400000000000012},{"rt":1645.9000000953674,"stimulus":"bees-with-color/bee-B1DF.svg","response":1,"trial_type":"image-button-response","trial_index":107,"time_elapsed":333446,"internal_node_id":"0.0-4.0-0.50","subject_id":"613ab7f2f840366b66c2b920","study_id":"6197b3f67c2b5cd3b6d9596a","session_id":"619bfbdf6627b0f1c87fcb58","condition":"full-information","relevant_dimensions":["wings","legs"],"bee_group":{"antennae":"X","wings":"1","pattern":"X","legs":"F"},"action":"avoid","summary":"good-avoid","bonus":1.1400000000000012},{"rt":1318.8999999761581,"stimulus":"\n                    <p><b>Action: <em>avoid</em></b></p>\n                    <p>This is the bee that you just saw.</p>\n                    <img src=\"bees-with-color/bee-B1DF.svg\" width=\"200\">\n                    <p><span class=\"greenText\">Good choice!</span>  This bee would have stung you.<br>Your bonus pay is unchanged, and remains at $0.50.</p>\n            ","response":0,"trial_type":"html-button-response","trial_index":108,"time_elapsed":334768,"internal_node_id":"0.0-4.0-1.50","subject_id":"613ab7f2f840366b66c2b920","study_id":"6197b3f67c2b5cd3b6d9596a","session_id":"619bfbdf6627b0f1c87fcb58","condition":"full-information","relevant_dimensions":["wings","legs"],"bee_group":{"antennae":"X","wings":"1","pattern":"X","legs":"F"},"bonus":1.1400000000000012},{"rt":1380.6999999284744,"stimulus":"bees-with-color/bee-B2SF.svg","response":0,"trial_type":"image-button-response","trial_index":109,"time_elapsed":336151,"internal_node_id":"0.0-4.0-0.51","subject_id":"613ab7f2f840366b66c2b920","study_id":"6197b3f67c2b5cd3b6d9596a","session_id":"619bfbdf6627b0f1c87fcb58","condition":"full-information","relevant_dimensions":["wings","legs"],"bee_group":{"antennae":"X","wings":"1","pattern":"X","legs":"F"},"action":"harvest","summary":"good-harvest","bonus":1.1400000000000012},{"rt":1136.3000000715256,"stimulus":"\n                    <p><b>Action: <em>harvest</em></b></p>\n                    <p>This is the bee that you just saw.</p>\n                    <img src=\"bees-with-color/bee-B2SF.svg\" width=\"200\">\n                    <p><span class=\"greenText\"><b>Successful harvest!</b></span><br>Your pay has increased by $0.02. Your bonus pay is now $0.52.</p>\n            ","response":0,"trial_type":"html-button-response","trial_index":110,"time_elapsed":337290,"internal_node_id":"0.0-4.0-1.51","subject_id":"613ab7f2f840366b66c2b920","study_id":"6197b3f67c2b5cd3b6d9596a","session_id":"619bfbdf6627b0f1c87fcb58","condition":"full-information","relevant_dimensions":["wings","legs"],"bee_group":{"antennae":"X","wings":"1","pattern":"X","legs":"F"},"bonus":1.1400000000000012},{"rt":1552.7000000476837,"stimulus":"bees-with-color/bee-B2DF.svg","response":0,"trial_type":"image-button-response","trial_index":111,"time_elapsed":338845,"internal_node_id":"0.0-4.0-0.52","subject_id":"613ab7f2f840366b66c2b920","study_id":"6197b3f67c2b5cd3b6d9596a","session_id":"619bfbdf6627b0f1c87fcb58","condition":"full-information","relevant_dimensions":["wings","legs"],"bee_group":{"antennae":"X","wings":"1","pattern":"X","legs":"F"},"action":"harvest","summary":"good-harvest","bonus":1.1400000000000012},{"rt":1130.7999999523163,"stimulus":"\n                    <p><b>Action: <em>harvest</em></b></p>\n                    <p>This is the bee that you just saw.</p>\n                    <img src=\"bees-with-color/bee-B2DF.svg\" width=\"200\">\n                    <p><span class=\"greenText\"><b>Successful harvest!</b></span><br>Your pay has increased by $0.02. Your bonus pay is now $0.54.</p>\n            ","response":0,"trial_type":"html-button-response","trial_index":112,"time_elapsed":339978,"internal_node_id":"0.0-4.0-1.52","subject_id":"613ab7f2f840366b66c2b920","study_id":"6197b3f67c2b5cd3b6d9596a","session_id":"619bfbdf6627b0f1c87fcb58","condition":"full-information","relevant_dimensions":["wings","legs"],"bee_group":{"antennae":"X","wings":"1","pattern":"X","legs":"F"},"bonus":1.1400000000000012},{"rt":1275.1999999284744,"stimulus":"bees-with-color/bee-B2DM.svg","response":0,"trial_type":"image-button-response","trial_index":113,"time_elapsed":341256,"internal_node_id":"0.0-4.0-0.53","subject_id":"613ab7f2f840366b66c2b920","study_id":"6197b3f67c2b5cd3b6d9596a","session_id":"619bfbdf6627b0f1c87fcb58","condition":"full-information","relevant_dimensions":["wings","legs"],"bee_group":{"antennae":"X","wings":"1","pattern":"X","legs":"F"},"action":"harvest","summary":"good-harvest","bonus":1.1400000000000012},{"rt":1021.6000000238419,"stimulus":"\n                    <p><b>Action: <em>harvest</em></b></p>\n                    <p>This is the bee that you just saw.</p>\n                    <img src=\"bees-with-color/bee-B2DM.svg\" width=\"200\">\n                    <p><span class=\"greenText\"><b>Successful harvest!</b></span><br>Your pay has increased by $0.02. Your bonus pay is now $0.56.</p>\n            ","response":0,"trial_type":"html-button-response","trial_index":114,"time_elapsed":342280,"internal_node_id":"0.0-4.0-1.53","subject_id":"613ab7f2f840366b66c2b920","study_id":"6197b3f67c2b5cd3b6d9596a","session_id":"619bfbdf6627b0f1c87fcb58","condition":"full-information","relevant_dimensions":["wings","legs"],"bee_group":{"antennae":"X","wings":"1","pattern":"X","legs":"F"},"bonus":1.1400000000000012},{"rt":1452.3999999761581,"stimulus":"bees-with-color/bee-A1DF.svg","response":1,"trial_type":"image-button-response","trial_index":115,"time_elapsed":343736,"internal_node_id":"0.0-4.0-0.54","subject_id":"613ab7f2f840366b66c2b920","study_id":"6197b3f67c2b5cd3b6d9596a","session_id":"619bfbdf6627b0f1c87fcb58","condition":"full-information","relevant_dimensions":["wings","legs"],"bee_group":{"antennae":"X","wings":"1","pattern":"X","legs":"F"},"action":"avoid","summary":"good-avoid","bonus":1.1400000000000012},{"rt":1134.5,"stimulus":"\n                    <p><b>Action: <em>avoid</em></b></p>\n                    <p>This is the bee that you just saw.</p>\n                    <img src=\"bees-with-color/bee-A1DF.svg\" width=\"200\">\n                    <p><span class=\"greenText\">Good choice!</span>  This bee would have stung you.<br>Your bonus pay is unchanged, and remains at $0.56.</p>\n            ","response":0,"trial_type":"html-button-response","trial_index":116,"time_elapsed":344872,"internal_node_id":"0.0-4.0-1.54","subject_id":"613ab7f2f840366b66c2b920","study_id":"6197b3f67c2b5cd3b6d9596a","session_id":"619bfbdf6627b0f1c87fcb58","condition":"full-information","relevant_dimensions":["wings","legs"],"bee_group":{"antennae":"X","wings":"1","pattern":"X","legs":"F"},"bonus":1.1400000000000012},{"rt":1386.5,"stimulus":"bees-with-color/bee-A2DM.svg","response":0,"trial_type":"image-button-response","trial_index":117,"time_elapsed":346261,"internal_node_id":"0.0-4.0-0.55","subject_id":"613ab7f2f840366b66c2b920","study_id":"6197b3f67c2b5cd3b6d9596a","session_id":"619bfbdf6627b0f1c87fcb58","condition":"full-information","relevant_dimensions":["wings","legs"],"bee_group":{"antennae":"X","wings":"1","pattern":"X","legs":"F"},"action":"harvest","summary":"good-harvest","bonus":1.1400000000000012},{"rt":1133,"stimulus":"\n                    <p><b>Action: <em>harvest</em></b></p>\n                    <p>This is the bee that you just saw.</p>\n                    <img src=\"bees-with-color/bee-A2DM.svg\" width=\"200\">\n                    <p><span class=\"greenText\"><b>Successful harvest!</b></span><br>Your pay has increased by $0.02. Your bonus pay is now $0.58.</p>\n            ","response":0,"trial_type":"html-button-response","trial_index":118,"time_elapsed":347396,"internal_node_id":"0.0-4.0-1.55","subject_id":"613ab7f2f840366b66c2b920","study_id":"6197b3f67c2b5cd3b6d9596a","session_id":"619bfbdf6627b0f1c87fcb58","condition":"full-information","relevant_dimensions":["wings","legs"],"bee_group":{"antennae":"X","wings":"1","pattern":"X","legs":"F"},"bonus":1.1400000000000012},{"rt":1510.1999999284744,"stimulus":"bees-with-color/bee-B1SM.svg","response":0,"trial_type":"image-button-response","trial_index":119,"time_elapsed":348907,"internal_node_id":"0.0-4.0-0.56","subject_id":"613ab7f2f840366b66c2b920","study_id":"6197b3f67c2b5cd3b6d9596a","session_id":"619bfbdf6627b0f1c87fcb58","condition":"full-information","relevant_dimensions":["wings","legs"],"bee_group":{"antennae":"X","wings":"1","pattern":"X","legs":"F"},"action":"harvest","summary":"good-harvest","bonus":1.1400000000000012},{"rt":1195.6000000238419,"stimulus":"\n                    <p><b>Action: <em>harvest</em></b></p>\n                    <p>This is the bee that you just saw.</p>\n                    <img src=\"bees-with-color/bee-B1SM.svg\" width=\"200\">\n                    <p><span class=\"greenText\"><b>Successful harvest!</b></span><br>Your pay has increased by $0.02. Your bonus pay is now $0.60.</p>\n            ","response":0,"trial_type":"html-button-response","trial_index":120,"time_elapsed":350105,"internal_node_id":"0.0-4.0-1.56","subject_id":"613ab7f2f840366b66c2b920","study_id":"6197b3f67c2b5cd3b6d9596a","session_id":"619bfbdf6627b0f1c87fcb58","condition":"full-information","relevant_dimensions":["wings","legs"],"bee_group":{"antennae":"X","wings":"1","pattern":"X","legs":"F"},"bonus":1.1400000000000012},{"rt":3013.7000000476837,"stimulus":"bees-with-color/bee-A2DF.svg","response":1,"trial_type":"image-button-response","trial_index":121,"time_elapsed":353121,"internal_node_id":"0.0-4.0-0.57","subject_id":"613ab7f2f840366b66c2b920","study_id":"6197b3f67c2b5cd3b6d9596a","session_id":"619bfbdf6627b0f1c87fcb58","condition":"full-information","relevant_dimensions":["wings","legs"],"bee_group":{"antennae":"X","wings":"1","pattern":"X","legs":"F"},"action":"avoid","summary":"bad-avoid","bonus":1.1400000000000012},{"rt":1335.6999999284744,"stimulus":"\n                    <p><b>Action: <em>avoid</em></b></p>\n                    <p>This is the bee that you just saw.</p>\n                    <img src=\"bees-with-color/bee-A2DF.svg\" width=\"200\">\n                    <p><span class=\"redText\">Bad choice,</span> the bee was friendly.<br>Your bonus pay is unchanged, and remains at $0.60.</p>\n            ","response":0,"trial_type":"html-button-response","trial_index":122,"time_elapsed":354459,"internal_node_id":"0.0-4.0-1.57","subject_id":"613ab7f2f840366b66c2b920","study_id":"6197b3f67c2b5cd3b6d9596a","session_id":"619bfbdf6627b0f1c87fcb58","condition":"full-information","relevant_dimensions":["wings","legs"],"bee_group":{"antennae":"X","wings":"1","pattern":"X","legs":"F"},"bonus":1.1400000000000012},{"rt":1987.8000000715256,"stimulus":"bees-with-color/bee-B1SF.svg","response":1,"trial_type":"image-button-response","trial_index":123,"time_elapsed":356449,"internal_node_id":"0.0-4.0-0.58","subject_id":"613ab7f2f840366b66c2b920","study_id":"6197b3f67c2b5cd3b6d9596a","session_id":"619bfbdf6627b0f1c87fcb58","condition":"full-information","relevant_dimensions":["wings","legs"],"bee_group":{"antennae":"X","wings":"1","pattern":"X","legs":"F"},"action":"avoid","summary":"good-avoid","bonus":1.1400000000000012},{"rt":1123.6000000238419,"stimulus":"\n                    <p><b>Action: <em>avoid</em></b></p>\n                    <p>This is the bee that you just saw.</p>\n                    <img src=\"bees-with-color/bee-B1SF.svg\" width=\"200\">\n                    <p><span class=\"greenText\">Good choice!</span>  This bee would have stung you.<br>Your bonus pay is unchanged, and remains at $0.60.</p>\n            ","response":0,"trial_type":"html-button-response","trial_index":124,"time_elapsed":357575,"internal_node_id":"0.0-4.0-1.58","subject_id":"613ab7f2f840366b66c2b920","study_id":"6197b3f67c2b5cd3b6d9596a","session_id":"619bfbdf6627b0f1c87fcb58","condition":"full-information","relevant_dimensions":["wings","legs"],"bee_group":{"antennae":"X","wings":"1","pattern":"X","legs":"F"},"bonus":1.1400000000000012},{"rt":1199.6000000238419,"stimulus":"bees-with-color/bee-B1DM.svg","response":0,"trial_type":"image-button-response","trial_index":125,"time_elapsed":358777,"internal_node_id":"0.0-4.0-0.59","subject_id":"613ab7f2f840366b66c2b920","study_id":"6197b3f67c2b5cd3b6d9596a","session_id":"619bfbdf6627b0f1c87fcb58","condition":"full-information","relevant_dimensions":["wings","legs"],"bee_group":{"antennae":"X","wings":"1","pattern":"X","legs":"F"},"action":"harvest","summary":"good-harvest","bonus":1.1400000000000012},{"rt":993.5,"stimulus":"\n                    <p><b>Action: <em>harvest</em></b></p>\n                    <p>This is the bee that you just saw.</p>\n                    <img src=\"bees-with-color/bee-B1DM.svg\" width=\"200\">\n                    <p><span class=\"greenText\"><b>Successful harvest!</b></span><br>Your pay has increased by $0.02. Your bonus pay is now $0.62.</p>\n            ","response":0,"trial_type":"html-button-response","trial_index":126,"time_elapsed":359772,"internal_node_id":"0.0-4.0-1.59","subject_id":"613ab7f2f840366b66c2b920","study_id":"6197b3f67c2b5cd3b6d9596a","session_id":"619bfbdf6627b0f1c87fcb58","condition":"full-information","relevant_dimensions":["wings","legs"],"bee_group":{"antennae":"X","wings":"1","pattern":"X","legs":"F"},"bonus":1.1400000000000012},{"rt":1471.3999999761581,"stimulus":"bees-with-color/bee-A2SM.svg","response":0,"trial_type":"image-button-response","trial_index":127,"time_elapsed":361246,"internal_node_id":"0.0-4.0-0.60","subject_id":"613ab7f2f840366b66c2b920","study_id":"6197b3f67c2b5cd3b6d9596a","session_id":"619bfbdf6627b0f1c87fcb58","condition":"full-information","relevant_dimensions":["wings","legs"],"bee_group":{"antennae":"X","wings":"1","pattern":"X","legs":"F"},"action":"harvest","summary":"good-harvest","bonus":1.1400000000000012},{"rt":870.6999999284744,"stimulus":"\n                    <p><b>Action: <em>harvest</em></b></p>\n                    <p>This is the bee that you just saw.</p>\n                    <img src=\"bees-with-color/bee-A2SM.svg\" width=\"200\">\n                    <p><span class=\"greenText\"><b>Successful harvest!</b></span><br>Your pay has increased by $0.02. Your bonus pay is now $0.64.</p>\n            ","response":0,"trial_type":"html-button-response","trial_index":128,"time_elapsed":362119,"internal_node_id":"0.0-4.0-1.60","subject_id":"613ab7f2f840366b66c2b920","study_id":"6197b3f67c2b5cd3b6d9596a","session_id":"619bfbdf6627b0f1c87fcb58","condition":"full-information","relevant_dimensions":["wings","legs"],"bee_group":{"antennae":"X","wings":"1","pattern":"X","legs":"F"},"bonus":1.1400000000000012},{"rt":1335.8000000715256,"stimulus":"bees-with-color/bee-B2SM.svg","response":0,"trial_type":"image-button-response","trial_index":129,"time_elapsed":363457,"internal_node_id":"0.0-4.0-0.61","subject_id":"613ab7f2f840366b66c2b920","study_id":"6197b3f67c2b5cd3b6d9596a","session_id":"619bfbdf6627b0f1c87fcb58","condition":"full-information","relevant_dimensions":["wings","legs"],"bee_group":{"antennae":"X","wings":"1","pattern":"X","legs":"F"},"action":"harvest","summary":"good-harvest","bonus":1.1400000000000012},{"rt":897.3000000715256,"stimulus":"\n                    <p><b>Action: <em>harvest</em></b></p>\n                    <p>This is the bee that you just saw.</p>\n                    <img src=\"bees-with-color/bee-B2SM.svg\" width=\"200\">\n                    <p><span class=\"greenText\"><b>Successful harvest!</b></span><br>Your pay has increased by $0.02. Your bonus pay is now $0.66.</p>\n            ","response":0,"trial_type":"html-button-response","trial_index":130,"time_elapsed":364356,"internal_node_id":"0.0-4.0-1.61","subject_id":"613ab7f2f840366b66c2b920","study_id":"6197b3f67c2b5cd3b6d9596a","session_id":"619bfbdf6627b0f1c87fcb58","condition":"full-information","relevant_dimensions":["wings","legs"],"bee_group":{"antennae":"X","wings":"1","pattern":"X","legs":"F"},"bonus":1.1400000000000012},{"rt":3245.5,"stimulus":"bees-with-color/bee-A1SF.svg","response":1,"trial_type":"image-button-response","trial_index":131,"time_elapsed":367605,"internal_node_id":"0.0-4.0-0.62","subject_id":"613ab7f2f840366b66c2b920","study_id":"6197b3f67c2b5cd3b6d9596a","session_id":"619bfbdf6627b0f1c87fcb58","condition":"full-information","relevant_dimensions":["wings","legs"],"bee_group":{"antennae":"X","wings":"1","pattern":"X","legs":"F"},"action":"avoid","summary":"good-avoid","bonus":1.1400000000000012},{"rt":1120.0999999046326,"stimulus":"\n                    <p><b>Action: <em>avoid</em></b></p>\n                    <p>This is the bee that you just saw.</p>\n                    <img src=\"bees-with-color/bee-A1SF.svg\" width=\"200\">\n                    <p><span class=\"greenText\">Good choice!</span>  This bee would have stung you.<br>Your bonus pay is unchanged, and remains at $0.66.</p>\n            ","response":0,"trial_type":"html-button-response","trial_index":132,"time_elapsed":368728,"internal_node_id":"0.0-4.0-1.62","subject_id":"613ab7f2f840366b66c2b920","study_id":"6197b3f67c2b5cd3b6d9596a","session_id":"619bfbdf6627b0f1c87fcb58","condition":"full-information","relevant_dimensions":["wings","legs"],"bee_group":{"antennae":"X","wings":"1","pattern":"X","legs":"F"},"bonus":1.1400000000000012},{"rt":1183.1999999284744,"stimulus":"bees-with-color/bee-A2SF.svg","response":0,"trial_type":"image-button-response","trial_index":133,"time_elapsed":369914,"internal_node_id":"0.0-4.0-0.63","subject_id":"613ab7f2f840366b66c2b920","study_id":"6197b3f67c2b5cd3b6d9596a","session_id":"619bfbdf6627b0f1c87fcb58","condition":"full-information","relevant_dimensions":["wings","legs"],"bee_group":{"antennae":"X","wings":"1","pattern":"X","legs":"F"},"action":"harvest","summary":"good-harvest","bonus":1.1400000000000012},{"rt":1052.7000000476837,"stimulus":"\n                    <p><b>Action: <em>harvest</em></b></p>\n                    <p>This is the bee that you just saw.</p>\n                    <img src=\"bees-with-color/bee-A2SF.svg\" width=\"200\">\n                    <p><span class=\"greenText\"><b>Successful harvest!</b></span><br>Your pay has increased by $0.02. Your bonus pay is now $0.68.</p>\n            ","response":0,"trial_type":"html-button-response","trial_index":134,"time_elapsed":370969,"internal_node_id":"0.0-4.0-1.63","subject_id":"613ab7f2f840366b66c2b920","study_id":"6197b3f67c2b5cd3b6d9596a","session_id":"619bfbdf6627b0f1c87fcb58","condition":"full-information","relevant_dimensions":["wings","legs"],"bee_group":{"antennae":"X","wings":"1","pattern":"X","legs":"F"},"bonus":1.1400000000000012},{"rt":4416.200000047684,"stimulus":"You have completed the first part of this experiment.<br><br>You will now begin a shorter second part, in which you will receive no feedback.<br>The same rules regarding bonus pay apply.<br><br>Press any key to begin.","response":" ","trial_type":"html-keyboard-response","trial_index":135,"time_elapsed":375388,"internal_node_id":"0.0-5.0","subject_id":"613ab7f2f840366b66c2b920","study_id":"6197b3f67c2b5cd3b6d9596a","session_id":"619bfbdf6627b0f1c87fcb58","condition":"full-information","relevant_dimensions":["wings","legs"],"bee_group":{"antennae":"X","wings":"1","pattern":"X","legs":"F"},"bonus":1.1400000000000012},{"rt":1805.3999999761581,"stimulus":"bees-with-color/bee-A2SF.svg","response":0,"trial_type":"image-button-response","trial_index":136,"time_elapsed":377205,"internal_node_id":"0.0-6.0-0.0","subject_id":"613ab7f2f840366b66c2b920","study_id":"6197b3f67c2b5cd3b6d9596a","session_id":"619bfbdf6627b0f1c87fcb58","condition":"full-information","relevant_dimensions":["wings","legs"],"bee_group":{"antennae":"X","wings":"1","pattern":"X","legs":"F"},"bonus":1.1400000000000012},{"rt":4798.399999976158,"stimulus":"bees-with-color/bee-B2SF.svg","response":1,"trial_type":"image-button-response","trial_index":137,"time_elapsed":382007,"internal_node_id":"0.0-6.0-0.1","subject_id":"613ab7f2f840366b66c2b920","study_id":"6197b3f67c2b5cd3b6d9596a","session_id":"619bfbdf6627b0f1c87fcb58","condition":"full-information","relevant_dimensions":["wings","legs"],"bee_group":{"antennae":"X","wings":"1","pattern":"X","legs":"F"},"bonus":1.1400000000000012},{"rt":1440.4000000953674,"stimulus":"bees-with-color/bee-A2DM.svg","response":0,"trial_type":"image-button-response","trial_index":138,"time_elapsed":383451,"internal_node_id":"0.0-6.0-0.2","subject_id":"613ab7f2f840366b66c2b920","study_id":"6197b3f67c2b5cd3b6d9596a","session_id":"619bfbdf6627b0f1c87fcb58","condition":"full-information","relevant_dimensions":["wings","legs"],"bee_group":{"antennae":"X","wings":"1","pattern":"X","legs":"F"},"bonus":1.1400000000000012},{"rt":4825.600000023842,"stimulus":"bees-with-color/bee-B2DF.svg","response":0,"trial_type":"image-button-response","trial_index":139,"time_elapsed":388280,"internal_node_id":"0.0-6.0-0.3","subject_id":"613ab7f2f840366b66c2b920","study_id":"6197b3f67c2b5cd3b6d9596a","session_id":"619bfbdf6627b0f1c87fcb58","condition":"full-information","relevant_dimensions":["wings","legs"],"bee_group":{"antennae":"X","wings":"1","pattern":"X","legs":"F"},"bonus":1.1400000000000012},{"rt":1519,"stimulus":"bees-with-color/bee-B1DF.svg","response":1,"trial_type":"image-button-response","trial_index":140,"time_elapsed":389803,"internal_node_id":"0.0-6.0-0.4","subject_id":"613ab7f2f840366b66c2b920","study_id":"6197b3f67c2b5cd3b6d9596a","session_id":"619bfbdf6627b0f1c87fcb58","condition":"full-information","relevant_dimensions":["wings","legs"],"bee_group":{"antennae":"X","wings":"1","pattern":"X","legs":"F"},"bonus":1.1400000000000012},{"rt":2427.399999976158,"stimulus":"bees-with-color/bee-B1SM.svg","response":0,"trial_type":"image-button-response","trial_index":141,"time_elapsed":392234,"internal_node_id":"0.0-6.0-0.5","subject_id":"613ab7f2f840366b66c2b920","study_id":"6197b3f67c2b5cd3b6d9596a","session_id":"619bfbdf6627b0f1c87fcb58","condition":"full-information","relevant_dimensions":["wings","legs"],"bee_group":{"antennae":"X","wings":"1","pattern":"X","legs":"F"},"bonus":1.1400000000000012},{"rt":2728.2999999523163,"stimulus":"bees-with-color/bee-A1SF.svg","response":1,"trial_type":"image-button-response","trial_index":142,"time_elapsed":394965,"internal_node_id":"0.0-6.0-0.6","subject_id":"613ab7f2f840366b66c2b920","study_id":"6197b3f67c2b5cd3b6d9596a","session_id":"619bfbdf6627b0f1c87fcb58","condition":"full-information","relevant_dimensions":["wings","legs"],"bee_group":{"antennae":"X","wings":"1","pattern":"X","legs":"F"},"bonus":1.1400000000000012},{"rt":1161.1999999284744,"stimulus":"bees-with-color/bee-A2SM.svg","response":0,"trial_type":"image-button-response","trial_index":143,"time_elapsed":396131,"internal_node_id":"0.0-6.0-0.7","subject_id":"613ab7f2f840366b66c2b920","study_id":"6197b3f67c2b5cd3b6d9596a","session_id":"619bfbdf6627b0f1c87fcb58","condition":"full-information","relevant_dimensions":["wings","legs"],"bee_group":{"antennae":"X","wings":"1","pattern":"X","legs":"F"},"bonus":1.1400000000000012},{"rt":3611.600000023842,"stimulus":"bees-with-color/bee-A1DM.svg","response":0,"trial_type":"image-button-response","trial_index":144,"time_elapsed":399746,"internal_node_id":"0.0-6.0-0.8","subject_id":"613ab7f2f840366b66c2b920","study_id":"6197b3f67c2b5cd3b6d9596a","session_id":"619bfbdf6627b0f1c87fcb58","condition":"full-information","relevant_dimensions":["wings","legs"],"bee_group":{"antennae":"X","wings":"1","pattern":"X","legs":"F"},"bonus":1.1400000000000012},{"rt":2079.2000000476837,"stimulus":"bees-with-color/bee-A1SM.svg","response":0,"trial_type":"image-button-response","trial_index":145,"time_elapsed":401830,"internal_node_id":"0.0-6.0-0.9","subject_id":"613ab7f2f840366b66c2b920","study_id":"6197b3f67c2b5cd3b6d9596a","session_id":"619bfbdf6627b0f1c87fcb58","condition":"full-information","relevant_dimensions":["wings","legs"],"bee_group":{"antennae":"X","wings":"1","pattern":"X","legs":"F"},"bonus":1.1400000000000012},{"rt":2719.2000000476837,"stimulus":"bees-with-color/bee-A2DF.svg","response":0,"trial_type":"image-button-response","trial_index":146,"time_elapsed":404552,"internal_node_id":"0.0-6.0-0.10","subject_id":"613ab7f2f840366b66c2b920","study_id":"6197b3f67c2b5cd3b6d9596a","session_id":"619bfbdf6627b0f1c87fcb58","condition":"full-information","relevant_dimensions":["wings","legs"],"bee_group":{"antennae":"X","wings":"1","pattern":"X","legs":"F"},"bonus":1.1400000000000012},{"rt":1409.6000000238419,"stimulus":"bees-with-color/bee-A1DF.svg","response":1,"trial_type":"image-button-response","trial_index":147,"time_elapsed":405965,"internal_node_id":"0.0-6.0-0.11","subject_id":"613ab7f2f840366b66c2b920","study_id":"6197b3f67c2b5cd3b6d9596a","session_id":"619bfbdf6627b0f1c87fcb58","condition":"full-information","relevant_dimensions":["wings","legs"],"bee_group":{"antennae":"X","wings":"1","pattern":"X","legs":"F"},"bonus":1.1400000000000012},{"rt":3534.600000023842,"stimulus":"bees-with-color/bee-B1DM.svg","response":0,"trial_type":"image-button-response","trial_index":148,"time_elapsed":409503,"internal_node_id":"0.0-6.0-0.12","subject_id":"613ab7f2f840366b66c2b920","study_id":"6197b3f67c2b5cd3b6d9596a","session_id":"619bfbdf6627b0f1c87fcb58","condition":"full-information","relevant_dimensions":["wings","legs"],"bee_group":{"antennae":"X","wings":"1","pattern":"X","legs":"F"},"bonus":1.1400000000000012},{"rt":1243,"stimulus":"bees-with-color/bee-B2SM.svg","response":0,"trial_type":"image-button-response","trial_index":149,"time_elapsed":410749,"internal_node_id":"0.0-6.0-0.13","subject_id":"613ab7f2f840366b66c2b920","study_id":"6197b3f67c2b5cd3b6d9596a","session_id":"619bfbdf6627b0f1c87fcb58","condition":"full-information","relevant_dimensions":["wings","legs"],"bee_group":{"antennae":"X","wings":"1","pattern":"X","legs":"F"},"bonus":1.1400000000000012},{"rt":1862.3999999761581,"stimulus":"bees-with-color/bee-B1SF.svg","response":1,"trial_type":"image-button-response","trial_index":150,"time_elapsed":412615,"internal_node_id":"0.0-6.0-0.14","subject_id":"613ab7f2f840366b66c2b920","study_id":"6197b3f67c2b5cd3b6d9596a","session_id":"619bfbdf6627b0f1c87fcb58","condition":"full-information","relevant_dimensions":["wings","legs"],"bee_group":{"antennae":"X","wings":"1","pattern":"X","legs":"F"},"bonus":1.1400000000000012},{"rt":1722.6999999284744,"stimulus":"bees-with-color/bee-B2DM.svg","response":0,"trial_type":"image-button-response","trial_index":151,"time_elapsed":414340,"internal_node_id":"0.0-6.0-0.15","subject_id":"613ab7f2f840366b66c2b920","study_id":"6197b3f67c2b5cd3b6d9596a","session_id":"619bfbdf6627b0f1c87fcb58","condition":"full-information","relevant_dimensions":["wings","legs"],"bee_group":{"antennae":"X","wings":"1","pattern":"X","legs":"F"},"bonus":1.1400000000000012},{"rt":2003.2000000476837,"stimulus":"bees-with-color/bee-B1DF.svg","response":1,"trial_type":"image-button-response","trial_index":152,"time_elapsed":416346,"internal_node_id":"0.0-6.0-0.16","subject_id":"613ab7f2f840366b66c2b920","study_id":"6197b3f67c2b5cd3b6d9596a","session_id":"619bfbdf6627b0f1c87fcb58","condition":"full-information","relevant_dimensions":["wings","legs"],"bee_group":{"antennae":"X","wings":"1","pattern":"X","legs":"F"},"bonus":1.1400000000000012},{"rt":2660.100000023842,"stimulus":"bees-with-color/bee-B1SM.svg","response":0,"trial_type":"image-button-response","trial_index":153,"time_elapsed":419009,"internal_node_id":"0.0-6.0-0.17","subject_id":"613ab7f2f840366b66c2b920","study_id":"6197b3f67c2b5cd3b6d9596a","session_id":"619bfbdf6627b0f1c87fcb58","condition":"full-information","relevant_dimensions":["wings","legs"],"bee_group":{"antennae":"X","wings":"1","pattern":"X","legs":"F"},"bonus":1.1400000000000012},{"rt":2520,"stimulus":"bees-with-color/bee-B2DF.svg","response":0,"trial_type":"image-button-response","trial_index":154,"time_elapsed":421532,"internal_node_id":"0.0-6.0-0.18","subject_id":"613ab7f2f840366b66c2b920","study_id":"6197b3f67c2b5cd3b6d9596a","session_id":"619bfbdf6627b0f1c87fcb58","condition":"full-information","relevant_dimensions":["wings","legs"],"bee_group":{"antennae":"X","wings":"1","pattern":"X","legs":"F"},"bonus":1.1400000000000012},{"rt":2960.100000023842,"stimulus":"bees-with-color/bee-A1SM.svg","response":0,"trial_type":"image-button-response","trial_index":155,"time_elapsed":424494,"internal_node_id":"0.0-6.0-0.19","subject_id":"613ab7f2f840366b66c2b920","study_id":"6197b3f67c2b5cd3b6d9596a","session_id":"619bfbdf6627b0f1c87fcb58","condition":"full-information","relevant_dimensions":["wings","legs"],"bee_group":{"antennae":"X","wings":"1","pattern":"X","legs":"F"},"bonus":1.1400000000000012},{"rt":2481.7999999523163,"stimulus":"bees-with-color/bee-B2SF.svg","response":0,"trial_type":"image-button-response","trial_index":156,"time_elapsed":426980,"internal_node_id":"0.0-6.0-0.20","subject_id":"613ab7f2f840366b66c2b920","study_id":"6197b3f67c2b5cd3b6d9596a","session_id":"619bfbdf6627b0f1c87fcb58","condition":"full-information","relevant_dimensions":["wings","legs"],"bee_group":{"antennae":"X","wings":"1","pattern":"X","legs":"F"},"bonus":1.1400000000000012},{"rt":1256.7999999523163,"stimulus":"bees-with-color/bee-A2SF.svg","response":0,"trial_type":"image-button-response","trial_index":157,"time_elapsed":428240,"internal_node_id":"0.0-6.0-0.21","subject_id":"613ab7f2f840366b66c2b920","study_id":"6197b3f67c2b5cd3b6d9596a","session_id":"619bfbdf6627b0f1c87fcb58","condition":"full-information","relevant_dimensions":["wings","legs"],"bee_group":{"antennae":"X","wings":"1","pattern":"X","legs":"F"},"bonus":1.1400000000000012},{"rt":3113.100000023842,"stimulus":"bees-with-color/bee-A1SF.svg","response":1,"trial_type