[{"success":true,"trial_type":"fullscreen","trial_index":0,"time_elapsed":109399,"internal_node_id":"0.0-0.0","subject_id":"60be696ba8e15aa210da2db1","study_id":"6197b3f67c2b5cd3b6d9596a","session_id":"6197b5f4f63842e5c1b28790","condition":"contingent","relevant_dimensions":["antennae","pattern"],"bee_group":{"antennae":"B","wings":"X","pattern":"S","legs":"X"},"bonus":0},{"success":true,"timeout":false,"failed_images":[],"failed_audio":[],"failed_video":[],"trial_type":"preload","trial_index":1,"time_elapsed":111127,"internal_node_id":"0.0-1.0","subject_id":"60be696ba8e15aa210da2db1","study_id":"6197b3f67c2b5cd3b6d9596a","session_id":"6197b5f4f63842e5c1b28790","condition":"contingent","relevant_dimensions":["antennae","pattern"],"bee_group":{"antennae":"B","wings":"X","pattern":"S","legs":"X"},"bonus":0},{"rt":2858,"stimulus":"Welcome! Press any key to begin.","response":"g","trial_type":"html-keyboard-response","trial_index":2,"time_elapsed":113985,"internal_node_id":"0.0-2.0","subject_id":"60be696ba8e15aa210da2db1","study_id":"6197b3f67c2b5cd3b6d9596a","session_id":"6197b5f4f63842e5c1b28790","condition":"contingent","relevant_dimensions":["antennae","pattern"],"bee_group":{"antennae":"B","wings":"X","pattern":"S","legs":"X"},"bonus":0},{"view_history":[{"page_index":0,"viewing_time":3088},{"page_index":1,"viewing_time":9223},{"page_index":2,"viewing_time":4804},{"page_index":3,"viewing_time":10019},{"page_index":4,"viewing_time":3324},{"page_index":5,"viewing_time":3466},{"page_index":6,"viewing_time":2853},{"page_index":7,"viewing_time":9913},{"page_index":8,"viewing_time":3885},{"page_index":9,"viewing_time":3499},{"page_index":10,"viewing_time":2731},{"page_index":11,"viewing_time":7114},{"page_index":12,"viewing_time":6203},{"page_index":13,"viewing_time":1190},{"page_index":14,"viewing_time":1514}],"rt":72826,"trial_type":"instructions","trial_index":3,"time_elapsed":186813,"internal_node_id":"0.0-3.0-0.0","subject_id":"60be696ba8e15aa210da2db1","study_id":"6197b3f67c2b5cd3b6d9596a","session_id":"6197b5f4f63842e5c1b28790","condition":"contingent","relevant_dimensions":["antennae","pattern"],"bee_group":{"antennae":"B","wings":"X","pattern":"S","legs":"X"},"bonus":0},{"rt":20806,"response":{"Q0":["Two or six legs","Single or double wings","Antennae or no antennae"]},"question_order":[0],"trial_type":"survey-multi-select","trial_index":4,"time_elapsed":207626,"internal_node_id":"0.0-3.0-1.0","subject_id":"60be696ba8e15aa210da2db1","study_id":"6197b3f67c2b5cd3b6d9596a","session_id":"6197b5f4f63842e5c1b28790","condition":"contingent","relevant_dimensions":["antennae","pattern"],"bee_group":{"antennae":"B","wings":"X","pattern":"S","legs":"X"},"correct":false,"bonus":0},{"rt":17309,"response":{"Q1":"No.","Q2":"Based on the four features of the bee.","Q3":"You do not learn if it was friendly or dangerous, and do not alter your bonus."},"question_order":[0,1,2],"trial_type":"survey-multi-choice","trial_index":5,"time_elapsed":224939,"internal_node_id":"0.0-3.0-2.0","subject_id":"60be696ba8e15aa210da2db1","study_id":"6197b3f67c2b5cd3b6d9596a","session_id":"6197b5f4f63842e5c1b28790","condition":"contingent","relevant_dimensions":["antennae","pattern"],"bee_group":{"antennae":"B","wings":"X","pattern":"S","legs":"X"},"correct":true,"bonus":0},{"rt":3531,"stimulus":"<p>You did not answer all comprehension questions correctly.<br>Press <b>continue</b> to review the instructions again.</p>","response":0,"trial_type":"html-button-response","trial_index":6,"time_elapsed":228472,"internal_node_id":"0.0-3.0-3.0","subject_id":"60be696ba8e15aa210da2db1","study_id":"6197b3f67c2b5cd3b6d9596a","session_id":"6197b5f4f63842e5c1b28790","condition":"contingent","relevant_dimensions":["antennae","pattern"],"bee_group":{"antennae":"B","wings":"X","pattern":"S","legs":"X"},"bonus":0},{"view_history":[{"page_index":0,"viewing_time":1056},{"page_index":1,"viewing_time":1157},{"page_index":2,"viewing_time":734},{"page_index":3,"viewing_time":7062},{"page_index":4,"viewing_time":1119},{"page_index":5,"viewing_time":1024},{"page_index":6,"viewing_time":3282},{"page_index":7,"viewing_time":2581},{"page_index":8,"viewing_time":2581},{"page_index":9,"viewing_time":2424},{"page_index":10,"viewing_time":2127},{"page_index":11,"viewing_time":1487},{"page_index":12,"viewing_time":1059},{"page_index":13,"viewing_time":751},{"page_index":14,"viewing_time":535}],"rt":28979,"trial_type":"instructions","trial_index":7,"time_elapsed":257452,"internal_node_id":"0.0-3.0-4.0-0.0","subject_id":"60be696ba8e15aa210da2db1","study_id":"6197b3f67c2b5cd3b6d9596a","session_id":"6197b5f4f63842e5c1b28790","condition":"contingent","relevant_dimensions":["antennae","pattern"],"bee_group":{"antennae":"B","wings":"X","pattern":"S","legs":"X"},"bonus":0},{"rt":7540,"response":{"Q0":["Two or six legs","Stripes or spots on body","Single or double wings","Antennae or no antennae"]},"question_order":[0],"trial_type":"survey-multi-select","trial_index":8,"time_elapsed":264997,"internal_node_id":"0.0-3.0-4.0-1.0","subject_id":"60be696ba8e15aa210da2db1","study_id":"6197b3f67c2b5cd3b6d9596a","session_id":"6197b5f4f63842e5c1b28790","condition":"contingent","relevant_dimensions":["antennae","pattern"],"bee_group":{"antennae":"B","wings":"X","pattern":"S","legs":"X"},"correct":true,"bonus":0},{"rt":7846,"response":{"Q1":"No.","Q2":"Based on the four features of the bee.","Q3":"You do not learn if it was friendly or dangerous, and do not alter your bonus."},"question_order":[0,1,2],"trial_type":"survey-multi-choice","trial_index":9,"time_elapsed":272845,"internal_node_id":"0.0-3.0-4.0-2.0","subject_id":"60be696ba8e15aa210da2db1","study_id":"6197b3f67c2b5cd3b6d9596a","session_id":"6197b5f4f63842e5c1b28790","condition":"contingent","relevant_dimensions":["antennae","pattern"],"bee_group":{"antennae":"B","wings":"X","pattern":"S","legs":"X"},"correct":true,"bonus":0},{"rt":1860,"stimulus":"<p>Congrats, you got everything right<br>When you're ready, click the button below to continue to the experiment.</p>","response":0,"trial_type":"html-button-response","trial_index":10,"time_elapsed":274707,"internal_node_id":"0.0-3.0-4.0-3.0","subject_id":"60be696ba8e15aa210da2db1","study_id":"6197b3f67c2b5cd3b6d9596a","session_id":"6197b5f4f63842e5c1b28790","condition":"contingent","relevant_dimensions":["antennae","pattern"],"bee_group":{"antennae":"B","wings":"X","pattern":"S","legs":"X"},"bonus":0},{"rt":6751,"stimulus":"bees-with-color/bee-B2SM.svg","response":0,"trial_type":"image-button-response","trial_index":11,"time_elapsed":281462,"internal_node_id":"0.0-4.0-0.0","subject_id":"60be696ba8e15aa210da2db1","study_id":"6197b3f67c2b5cd3b6d9596a","session_id":"6197b5f4f63842e5c1b28790","condition":"contingent","relevant_dimensions":["antennae","pattern"],"bee_group":{"antennae":"B","wings":"X","pattern":"S","legs":"X"},"action":"harvest","summary":"bad-harvest","bonus":0},{"rt":9708,"stimulus":"\n                    <p><b>Action: <em>harvest</em></b></p>\n                    <p>This is the bee that you just saw.</p>\n                    <img src=\"bees-with-color/bee-B2SM.svg\" width=\"200\">\n                    <p><span class=\"redText\">Bad choice, the bee was angry.</span><br><b>You have been stung!</b><br>Your pay has been decreased by $0.10. Your bonus pay is now $0.44.</p>\n            ","response":0,"trial_type":"html-button-response","trial_index":12,"time_elapsed":291192,"internal_node_id":"0.0-4.0-1.0","subject_id":"60be696ba8e15aa210da2db1","study_id":"6197b3f67c2b5cd3b6d9596a","session_id":"6197b5f4f63842e5c1b28790","condition":"contingent","relevant_dimensions":["antennae","pattern"],"bee_group":{"antennae":"B","wings":"X","pattern":"S","legs":"X"},"bonus":0},{"rt":6980,"stimulus":"bees-with-color/bee-B2SF.svg","response":1,"trial_type":"image-button-response","trial_index":13,"time_elapsed":298174,"internal_node_id":"0.0-4.0-0.1","subject_id":"60be696ba8e15aa210da2db1","study_id":"6197b3f67c2b5cd3b6d9596a","session_id":"6197b5f4f63842e5c1b28790","condition":"contingent","relevant_dimensions":["antennae","pattern"],"bee_group":{"antennae":"B","wings":"X","pattern":"S","legs":"X"},"action":"avoid","summary":"good-avoid","bonus":0},{"rt":2508,"stimulus":"\n                    <p><b>Action: <em>avoid</em></b></p>\n                    <p>This is the bee that you just saw.</p>\n                    <img src=\"bees-with-color/bee-B2SF.svg\" width=\"200\">\n                    <p><br>Your bonus pay is unchanged, and remains at $0.44.</p>\n            ","response":0,"trial_type":"html-button-response","trial_index":14,"time_elapsed":300685,"internal_node_id":"0.0-4.0-1.1","subject_id":"60be696ba8e15aa210da2db1","study_id":"6197b3f67c2b5cd3b6d9596a","session_id":"6197b5f4f63842e5c1b28790","condition":"contingent","relevant_dimensions":["antennae","pattern"],"bee_group":{"antennae":"B","wings":"X","pattern":"S","legs":"X"},"bonus":0},{"rt":1381,"stimulus":"bees-with-color/bee-B2DF.svg","response":0,"trial_type":"image-button-response","trial_index":15,"time_elapsed":302068,"internal_node_id":"0.0-4.0-0.2","subject_id":"60be696ba8e15aa210da2db1","study_id":"6197b3f67c2b5cd3b6d9596a","session_id":"6197b5f4f63842e5c1b28790","condition":"contingent","relevant_dimensions":["antennae","pattern"],"bee_group":{"antennae":"B","wings":"X","pattern":"S","legs":"X"},"action":"harvest","summary":"good-harvest","bonus":0},{"rt":12624,"stimulus":"\n                    <p><b>Action: <em>harvest</em></b></p>\n                    <p>This is the bee that you just saw.</p>\n                    <img src=\"bees-with-color/bee-B2DF.svg\" width=\"200\">\n                    <p><span class=\"greenText\"><b>Successful harvest!</b></span><br>Your pay has increased by $0.02. Your bonus pay is now $0.46.</p>\n            ","response":0,"trial_type":"html-button-response","trial_index":16,"time_elapsed":314695,"internal_node_id":"0.0-4.0-1.2","subject_id":"60be696ba8e15aa210da2db1","study_id":"6197b3f67c2b5cd3b6d9596a","session_id":"6197b5f4f63842e5c1b28790","condition":"contingent","relevant_dimensions":["antennae","pattern"],"bee_group":{"antennae":"B","wings":"X","pattern":"S","legs":"X"},"bonus":0},{"rt":2414,"stimulus":"bees-with-color/bee-A2SF.svg","response":1,"trial_type":"image-button-response","trial_index":17,"time_elapsed":317110,"internal_node_id":"0.0-4.0-0.3","subject_id":"60be696ba8e15aa210da2db1","study_id":"6197b3f67c2b5cd3b6d9596a","session_id":"6197b5f4f63842e5c1b28790","condition":"contingent","relevant_dimensions":["antennae","pattern"],"bee_group":{"antennae":"B","wings":"X","pattern":"S","legs":"X"},"action":"avoid","summary":"bad-avoid","bonus":0},{"rt":881,"stimulus":"\n                    <p><b>Action: <em>avoid</em></b></p>\n                    <p>This is the bee that you just saw.</p>\n                    <img src=\"bees-with-color/bee-A2SF.svg\" width=\"200\">\n                    <p><br>Your bonus pay is unchanged, and remains at $0.46.</p>\n            ","response":0,"trial_type":"html-button-response","trial_index":18,"time_elapsed":317993,"internal_node_id":"0.0-4.0-1.3","subject_id":"60be696ba8e15aa210da2db1","study_id":"6197b3f67c2b5cd3b6d9596a","session_id":"6197b5f4f63842e5c1b28790","condition":"contingent","relevant_dimensions":["antennae","pattern"],"bee_group":{"antennae":"B","wings":"X","pattern":"S","legs":"X"},"bonus":0},{"rt":1949,"stimulus":"bees-with-color/bee-A2DM.svg","response":0,"trial_type":"image-button-response","trial_index":19,"time_elapsed":319944,"internal_node_id":"0.0-4.0-0.4","subject_id":"60be696ba8e15aa210da2db1","study_id":"6197b3f67c2b5cd3b6d9596a","session_id":"6197b5f4f63842e5c1b28790","condition":"contingent","relevant_dimensions":["antennae","pattern"],"bee_group":{"antennae":"B","wings":"X","pattern":"S","legs":"X"},"action":"harvest","summary":"good-harvest","bonus":0},{"rt":1845,"stimulus":"\n                    <p><b>Action: <em>harvest</em></b></p>\n                    <p>This is the bee that you just saw.</p>\n                    <img src=\"bees-with-color/bee-A2DM.svg\" width=\"200\">\n                    <p><span class=\"greenText\"><b>Successful harvest!</b></span><br>Your pay has increased by $0.02. Your bonus pay is now $0.48.</p>\n            ","response":0,"trial_type":"html-button-response","trial_index":20,"time_elapsed":321791,"internal_node_id":"0.0-4.0-1.4","subject_id":"60be696ba8e15aa210da2db1","study_id":"6197b3f67c2b5cd3b6d9596a","session_id":"6197b5f4f63842e5c1b28790","condition":"contingent","relevant_dimensions":["antennae","pattern"],"bee_group":{"antennae":"B","wings":"X","pattern":"S","legs":"X"},"bonus":0},{"rt":2394,"stimulus":"bees-with-color/bee-A1DM.svg","response":0,"trial_type":"image-button-response","trial_index":21,"time_elapsed":324188,"internal_node_id":"0.0-4.0-0.5","subject_id":"60be696ba8e15aa210da2db1","study_id":"6197b3f67c2b5cd3b6d9596a","session_id":"6197b5f4f63842e5c1b28790","condition":"contingent","relevant_dimensions":["antennae","pattern"],"bee_group":{"antennae":"B","wings":"X","pattern":"S","legs":"X"},"action":"harvest","summary":"good-harvest","bonus":0},{"rt":1136,"stimulus":"\n                    <p><b>Action: <em>harvest</em></b></p>\n                    <p>This is the bee that you just saw.</p>\n                    <img src=\"bees-with-color/bee-A1DM.svg\" width=\"200\">\n                    <p><span class=\"greenText\"><b>Successful harvest!</b></span><br>Your pay has increased by $0.02. Your bonus pay is now $0.50.</p>\n            ","response":0,"trial_type":"html-button-response","trial_index":22,"time_elapsed":325326,"internal_node_id":"0.0-4.0-1.5","subject_id":"60be696ba8e15aa210da2db1","study_id":"6197b3f67c2b5cd3b6d9596a","session_id":"6197b5f4f63842e5c1b28790","condition":"contingent","relevant_dimensions":["antennae","pattern"],"bee_group":{"antennae":"B","wings":"X","pattern":"S","legs":"X"},"bonus":0},{"rt":1572,"stimulus":"bees-with-color/bee-A1SF.svg","response":0,"trial_type":"image-button-response","trial_index":23,"time_elapsed":326900,"internal_node_id":"0.0-4.0-0.6","subject_id":"60be696ba8e15aa210da2db1","study_id":"6197b3f67c2b5cd3b6d9596a","session_id":"6197b5f4f63842e5c1b28790","condition":"contingent","relevant_dimensions":["antennae","pattern"],"bee_group":{"antennae":"B","wings":"X","pattern":"S","legs":"X"},"action":"harvest","summary":"good-harvest","bonus":0},{"rt":1162,"stimulus":"\n                    <p><b>Action: <em>harvest</em></b></p>\n                    <p>This is the bee that you just saw.</p>\n                    <img src=\"bees-with-color/bee-A1SF.svg\" width=\"200\">\n                    <p><span class=\"greenText\"><b>Successful harvest!</b></span><br>Your pay has increased by $0.02. Your bonus pay is now $0.52.</p>\n            ","response":0,"trial_type":"html-button-response","trial_index":24,"time_elapsed":328064,"internal_node_id":"0.0-4.0-1.6","subject_id":"60be696ba8e15aa210da2db1","study_id":"6197b3f67c2b5cd3b6d9596a","session_id":"6197b5f4f63842e5c1b28790","condition":"contingent","relevant_dimensions":["antennae","pattern"],"bee_group":{"antennae":"B","wings":"X","pattern":"S","legs":"X"},"bonus":0},{"rt":2096,"stimulus":"bees-with-color/bee-A1SM.svg","response":0,"trial_type":"image-button-response","trial_index":25,"time_elapsed":330165,"internal_node_id":"0.0-4.0-0.7","subject_id":"60be696ba8e15aa210da2db1","study_id":"6197b3f67c2b5cd3b6d9596a","session_id":"6197b5f4f63842e5c1b28790","condition":"contingent","relevant_dimensions":["antennae","pattern"],"bee_group":{"antennae":"B","wings":"X","pattern":"S","legs":"X"},"action":"harvest","summary":"good-harvest","bonus":0},{"rt":1072,"stimulus":"\n                    <p><b>Action: <em>harvest</em></b></p>\n                    <p>This is the bee that you just saw.</p>\n                    <img src=\"bees-with-color/bee-A1SM.svg\" width=\"200\">\n                    <p><span class=\"greenText\"><b>Successful harvest!</b></span><br>Your pay has increased by $0.02. Your bonus pay is now $0.54.</p>\n            ","response":0,"trial_type":"html-button-response","trial_index":26,"time_elapsed":331240,"internal_node_id":"0.0-4.0-1.7","subject_id":"60be696ba8e15aa210da2db1","study_id":"6197b3f67c2b5cd3b6d9596a","session_id":"6197b5f4f63842e5c1b28790","condition":"contingent","relevant_dimensions":["antennae","pattern"],"bee_group":{"antennae":"B","wings":"X","pattern":"S","legs":"X"},"bonus":0},{"rt":2929,"stimulus":"bees-with-color/bee-A2SM.svg","response":1,"trial_type":"image-button-response","trial_index":27,"time_elapsed":334172,"internal_node_id":"0.0-4.0-0.8","subject_id":"60be696ba8e15aa210da2db1","study_id":"6197b3f67c2b5cd3b6d9596a","session_id":"6197b5f4f63842e5c1b28790","condition":"contingent","relevant_dimensions":["antennae","pattern"],"bee_group":{"antennae":"B","wings":"X","pattern":"S","legs":"X"},"action":"avoid","summary":"bad-avoid","bonus":0},{"rt":1092,"stimulus":"\n                    <p><b>Action: <em>avoid</em></b></p>\n                    <p>This is the bee that you just saw.</p>\n                    <img src=\"bees-with-color/bee-A2SM.svg\" width=\"200\">\n                    <p><br>Your bonus pay is unchanged, and remains at $0.54.</p>\n            ","response":0,"trial_type":"html-button-response","trial_index":28,"time_elapsed":335265,"internal_node_id":"0.0-4.0-1.8","subject_id":"60be696ba8e15aa210da2db1","study_id":"6197b3f67c2b5cd3b6d9596a","session_id":"6197b5f4f63842e5c1b28790","condition":"contingent","relevant_dimensions":["antennae","pattern"],"bee_group":{"antennae":"B","wings":"X","pattern":"S","legs":"X"},"bonus":0},{"rt":1398,"stimulus":"bees-with-color/bee-B1DM.svg","response":0,"trial_type":"image-button-response","trial_index":29,"time_elapsed":336665,"internal_node_id":"0.0-4.0-0.9","subject_id":"60be696ba8e15aa210da2db1","study_id":"6197b3f67c2b5cd3b6d9596a","session_id":"6197b5f4f63842e5c1b28790","condition":"contingent","relevant_dimensions":["antennae","pattern"],"bee_group":{"antennae":"B","wings":"X","pattern":"S","legs":"X"},"action":"harvest","summary":"good-harvest","bonus":0},{"rt":1207,"stimulus":"\n                    <p><b>Action: <em>harvest</em></b></p>\n                    <p>This is the bee that you just saw.</p>\n                    <img src=\"bees-with-color/bee-B1DM.svg\" width=\"200\">\n                    <p><span class=\"greenText\"><b>Successful harvest!</b></span><br>Your pay has increased by $0.02. Your bonus pay is now $0.56.</p>\n            ","response":0,"trial_type":"html-button-response","trial_index":30,"time_elapsed":337873,"internal_node_id":"0.0-4.0-1.9","subject_id":"60be696ba8e15aa210da2db1","study_id":"6197b3f67c2b5cd3b6d9596a","session_id":"6197b5f4f63842e5c1b28790","condition":"contingent","relevant_dimensions":["antennae","pattern"],"bee_group":{"antennae":"B","wings":"X","pattern":"S","legs":"X"},"bonus":0},{"rt":986,"stimulus":"bees-with-color/bee-B1SF.svg","response":0,"trial_type":"image-button-response","trial_index":31,"time_elapsed":338862,"internal_node_id":"0.0-4.0-0.10","subject_id":"60be696ba8e15aa210da2db1","study_id":"6197b3f67c2b5cd3b6d9596a","session_id":"6197b5f4f63842e5c1b28790","condition":"contingent","relevant_dimensions":["antennae","pattern"],"bee_group":{"antennae":"B","wings":"X","pattern":"S","legs":"X"},"action":"harvest","summary":"bad-harvest","bonus":0},{"rt":4924,"stimulus":"\n                    <p><b>Action: <em>harvest</em></b></p>\n                    <p>This is the bee that you just saw.</p>\n                    <img src=\"bees-with-color/bee-B1SF.svg\" width=\"200\">\n                    <p><span class=\"redText\">Bad choice, the bee was angry.</span><br><b>You have been stung!</b><br>Your pay has been decreased by $0.10. Your bonus pay is now $0.46.</p>\n            ","response":0,"trial_type":"html-button-response","trial_index":32,"time_elapsed":343788,"internal_node_id":"0.0-4.0-1.10","subject_id":"60be696ba8e15aa210da2db1","study_id":"6197b3f67c2b5cd3b6d9596a","session_id":"6197b5f4f63842e5c1b28790","condition":"contingent","relevant_dimensions":["antennae","pattern"],"bee_group":{"antennae":"B","wings":"X","pattern":"S","legs":"X"},"bonus":0},{"rt":1293,"stimulus":"bees-with-color/bee-B1SM.svg","response":0,"trial_type":"image-button-response","trial_index":33,"time_elapsed":345084,"internal_node_id":"0.0-4.0-0.11","subject_id":"60be696ba8e15aa210da2db1","study_id":"6197b3f67c2b5cd3b6d9596a","session_id":"6197b5f4f63842e5c1b28790","condition":"contingent","relevant_dimensions":["antennae","pattern"],"bee_group":{"antennae":"B","wings":"X","pattern":"S","legs":"X"},"action":"harvest","summary":"bad-harvest","bonus":0},{"rt":1564,"stimulus":"\n                    <p><b>Action: <em>harvest</em></b></p>\n                    <p>This is the bee that you just saw.</p>\n                    <img src=\"bees-with-color/bee-B1SM.svg\" width=\"200\">\n                    <p><span class=\"redText\">Bad choice, the bee was angry.</span><br><b>You have been stung!</b><br>Your pay has been decreased by $0.10. Your bonus pay is now $0.36.</p>\n            ","response":0,"trial_type":"html-button-response","trial_index":34,"time_elapsed":346649,"internal_node_id":"0.0-4.0-1.11","subject_id":"60be696ba8e15aa210da2db1","study_id":"6197b3f67c2b5cd3b6d9596a","session_id":"6197b5f4f63842e5c1b28790","condition":"contingent","relevant_dimensions":["antennae","pattern"],"bee_group":{"antennae":"B","wings":"X","pattern":"S","legs":"X"},"bonus":0},{"rt":2737,"stimulus":"bees-with-color/bee-A2DF.svg","response":0,"trial_type":"image-button-response","trial_index":35,"time_elapsed":349388,"internal_node_id":"0.0-4.0-0.12","subject_id":"60be696ba8e15aa210da2db1","study_id":"6197b3f67c2b5cd3b6d9596a","session_id":"6197b5f4f63842e5c1b28790","condition":"contingent","relevant_dimensions":["antennae","pattern"],"bee_group":{"antennae":"B","wings":"X","pattern":"S","legs":"X"},"action":"harvest","summary":"good-harvest","bonus":0},{"rt":821,"stimulus":"\n                    <p><b>Action: <em>harvest</em></b></p>\n                    <p>This is the bee that you just saw.</p>\n                    <img src=\"bees-with-color/bee-A2DF.svg\" width=\"200\">\n                    <p><span class=\"greenText\"><b>Successful harvest!</b></span><br>Your pay has increased by $0.02. Your bonus pay is now $0.38.</p>\n            ","response":0,"trial_type":"html-button-response","trial_index":36,"time_elapsed":350211,"internal_node_id":"0.0-4.0-1.12","subject_id":"60be696ba8e15aa210da2db1","study_id":"6197b3f67c2b5cd3b6d9596a","session_id":"6197b5f4f63842e5c1b28790","condition":"contingent","relevant_dimensions":["antennae","pattern"],"bee_group":{"antennae":"B","wings":"X","pattern":"S","legs":"X"},"bonus":0},{"rt":1152,"stimulus":"bees-with-color/bee-A1DF.svg","response":0,"trial_type":"image-button-response","trial_index":37,"time_elapsed":351366,"internal_node_id":"0.0-4.0-0.13","subject_id":"60be696ba8e15aa210da2db1","study_id":"6197b3f67c2b5cd3b6d9596a","session_id":"6197b5f4f63842e5c1b28790","condition":"contingent","relevant_dimensions":["antennae","pattern"],"bee_group":{"antennae":"B","wings":"X","pattern":"S","legs":"X"},"action":"harvest","summary":"good-harvest","bonus":0},{"rt":689,"stimulus":"\n                    <p><b>Action: <em>harvest</em></b></p>\n                    <p>This is the bee that you just saw.</p>\n                    <img src=\"bees-with-color/bee-A1DF.svg\" width=\"200\">\n                    <p><span class=\"greenText\"><b>Successful harvest!</b></span><br>Your pay has increased by $0.02. Your bonus pay is now $0.40.</p>\n            ","response":0,"trial_type":"html-button-response","trial_index":38,"time_elapsed":352056,"internal_node_id":"0.0-4.0-1.13","subject_id":"60be696ba8e15aa210da2db1","study_id":"6197b3f67c2b5cd3b6d9596a","session_id":"6197b5f4f63842e5c1b28790","condition":"contingent","relevant_dimensions":["antennae","pattern"],"bee_group":{"antennae":"B","wings":"X","pattern":"S","legs":"X"},"bonus":0},{"rt":882,"stimulus":"bees-with-color/bee-B2DM.svg","response":0,"trial_type":"image-button-response","trial_index":39,"time_elapsed":352940,"internal_node_id":"0.0-4.0-0.14","subject_id":"60be696ba8e15aa210da2db1","study_id":"6197b3f67c2b5cd3b6d9596a","session_id":"6197b5f4f63842e5c1b28790","condition":"contingent","relevant_dimensions":["antennae","pattern"],"bee_group":{"antennae":"B","wings":"X","pattern":"S","legs":"X"},"action":"harvest","summary":"good-harvest","bonus":0},{"rt":690,"stimulus":"\n                    <p><b>Action: <em>harvest</em></b></p>\n                    <p>This is the bee that you just saw.</p>\n                    <img src=\"bees-with-color/bee-B2DM.svg\" width=\"200\">\n                    <p><span class=\"greenText\"><b>Successful harvest!</b></span><br>Your pay has increased by $0.02. Your bonus pay is now $0.42.</p>\n            ","response":0,"trial_type":"html-button-response","trial_index":40,"time_elapsed":353632,"internal_node_id":"0.0-4.0-1.14","subject_id":"60be696ba8e15aa210da2db1","study_id":"6197b3f67c2b5cd3b6d9596a","session_id":"6197b5f4f63842e5c1b28790","condition":"contingent","relevant_dimensions":["antennae","pattern"],"bee_group":{"antennae":"B","wings":"X","pattern":"S","legs":"X"},"bonus":0},{"rt":979,"stimulus":"bees-with-color/bee-B1DF.svg","response":1,"trial_type":"image-button-response","trial_index":41,"time_elapsed":354612,"internal_node_id":"0.0-4.0-0.15","subject_id":"60be696ba8e15aa210da2db1","study_id":"6197b3f67c2b5cd3b6d9596a","session_id":"6197b5f4f63842e5c1b28790","condition":"contingent","relevant_dimensions":["antennae","pattern"],"bee_group":{"antennae":"B","wings":"X","pattern":"S","legs":"X"},"action":"avoid","summary":"bad-avoid","bonus":0},{"rt":621,"stimulus":"\n                    <p><b>Action: <em>avoid</em></b></p>\n                    <p>This is the bee that you just saw.</p>\n                    <img src=\"bees-with-color/bee-B1DF.svg\" width=\"200\">\n                    <p><br>Your bonus pay is unchanged, and remains at $0.42.</p>\n            ","response":0,"trial_type":"html-button-response","trial_index":42,"time_elapsed":355233,"internal_node_id":"0.0-4.0-1.15","subject_id":"60be696ba8e15aa210da2db1","study_id":"6197b3f67c2b5cd3b6d9596a","session_id":"6197b5f4f63842e5c1b28790","condition":"contingent","relevant_dimensions":["antennae","pattern"],"bee_group":{"antennae":"B","wings":"X","pattern":"S","legs":"X"},"bonus":0},{"rt":1083,"stimulus":"bees-with-color/bee-B2SF.svg","response":0,"trial_type":"image-button-response","trial_index":43,"time_elapsed":356317,"internal_node_id":"0.0-4.0-0.16","subject_id":"60be696ba8e15aa210da2db1","study_id":"6197b3f67c2b5cd3b6d9596a","session_id":"6197b5f4f63842e5c1b28790","condition":"contingent","relevant_dimensions":["antennae","pattern"],"bee_group":{"antennae":"B","wings":"X","pattern":"S","legs":"X"},"action":"harvest","summary":"bad-harvest","bonus":0},{"rt":1171,"stimulus":"\n                    <p><b>Action: <em>harvest</em></b></p>\n                    <p>This is the bee that you just saw.</p>\n                    <img src=\"bees-with-color/bee-B2SF.svg\" width=\"200\">\n                    <p><span class=\"redText\">Bad choice, the bee was angry.</span><br><b>You have been stung!</b><br>Your pay has been decreased by $0.10. Your bonus pay is now $0.32.</p>\n            ","response":0,"trial_type":"html-button-response","trial_index":44,"time_elapsed":357490,"internal_node_id":"0.0-4.0-1.16","subject_id":"60be696ba8e15aa210da2db1","study_id":"6197b3f67c2b5cd3b6d9596a","session_id":"6197b5f4f63842e5c1b28790","condition":"contingent","relevant_dimensions":["antennae","pattern"],"bee_group":{"antennae":"B","wings":"X","pattern":"S","legs":"X"},"bonus":0},{"rt":1127,"stimulus":"bees-with-color/bee-B1DM.svg","response":0,"trial_type":"image-button-response","trial_index":45,"time_elapsed":358620,"internal_node_id":"0.0-4.0-0.17","subject_id":"60be696ba8e15aa210da2db1","study_id":"6197b3f67c2b5cd3b6d9596a","session_id":"6197b5f4f63842e5c1b28790","condition":"contingent","relevant_dimensions":["antennae","pattern"],"bee_group":{"antennae":"B","wings":"X","pattern":"S","legs":"X"},"action":"harvest","summary":"good-harvest","bonus":0},{"rt":620,"stimulus":"\n                    <p><b>Action: <em>harvest</em></b></p>\n                    <p>This is the bee that you just saw.</p>\n                    <img src=\"bees-with-color/bee-B1DM.svg\" width=\"200\">\n                    <p><span class=\"greenText\"><b>Successful harvest!</b></span><br>Your pay has increased by $0.02. Your bonus pay is now $0.34.</p>\n            ","response":0,"trial_type":"html-button-response","trial_index":46,"time_elapsed":359241,"internal_node_id":"0.0-4.0-1.17","subject_id":"60be696ba8e15aa210da2db1","study_id":"6197b3f67c2b5cd3b6d9596a","session_id":"6197b5f4f63842e5c1b28790","condition":"contingent","relevant_dimensions":["antennae","pattern"],"bee_group":{"antennae":"B","wings":"X","pattern":"S","legs":"X"},"bonus":0},{"rt":942,"stimulus":"bees-with-color/bee-A1SF.svg","response":1,"trial_type":"image-button-response","trial_index":47,"time_elapsed":360186,"internal_node_id":"0.0-4.0-0.18","subject_id":"60be696ba8e15aa210da2db1","study_id":"6197b3f67c2b5cd3b6d9596a","session_id":"6197b5f4f63842e5c1b28790","condition":"contingent","relevant_dimensions":["antennae","pattern"],"bee_group":{"antennae":"B","wings":"X","pattern":"S","legs":"X"},"action":"avoid","summary":"bad-avoid","bonus":0},{"rt":637,"stimulus":"\n                    <p><b>Action: <em>avoid</em></b></p>\n                    <p>This is the bee that you just saw.</p>\n                    <img src=\"bees-with-color/bee-A1SF.svg\" width=\"200\">\n                    <p><br>Your bonus pay is unchanged, and remains at $0.34.</p>\n            ","response":0,"trial_type":"html-button-response","trial_index":48,"time_elapsed":360824,"internal_node_id":"0.0-4.0-1.18","subject_id":"60be696ba8e15aa210da2db1","study_id":"6197b3f67c2b5cd3b6d9596a","session_id":"6197b5f4f63842e5c1b28790","condition":"contingent","relevant_dimensions":["antennae","pattern"],"bee_group":{"antennae":"B","wings":"X","pattern":"S","legs":"X"},"bonus":0},{"rt":1180,"stimulus":"bees-with-color/bee-B1DF.svg","response":0,"trial_type":"image-button-response","trial_index":49,"time_elapsed":362006,"internal_node_id":"0.0-4.0-0.19","subject_id":"60be696ba8e15aa210da2db1","study_id":"6197b3f67c2b5cd3b6d9596a","session_id":"6197b5f4f63842e5c1b28790","condition":"contingent","relevant_dimensions":["antennae","pattern"],"bee_group":{"antennae":"B","wings":"X","pattern":"S","legs":"X"},"action":"harvest","summary":"good-harvest","bonus":0},{"rt":655,"stimulus":"\n                    <p><b>Action: <em>harvest</em></b></p>\n                    <p>This is the bee that you just saw.</p>\n                    <img src=\"bees-with-color/bee-B1DF.svg\" width=\"200\">\n                    <p><span class=\"greenText\"><b>Successful harvest!</b></span><br>Your pay has increased by $0.02. Your bonus pay is now $0.36.</p>\n            ","response":0,"trial_type":"html-button-response","trial_index":50,"time_elapsed":362662,"internal_node_id":"0.0-4.0-1.19","subject_id":"60be696ba8e15aa210da2db1","study_id":"6197b3f67c2b5cd3b6d9596a","session_id":"6197b5f4f63842e5c1b28790","condition":"contingent","relevant_dimensions":["antennae","pattern"],"bee_group":{"antennae":"B","wings":"X","pattern":"S","legs":"X"},"bonus":0},{"rt":855,"stimulus":"bees-with-color/bee-A2DF.svg","response":1,"trial_type":"image-button-response","trial_index":51,"time_elapsed":363519,"internal_node_id":"0.0-4.0-0.20","subject_id":"60be696ba8e15aa210da2db1","study_id":"6197b3f67c2b5cd3b6d9596a","session_id":"6197b5f4f63842e5c1b28790","condition":"contingent","relevant_dimensions":["antennae","pattern"],"bee_group":{"antennae":"B","wings":"X","pattern":"S","legs":"X"},"action":"avoid","summary":"bad-avoid","bonus":0},{"rt":619,"stimulus":"\n                    <p><b>Action: <em>avoid</em></b></p>\n                    <p>This is the bee that you just saw.</p>\n                    <img src=\"bees-with-color/bee-A2DF.svg\" width=\"200\">\n                    <p><br>Your bonus pay is unchanged, and remains at $0.36.</p>\n            ","response":0,"trial_type":"html-button-response","trial_index":52,"time_elapsed":364141,"internal_node_id":"0.0-4.0-1.20","subject_id":"60be696ba8e15aa210da2db1","study_id":"6197b3f67c2b5cd3b6d9596a","session_id":"6197b5f4f63842e5c1b28790","condition":"contingent","relevant_dimensions":["antennae","pattern"],"bee_group":{"antennae":"B","wings":"X","pattern":"S","legs":"X"},"bonus":0},{"rt":2931,"stimulus":"bees-with-color/bee-A1DF.svg","response":0,"trial_type":"image-button-response","trial_index":53,"time_elapsed":367073,"internal_node_id":"0.0-4.0-0.21","subject_id":"60be696ba8e15aa210da2db1","study_id":"6197b3f67c2b5cd3b6d9596a","session_id":"6197b5f4f63842e5c1b28790","condition":"contingent","relevant_dimensions":["antennae","pattern"],"bee_group":{"antennae":"B","wings":"X","pattern":"S","legs":"X"},"action":"harvest","summary":"good-harvest","bonus":0},{"rt":575,"stimulus":"\n                    <p><b>Action: <em>harvest</em></b></p>\n                    <p>This is the bee that you just saw.</p>\n                    <img src=\"bees-with-color/bee-A1DF.svg\" width=\"200\">\n                    <p><span class=\"greenText\"><b>Successful harvest!</b></span><br>Your pay has increased by $0.02. Your bonus pay is now $0.38.</p>\n            ","response":0,"trial_type":"html-button-response","trial_index":54,"time_elapsed":367649,"internal_node_id":"0.0-4.0-1.21","subject_id":"60be696ba8e15aa210da2db1","study_id":"6197b3f67c2b5cd3b6d9596a","session_id":"6197b5f4f63842e5c1b28790","condition":"contingent","relevant_dimensions":["antennae","pattern"],"bee_group":{"antennae":"B","wings":"X","pattern":"S","legs":"X"},"bonus":0},{"rt":1381,"stimulus":"bees-with-color/bee-B1SM.svg","response":1,"trial_type":"image-button-response","trial_index":55,"time_elapsed":369031,"internal_node_id":"0.0-4.0-0.22","subject_id":"60be696ba8e15aa210da2db1","study_id":"6197b3f67c2b5cd3b6d9596a","session_id":"6197b5f4f63842e5c1b28790","condition":"contingent","relevant_dimensions":["antennae","pattern"],"bee_group":{"antennae":"B","wings":"X","pattern":"S","legs":"X"},"action":"avoid","summary":"good-avoid","bonus":0},{"rt":1022,"stimulus":"\n                    <p><b>Action: <em>avoid</em></b></p>\n                    <p>This is the bee that you just saw.</p>\n                    <img src=\"bees-with-color/bee-B1SM.svg\" width=\"200\">\n                    <p><br>Your bonus pay is unchanged, and remains at $0.38.</p>\n            ","response":0,"trial_type":"html-button-response","trial_index":56,"time_elapsed":370055,"internal_node_id":"0.0-4.0-1.22","subject_id":"60be696ba8e15aa210da2db1","study_id":"6197b3f67c2b5cd3b6d9596a","session_id":"6197b5f4f63842e5c1b28790","condition":"contingent","relevant_dimensions":["antennae","pattern"],"bee_group":{"antennae":"B","wings":"X","pattern":"S","legs":"X"},"bonus":0},{"rt":926,"stimulus":"bees-with-color/bee-A1SM.svg","response":0,"trial_type":"image-button-response","trial_index":57,"time_elapsed":370983,"internal_node_id":"0.0-4.0-0.23","subject_id":"60be696ba8e15aa210da2db1","study_id":"6197b3f67c2b5cd3b6d9596a","session_id":"6197b5f4f63842e5c1b28790","condition":"contingent","relevant_dimensions":["antennae","pattern"],"bee_group":{"antennae":"B","wings":"X","pattern":"S","legs":"X"},"action":"harvest","summary":"good-harvest","bonus":0},{"rt":688,"stimulus":"\n                    <p><b>Action: <em>harvest</em></b></p>\n                    <p>This is the bee that you just saw.</p>\n                    <img src=\"bees-with-color/bee-A1SM.svg\" width=\"200\">\n                    <p><span class=\"greenText\"><b>Successful harvest!</b></span><br>Your pay has increased by $0.02. Your bonus pay is now $0.40.</p>\n            ","response":0,"trial_type":"html-button-response","trial_index":58,"time_elapsed":371674,"internal_node_id":"0.0-4.0-1.23","subject_id":"60be696ba8e15aa210da2db1","study_id":"6197b3f67c2b5cd3b6d9596a","session_id":"6197b5f4f63842e5c1b28790","condition":"contingent","relevant_dimensions":["antennae","pattern"],"bee_group":{"antennae":"B","wings":"X","pattern":"S","legs":"X"},"bonus":0},{"rt":1058,"stimulus":"bees-with-color/bee-A2DM.svg","response":1,"trial_type":"image-button-response","trial_index":59,"time_elapsed":372733,"internal_node_id":"0.0-4.0-0.24","subject_id":"60be696ba8e15aa210da2db1","study_id":"6197b3f67c2b5cd3b6d9596a","session_id":"6197b5f4f63842e5c1b28790","condition":"contingent","relevant_dimensions":["antennae","pattern"],"bee_group":{"antennae":"B","wings":"X","pattern":"S","legs":"X"},"action":"avoid","summary":"bad-avoid","bonus":0},{"rt":584,"stimulus":"\n                    <p><b>Action: <em>avoid</em></b></p>\n                    <p>This is the bee that you just saw.</p>\n                    <img src=\"bees-with-color/bee-A2DM.svg\" width=\"200\">\n                    <p><br>Your bonus pay is unchanged, and remains at $0.40.</p>\n            ","response":0,"trial_type":"html-button-response","trial_index":60,"time_elapsed":373319,"internal_node_id":"0.0-4.0-1.24","subject_id":"60be696ba8e15aa210da2db1","study_id":"6197b3f67c2b5cd3b6d9596a","session_id":"6197b5f4f63842e5c1b28790","condition":"contingent","relevant_dimensions":["antennae","pattern"],"bee_group":{"antennae":"B","wings":"X","pattern":"S","legs":"X"},"bonus":0},{"rt":1398,"stimulus":"bees-with-color/bee-A1DM.svg","response":1,"trial_type":"image-button-response","trial_index":61,"time_elapsed":374719,"internal_node_id":"0.0-4.0-0.25","subject_id":"60be696ba8e15aa210da2db1","study_id":"6197b3f67c2b5cd3b6d9596a","session_id":"6197b5f4f63842e5c1b28790","condition":"contingent","relevant_dimensions":["antennae","pattern"],"bee_group":{"antennae":"B","wings":"X","pattern":"S","legs":"X"},"action":"avoid","summary":"bad-avoid","bonus":0},{"rt":532,"stimulus":"\n                    <p><b>Action: <em>avoid</em></b></p>\n                    <p>This is the bee that you just saw.</p>\n                    <img src=\"bees-with-color/bee-A1DM.svg\" width=\"200\">\n                    <p><br>Your bonus pay is unchanged, and remains at $0.40.</p>\n            ","response":0,"trial_type":"html-button-response","trial_index":62,"time_elapsed":375253,"internal_node_id":"0.0-4.0-1.25","subject_id":"60be696ba8e15aa210da2db1","study_id":"6197b3f67c2b5cd3b6d9596a","session_id":"6197b5f4f63842e5c1b28790","condition":"contingent","relevant_dimensions":["antennae","pattern"],"bee_group":{"antennae":"B","wings":"X","pattern":"S","legs":"X"},"bonus":0},{"rt":1328,"stimulus":"bees-with-color/bee-B2SM.svg","response":0,"trial_type":"image-button-response","trial_index":63,"time_elapsed":376583,"internal_node_id":"0.0-4.0-0.26","subject_id":"60be696ba8e15aa210da2db1","study_id":"6197b3f67c2b5cd3b6d9596a","session_id":"6197b5f4f63842e5c1b28790","condition":"contingent","relevant_dimensions":["antennae","pattern"],"bee_group":{"antennae":"B","wings":"X","pattern":"S","legs":"X"},"action":"harvest","summary":"bad-harvest","bonus":0},{"rt":2044,"stimulus":"\n                    <p><b>Action: <em>harvest</em></b></p>\n                    <p>This is the bee that you just saw.</p>\n                    <img src=\"bees-with-color/bee-B2SM.svg\" width=\"200\">\n                    <p><span class=\"redText\">Bad choice, the bee was angry.</span><br><b>You have been stung!</b><br>Your pay has been decreased by $0.10. Your bonus pay is now $0.30.</p>\n            ","response":0,"trial_type":"html-button-response","trial_index":64,"time_elapsed":378631,"internal_node_id":"0.0-4.0-1.26","subject_id":"60be696ba8e15aa210da2db1","study_id":"6197b3f67c2b5cd3b6d9596a","session_id":"6197b5f4f63842e5c1b28790","condition":"contingent","relevant_dimensions":["antennae","pattern"],"bee_group":{"antennae":"B","wings":"X","pattern":"S","legs":"X"},"bonus":0},{"rt":1269,"stimulus":"bees-with-color/bee-A2SF.svg","response":0,"trial_type":"image-button-response","trial_index":65,"time_elapsed":379899,"internal_node_id":"0.0-4.0-0.27","subject_id":"60be696ba8e15aa210da2db1","study_id":"6197b3f67c2b5cd3b6d9596a","session_id":"6197b5f4f63842e5c1b28790","condition":"contingent","relevant_dimensions":["antennae","pattern"],"bee_group":{"antennae":"B","wings":"X","pattern":"S","legs":"X"},"action":"harvest","summary":"good-harvest","bonus":0},{"rt":619,"stimulus":"\n                    <p><b>Action: <em>harvest</em></b></p>\n                    <p>This is the bee that you just saw.</p>\n                    <img src=\"bees-with-color/bee-A2SF.svg\" width=\"200\">\n                    <p><span class=\"greenText\"><b>Successful harvest!</b></span><br>Your pay has increased by $0.02. Your bonus pay is now $0.32.</p>\n            ","response":0,"trial_type":"html-button-response","trial_index":66,"time_elapsed":380520,"internal_node_id":"0.0-4.0-1.27","subject_id":"60be696ba8e15aa210da2db1","study_id":"6197b3f67c2b5cd3b6d9596a","session_id":"6197b5f4f63842e5c1b28790","condition":"contingent","relevant_dimensions":["antennae","pattern"],"bee_group":{"antennae":"B","wings":"X","pattern":"S","legs":"X"},"bonus":0},{"rt":1171,"stimulus":"bees-with-color/bee-B1SF.svg","response":1,"trial_type":"image-button-response","trial_index":67,"time_elapsed":381693,"internal_node_id":"0.0-4.0-0.28","subject_id":"60be696ba8e15aa210da2db1","study_id":"6197b3f67c2b5cd3b6d9596a","session_id":"6197b5f4f63842e5c1b28790","condition":"contingent","relevant_dimensions":["antennae","pattern"],"bee_group":{"antennae":"B","wings":"X","pattern":"S","legs":"X"},"action":"avoid","summary":"good-avoid","bonus":0},{"rt":978,"stimulus":"\n                    <p><b>Action: <em>avoid</em></b></p>\n                    <p>This is the bee that you just saw.</p>\n                    <img src=\"bees-with-color/bee-B1SF.svg\" width=\"200\">\n                    <p><br>Your bonus pay is unchanged, and remains at $0.32.</p>\n            ","response":0,"trial_type":"html-button-response","trial_index":68,"time_elapsed":382673,"internal_node_id":"0.0-4.0-1.28","subject_id":"60be696ba8e15aa210da2db1","study_id":"6197b3f67c2b5cd3b6d9596a","session_id":"6197b5f4f63842e5c1b28790","condition":"contingent","relevant_dimensions":["antennae","pattern"],"bee_group":{"antennae":"B","wings":"X","pattern":"S","legs":"X"},"bonus":0},{"rt":1529,"stimulus":"bees-with-color/bee-A2SM.svg","response":1,"trial_type":"image-button-response","trial_index":69,"time_elapsed":384204,"internal_node_id":"0.0-4.0-0.29","subject_id":"60be696ba8e15aa210da2db1","study_id":"6197b3f67c2b5cd3b6d9596a","session_id":"6197b5f4f63842e5c1b28790","condition":"contingent","relevant_dimensions":["antennae","pattern"],"bee_group":{"antennae":"B","wings":"X","pattern":"S","legs":"X"},"action":"avoid","summary":"bad-avoid","bonus":0},{"rt":506,"stimulus":"\n                    <p><b>Action: <em>avoid</em></b></p>\n                    <p>This is the bee that you just saw.</p>\n                    <img src=\"bees-with-color/bee-A2SM.svg\" width=\"200\">\n                    <p><br>Your bonus pay is unchanged, and remains at $0.32.</p>\n            ","response":0,"trial_type":"html-button-response","trial_index":70,"time_elapsed":384712,"internal_node_id":"0.0-4.0-1.29","subject_id":"60be696ba8e15aa210da2db1","study_id":"6197b3f67c2b5cd3b6d9596a","session_id":"6197b5f4f63842e5c1b28790","condition":"contingent","relevant_dimensions":["antennae","pattern"],"bee_group":{"antennae":"B","wings":"X","pattern":"S","legs":"X"},"bonus":0},{"rt":969,"stimulus":"bees-with-color/bee-B2DF.svg","response":0,"trial_type":"image-button-response","trial_index":71,"time_elapsed":385683,"internal_node_id":"0.0-4.0-0.30","subject_id":"60be696ba8e15aa210da2db1","study_id":"6197b3f67c2b5cd3b6d9596a","session_id":"6197b5f4f63842e5c1b28790","condition":"contingent","relevant_dimensions":["antennae","pattern"],"bee_group":{"antennae":"B","wings":"X","pattern":"S","legs":"X"},"action":"harvest","summary":"good-harvest","bonus":0},{"rt":627,"stimulus":"\n                    <p><b>Action: <em>harvest</em></b></p>\n                    <p>This is the bee that you just saw.</p>\n                    <img src=\"bees-with-color/bee-B2DF.svg\" width=\"200\">\n                    <p><span class=\"greenText\"><b>Successful harvest!</b></span><br>Your pay has increased by $0.02. Your bonus pay is now $0.34.</p>\n            ","response":0,"trial_type":"html-button-response","trial_index":72,"time_elapsed":386313,"internal_node_id":"0.0-4.0-1.30","subject_id":"60be696ba8e15aa210da2db1","study_id":"6197b3f67c2b5cd3b6d9596a","session_id":"6197b5f4f63842e5c1b28790","condition":"contingent","relevant_dimensions":["antennae","pattern"],"bee_group":{"antennae":"B","wings":"X","pattern":"S","legs":"X"},"bonus":0},{"rt":959,"stimulus":"bees-with-color/bee-B2DM.svg","response":0,"trial_type":"image-button-response","trial_index":73,"time_elapsed":387276,"internal_node_id":"0.0-4.0-0.31","subject_id":"60be696ba8e15aa210da2db1","study_id":"6197b3f67c2b5cd3b6d9596a","session_id":"6197b5f4f63842e5c1b28790","condition":"contingent","relevant_dimensions":["antennae","pattern"],"bee_group":{"antennae":"B","wings":"X","pattern":"S","legs":"X"},"action":"harvest","summary":"good-harvest","bonus":0},{"rt":1034,"stimulus":"\n                    <p><b>Action: <em>harvest</em></b></p>\n                    <p>This is the bee that you just saw.</p>\n                    <img src=\"bees-with-color/bee-B2DM.svg\" width=\"200\">\n                    <p><span class=\"greenText\"><b>Successful harvest!</b></span><br>Your pay has increased by $0.02. Your bonus pay is now $0.36.</p>\n            ","response":0,"trial_type":"html-button-response","trial_index":74,"time_elapsed":388311,"internal_node_id":"0.0-4.0-1.31","subject_id":"60be696ba8e15aa210da2db1","study_id":"6197b3f67c2b5cd3b6d9596a","session_id":"6197b5f4f63842e5c1b28790","condition":"contingent","relevant_dimensions":["antennae","pattern"],"bee_group":{"antennae":"B","wings":"X","pattern":"S","legs":"X"},"bonus":0},{"rt":904,"stimulus":"bees-with-color/bee-A1DF.svg","response":1,"trial_type":"image-button-response","trial_index":75,"time_elapsed":389218,"internal_node_id":"0.0-4.0-0.32","subject_id":"60be696ba8e15aa210da2db1","study_id":"6197b3f67c2b5cd3b6d9596a","session_id":"6197b5f4f63842e5c1b28790","condition":"contingent","relevant_dimensions":["antennae","pattern"],"bee_group":{"antennae":"B","wings":"X","pattern":"S","legs":"X"},"action":"avoid","summary":"bad-avoid","bonus":0},{"rt":854,"stimulus":"\n                    <p><b>Action: <em>avoid</em></b></p>\n                    <p>This is the bee that you just saw.</p>\n                    <img src=\"bees-with-color/bee-A1DF.svg\" width=\"200\">\n                    <p><br>Your bonus pay is unchanged, and remains at $0.36.</p>\n            ","response":0,"trial_type":"html-button-response","trial_index":76,"time_elapsed":390076,"internal_node_id":"0.0-4.0-1.32","subject_id":"60be696ba8e15aa210da2db1","study_id":"6197b3f67c2b5cd3b6d9596a","session_id":"6197b5f4f63842e5c1b28790","condition":"contingent","relevant_dimensions":["antennae","pattern"],"bee_group":{"antennae":"B","wings":"X","pattern":"S","legs":"X"},"bonus":0},{"rt":1048,"stimulus":"bees-with-color/bee-A2SM.svg","response":1,"trial_type":"image-button-response","trial_index":77,"time_elapsed":391126,"internal_node_id":"0.0-4.0-0.33","subject_id":"60be696ba8e15aa210da2db1","study_id":"6197b3f67c2b5cd3b6d9596a","session_id":"6197b5f4f63842e5c1b28790","condition":"contingent","relevant_dimensions":["antennae","pattern"],"bee_group":{"antennae":"B","wings":"X","pattern":"S","legs":"X"},"action":"avoid","summary":"bad-avoid","bonus":0},{"rt":514,"stimulus":"\n                    <p><b>Action: <em>avoid</em></b></p>\n                    <p>This is the bee that you just saw.</p>\n                    <img src=\"bees-with-color/bee-A2SM.svg\" width=\"200\">\n                    <p><br>Your bonus pay is unchanged, and remains at $0.36.</p>\n            ","response":0,"trial_type":"html-button-response","trial_index":78,"time_elapsed":391641,"internal_node_id":"0.0-4.0-1.33","subject_id":"60be696ba8e15aa210da2db1","study_id":"6197b3f67c2b5cd3b6d9596a","session_id":"6197b5f4f63842e5c1b28790","condition":"contingent","relevant_dimensions":["antennae","pattern"],"bee_group":{"antennae":"B","wings":"X","pattern":"S","legs":"X"},"bonus":0},{"rt":2588,"stimulus":"bees-with-color/bee-A1DM.svg","response":0,"trial_type":"image-button-response","trial_index":79,"time_elapsed":394231,"internal_node_id":"0.0-4.0-0.34","subject_id":"60be696ba8e15aa210da2db1","study_id":"6197b3f67c2b5cd3b6d9596a","session_id":"6197b5f4f63842e5c1b28790","condition":"contingent","relevant_dimensions":["antennae","pattern"],"bee_group":{"antennae":"B","wings":"X","pattern":"S","legs":"X"},"action":"harvest","summary":"good-harvest","bonus":0},{"rt":734,"stimulus":"\n                    <p><b>Action: <em>harvest</em></b></p>\n                    <p>This is the bee that you just saw.</p>\n                    <img src=\"bees-with-color/bee-A1DM.svg\" width=\"200\">\n                    <p><span class=\"greenText\"><b>Successful harvest!</b></span><br>Your pay has increased by $0.02. Your bonus pay is now $0.38.</p>\n            ","response":0,"trial_type":"html-button-response","trial_index":80,"time_elapsed":394967,"internal_node_id":"0.0-4.0-1.34","subject_id":"60be696ba8e15aa210da2db1","study_id":"6197b3f67c2b5cd3b6d9596a","session_id":"6197b5f4f63842e5c1b28790","condition":"contingent","relevant_dimensions":["antennae","pattern"],"bee_group":{"antennae":"B","wings":"X","pattern":"S","legs":"X"},"bonus":0},{"rt":1284,"stimulus":"bees-with-color/bee-B2SF.svg","response":0,"trial_type":"image-button-response","trial_index":81,"time_elapsed":396253,"internal_node_id":"0.0-4.0-0.35","subject_id":"60be696ba8e15aa210da2db1","study_id":"6197b3f67c2b5cd3b6d9596a","session_id":"6197b5f4f63842e5c1b28790","condition":"contingent","relevant_dimensions":["antennae","pattern"],"bee_group":{"antennae":"B","wings":"X","pattern":"S","legs":"X"},"action":"harvest","summary":"bad-harvest","bonus":0},{"rt":601,"stimulus":"\n                    <p><b>Action: <em>harvest</em></b></p>\n                    <p>This is the bee that you just saw.</p>\n                    <img src=\"bees-with-color/bee-B2SF.svg\" width=\"200\">\n                    <p><span class=\"redText\">Bad choice, the bee was angry.</span><br><b>You have been stung!</b><br>Your pay has been decreased by $0.10. Your bonus pay is now $0.28.</p>\n            ","response":0,"trial_type":"html-button-response","trial_index":82,"time_elapsed":396857,"internal_node_id":"0.0-4.0-1.35","subject_id":"60be696ba8e15aa210da2db1","study_id":"6197b3f67c2b5cd3b6d9596a","session_id":"6197b5f4f63842e5c1b28790","condition":"contingent","relevant_dimensions":["antennae","pattern"],"bee_group":{"antennae":"B","wings":"X","pattern":"S","legs":"X"},"bonus":0},{"rt":987,"stimulus":"bees-with-color/bee-B1SF.svg","response":0,"trial_type":"image-button-response","trial_index":83,"time_elapsed":397845,"internal_node_id":"0.0-4.0-0.36","subject_id":"60be696ba8e15aa210da2db1","study_id":"6197b3f67c2b5cd3b6d9596a","session_id":"6197b5f4f63842e5c1b28790","condition":"contingent","relevant_dimensions":["antennae","pattern"],"bee_group":{"antennae":"B","wings":"X","pattern":"S","legs":"X"},"action":"harvest","summary":"bad-harvest","bonus":0},{"rt":663,"stimulus":"\n                    <p><b>Action: <em>harvest</em></b></p>\n                    <p>This is the bee that you just saw.</p>\n                    <img src=\"bees-with-color/bee-B1SF.svg\" width=\"200\">\n                    <p><span class=\"redText\">Bad choice, the bee was angry.</span><br><b>You have been stung!</b><br>Your pay has been decreased by $0.10. Your bonus pay is now $0.18.</p>\n            ","response":0,"trial_type":"html-button-response","trial_index":84,"time_elapsed":398510,"internal_node_id":"0.0-4.0-1.36","subject_id":"60be696ba8e15aa210da2db1","study_id":"6197b3f67c2b5cd3b6d9596a","session_id":"6197b5f4f63842e5c1b28790","condition":"contingent","relevant_dimensions":["antennae","pattern"],"bee_group":{"antennae":"B","wings":"X","pattern":"S","legs":"X"},"bonus":0},{"rt":699,"stimulus":"bees-with-color/bee-A2DF.svg","response":1,"trial_type":"image-button-response","trial_index":85,"time_elapsed":399211,"internal_node_id":"0.0-4.0-0.37","subject_id":"60be696ba8e15aa210da2db1","study_id":"6197b3f67c2b5cd3b6d9596a","session_id":"6197b5f4f63842e5c1b28790","condition":"contingent","relevant_dimensions":["antennae","pattern"],"bee_group":{"antennae":"B","wings":"X","pattern":"S","legs":"X"},"action":"avoid","summary":"bad-avoid","bonus":0},{"rt":776,"stimulus":"\n                    <p><b>Action: <em>avoid</em></b></p>\n                    <p>This is the bee that you just saw.</p>\n                    <img src=\"bees-with-color/bee-A2DF.svg\" width=\"200\">\n                    <p><br>Your bonus pay is unchanged, and remains at $0.18.</p>\n            ","response":0,"trial_type":"html-button-response","trial_index":86,"time_elapsed":399989,"internal_node_id":"0.0-4.0-1.37","subject_id":"60be696ba8e15aa210da2db1","study_id":"6197b3f67c2b5cd3b6d9596a","session_id":"6197b5f4f63842e5c1b28790","condition":"contingent","relevant_dimensions":["antennae","pattern"],"bee_group":{"antennae":"B","wings":"X","pattern":"S","legs":"X"},"bonus":0},{"rt":1985,"stimulus":"bees-with-color/bee-A2SF.svg","response":0,"trial_type":"image-button-response","trial_index":87,"time_elapsed":401976,"internal_node_id":"0.0-4.0-0.38","subject_id":"60be696ba8e15aa210da2db1","study_id":"6197b3f67c2b5cd3b6d9596a","session_id":"6197b5f4f63842e5c1b28790","condition":"contingent","relevant_dimensions":["antennae","pattern"],"bee_group":{"antennae":"B","wings":"X","pattern":"S","legs":"X"},"action":"harvest","summary":"good-harvest","bonus":0},{"rt":629,"stimulus":"\n                    <p><b>Action: <em>harvest</em></b></p>\n                    <p>This is the bee that you just saw.</p>\n                    <img src=\"bees-with-color/bee-A2SF.svg\" width=\"200\">\n                    <p><span class=\"greenText\"><b>Successful harvest!</b></span><br>Your pay has increased by $0.02. Your bonus pay is now $0.20.</p>\n            ","response":0,"trial_type":"html-button-response","trial_index":88,"time_elapsed":402606,"internal_node_id":"0.0-4.0-1.38","subject_id":"60be696ba8e15aa210da2db1","study_id":"6197b3f67c2b5cd3b6d9596a","session_id":"6197b5f4f63842e5c1b28790","condition":"contingent","relevant_dimensions":["antennae","pattern"],"bee_group":{"antennae":"B","wings":"X","pattern":"S","legs":"X"},"bonus":0},{"rt":898,"stimulus":"bees-with-color/bee-B2DM.svg","response":0,"trial_type":"image-button-response","trial_index":89,"time_elapsed":403506,"internal_node_id":"0.0-4.0-0.39","subject_id":"60be696ba8e15aa210da2db1","study_id":"6197b3f67c2b5cd3b6d9596a","session_id":"6197b5f4f63842e5c1b28790","condition":"contingent","relevant_dimensions":["antennae","pattern"],"bee_group":{"antennae":"B","wings":"X","pattern":"S","legs":"X"},"action":"harvest","summary":"good-harvest","bonus":0},{"rt":768,"stimulus":"\n                    <p><b>Action: <em>harvest</em></b></p>\n                    <p>This is the bee that you just saw.</p>\n                    <img src=\"bees-with-color/bee-B2DM.svg\" width=\"200\">\n                    <p><span class=\"greenText\"><b>Successful harvest!</b></span><br>Your pay has increased by $0.02. Your bonus pay is now $0.22.</p>\n            ","response":0,"trial_type":"html-button-response","trial_index":90,"time_elapsed":404276,"internal_node_id":"0.0-4.0-1.39","subject_id":"60be696ba8e15aa210da2db1","study_id":"6197b3f67c2b5cd3b6d9596a","session_id":"6197b5f4f63842e5c1b28790","condition":"contingent","relevant_dimensions":["antennae","pattern"],"bee_group":{"antennae":"B","wings":"X","pattern":"S","legs":"X"},"bonus":0},{"rt":1346,"stimulus":"bees-with-color/bee-B1SM.svg","response":0,"trial_type":"image-button-response","trial_index":91,"time_elapsed":405624,"internal_node_id":"0.0-4.0-0.40","subject_id":"60be696ba8e15aa210da2db1","study_id":"6197b3f67c2b5cd3b6d9596a","session_id":"6197b5f4f63842e5c1b28790","condition":"contingent","relevant_dimensions":["antennae","pattern"],"bee_group":{"antennae":"B","wings":"X","pattern":"S","legs":"X"},"action":"harvest","summary":"bad-harvest","bonus":0},{"rt":716,"stimulus":"\n                    <p><b>Action: <em>harvest</em></b></p>\n                    <p>This is the bee that you just saw.</p>\n                    <img src=\"bees-with-color/bee-B1SM.svg\" width=\"200\">\n                    <p><span class=\"redText\">Bad choice, the bee was angry.</span><br><b>You have been stung!</b><br>Your pay has been decreased by $0.10. Your bonus pay is now $0.12.</p>\n            ","response":0,"trial_type":"html-button-response","trial_index":92,"time_elapsed":406342,"internal_node_id":"0.0-4.0-1.40","subject_id":"60be696ba8e15aa210da2db1","study_id":"6197b3f67c2b5cd3b6d9596a","session_id":"6197b5f4f63842e5c1b28790","condition":"contingent","relevant_dimensions":["antennae","pattern"],"bee_group":{"antennae":"B","wings":"X","pattern":"S","legs":"X"},"bonus":0},{"rt":1049,"stimulus":"bees-with-color/bee-A1SM.svg","response":1,"trial_type":"image-button-response","trial_index":93,"time_elapsed":407392,"internal_node_id":"0.0-4.0-0.41","subject_id":"60be696ba8e15aa210da2db1","study_id":"6197b3f67c2b5cd3b6d9596a","session_id":"6197b5f4f63842e5c1b28790","condition":"contingent","relevant_dimensions":["antennae","pattern"],"bee_group":{"antennae":"B","wings":"X","pattern":"S","legs":"X"},"action":"avoid","summary":"bad-avoid","bonus":0},{"rt":662,"stimulus":"\n                    <p><b>Action: <em>avoid</em></b></p>\n                    <p>This is the bee that you just saw.</p>\n                    <img src=\"bees-with-color/bee-A1SM.svg\" width=\"200\">\n                    <p><br>Your bonus pay is unchanged, and remains at $0.12.</p>\n            ","response":0,"trial_type":"html-button-response","trial_index":94,"time_elapsed":408056,"internal_node_id":"0.0-4.0-1.41","subject_id":"60be696ba8e15aa210da2db1","study_id":"6197b3f67c2b5cd3b6d9596a","session_id":"6197b5f4f63842e5c1b28790","condition":"contingent","relevant_dimensions":["antennae","pattern"],"bee_group":{"antennae":"B","wings":"X","pattern":"S","legs":"X"},"bonus":0},{"rt":1119,"stimulus":"bees-with-color/bee-B2DF.svg","response":0,"trial_type":"image-button-response","trial_index":95,"time_elapsed":409177,"internal_node_id":"0.0-4.0-0.42","subject_id":"60be696ba8e15aa210da2db1","study_id":"6197b3f67c2b5cd3b6d9596a","session_id":"6197b5f4f63842e5c1b28790","condition":"contingent","relevant_dimensions":["antennae","pattern"],"bee_group":{"antennae":"B","wings":"X","pattern":"S","legs":"X"},"action":"harvest","summary":"good-harvest","bonus":0},{"rt":829,"stimulus":"\n                    <p><b>Action: <em>harvest</em></b></p>\n                    <p>This is the bee that you just saw.</p>\n                    <img src=\"bees-with-color/bee-B2DF.svg\" width=\"200\">\n                    <p><span class=\"greenText\"><b>Successful harvest!</b></span><br>Your pay has increased by $0.02. Your bonus pay is now $0.14.</p>\n            ","response":0,"trial_type":"html-button-response","trial_index":96,"time_elapsed":410008,"internal_node_id":"0.0-4.0-1.42","subject_id":"60be696ba8e15aa210da2db1","study_id":"6197b3f67c2b5cd3b6d9596a","session_id":"6197b5f4f63842e5c1b28790","condition":"contingent","relevant_dimensions":["antennae","pattern"],"bee_group":{"antennae":"B","wings":"X","pattern":"S","legs":"X"},"bonus":0},{"rt":1049,"stimulus":"bees-with-color/bee-B1DF.svg","response":0,"trial_type":"image-button-response","trial_index":97,"time_elapsed":411058,"internal_node_id":"0.0-4.0-0.43","subject_id":"60be696ba8e15aa210da2db1","study_id":"6197b3f67c2b5cd3b6d9596a","session_id":"6197b5f4f63842e5c1b28790","condition":"contingent","relevant_dimensions":["antennae","pattern"],"bee_group":{"antennae":"B","wings":"X","pattern":"S","legs":"X"},"action":"harvest","summary":"good-harvest","bonus":0},{"rt":761,"stimulus":"\n                    <p><b>Action: <em>harvest</em></b></p>\n                    <p>This is the bee that you just saw.</p>\n                    <img src=\"bees-with-color/bee-B1DF.svg\" width=\"200\">\n                    <p><span class=\"greenText\"><b>Successful harvest!</b></span><br>Your pay has increased by $0.02. Your bonus pay is now $0.16.</p>\n            ","response":0,"trial_type":"html-button-response","trial_index":98,"time_elapsed":411819,"internal_node_id":"0.0-4.0-1.43","subject_id":"60be696ba8e15aa210da2db1","study_id":"6197b3f67c2b5cd3b6d9596a","session_id":"6197b5f4f63842e5c1b28790","condition":"contingent","relevant_dimensions":["antennae","pattern"],"bee_group":{"antennae":"B","wings":"X","pattern":"S","legs":"X"},"bonus":0},{"rt":1424,"stimulus":"bees-with-color/bee-A2DM.svg","response":1,"trial_type":"image-button-response","trial_index":99,"time_elapsed":413246,"internal_node_id":"0.0-4.0-0.44","subject_id":"60be696ba8e15aa210da2db1","study_id":"6197b3f67c2b5cd3b6d9596a","session_id":"6197b5f4f63842e5c1b28790","condition":"contingent","relevant_dimensions":["antennae","pattern"],"bee_group":{"antennae":"B","wings":"X","pattern":"S","legs":"X"},"action":"avoid","summary":"bad-avoid","bonus":0},{"rt":514,"stimulus":"\n                    <p><b>Action: <em>avoid</em></b></p>\n                    <p>This is the bee that you just saw.</p>\n                    <img src=\"bees-with-color/bee-A2DM.svg\" width=\"200\">\n                    <p><br>Your bonus pay is unchanged, and remains at $0.16.</p>\n            ","response":0,"trial_type":"html-button-response","trial_index":100,"time_elapsed":413762,"internal_node_id":"0.0-4.0-1.44","subject_id":"60be696ba8e15aa210da2db1","study_id":"6197b3f67c2b5cd3b6d9596a","session_id":"6197b5f4f63842e5c1b28790","condition":"contingent","relevant_dimensions":["antennae","pattern"],"bee_group":{"antennae":"B","wings":"X","pattern":"S","legs":"X"},"bonus":0},{"rt":944,"stimulus":"bees-with-color/bee-A1SF.svg","response":1,"trial_type":"image-button-response","trial_index":101,"time_elapsed":414707,"internal_node_id":"0.0-4.0-0.45","subject_id":"60be696ba8e15aa210da2db1","study_id":"6197b3f67c2b5cd3b6d9596a","session_id":"6197b5f4f63842e5c1b28790","condition":"contingent","relevant_dimensions":["antennae","pattern"],"bee_group":{"antennae":"B","wings":"X","pattern":"S","legs":"X"},"action":"avoid","summary":"bad-avoid","bonus":0},{"rt":505,"stimulus":"\n                    <p><b>Action: <em>avoid</em></b></p>\n                    <p>This is the bee that you just saw.</p>\n                    <img src=\"bees-with-color/bee-A1SF.svg\" width=\"200\">\n                    <p><br>Your bonus pay is unchanged, and remains at $0.16.</p>\n            ","response":0,"trial_type":"html-button-response","trial_index":102,"time_elapsed":415214,"internal_node_id":"0.0-4.0-1.45","subject_id":"60be696ba8e15aa210da2db1","study_id":"6197b3f67c2b5cd3b6d9596a","session_id":"6197b5f4f63842e5c1b28790","condition":"contingent","relevant_dimensions":["antennae","pattern"],"bee_group":{"antennae":"B","wings":"X","pattern":"S","legs":"X"},"bonus":0},{"rt":960,"stimulus":"bees-with-color/bee-B1DM.svg","response":1,"trial_type":"image-button-response","trial_index":103,"time_elapsed":416177,"internal_node_id":"0.0-4.0-0.46","subject_id":"60be696ba8e15aa210da2db1","study_id":"6197b3f67c2b5cd3b6d9596a","session_id":"6197b5f4f63842e5c1b28790","condition":"contingent","relevant_dimensions":["antennae","pattern"],"bee_group":{"antennae":"B","wings":"X","pattern":"S","legs":"X"},"action":"avoid","summary":"bad-avoid","bonus":0},{"rt":532,"stimulus":"\n                    <p><b>Action: <em>avoid</em></b></p>\n                    <p>This is the bee that you just saw.</p>\n                    <img src=\"bees-with-color/bee-B1DM.svg\" width=\"200\">\n                    <p><br>Your bonus pay is unchanged, and remains at $0.16.</p>\n            ","response":0,"trial_type":"html-button-response","trial_index":104,"time_elapsed":416710,"internal_node_id":"0.0-4.0-1.46","subject_id":"60be696ba8e15aa210da2db1","study_id":"6197b3f67c2b5cd3b6d9596a","session_id":"6197b5f4f63842e5c1b28790","condition":"contingent","relevant_dimensions":["antennae","pattern"],"bee_group":{"antennae":"B","wings":"X","pattern":"S","legs":"X"},"bonus":0},{"rt":1102,"stimulus":"bees-with-color/bee-B2SM.svg","response":0,"trial_type":"image-button-response","trial_index":105,"time_elapsed":417813,"internal_node_id":"0.0-4.0-0.47","subject_id":"60be696ba8e15aa210da2db1","study_id":"6197b3f67c2b5cd3b6d9596a","session_id":"6197b5f4f63842e5c1b28790","condition":"contingent","relevant_dimensions":["antennae","pattern"],"bee_group":{"antennae":"B","wings":"X","pattern":"S","legs":"X"},"action":"harvest","summary":"bad-harvest","bonus":0},{"rt":803,"stimulus":"\n                    <p><b>Action: <em>harvest</em></b></p>\n                    <p>This is the bee that you just saw.</p>\n                    <img src=\"bees-with-color/bee-B2SM.svg\" width=\"200\">\n                    <p><span class=\"redText\">Bad choice, the bee was angry.</span><br><b>You have been stung!</b><br>Your pay has been decreased by $0.10. Your bonus pay is now $0.06.</p>\n            ","response":0,"trial_type":"html-button-response","trial_index":106,"time_elapsed":418617,"internal_node_id":"0.0-4.0-1.47","subject_id":"60be696ba8e15aa210da2db1","study_id":"6197b3f67c2b5cd3b6d9596a","session_id":"6197b5f4f63842e5c1b28790","condition":"contingent","relevant_dimensions":["antennae","pattern"],"bee_group":{"antennae":"B","wings":"X","pattern":"S","legs":"X"},"bonus":0},{"rt":1775,"stimulus":"bees-with-color/bee-B1SM.svg","response":1,"trial_type":"image-button-response","trial_index":107,"time_elapsed":420394,"internal_node_id":"0.0-4.0-0.48","subject_id":"60be696ba8e15aa210da2db1","study_id":"6197b3f67c2b5cd3b6d9596a","session_id":"6197b5f4f63842e5c1b28790","condition":"contingent","relevant_dimensions":["antennae","pattern"],"bee_group":{"antennae":"B","wings":"X","pattern":"S","legs":"X"},"action":"avoid","summary":"good-avoid","bonus":0},{"rt":487,"stimulus":"\n                    <p><b>Action: <em>avoid</em></b></p>\n                    <p>This is the bee that you just saw.</p>\n                    <img src=\"bees-with-color/bee-B1SM.svg\" width=\"200\">\n                    <p><br>Your bonus pay is unchanged, and remains at $0.06.</p>\n            ","response":0,"trial_type":"html-button-response","trial_index":108,"time_elapsed":420885,"internal_node_id":"0.0-4.0-1.48","subject_id":"60be696ba8e15aa210da2db1","study_id":"6197b3f67c2b5cd3b6d9596a","session_id":"6197b5f4f63842e5c1b28790","condition":"contingent","relevant_dimensions":["antennae","pattern"],"bee_group":{"antennae":"B","wings":"X","pattern":"S","legs":"X"},"bonus":0},{"rt":680,"stimulus":"bees-with-color/bee-A1SM.svg","response":0,"trial_type":"image-button-response","trial_index":109,"time_elapsed":421566,"internal_node_id":"0.0-4.0-0.49","subject_id":"60be696ba8e15aa210da2db1","study_id":"6197b3f67c2b5cd3b6d9596a","session_id":"6197b5f4f63842e5c1b28790","condition":"contingent","relevant_dimensions":["antennae","pattern"],"bee_group":{"antennae":"B","wings":"X","pattern":"S","legs":"X"},"action":"harvest","summary":"good-harvest","bonus":0},{"rt":497,"stimulus":"\n                    <p><b>Action: <em>harvest</em></b></p>\n                    <p>This is the bee that you just saw.</p>\n                    <img src=\"bees-with-color/bee-A1SM.svg\" width=\"200\">\n                    <p><span class=\"greenText\"><b>Successful harvest!</b></span><br>Your pay has increased by $0.02. Your bonus pay is now $0.08.</p>\n            ","response":0,"trial_type":"html-button-response","trial_index":110,"time_elapsed":422066,"internal_node_id":"0.0-4.0-1.49","subject_id":"60be696ba8e15aa210da2db1","study_id":"6197b3f67c2b5cd3b6d9596a","session_id":"6197b5f4f63842e5c1b28790","condition":"contingent","relevant_dimensions":["antennae","pattern"],"bee_group":{"antennae":"B","wings":"X","pattern":"S","legs":"X"},"bonus":0},{"rt":2124,"stimulus":"bees-with-color/bee-A2SF.svg","response":0,"trial_type":"image-button-response","trial_index":111,"time_elapsed":424192,"internal_node_id":"0.0-4.0-0.50","subject_id":"60be696ba8e15aa210da2db1","study_id":"6197b3f67c2b5cd3b6d9596a","session_id":"6197b5f4f63842e5c1b28790","condition":"contingent","relevant_dimensions":["antennae","pattern"],"bee_group":{"antennae":"B","wings":"X","pattern":"S","legs":"X"},"action":"harvest","summary":"good-harvest","bonus":0},{"rt":488,"stimulus":"\n                    <p><b>Action: <em>harvest</em></b></p>\n                    <p>This is the bee that you just saw.</p>\n                    <img src=\"bees-with-color/bee-A2SF.svg\" width=\"200\">\n                    <p><span class=\"greenText\"><b>Successful harvest!</b></span><br>Your pay has increased by $0.02. Your bonus pay is now $0.10.</p>\n            ","response":0,"trial_type":"html-button-response","trial_index":112,"time_elapsed":424681,"internal_node_id":"0.0-4.0-1.50","subject_id":"60be696ba8e15aa210da2db1","study_id":"6197b3f67c2b5cd3b6d9596a","session_id":"6197b5f4f63842e5c1b28790","condition":"contingent","relevant_dimensions":["antennae","pattern"],"bee_group":{"antennae":"B","wings":"X","pattern":"S","legs":"X"},"bonus":0},{"rt":1198,"stimulus":"bees-with-color/bee-B2DF.svg","response":1,"trial_type":"image-button-response","trial_index":113,"time_elapsed":425880,"internal_node_id":"0.0-4.0-0.51","subject_id":"60be696ba8e15aa210da2db1","study_id":"6197b3f67c2b5cd3b6d9596a","session_id":"6197b5f4f63842e5c1b28790","condition":"contingent","relevant_dimensions":["antennae","pattern"],"bee_group":{"antennae":"B","wings":"X","pattern":"S","legs":"X"},"action":"avoid","summary":"bad-avoid","bonus":0},{"rt":759,"stimulus":"\n                    <p><b>Action: <em>avoid</em></b></p>\n                    <p>This is the bee that you just saw.</p>\n                    <img src=\"bees-with-color/bee-B2DF.svg\" width=\"200\">\n                    <p><br>Your bonus pay is unchanged, and remains at $0.10.</p>\n            ","response":0,"trial_type":"html-button-response","trial_index":114,"time_elapsed":426642,"internal_node_id":"0.0-4.0-1.51","subject_id":"60be696ba8e15aa210da2db1","study_id":"6197b3f67c2b5cd3b6d9596a","session_id":"6197b5f4f63842e5c1b28790","condition":"contingent","relevant_dimensions":["antennae","pattern"],"bee_group":{"antennae":"B","wings":"X","pattern":"S","legs":"X"},"bonus":0},{"rt":1852,"stimulus":"bees-with-color/bee-B2DM.svg","response":1,"trial_type":"image-button-response","trial_index":115,"time_elapsed":428497,"internal_node_id":"0.0-4.0-0.52","subject_id":"60be696ba8e15aa210da2db1","study_id":"6197b3f67c2b5cd3b6d9596a","session_id":"6197b5f4f63842e5c1b28790","condition":"contingent","relevant_dimensions":["antennae","pattern"],"bee_group":{"antennae":"B","wings":"X","pattern":"S","legs":"X"},"action":"avoid","summary":"bad-avoid","bonus":0},{"rt":2239,"stimulus":"\n                    <p><b>Action: <em>avoid</em></b></p>\n                    <p>This is the bee that you just saw.</p>\n                    <img src=\"bees-with-color/bee-B2DM.svg\" width=\"200\">\n                    <p><br>Your bonus pay is unchanged, and remains at $0.10.</p>\n            ","response":0,"trial_type":"html-button-response","trial_index":116,"time_elapsed":430736,"internal_node_id":"0.0-4.0-1.52","subject_id":"60be696ba8e15aa210da2db1","study_id":"6197b3f67c2b5cd3b6d9596a","session_id":"6197b5f4f63842e5c1b28790","condition":"contingent","relevant_dimensions":["antennae","pattern"],"bee_group":{"antennae":"B","wings":"X","pattern":"S","legs":"X"},"bonus":0},{"rt":1381,"stimulus":"bees-with-color/bee-B2SM.svg","response":0,"trial_type":"image-button-response","trial_index":117,"time_elapsed":432119,"internal_node_id":"0.0-4.0-0.53","subject_id":"60be696ba8e15aa210da2db1","study_id":"6197b3f67c2b5cd3b6d9596a","session_id":"6197b5f4f63842e5c1b28790","condition":"contingent","relevant_dimensions":["antennae","pattern"],"bee_group":{"antennae":"B","wings":"X","pattern":"S","legs":"X"},"action":"harvest","summary":"bad-harvest","bonus":0},{"rt":1284,"stimulus":"\n                    <p><b>Action: <em>harvest</em></b></p>\n                    <p>This is the bee that you just saw.</p>\n                    <img src=\"bees-with-color/bee-B2SM.svg\" width=\"200\">\n                    <p><span class=\"redText\">Bad choice, the bee was angry.</span><br><b>You have been stung!</b><br>Your pay has been decreased by $0.10. Your bonus pay is now $0.00.</p>\n            ","response":0,"trial_type":"html-button-response","trial_index":118,"time_elapsed":433405,"internal_node_id":"0.0-4.0-1.53","subject_id":"60be696ba8e15aa210da2db1","study_id":"6197b3f67c2b5cd3b6d9596a","session_id":"6197b5f4f63842e5c1b28790","condition":"contingent","relevant_dimensions":["antennae","pattern"],"bee_group":{"antennae":"B","wings":"X","pattern":"S","legs":"X"},"bonus":0},{"rt":2894,"stimulus":"bees-with-color/bee-B1DM.svg","response":1,"trial_type":"image-button-response","trial_index":119,"time_elapsed":436302,"internal_node_id":"0.0-4.0-0.54","subject_id":"60be696ba8e15aa210da2db1","study_id":"6197b3f67c2b5cd3b6d9596a","session_id":"6197b5f4f63842e5c1b28790","condition":"contingent","relevant_dimensions":["antennae","pattern"],"bee_group":{"antennae":"B","wings":"X","pattern":"S","legs":"X"},"action":"avoid","summary":"bad-avoid","bonus":0},{"rt":794,"stimulus":"\n                    <p><b>Action: <em>avoid</em></b></p>\n                    <p>This is the bee that you just saw.</p>\n                    <img src=\"bees-with-color/bee-B1DM.svg\" width=\"200\">\n                    <p><br>Your bonus pay is unchanged, and remains at $0.00.</p>\n            ","response":0,"trial_type":"html-button-response","trial_index":120,"time_elapsed":437098,"internal_node_id":"0.0-4.0-1.54","subject_id":"60be696ba8e15aa210da2db1","study_id":"6197b3f67c2b5cd3b6d9596a","session_id":"6197b5f4f63842e5c1b28790","condition":"contingent","relevant_dimensions":["antennae","pattern"],"bee_group":{"antennae":"B","wings":"X","pattern":"S","legs":"X"},"bonus":0},{"rt":1713,"stimulus":"bees-with-color/bee-A1SF.svg","response":0,"trial_type":"image-button-response","trial_index":121,"time_elapsed":438813,"internal_node_id":"0.0-4.0-0.55","subject_id":"60be696ba8e15aa210da2db1","study_id":"6197b3f67c2b5cd3b6d9596a","session_id":"6197b5f4f63842e5c1b28790","condition":"contingent","relevant_dimensions":["antennae","pattern"],"bee_group":{"antennae":"B","wings":"X","pattern":"S","legs":"X"},"action":"harvest","summary":"good-harvest","bonus":0},{"rt":716,"stimulus":"\n                    <p><b>Action: <em>harvest</em></b></p>\n                    <p>This is the bee that you just saw.</p>\n                    <img src=\"bees-with-color/bee-A1SF.svg\" width=\"200\">\n                    <p><span class=\"greenText\"><b>Successful harvest!</b></span><br>Your pay has increased by $0.02. Your bonus pay is now $0.02.</p>\n            ","response":0,"trial_type":"html-button-response","trial_index":122,"time_elapsed":439530,"internal_node_id":"0.0-4.0-1.55","subject_id":"60be696ba8e15aa210da2db1","study_id":"6197b3f67c2b5cd3b6d9596a","session_id":"6197b5f4f63842e5c1b28790","condition":"contingent","relevant_dimensions":["antennae","pattern"],"bee_group":{"antennae":"B","wings":"X","pattern":"S","legs":"X"},"bonus":0},{"rt":1083,"stimulus":"bees-with-color/bee-A1DM.svg","response":1,"trial_type":"image-button-response","trial_index":123,"time_elapsed":440615,"internal_node_id":"0.0-4.0-0.56","subject_id":"60be696ba8e15aa210da2db1","study_id":"6197b3f67c2b5cd3b6d9596a","session_id":"6197b5f4f63842e5c1b28790","condition":"contingent","relevant_dimensions":["antennae","pattern"],"bee_group":{"antennae":"B","wings":"X","pattern":"S","legs":"X"},"action":"avoid","summary":"bad-avoid","bonus":0},{"rt":742,"stimulus":"\n                    <p><b>Action: <em>avoid</em></b></p>\n                    <p>This is the bee that you just saw.</p>\n                    <img src=\"bees-with-color/bee-A1DM.svg\" width=\"200\">\n                    <p><br>Your bonus pay is unchanged, and remains at $0.02.</p>\n            ","response":0,"trial_type":"html-button-response","trial_index":124,"time_elapsed":441359,"internal_node_id":"0.0-4.0-1.56","subject_id":"60be696ba8e15aa210da2db1","study_id":"6197b3f67c2b5cd3b6d9596a","session_id":"6197b5f4f63842e5c1b28790","condition":"contingent","relevant_dimensions":["antennae","pattern"],"bee_group":{"antennae":"B","wings":"X","pattern":"S","legs":"X"},"bonus":0},{"rt":2159,"stimulus":"bees-with-color/bee-B1SF.svg","response":0,"trial_type":"image-button-response","trial_index":125,"time_elapsed":443520,"internal_node_id":"0.0-4.0-0.57","subject_id":"60be696ba8e15aa210da2db1","study_id":"6197b3f67c2b5cd3b6d9596a","session_id":"6197b5f4f63842e5c1b28790","condition":"contingent","relevant_dimensions":["antennae","pattern"],"bee_group":{"antennae":"B","wings":"X","pattern":"S","legs":"X"},"action":"harvest","summary":"bad-harvest","bonus":0},{"rt":839,"stimulus":"\n                    <p><b>Action: <em>harvest</em></b></p>\n                    <p>This is the bee that you just saw.</p>\n                    <img src=\"bees-with-color/bee-B1SF.svg\" width=\"200\">\n                    <p><span class=\"redText\">Bad choice, the bee was angry.</span><br><b>You have been stung!</b><br>Your pay has been decreased by $0.10. Your bonus pay is now $0.00.</p>\n            ","response":0,"trial_type":"html-button-response","trial_index":126,"time_elapsed":444360,"internal_node_id":"0.0-4.0-1.57","subject_id":"60be696ba8e15aa210da2db1","study_id":"6197b3f67c2b5cd3b6d9596a","session_id":"6197b5f4f63842e5c1b28790","condition":"contingent","relevant_dimensions":["antennae","pattern"],"bee_group":{"antennae":"B","wings":"X","pattern":"S","legs":"X"},"bonus":0},{"rt":944,"stimulus":"bees-with-color/bee-A2SM.svg","response":0,"trial_type":"image-button-response","trial_index":127,"time_elapsed":445306,"internal_node_id":"0.0-4.0-0.58","subject_id":"60be696ba8e15aa210da2db1","study_id":"6197b3f67c2b5cd3b6d9596a","session_id":"6197b5f4f63842e5c1b28790","condition":"contingent","relevant_dimensions":["antennae","pattern"],"bee_group":{"antennae":"B","wings":"X","pattern":"S","legs":"X"},"action":"harvest","summary":"good-harvest","bonus":0},{"rt":794,"stimulus":"\n                    <p><b>Action: <em>harvest</em></b></p>\n                    <p>This is the bee that you just saw.</p>\n                    <img src=\"bees-with-color/bee-A2SM.svg\" width=\"200\">\n                    <p><span class=\"greenText\"><b>Successful harvest!</b></span><br>Your pay has increased by $0.02. Your bonus pay is now $0.02.</p>\n            ","response":0,"trial_type":"html-button-response","trial_index":128,"time_elapsed":446102,"internal_node_id":"0.0-4.0-1.58","subject_id":"60be696ba8e15aa210da2db1","study_id":"6197b3f67c2b5cd3b6d9596a","session_id":"6197b5f4f63842e5c1b28790","condition":"contingent","relevant_dimensions":["antennae","pattern"],"bee_group":{"antennae":"B","wings":"X","pattern":"S","legs":"X"},"bonus":0},{"rt":1197,"stimulus":"bees-with-color/bee-A2DF.svg","response":1,"trial_type":"image-button-response","trial_index":129,"time_elapsed":447301,"internal_node_id":"0.0-4.0-0.59","subject_id":"60be696ba8e15aa210da2db1","study_id":"6197b3f67c2b5cd3b6d9596a","session_id":"6197b5f4f63842e5c1b28790","condition":"contingent","relevant_dimensions":["antennae","pattern"],"bee_group":{"antennae":"B","wings":"X","pattern":"S","legs":"X"},"action":"avoid","summary":"bad-avoid","bonus":0},{"rt":750,"stimulus":"\n                    <p><b>Action: <em>avoid</em></b></p>\n                    <p>This is the bee that you just saw.</p>\n                    <img src=\"bees-with-color/bee-A2DF.svg\" width=\"200\">\n                    <p><br>Your bonus pay is unchanged, and remains at $0.02.</p>\n            ","response":0,"trial_type":"html-button-response","trial_index":130,"time_elapsed":448053,"internal_node_id":"0.0-4.0-1.59","subject_id":"60be696ba8e15aa210da2db1","study_id":"6197b3f67c2b5cd3b6d9596a","session_id":"6197b5f4f63842e5c1b28790","condition":"contingent","relevant_dimensions":["antennae","pattern"],"bee_group":{"antennae":"B","wings":"X","pattern":"S","legs":"X"},"bonus":0},{"rt":691,"stimulus":"bees-with-color/bee-B2SF.svg","response":0,"trial_type":"image-button-response","trial_index":131,"time_elapsed":448745,"internal_node_id":"0.0-4.0-0.60","subject_id":"60be696ba8e15aa210da2db1","study_id":"6197b3f67c2b5cd3b6d9596a","session_id":"6197b5f4f63842e5c1b28790","condition":"contingent","relevant_dimensions":["antennae","pattern"],"bee_group":{"antennae":"B","wings":"X","pattern":"S","legs":"X"},"action":"harvest","summary":"bad-harvest","bonus":0},{"rt":722,"stimulus":"\n                    <p><b>Action: <em>harvest</em></b></p>\n                    <p>This is the bee that you just saw.</p>\n                    <img src=\"bees-with-color/bee-B2SF.svg\" width=\"200\">\n                    <p><span class=\"redText\">Bad choice, the bee was angry.</span><br><b>You have been stung!</b><br>Your pay has been decreased by $0.10. Your bonus pay is now $0.00.</p>\n            ","response":0,"trial_type":"html-button-response","trial_index":132,"time_elapsed":449471,"internal_node_id":"0.0-4.0-1.60","subject_id":"60be696ba8e15aa210da2db1","study_id":"6197b3f67c2b5cd3b6d9596a","session_id":"6197b5f4f63842e5c1b28790","condition":"contingent","relevant_dimensions":["antennae","pattern"],"bee_group":{"antennae":"B","wings":"X","pattern":"S","legs":"X"},"bonus":0},{"rt":1835,"stimulus":"bees-with-color/bee-B1DF.svg","response":1,"trial_type":"image-button-response","trial_index":133,"time_elapsed":451308,"internal_node_id":"0.0-4.0-0.61","subject_id":"60be696ba8e15aa210da2db1","study_id":"6197b3f67c2b5cd3b6d9596a","session_id":"6197b5f4f63842e5c1b28790","condition":"contingent","relevant_dimensions":["antennae","pattern"],"bee_group":{"antennae":"B","wings":"X","pattern":"S","legs":"X"},"action":"avoid","summary":"bad-avoid","bonus":0},{"rt":1031,"stimulus":"\n                    <p><b>Action: <em>avoid</em></b></p>\n                    <p>This is the bee that you just saw.</p>\n                    <img src=\"bees-with-color/bee-B1DF.svg\" width=\"200\">\n                    <p><br>Your bonus pay is unchanged, and remains at $0.00.</p>\n            ","response":0,"trial_type":"html-button-response","trial_index":134,"time_elapsed":452341,"internal_node_id":"0.0-4.0-1.61","subject_id":"60be696ba8e15aa210da2db1","study_id":"6197b3f67c2b5cd3b6d9596a","session_id":"6197b5f4f63842e5c1b28790","condition":"contingent","relevant_dimensions":["antennae","pattern"],"bee_group":{"antennae":"B","wings":"X","pattern":"S","legs":"X"},"bonus":0},{"rt":1266,"stimulus":"bees-with-color/bee-A1DF.svg","response":1,"trial_type":"image-button-response","trial_index":135,"time_elapsed":453609,"internal_node_id":"0.0-4.0-0.62","subject_id":"60be696ba8e15aa210da2db1","study_id":"6197b3f67c2b5cd3b6d9596a","session_id":"6197b5f4f63842e5c1b28790","condition":"contingent","relevant_dimensions":["antennae","pattern"],"bee_group":{"antennae":"B","wings":"X","pattern":"S","legs":"X"},"action":"avoid","summary":"bad-avoid","bonus":0},{"rt":697,"stimulus":"\n                    <p><b>Action: <em>avoid</em></b></p>\n                    <p>This is the bee that you just saw.</p>\n                    <img src=\"bees-with-color/bee-A1DF.svg\" width=\"200\">\n                    <p><br>Your bonus pay is unchanged, and remains at $0.00.</p>\n            ","response":0,"trial_type":"html-button-response","trial_index":136,"time_elapsed":454309,"internal_node_id":"0.0-4.0-1.62","subject_id":"60be696ba8e15aa210da2db1","study_id":"6197b3f67c2b5cd3b6d9596a","session_id":"6197b5f4f63842e5c1b28790","condition":"contingent","relevant_dimensions":["antennae","pattern"],"bee_group":{"antennae":"B","wings":"X","pattern":"S","legs":"X"},"bonus":0},{"rt":1085,"stimulus":"bees-with-color/bee-A2DM.svg","response":0,"trial_type":"image-button-response","trial_index":137,"time_elapsed":455395,"internal_node_id":"0.0-4.0-0.63","subject_id":"60be696ba8e15aa210da2db1","study_id":"6197b3f67c2b5cd3b6d9596a","session_id":"6197b5f4f63842e5c1b28790","condition":"contingent","relevant_dimensions":["antennae","pattern"],"bee_group":{"antennae":"B","wings":"X","pattern":"S","legs":"X"},"action":"harvest","summary":"good-harvest","bonus":0},{"rt":697,"stimulus":"\n                    <p><b>Action: <em>harvest</em></b></p>\n                    <p>This is the bee that you just saw.</p>\n                    <img src=\"bees-with-color/bee-A2DM.svg\" width=\"200\">\n                    <p><span class=\"greenText\"><b>Successful harvest!</b></span><br>Your pay has increased by $0.02. Your bonus pay is now $0.02.</p>\n            ","response":0,"trial_type":"html-button-response","trial_index":138,"time_elapsed":456094,"internal_node_id":"0.0-4.0-1.63","subject_id":"60be696ba8e15aa210da2db1","study_id":"6197b3f67c2b5cd3b6d9596a","session_id":"6197b5f4f63842e5c1b28790","condition":"contingent","relevant_dimensions":["antennae","pattern"],"bee_group":{"antennae":"B","wings":"X","pattern":"S","legs":"X"},"bonus":0},{"rt":5418,"stimulus":"You have completed the first part of this experiment.<br><br>You will now begin a shorter second part, in which you will receive no feedback.<br>The same rules regarding bonus pay apply.<br><br>Press any key to begin.","response":"h","trial_type":"html-keyboard-response","trial_index":139,"time_elapsed":461515,"internal_node_id":"0.0-5.0","subject_id":"60be696ba8e15aa210da2db1","study_id":"6197b3f67c2b5cd3b6d9596a","session_id":"6197b5f4f63842e5c1b28790","condition":"contingent","relevant_dimensions":["antennae","pattern"],"bee_group":{"antennae":"B","wings":"X","pattern":"S","legs":"X"},"bonus":0},{"rt":4273,"stimulus":"bees-with-color/bee-B2SM.svg","response":0,"trial_type":"image-button-response","trial_index":140,"time_elapsed":465789,"internal_node_id":"0.0-6.0-0.0","subject_id":"60be696ba8e15aa210da2db1","study_id":"6197b3f67c2b5cd3b6d9596a","session_id":"6197b5f4f63842e5c1b28790","condition":"contingent","relevant_dimensions":["antennae","pattern"],"bee_group":{"antennae":"B","wings":"X","pattern":"S","legs":"X"},"bonus":0},{"rt":4750,"stimulus":"bees-with-color/bee-A2SM.svg","response":1,"trial_type":"image-button-response","trial_index":141,"time_elapsed":470541,"internal_node_id":"0.0-6.0-0.1","subject_id":"60be696ba8e15aa210da2db1","study_id":"6197b3f67c2b5cd3b6d9596a","session_id":"6197b5f4f63842e5c1b28790","condition":"contingent","relevant_dimensions":["antennae","pattern"],"bee_group":{"antennae":"B","wings":"X","pattern":"S","legs":"X"},"bonus":0},{"rt":1686,"stimulus":"bees-with-color/bee-B1SF.svg","response":0,"trial_type":"image-button-response","trial_index":142,"time_elapsed":472229,"internal_node_id":"0.0-6.0-0.2","subject_id":"60be696ba8e15aa210da2db1","study_id":"6197b3f67c2b5cd3b6d9596a","session_id":"6197b5f4f63842e5c1b28790","condition":"contingent","relevant_dimensions":["antennae","pattern"],"bee_group":{"antennae":"B","wings":"X","pattern":"S","legs":"X"},"bonus":0},{"rt":3700,"stimulus":"bees-with-color/bee-B2DF.svg","response":1,"trial_type":"image-button-response","trial_index":143,"time_elapsed":475930,"internal_node_id":"0.0-6.0-0.3","subject_id":"60be696ba8e15aa210da2db1","study_id":"6197b3f67c2b5cd3b6d9596a","session_id":"6197b5f4f63842e5c1b28790","condition":"contingent","relevant_dimensions":["antennae","pattern"],"bee_group":{"antennae":"B","wings":"X","pattern":"S","legs":"X"},"bonus":0},{"rt":1136,"stimulus":"bees-with-color/bee-A1SM.svg","response":0,"trial_type":"image-button-response","trial_index":144,"time_elapsed":477068,"internal_node_id":"0.0-6.0-0.4","subject_id":"60be696ba8e15aa210da2db1","study_id":"6197b3f67c2b5cd3b6d9596a","session_id":"6197b5f4f63842e5c1b28790","condition":"contingent","relevant_dimensions":["antennae","pattern"],"bee_group":{"antennae":"B","wings":"X","pattern":"S","legs":"X"},"bonus":0},{"rt":1555,"stimulus":"bees-with-color/bee-B2DM.svg","response":0,"trial_type":"image-button-response","trial_index":145,"time_elapsed":478625,"internal_node_id":"0.0-6.0-0.5","subject_id":"60be696ba8e15aa210da2db1","study_id":"6197b3f67c2b5cd3b6d9596a","session_id":"6197b5f4f63842e5c1b28790","condition":"contingent","relevant_dimensions":["antennae","pattern"],"bee_group":{"antennae":"B","wings":"X","pattern":"S","legs":"X"},"bonus":0},{"rt":1075,"stimulus":"bees-with-color/bee-A2DM.svg","response":0,"trial_type":"image-button-response","trial_index":146,"time_elapsed":479702,"internal_node_id":"0.0-6.0-0.6","subject_id":"60be696ba8e15aa210da2db1","study_id":"6197b3f67c2b5cd3b6d9596a","session_id":"6197b5f4f63842e5c1b28790","condition":"contingent","relevant_dimensions":["antennae","pattern"],"bee_group":{"antennae":"B","wings":"X","pattern":"S","legs":"X"},"bonus":0},{"rt":1574,"stimulus":"bees-with-color/bee-A1DM.svg","response":1,"trial_type":"image-button-response","trial_index":147,"time_elapsed":481277,"internal_node_id":"0.0-6.0-0.7","subject_id":"60be696ba8e15aa210da2db1","study_id":"6197b3f67c2b5cd3b6d9596a","session_id":"6197b5f4f63842e5c1b28790","condition":"contingent","relevant_dimensions":["antennae","pattern"],"bee_group":{"antennae":"B","wings":"X","pattern":"S","legs":"X"},"bonus":0},{"rt":5081,"stimulus":"bees-with-color/bee-B1DF.svg","response":0,"trial_type":"image-button-response","trial_index":148,"time_elapsed":486360,"internal_node_id":"0.0-6.0-0.8","subject_id":"60be696ba8e15aa210da2db1","study_id":"6197b3f67c2b5cd3b6d9596a","session_id":"6197b5f4f63842e5c1b28790","condition":"contingent","relevant_dimensions":["antennae","pattern"],"bee_group":{"antennae":"B","wings":"X","pattern":"S","legs":"X"},"bonus":0},{"rt":4959,"stimulus":"bees-with-color/bee-B2SF.svg","response":1,"trial_type":"image-button-response","trial_index":149,"time_elapsed":491321,"internal_node_id":"0.0-6.0-0.9","subject_id":"60be696ba8e15aa210da2db1","study_id":"6197b3f67c2b5cd3b6d9596a","session_id":"6197b5f4f63842e5c1b28790","condition":"contingent","relevant_dimensions":["antennae","pattern"],"bee_group":{"antennae":"B","wings":"X","pattern":"S","legs":"X"},"bonus":0},{"rt":11663,"stimulus":"bees-with-color/bee-B1SM.svg","response":0,"trial_type":"image-button-response","trial_index":150,"time_elapsed":502986,"internal_node_id":"0.0-6.0-0.10","subject_id":"60be696ba8e15aa210da2db1","study_id":"6197b3f67c2b5cd3b6d9596a","session_id":"6197b5f4f63842e5c1b28790","condition":"contingent","relevant_dimensions":["antennae","pattern"],"bee_group":{"antennae":"B","wings":"X","pattern":"S","legs":"X"},"bonus":0},{"rt":1303,"stimulus":"bees-with-color/bee-A2SF.svg","response":1,"trial_type":"image-button-response","trial_index":151,"time_elapsed":504289,"internal_node_id":"0.0-6.0-0.11","subject_id":"60be696ba8e15aa210da2db1","study_id":"6197b3f67c2b5cd3b6d9596a","session_id":"6197b5f4f63842e5c1b28790","condition":"contingent","relevant_dimensions":["antennae","pattern"],"bee_group":{"antennae":"B","wings":"X","pattern":"S","legs":"X"},"bonus":0},{"rt":1432,"stimulus":"bees-with-color/bee-A1DF.svg","response":0,"trial_type":"image-button-response","trial_index":152,"time_elapsed":505724,"internal_node_id":"0.0-6.0-0.12","subject_id":"60be696ba8e15aa210da2db1","study_id":"6197b3f67c2b5cd3b6d9596a","session_id":"6197b5f4f63842e5c1b28790","condition":"contingent","relevant_dimensions":["antennae","pattern"],"bee_group":{"antennae":"B","wings":"X","pattern":"S","legs":"X"},"bonus":0},{"rt":2256,"stimulus":"bees-with-color/bee-A1SF.svg","response":1,"trial_type":"image-button-response","trial_index":153,"time_elapsed":507982,"internal_node_id":"0.0-6.0-0.13","subject_id":"60be696ba8e15aa210da2db1","study_id":"6197b3f67c2b5cd3b6d9596a","session_id":"6197b5f4f63842e5c1b28790","condition":"contingent","relevant_dimensions":["antennae","pattern"],"bee_group":{"antennae":"B","wings":"X","pattern":"S","legs":"X"},"bonus":0},{"rt":715,"stimulus":"bees-with-color/bee-B1DM.svg","response":0,"trial_type":"image-button-response","trial_index":154,"time_elapsed":508699,"internal_node_id":"0.0-6.0-0.14","subject_id":"60be696ba8e15aa210da2db1","study_id":"6197b3f67c2b5cd3b6d9596a","session_id":"6197b5f4f63842e5c1b28790","condition":"contingent","relevant_dimensions":["antennae","pattern"],"bee_group":{"antennae":"B","wings":"X","pattern":"S","legs":"X"},"bonus":0},{"rt":6123,"stimulus":"bees-with-color/bee-A2DF.svg","response":1,"trial_type":"image-button-response","trial_index":155,"time_elapsed":514824,"internal_node_id":"0.0-6.0-0.15","subject_id":"60be696ba8e15aa210da2db1","study_id":"6197b3f67c2b5cd3b6d9596a","session_id":"6197b5f4f63842e5c1b28790","condition":"contingent","relevant_dimensions":["antennae","pattern"],"bee_group":{"antennae":"B","wings":"X","pattern":"S","legs":"X"},"bonus":0},{"rt":5712,"stimulus":"bees-with-color/bee-B2SF.svg","response":0,"trial_type":"image-button-response","trial_index":156,"time_elapsed":520538,"internal_node_id":"0.0-6.0-0.16","subject_id":"60be696ba8e15aa210da2db1","study_id":"6197b3f67c2b5cd3b6d9596a","session_id":"6197b5f4f63842e5c1b28790","condition":"contingent","relevant_dimensions":["antennae","pattern"],"bee_group":{"antennae":"B","wings":"X","pattern":"S","legs":"X"},"bonus":0},{"rt":7688,"stimulus":"bees-with-color/bee-B1SF.svg","response":1,"trial_type":"image-button-response","trial_index":157,"time_elapsed":528229,"internal_node_id":"0.0-6.0-0.17","subject_id":"60be696ba8e15aa210da2db1","study_id":"6197b3f67c2b5cd3b6d9596a","session_id":"6197b5f4f63842e5c1b28790","condition":"contingent","relevant_dimensions":["antennae","pattern"],"bee_group":{"antennae":"B","wings":"X","pattern":"S","legs":"X"},"bonus":0},{"rt":5284,"stimulus":"bees-with-color/bee-A1DF.svg","response":1,"trial_type":"image-button-response","trial_index":158,"time_elapsed":533515,"internal_node_id":"0.0-6.0-0.18","subject_id":"60be696ba8e15aa210da2db1","study_id":"6197b3f67c2b5cd3b6d9596a","session_id":"6197b5f4f63842e5c1b28790","condition":"contingent","relevant_dimensions":["antennae","pattern"],"bee_group":{"antennae":"B","wings":"X","pattern":"S","legs":"X"},"bonus":0},{"rt":2169,"stimulus":"bees-with-color/bee-A2DM.svg","response":0,"trial_type":"image-button-response","trial_index":159,"time_elapsed":535685,"internal_node_id":"0.0-6.0-0.19","subject_id":"60be696ba8e15aa210da2db1","study_id":"6197b3f67c2b5cd3b6d9596a","session_id":"6197b5f4f63842e5c1b28790","condition":"contingent","relevant_dimensions":["antennae","pattern"],"bee_group":{"antennae":"B","wings":"X","pattern":"S","legs":"X"},"bonus":0},{"rt":1285,"stimulus":"bees-with-color/bee-B2DM.svg","response":0,"trial_type":"image-button-response","trial_index":160,"time_elapsed":536971,"internal_node_id":"0.0-6.0-0.20","subject_id":"60be696ba8e15aa210da2db1","study_id":"6197b3f67c2b5cd3b6d9596a","session_id":"6197b5f4f63842e5c1b28790","condition":"contingent","relevant_dimensions":["antennae","pattern"],"bee_group":{"antennae":"B","wings":"X","pattern":"S","legs":"X"},"bonus":0},{"rt":594,"stimulus":"bees-with-color/bee-A2SF.svg","response":0,"trial_type":"image-button-response","trial_index":161,"time_elapsed":537566,"internal_node_id":"0.0-6.0-0.21","subject_id":"60be696ba8e15aa210da2db1","study_id":"6197b3f67c2b5cd3b6d9596a","session_id":"6197b5f4f63842e5c1b28790","condition":"contingent","relevant_dimensions":["antennae","pattern"],"bee_group":{"antennae":"B","wings":"X","pattern":"S","legs":"X"},"bonus":0},{"rt":855,"stimulus":"bees-with-color/bee-A1DM.svg","response":1,"trial_type":"image-button-response","trial_index":162,"time_elapsed":538423,"internal_node_id":"0.0-6.0-0.22","subject_id":"60be696ba8e15aa210da2db1","study_id":"6197b3f67c2b5cd3b6d9596a","session_id":"6197b5f4f63842e5c1b28790","condition":"contingent","relevant_dimensions":["antennae","pattern"],"bee_group":{"antennae":"B","wings":"X","pattern":"S","legs":"X"},"bonus":0},{"rt":10401,"stimulus":"bees-with-color/bee-B2DF.svg","response":0,"trial_type":"image-button-response","trial_index":163,"time_elapsed":548826,"internal_node_id":"0.0-6.0-0.23","subject_id":"60be696ba8e15aa210da2db1","study_id":"6197b3f67c2b5cd3b6d9596a","session_id":"6197b5f4f63842e5c1b28790","condition":"contingent","relevant_dimensions":["antennae","pattern"],"bee_group":{"antennae":"B","wings":"X","pattern":"S","legs":"X"},"bonus":0},{"rt":1240,"stimulus":"bees-with-color/bee-A1SF.svg","response":1,"trial_type":"image-button-response","trial_index":164,"time_elapsed":550069,"internal_node_id":"0.0-6.0-0.24","subject_id":"60be696ba8e15aa210da2db1","study_id":"6197b3f67c2b5cd3b6d9596a","session_id":"6197b5f4f63842e5c1b28790","condition":"contingent","relevant_dimensions":["antennae","pattern"],"bee_group":{"antennae":"B","wings":"X","pattern":"S","legs":"X"},"bonus":0},{"rt":26877,"stimulus":"bees-with-color/bee-A1SM.svg","response":0,"trial_type":"image-button-response","trial_index":165,"time_elapsed":576949,"internal_node_id":"0.0-6.0-0.25","subject_id":"60be696ba8e15aa210da2db1","study_id":"6197b3f67c2b5cd3b6d9596a","session_id":"6197b5f4f63842e5c1b28790","condition":"contingent","relevant_dimensions":["antennae","pattern"],"bee_group":{"antennae":"B","wings":"X","pattern":"S","legs":"X"},"bonus":0},{"rt":9817,"stimulus":"bees-with-color/bee-B1DF.svg","response":0,"trial_type":"image-button-response","trial_index":166,"time_elapsed":586767,"internal_node_id":"0.0-6.0-0.26","subject_id":"60be696ba8e15aa210da2db1","study_id":"6197b3f67c2b5cd3b6d9596a","session_id":"6197b5f4f63842e5c1b28790","condition":"contingent","relevant_dimensions":["antennae","pattern"],"bee_group":{"antennae":"B","wings":"X","pattern":"S","legs":"X"},"bonus":0},{"rt":1529,"stimulus":"bees-with-color/bee-B1DM.svg","response":1,"trial_type":"image-button-response","trial_index":167,"time_elapsed":588298,"internal_node_id":"0.0-6.0-0.27","subject_id":"60be696ba8e15aa210da2db1","study_id":"6197b3f67c2b5cd3b6d9596a","session_id":"6197b5f4f63842e5c1b28790","condition":"contingent","relevant_dimensions":["antennae","pattern"],"bee_group":{"antennae":"B","wings":"X","pattern":"S","legs":"X"},"bonus":0},{"rt":1328,"stimulus":"bees-with-color/bee-A2DF.svg","response":0,"trial_type":"image-button-response","trial_index":168,"time_elapsed":589628,"internal_node_id":"0.0-6.0-0.28","subject_id":"60be696ba8e15aa210da2db1","study_id":"6197b3f67c2b5cd3b6d9596a","session_id":"6197b5f4f63842e5c1b28790","condition":"contingent","relevant_dimensions":["antennae","pattern"],"bee_group":{"antennae":"B","wings":"X","pattern":"S","legs":"X"},"bonus":0},{"rt":1363,"stimulus":"bees-with-color/bee-B1SM.svg","response":0,"trial_type":"image-button-response","trial_index":169,"time_elapsed":590993,"internal_node_id":"0.0-6.0-0.29","subject_id":"60be696ba8e15aa210da2db1","study_id":"6197b3f67c2b5cd3b6d9596a","session_id":"6197b5f4f63842e5c1b28790","condition":"contingent","relevant_dimensions":["antennae","pattern"],"bee_group":{"antennae":"B","wings":"X","pattern":"S","legs":"X"},"bonus":0},{"rt":497,"stimulus":"bees-with-color/bee-B2SM.svg","response":0,"trial_type":"image-button-response","trial_index":170,"time_elapsed":591492,"internal_node_id":"0.0-6.0-0.30","subject_id":"60be696ba8e15aa210da2db1","study_id":"6197b3f67c2b5cd3b6d9596a","session_id":"6197b5f4f63842e5c1b28790","condition":"contingent"