[{"success":true,"trial_type":"fullscreen","trial_index":0,"time_elapsed":6828,"internal_node_id":"0.0-0.0","subject_id":"614a433bba99b00a68b0a435","study_id":"6197b3f67c2b5cd3b6d9596a","session_id":"619be321b64deff2fa035178","condition":"contingent","relevant_dimensions":["wings","legs"],"bee_group":{"antennae":"X","wings":"1","pattern":"X","legs":"F"},"bonus":0.6800000000000014},{"success":true,"timeout":false,"failed_images":[],"failed_audio":[],"failed_video":[],"trial_type":"preload","trial_index":1,"time_elapsed":8355,"internal_node_id":"0.0-1.0","subject_id":"614a433bba99b00a68b0a435","study_id":"6197b3f67c2b5cd3b6d9596a","session_id":"619be321b64deff2fa035178","condition":"contingent","relevant_dimensions":["wings","legs"],"bee_group":{"antennae":"X","wings":"1","pattern":"X","legs":"F"},"bonus":0.6800000000000014},{"rt":7259.80000000447,"stimulus":"Welcome! Press any key to begin.","response":" ","trial_type":"html-keyboard-response","trial_index":2,"time_elapsed":15616,"internal_node_id":"0.0-2.0","subject_id":"614a433bba99b00a68b0a435","study_id":"6197b3f67c2b5cd3b6d9596a","session_id":"619be321b64deff2fa035178","condition":"contingent","relevant_dimensions":["wings","legs"],"bee_group":{"antennae":"X","wings":"1","pattern":"X","legs":"F"},"bonus":0.6800000000000014},{"view_history":[{"page_index":0,"viewing_time":10386.39999999851},{"page_index":1,"viewing_time":14146.60000000149},{"page_index":2,"viewing_time":17652.19999999553},{"page_index":3,"viewing_time":20026.60000000149},{"page_index":4,"viewing_time":11239.60000000149},{"page_index":5,"viewing_time":11431.39999999851},{"page_index":6,"viewing_time":11499.29999999702},{"page_index":7,"viewing_time":6405.10000000149},{"page_index":8,"viewing_time":5960.60000000149},{"page_index":9,"viewing_time":3434.10000000149},{"page_index":10,"viewing_time":3898.6999999955297},{"page_index":11,"viewing_time":19583.70000000298},{"page_index":12,"viewing_time":13924.89999999851},{"page_index":13,"viewing_time":1759.8000000044703},{"page_index":14,"viewing_time":3230.6999999955297}],"rt":154580.29999999702,"trial_type":"instructions","trial_index":3,"time_elapsed":170197,"internal_node_id":"0.0-3.0-0.0","subject_id":"614a433bba99b00a68b0a435","study_id":"6197b3f67c2b5cd3b6d9596a","session_id":"619be321b64deff2fa035178","condition":"contingent","relevant_dimensions":["wings","legs"],"bee_group":{"antennae":"X","wings":"1","pattern":"X","legs":"F"},"bonus":0.6800000000000014},{"rt":23962.39999999851,"response":{"Q0":["Two or six legs","Stripes or spots on body","Single or double wings","Antennae or no antennae"]},"question_order":[0],"trial_type":"survey-multi-select","trial_index":4,"time_elapsed":194166,"internal_node_id":"0.0-3.0-1.0","subject_id":"614a433bba99b00a68b0a435","study_id":"6197b3f67c2b5cd3b6d9596a","session_id":"619be321b64deff2fa035178","condition":"contingent","relevant_dimensions":["wings","legs"],"bee_group":{"antennae":"X","wings":"1","pattern":"X","legs":"F"},"correct":true,"bonus":0.6800000000000014},{"rt":48241.80000000447,"response":{"Q1":"No.","Q2":"Based on the order in which you see the bees.","Q3":"You do not learn if it was friendly or dangerous, and do not alter your bonus."},"question_order":[0,1,2],"trial_type":"survey-multi-choice","trial_index":5,"time_elapsed":242411,"internal_node_id":"0.0-3.0-2.0","subject_id":"614a433bba99b00a68b0a435","study_id":"6197b3f67c2b5cd3b6d9596a","session_id":"619be321b64deff2fa035178","condition":"contingent","relevant_dimensions":["wings","legs"],"bee_group":{"antennae":"X","wings":"1","pattern":"X","legs":"F"},"correct":false,"bonus":0.6800000000000014},{"rt":3781.89999999851,"stimulus":"<p>You did not answer all comprehension questions correctly.<br>Press <b>continue</b> to review the instructions again.</p>","response":0,"trial_type":"html-button-response","trial_index":6,"time_elapsed":246195,"internal_node_id":"0.0-3.0-3.0","subject_id":"614a433bba99b00a68b0a435","study_id":"6197b3f67c2b5cd3b6d9596a","session_id":"619be321b64deff2fa035178","condition":"contingent","relevant_dimensions":["wings","legs"],"bee_group":{"antennae":"X","wings":"1","pattern":"X","legs":"F"},"bonus":0.6800000000000014},{"view_history":[{"page_index":0,"viewing_time":2232.10000000149},{"page_index":1,"viewing_time":21265.69999999553},{"page_index":2,"viewing_time":31984.40000000596},{"page_index":3,"viewing_time":19495.79999999702},{"page_index":4,"viewing_time":3601.2999999970198},{"page_index":5,"viewing_time":12146.5},{"page_index":6,"viewing_time":18864.90000000596},{"page_index":7,"viewing_time":3884.89999999851},{"page_index":8,"viewing_time":4154.60000000149},{"page_index":9,"viewing_time":2129.5},{"page_index":10,"viewing_time":2032.5},{"page_index":11,"viewing_time":11099.29999999702},{"page_index":12,"viewing_time":1915.5},{"page_index":13,"viewing_time":1484},{"page_index":14,"viewing_time":1615.6000000014901}],"rt":137906.8999999985,"trial_type":"instructions","trial_index":7,"time_elapsed":384104,"internal_node_id":"0.0-3.0-4.0-0.0","subject_id":"614a433bba99b00a68b0a435","study_id":"6197b3f67c2b5cd3b6d9596a","session_id":"619be321b64deff2fa035178","condition":"contingent","relevant_dimensions":["wings","legs"],"bee_group":{"antennae":"X","wings":"1","pattern":"X","legs":"F"},"bonus":0.6800000000000014},{"rt":11231.69999999553,"response":{"Q0":["Two or six legs","Stripes or spots on body","Single or double wings","Antennae or no antennae"]},"question_order":[0],"trial_type":"survey-multi-select","trial_index":8,"time_elapsed":395339,"internal_node_id":"0.0-3.0-4.0-1.0","subject_id":"614a433bba99b00a68b0a435","study_id":"6197b3f67c2b5cd3b6d9596a","session_id":"619be321b64deff2fa035178","condition":"contingent","relevant_dimensions":["wings","legs"],"bee_group":{"antennae":"X","wings":"1","pattern":"X","legs":"F"},"correct":true,"bonus":0.6800000000000014},{"rt":35663,"response":{"Q1":"No.","Q2":"Based on the four features of the bee.","Q3":"You do not learn if it was friendly or dangerous, and do not alter your bonus."},"question_order":[0,1,2],"trial_type":"survey-multi-choice","trial_index":9,"time_elapsed":431004,"internal_node_id":"0.0-3.0-4.0-2.0","subject_id":"614a433bba99b00a68b0a435","study_id":"6197b3f67c2b5cd3b6d9596a","session_id":"619be321b64deff2fa035178","condition":"contingent","relevant_dimensions":["wings","legs"],"bee_group":{"antennae":"X","wings":"1","pattern":"X","legs":"F"},"correct":true,"bonus":0.6800000000000014},{"rt":2113,"stimulus":"<p>Congrats, you got everything right<br>When you're ready, click the button below to continue to the experiment.</p>","response":0,"trial_type":"html-button-response","trial_index":10,"time_elapsed":433119,"internal_node_id":"0.0-3.0-4.0-3.0","subject_id":"614a433bba99b00a68b0a435","study_id":"6197b3f67c2b5cd3b6d9596a","session_id":"619be321b64deff2fa035178","condition":"contingent","relevant_dimensions":["wings","legs"],"bee_group":{"antennae":"X","wings":"1","pattern":"X","legs":"F"},"bonus":0.6800000000000014},{"rt":10684.20000000298,"stimulus":"bees-with-color/bee-A2DF.svg","response":0,"trial_type":"image-button-response","trial_index":11,"time_elapsed":443808,"internal_node_id":"0.0-4.0-0.0","subject_id":"614a433bba99b00a68b0a435","study_id":"6197b3f67c2b5cd3b6d9596a","session_id":"619be321b64deff2fa035178","condition":"contingent","relevant_dimensions":["wings","legs"],"bee_group":{"antennae":"X","wings":"1","pattern":"X","legs":"F"},"action":"harvest","summary":"good-harvest","bonus":0.6800000000000014},{"rt":13525,"stimulus":"\n                    <p><b>Action: <em>harvest</em></b></p>\n                    <p>This is the bee that you just saw.</p>\n                    <img src=\"bees-with-color/bee-A2DF.svg\" width=\"200\">\n                    <p><span class=\"greenText\"><b>Successful harvest!</b></span><br>Your pay has increased by $0.02. Your bonus pay is now $0.56.</p>\n            ","response":0,"trial_type":"html-button-response","trial_index":12,"time_elapsed":457337,"internal_node_id":"0.0-4.0-1.0","subject_id":"614a433bba99b00a68b0a435","study_id":"6197b3f67c2b5cd3b6d9596a","session_id":"619be321b64deff2fa035178","condition":"contingent","relevant_dimensions":["wings","legs"],"bee_group":{"antennae":"X","wings":"1","pattern":"X","legs":"F"},"bonus":0.6800000000000014},{"rt":7026.10000000149,"stimulus":"bees-with-color/bee-B2SM.svg","response":0,"trial_type":"image-button-response","trial_index":13,"time_elapsed":464366,"internal_node_id":"0.0-4.0-0.1","subject_id":"614a433bba99b00a68b0a435","study_id":"6197b3f67c2b5cd3b6d9596a","session_id":"619be321b64deff2fa035178","condition":"contingent","relevant_dimensions":["wings","legs"],"bee_group":{"antennae":"X","wings":"1","pattern":"X","legs":"F"},"action":"harvest","summary":"good-harvest","bonus":0.6800000000000014},{"rt":6000.79999999702,"stimulus":"\n                    <p><b>Action: <em>harvest</em></b></p>\n                    <p>This is the bee that you just saw.</p>\n                    <img src=\"bees-with-color/bee-B2SM.svg\" width=\"200\">\n                    <p><span class=\"greenText\"><b>Successful harvest!</b></span><br>Your pay has increased by $0.02. Your bonus pay is now $0.58.</p>\n            ","response":0,"trial_type":"html-button-response","trial_index":14,"time_elapsed":470370,"internal_node_id":"0.0-4.0-1.1","subject_id":"614a433bba99b00a68b0a435","study_id":"6197b3f67c2b5cd3b6d9596a","session_id":"619be321b64deff2fa035178","condition":"contingent","relevant_dimensions":["wings","legs"],"bee_group":{"antennae":"X","wings":"1","pattern":"X","legs":"F"},"bonus":0.6800000000000014},{"rt":3746.2000000029802,"stimulus":"bees-with-color/bee-B1DF.svg","response":1,"trial_type":"image-button-response","trial_index":15,"time_elapsed":474120,"internal_node_id":"0.0-4.0-0.2","subject_id":"614a433bba99b00a68b0a435","study_id":"6197b3f67c2b5cd3b6d9596a","session_id":"619be321b64deff2fa035178","condition":"contingent","relevant_dimensions":["wings","legs"],"bee_group":{"antennae":"X","wings":"1","pattern":"X","legs":"F"},"action":"avoid","summary":"good-avoid","bonus":0.6800000000000014},{"rt":5780.19999999553,"stimulus":"\n                    <p><b>Action: <em>avoid</em></b></p>\n                    <p>This is the bee that you just saw.</p>\n                    <img src=\"bees-with-color/bee-B1DF.svg\" width=\"200\">\n                    <p><br>Your bonus pay is unchanged, and remains at $0.58.</p>\n            ","response":0,"trial_type":"html-button-response","trial_index":16,"time_elapsed":479903,"internal_node_id":"0.0-4.0-1.2","subject_id":"614a433bba99b00a68b0a435","study_id":"6197b3f67c2b5cd3b6d9596a","session_id":"619be321b64deff2fa035178","condition":"contingent","relevant_dimensions":["wings","legs"],"bee_group":{"antennae":"X","wings":"1","pattern":"X","legs":"F"},"bonus":0.6800000000000014},{"rt":3429.7000000029802,"stimulus":"bees-with-color/bee-B2DF.svg","response":0,"trial_type":"image-button-response","trial_index":17,"time_elapsed":483335,"internal_node_id":"0.0-4.0-0.3","subject_id":"614a433bba99b00a68b0a435","study_id":"6197b3f67c2b5cd3b6d9596a","session_id":"619be321b64deff2fa035178","condition":"contingent","relevant_dimensions":["wings","legs"],"bee_group":{"antennae":"X","wings":"1","pattern":"X","legs":"F"},"action":"harvest","summary":"good-harvest","bonus":0.6800000000000014},{"rt":3814.7000000029802,"stimulus":"\n                    <p><b>Action: <em>harvest</em></b></p>\n                    <p>This is the bee that you just saw.</p>\n                    <img src=\"bees-with-color/bee-B2DF.svg\" width=\"200\">\n                    <p><span class=\"greenText\"><b>Successful harvest!</b></span><br>Your pay has increased by $0.02. Your bonus pay is now $0.60.</p>\n            ","response":0,"trial_type":"html-button-response","trial_index":18,"time_elapsed":487153,"internal_node_id":"0.0-4.0-1.3","subject_id":"614a433bba99b00a68b0a435","study_id":"6197b3f67c2b5cd3b6d9596a","session_id":"619be321b64deff2fa035178","condition":"contingent","relevant_dimensions":["wings","legs"],"bee_group":{"antennae":"X","wings":"1","pattern":"X","legs":"F"},"bonus":0.6800000000000014},{"rt":4061.0999999940395,"stimulus":"bees-with-color/bee-A1SF.svg","response":0,"trial_type":"image-button-response","trial_index":19,"time_elapsed":491217,"internal_node_id":"0.0-4.0-0.4","subject_id":"614a433bba99b00a68b0a435","study_id":"6197b3f67c2b5cd3b6d9596a","session_id":"619be321b64deff2fa035178","condition":"contingent","relevant_dimensions":["wings","legs"],"bee_group":{"antennae":"X","wings":"1","pattern":"X","legs":"F"},"action":"harvest","summary":"bad-harvest","bonus":0.6800000000000014},{"rt":7484.30000000447,"stimulus":"\n                    <p><b>Action: <em>harvest</em></b></p>\n                    <p>This is the bee that you just saw.</p>\n                    <img src=\"bees-with-color/bee-A1SF.svg\" width=\"200\">\n                    <p><span class=\"redText\">Bad choice, the bee was angry.</span><br><b>You have been stung!</b><br>Your pay has been decreased by $0.10. Your bonus pay is now $0.50.</p>\n            ","response":0,"trial_type":"html-button-response","trial_index":20,"time_elapsed":498704,"internal_node_id":"0.0-4.0-1.4","subject_id":"614a433bba99b00a68b0a435","study_id":"6197b3f67c2b5cd3b6d9596a","session_id":"619be321b64deff2fa035178","condition":"contingent","relevant_dimensions":["wings","legs"],"bee_group":{"antennae":"X","wings":"1","pattern":"X","legs":"F"},"bonus":0.6800000000000014},{"rt":3747,"stimulus":"bees-with-color/bee-A1SM.svg","response":0,"trial_type":"image-button-response","trial_index":21,"time_elapsed":502454,"internal_node_id":"0.0-4.0-0.5","subject_id":"614a433bba99b00a68b0a435","study_id":"6197b3f67c2b5cd3b6d9596a","session_id":"619be321b64deff2fa035178","condition":"contingent","relevant_dimensions":["wings","legs"],"bee_group":{"antennae":"X","wings":"1","pattern":"X","legs":"F"},"action":"harvest","summary":"good-harvest","bonus":0.6800000000000014},{"rt":1695.1000000014901,"stimulus":"\n                    <p><b>Action: <em>harvest</em></b></p>\n                    <p>This is the bee that you just saw.</p>\n                    <img src=\"bees-with-color/bee-A1SM.svg\" width=\"200\">\n                    <p><span class=\"greenText\"><b>Successful harvest!</b></span><br>Your pay has increased by $0.02. Your bonus pay is now $0.52.</p>\n            ","response":0,"trial_type":"html-button-response","trial_index":22,"time_elapsed":504151,"internal_node_id":"0.0-4.0-1.5","subject_id":"614a433bba99b00a68b0a435","study_id":"6197b3f67c2b5cd3b6d9596a","session_id":"619be321b64deff2fa035178","condition":"contingent","relevant_dimensions":["wings","legs"],"bee_group":{"antennae":"X","wings":"1","pattern":"X","legs":"F"},"bonus":0.6800000000000014},{"rt":1979.6000000014901,"stimulus":"bees-with-color/bee-B2DM.svg","response":0,"trial_type":"image-button-response","trial_index":23,"time_elapsed":506134,"internal_node_id":"0.0-4.0-0.6","subject_id":"614a433bba99b00a68b0a435","study_id":"6197b3f67c2b5cd3b6d9596a","session_id":"619be321b64deff2fa035178","condition":"contingent","relevant_dimensions":["wings","legs"],"bee_group":{"antennae":"X","wings":"1","pattern":"X","legs":"F"},"action":"harvest","summary":"good-harvest","bonus":0.6800000000000014},{"rt":1430.7999999970198,"stimulus":"\n                    <p><b>Action: <em>harvest</em></b></p>\n                    <p>This is the bee that you just saw.</p>\n                    <img src=\"bees-with-color/bee-B2DM.svg\" width=\"200\">\n                    <p><span class=\"greenText\"><b>Successful harvest!</b></span><br>Your pay has increased by $0.02. Your bonus pay is now $0.54.</p>\n            ","response":0,"trial_type":"html-button-response","trial_index":24,"time_elapsed":507567,"internal_node_id":"0.0-4.0-1.6","subject_id":"614a433bba99b00a68b0a435","study_id":"6197b3f67c2b5cd3b6d9596a","session_id":"619be321b64deff2fa035178","condition":"contingent","relevant_dimensions":["wings","legs"],"bee_group":{"antennae":"X","wings":"1","pattern":"X","legs":"F"},"bonus":0.6800000000000014},{"rt":2532.2000000029802,"stimulus":"bees-with-color/bee-B1DM.svg","response":0,"trial_type":"image-button-response","trial_index":25,"time_elapsed":510102,"internal_node_id":"0.0-4.0-0.7","subject_id":"614a433bba99b00a68b0a435","study_id":"6197b3f67c2b5cd3b6d9596a","session_id":"619be321b64deff2fa035178","condition":"contingent","relevant_dimensions":["wings","legs"],"bee_group":{"antennae":"X","wings":"1","pattern":"X","legs":"F"},"action":"harvest","summary":"good-harvest","bonus":0.6800000000000014},{"rt":1445.2999999970198,"stimulus":"\n                    <p><b>Action: <em>harvest</em></b></p>\n                    <p>This is the bee that you just saw.</p>\n                    <img src=\"bees-with-color/bee-B1DM.svg\" width=\"200\">\n                    <p><span class=\"greenText\"><b>Successful harvest!</b></span><br>Your pay has increased by $0.02. Your bonus pay is now $0.56.</p>\n            ","response":0,"trial_type":"html-button-response","trial_index":26,"time_elapsed":511550,"internal_node_id":"0.0-4.0-1.7","subject_id":"614a433bba99b00a68b0a435","study_id":"6197b3f67c2b5cd3b6d9596a","session_id":"619be321b64deff2fa035178","condition":"contingent","relevant_dimensions":["wings","legs"],"bee_group":{"antennae":"X","wings":"1","pattern":"X","legs":"F"},"bonus":0.6800000000000014},{"rt":3379.7999999970198,"stimulus":"bees-with-color/bee-B2SF.svg","response":0,"trial_type":"image-button-response","trial_index":27,"time_elapsed":514933,"internal_node_id":"0.0-4.0-0.8","subject_id":"614a433bba99b00a68b0a435","study_id":"6197b3f67c2b5cd3b6d9596a","session_id":"619be321b64deff2fa035178","condition":"contingent","relevant_dimensions":["wings","legs"],"bee_group":{"antennae":"X","wings":"1","pattern":"X","legs":"F"},"action":"harvest","summary":"good-harvest","bonus":0.6800000000000014},{"rt":1413,"stimulus":"\n                    <p><b>Action: <em>harvest</em></b></p>\n                    <p>This is the bee that you just saw.</p>\n                    <img src=\"bees-with-color/bee-B2SF.svg\" width=\"200\">\n                    <p><span class=\"greenText\"><b>Successful harvest!</b></span><br>Your pay has increased by $0.02. Your bonus pay is now $0.58.</p>\n            ","response":0,"trial_type":"html-button-response","trial_index":28,"time_elapsed":516348,"internal_node_id":"0.0-4.0-1.8","subject_id":"614a433bba99b00a68b0a435","study_id":"6197b3f67c2b5cd3b6d9596a","session_id":"619be321b64deff2fa035178","condition":"contingent","relevant_dimensions":["wings","legs"],"bee_group":{"antennae":"X","wings":"1","pattern":"X","legs":"F"},"bonus":0.6800000000000014},{"rt":5532.5,"stimulus":"bees-with-color/bee-A1DM.svg","response":0,"trial_type":"image-button-response","trial_index":29,"time_elapsed":521884,"internal_node_id":"0.0-4.0-0.9","subject_id":"614a433bba99b00a68b0a435","study_id":"6197b3f67c2b5cd3b6d9596a","session_id":"619be321b64deff2fa035178","condition":"contingent","relevant_dimensions":["wings","legs"],"bee_group":{"antennae":"X","wings":"1","pattern":"X","legs":"F"},"action":"harvest","summary":"good-harvest","bonus":0.6800000000000014},{"rt":1475.1000000014901,"stimulus":"\n                    <p><b>Action: <em>harvest</em></b></p>\n                    <p>This is the bee that you just saw.</p>\n                    <img src=\"bees-with-color/bee-A1DM.svg\" width=\"200\">\n                    <p><span class=\"greenText\"><b>Successful harvest!</b></span><br>Your pay has increased by $0.02. Your bonus pay is now $0.60.</p>\n            ","response":0,"trial_type":"html-button-response","trial_index":30,"time_elapsed":523361,"internal_node_id":"0.0-4.0-1.9","subject_id":"614a433bba99b00a68b0a435","study_id":"6197b3f67c2b5cd3b6d9596a","session_id":"619be321b64deff2fa035178","condition":"contingent","relevant_dimensions":["wings","legs"],"bee_group":{"antennae":"X","wings":"1","pattern":"X","legs":"F"},"bonus":0.6800000000000014},{"rt":2984.10000000149,"stimulus":"bees-with-color/bee-A1DF.svg","response":0,"trial_type":"image-button-response","trial_index":31,"time_elapsed":526347,"internal_node_id":"0.0-4.0-0.10","subject_id":"614a433bba99b00a68b0a435","study_id":"6197b3f67c2b5cd3b6d9596a","session_id":"619be321b64deff2fa035178","condition":"contingent","relevant_dimensions":["wings","legs"],"bee_group":{"antennae":"X","wings":"1","pattern":"X","legs":"F"},"action":"harvest","summary":"bad-harvest","bonus":0.6800000000000014},{"rt":4113.60000000149,"stimulus":"\n                    <p><b>Action: <em>harvest</em></b></p>\n                    <p>This is the bee that you just saw.</p>\n                    <img src=\"bees-with-color/bee-A1DF.svg\" width=\"200\">\n                    <p><span class=\"redText\">Bad choice, the bee was angry.</span><br><b>You have been stung!</b><br>Your pay has been decreased by $0.10. Your bonus pay is now $0.50.</p>\n            ","response":0,"trial_type":"html-button-response","trial_index":32,"time_elapsed":530462,"internal_node_id":"0.0-4.0-1.10","subject_id":"614a433bba99b00a68b0a435","study_id":"6197b3f67c2b5cd3b6d9596a","session_id":"619be321b64deff2fa035178","condition":"contingent","relevant_dimensions":["wings","legs"],"bee_group":{"antennae":"X","wings":"1","pattern":"X","legs":"F"},"bonus":0.6800000000000014},{"rt":4189.19999999553,"stimulus":"bees-with-color/bee-A2DM.svg","response":0,"trial_type":"image-button-response","trial_index":33,"time_elapsed":534653,"internal_node_id":"0.0-4.0-0.11","subject_id":"614a433bba99b00a68b0a435","study_id":"6197b3f67c2b5cd3b6d9596a","session_id":"619be321b64deff2fa035178","condition":"contingent","relevant_dimensions":["wings","legs"],"bee_group":{"antennae":"X","wings":"1","pattern":"X","legs":"F"},"action":"harvest","summary":"good-harvest","bonus":0.6800000000000014},{"rt":1445,"stimulus":"\n                    <p><b>Action: <em>harvest</em></b></p>\n                    <p>This is the bee that you just saw.</p>\n                    <img src=\"bees-with-color/bee-A2DM.svg\" width=\"200\">\n                    <p><span class=\"greenText\"><b>Successful harvest!</b></span><br>Your pay has increased by $0.02. Your bonus pay is now $0.52.</p>\n            ","response":0,"trial_type":"html-button-response","trial_index":34,"time_elapsed":536100,"internal_node_id":"0.0-4.0-1.11","subject_id":"614a433bba99b00a68b0a435","study_id":"6197b3f67c2b5cd3b6d9596a","session_id":"619be321b64deff2fa035178","condition":"contingent","relevant_dimensions":["wings","legs"],"bee_group":{"antennae":"X","wings":"1","pattern":"X","legs":"F"},"bonus":0.6800000000000014},{"rt":3245.5,"stimulus":"bees-with-color/bee-A2SF.svg","response":1,"trial_type":"image-button-response","trial_index":35,"time_elapsed":539348,"internal_node_id":"0.0-4.0-0.12","subject_id":"614a433bba99b00a68b0a435","study_id":"6197b3f67c2b5cd3b6d9596a","session_id":"619be321b64deff2fa035178","condition":"contingent","relevant_dimensions":["wings","legs"],"bee_group":{"antennae":"X","wings":"1","pattern":"X","legs":"F"},"action":"avoid","summary":"bad-avoid","bonus":0.6800000000000014},{"rt":1085.1000000014901,"stimulus":"\n                    <p><b>Action: <em>avoid</em></b></p>\n                    <p>This is the bee that you just saw.</p>\n                    <img src=\"bees-with-color/bee-A2SF.svg\" width=\"200\">\n                    <p><br>Your bonus pay is unchanged, and remains at $0.52.</p>\n            ","response":0,"trial_type":"html-button-response","trial_index":36,"time_elapsed":540435,"internal_node_id":"0.0-4.0-1.12","subject_id":"614a433bba99b00a68b0a435","study_id":"6197b3f67c2b5cd3b6d9596a","session_id":"619be321b64deff2fa035178","condition":"contingent","relevant_dimensions":["wings","legs"],"bee_group":{"antennae":"X","wings":"1","pattern":"X","legs":"F"},"bonus":0.6800000000000014},{"rt":4413,"stimulus":"bees-with-color/bee-B1SM.svg","response":1,"trial_type":"image-button-response","trial_index":37,"time_elapsed":544850,"internal_node_id":"0.0-4.0-0.13","subject_id":"614a433bba99b00a68b0a435","study_id":"6197b3f67c2b5cd3b6d9596a","session_id":"619be321b64deff2fa035178","condition":"contingent","relevant_dimensions":["wings","legs"],"bee_group":{"antennae":"X","wings":"1","pattern":"X","legs":"F"},"action":"avoid","summary":"bad-avoid","bonus":0.6800000000000014},{"rt":2396.7000000029802,"stimulus":"\n                    <p><b>Action: <em>avoid</em></b></p>\n                    <p>This is the bee that you just saw.</p>\n                    <img src=\"bees-with-color/bee-B1SM.svg\" width=\"200\">\n                    <p><br>Your bonus pay is unchanged, and remains at $0.52.</p>\n            ","response":0,"trial_type":"html-button-response","trial_index":38,"time_elapsed":547249,"internal_node_id":"0.0-4.0-1.13","subject_id":"614a433bba99b00a68b0a435","study_id":"6197b3f67c2b5cd3b6d9596a","session_id":"619be321b64deff2fa035178","condition":"contingent","relevant_dimensions":["wings","legs"],"bee_group":{"antennae":"X","wings":"1","pattern":"X","legs":"F"},"bonus":0.6800000000000014},{"rt":2108.89999999851,"stimulus":"bees-with-color/bee-B1SF.svg","response":0,"trial_type":"image-button-response","trial_index":39,"time_elapsed":549360,"internal_node_id":"0.0-4.0-0.14","subject_id":"614a433bba99b00a68b0a435","study_id":"6197b3f67c2b5cd3b6d9596a","session_id":"619be321b64deff2fa035178","condition":"contingent","relevant_dimensions":["wings","legs"],"bee_group":{"antennae":"X","wings":"1","pattern":"X","legs":"F"},"action":"harvest","summary":"bad-harvest","bonus":0.6800000000000014},{"rt":1459.5,"stimulus":"\n                    <p><b>Action: <em>harvest</em></b></p>\n                    <p>This is the bee that you just saw.</p>\n                    <img src=\"bees-with-color/bee-B1SF.svg\" width=\"200\">\n                    <p><span class=\"redText\">Bad choice, the bee was angry.</span><br><b>You have been stung!</b><br>Your pay has been decreased by $0.10. Your bonus pay is now $0.42.</p>\n            ","response":0,"trial_type":"html-button-response","trial_index":40,"time_elapsed":550822,"internal_node_id":"0.0-4.0-1.14","subject_id":"614a433bba99b00a68b0a435","study_id":"6197b3f67c2b5cd3b6d9596a","session_id":"619be321b64deff2fa035178","condition":"contingent","relevant_dimensions":["wings","legs"],"bee_group":{"antennae":"X","wings":"1","pattern":"X","legs":"F"},"bonus":0.6800000000000014},{"rt":1923.7000000029802,"stimulus":"bees-with-color/bee-A2SM.svg","response":0,"trial_type":"image-button-response","trial_index":41,"time_elapsed":552748,"internal_node_id":"0.0-4.0-0.15","subject_id":"614a433bba99b00a68b0a435","study_id":"6197b3f67c2b5cd3b6d9596a","session_id":"619be321b64deff2fa035178","condition":"contingent","relevant_dimensions":["wings","legs"],"bee_group":{"antennae":"X","wings":"1","pattern":"X","legs":"F"},"action":"harvest","summary":"good-harvest","bonus":0.6800000000000014},{"rt":1248.6999999955297,"stimulus":"\n                    <p><b>Action: <em>harvest</em></b></p>\n                    <p>This is the bee that you just saw.</p>\n                    <img src=\"bees-with-color/bee-A2SM.svg\" width=\"200\">\n                    <p><span class=\"greenText\"><b>Successful harvest!</b></span><br>Your pay has increased by $0.02. Your bonus pay is now $0.44.</p>\n            ","response":0,"trial_type":"html-button-response","trial_index":42,"time_elapsed":553999,"internal_node_id":"0.0-4.0-1.15","subject_id":"614a433bba99b00a68b0a435","study_id":"6197b3f67c2b5cd3b6d9596a","session_id":"619be321b64deff2fa035178","condition":"contingent","relevant_dimensions":["wings","legs"],"bee_group":{"antennae":"X","wings":"1","pattern":"X","legs":"F"},"bonus":0.6800000000000014},{"rt":4562.80000000447,"stimulus":"bees-with-color/bee-B2SF.svg","response":0,"trial_type":"image-button-response","trial_index":43,"time_elapsed":558564,"internal_node_id":"0.0-4.0-0.16","subject_id":"614a433bba99b00a68b0a435","study_id":"6197b3f67c2b5cd3b6d9596a","session_id":"619be321b64deff2fa035178","condition":"contingent","relevant_dimensions":["wings","legs"],"bee_group":{"antennae":"X","wings":"1","pattern":"X","legs":"F"},"action":"harvest","summary":"good-harvest","bonus":0.6800000000000014},{"rt":1231.2999999970198,"stimulus":"\n                    <p><b>Action: <em>harvest</em></b></p>\n                    <p>This is the bee that you just saw.</p>\n                    <img src=\"bees-with-color/bee-B2SF.svg\" width=\"200\">\n                    <p><span class=\"greenText\"><b>Successful harvest!</b></span><br>Your pay has increased by $0.02. Your bonus pay is now $0.46.</p>\n            ","response":0,"trial_type":"html-button-response","trial_index":44,"time_elapsed":559797,"internal_node_id":"0.0-4.0-1.16","subject_id":"614a433bba99b00a68b0a435","study_id":"6197b3f67c2b5cd3b6d9596a","session_id":"619be321b64deff2fa035178","condition":"contingent","relevant_dimensions":["wings","legs"],"bee_group":{"antennae":"X","wings":"1","pattern":"X","legs":"F"},"bonus":0.6800000000000014},{"rt":1865.2999999970198,"stimulus":"bees-with-color/bee-B2DF.svg","response":0,"trial_type":"image-button-response","trial_index":45,"time_elapsed":561665,"internal_node_id":"0.0-4.0-0.17","subject_id":"614a433bba99b00a68b0a435","study_id":"6197b3f67c2b5cd3b6d9596a","session_id":"619be321b64deff2fa035178","condition":"contingent","relevant_dimensions":["wings","legs"],"bee_group":{"antennae":"X","wings":"1","pattern":"X","legs":"F"},"action":"harvest","summary":"good-harvest","bonus":0.6800000000000014},{"rt":1248,"stimulus":"\n                    <p><b>Action: <em>harvest</em></b></p>\n                    <p>This is the bee that you just saw.</p>\n                    <img src=\"bees-with-color/bee-B2DF.svg\" width=\"200\">\n                    <p><span class=\"greenText\"><b>Successful harvest!</b></span><br>Your pay has increased by $0.02. Your bonus pay is now $0.48.</p>\n            ","response":0,"trial_type":"html-button-response","trial_index":46,"time_elapsed":562915,"internal_node_id":"0.0-4.0-1.17","subject_id":"614a433bba99b00a68b0a435","study_id":"6197b3f67c2b5cd3b6d9596a","session_id":"619be321b64deff2fa035178","condition":"contingent","relevant_dimensions":["wings","legs"],"bee_group":{"antennae":"X","wings":"1","pattern":"X","legs":"F"},"bonus":0.6800000000000014},{"rt":2732.7999999970198,"stimulus":"bees-with-color/bee-B2DM.svg","response":0,"trial_type":"image-button-response","trial_index":47,"time_elapsed":565650,"internal_node_id":"0.0-4.0-0.18","subject_id":"614a433bba99b00a68b0a435","study_id":"6197b3f67c2b5cd3b6d9596a","session_id":"619be321b64deff2fa035178","condition":"contingent","relevant_dimensions":["wings","legs"],"bee_group":{"antennae":"X","wings":"1","pattern":"X","legs":"F"},"action":"harvest","summary":"good-harvest","bonus":0.6800000000000014},{"rt":1680,"stimulus":"\n                    <p><b>Action: <em>harvest</em></b></p>\n                    <p>This is the bee that you just saw.</p>\n                    <img src=\"bees-with-color/bee-B2DM.svg\" width=\"200\">\n                    <p><span class=\"greenText\"><b>Successful harvest!</b></span><br>Your pay has increased by $0.02. Your bonus pay is now $0.50.</p>\n            ","response":0,"trial_type":"html-button-response","trial_index":48,"time_elapsed":567331,"internal_node_id":"0.0-4.0-1.18","subject_id":"614a433bba99b00a68b0a435","study_id":"6197b3f67c2b5cd3b6d9596a","session_id":"619be321b64deff2fa035178","condition":"contingent","relevant_dimensions":["wings","legs"],"bee_group":{"antennae":"X","wings":"1","pattern":"X","legs":"F"},"bonus":0.6800000000000014},{"rt":4848.20000000298,"stimulus":"bees-with-color/bee-B1DF.svg","response":1,"trial_type":"image-button-response","trial_index":49,"time_elapsed":572182,"internal_node_id":"0.0-4.0-0.19","subject_id":"614a433bba99b00a68b0a435","study_id":"6197b3f67c2b5cd3b6d9596a","session_id":"619be321b64deff2fa035178","condition":"contingent","relevant_dimensions":["wings","legs"],"bee_group":{"antennae":"X","wings":"1","pattern":"X","legs":"F"},"action":"avoid","summary":"good-avoid","bonus":0.6800000000000014},{"rt":1116.2999999970198,"stimulus":"\n                    <p><b>Action: <em>avoid</em></b></p>\n                    <p>This is the bee that you just saw.</p>\n                    <img src=\"bees-with-color/bee-B1DF.svg\" width=\"200\">\n                    <p><br>Your bonus pay is unchanged, and remains at $0.50.</p>\n            ","response":0,"trial_type":"html-button-response","trial_index":50,"time_elapsed":573300,"internal_node_id":"0.0-4.0-1.19","subject_id":"614a433bba99b00a68b0a435","study_id":"6197b3f67c2b5cd3b6d9596a","session_id":"619be321b64deff2fa035178","condition":"contingent","relevant_dimensions":["wings","legs"],"bee_group":{"antennae":"X","wings":"1","pattern":"X","legs":"F"},"bonus":0.6800000000000014},{"rt":2947.10000000149,"stimulus":"bees-with-color/bee-B2SM.svg","response":0,"trial_type":"image-button-response","trial_index":51,"time_elapsed":576250,"internal_node_id":"0.0-4.0-0.20","subject_id":"614a433bba99b00a68b0a435","study_id":"6197b3f67c2b5cd3b6d9596a","session_id":"619be321b64deff2fa035178","condition":"contingent","relevant_dimensions":["wings","legs"],"bee_group":{"antennae":"X","wings":"1","pattern":"X","legs":"F"},"action":"harvest","summary":"good-harvest","bonus":0.6800000000000014},{"rt":1380,"stimulus":"\n                    <p><b>Action: <em>harvest</em></b></p>\n                    <p>This is the bee that you just saw.</p>\n                    <img src=\"bees-with-color/bee-B2SM.svg\" width=\"200\">\n                    <p><span class=\"greenText\"><b>Successful harvest!</b></span><br>Your pay has increased by $0.02. Your bonus pay is now $0.52.</p>\n            ","response":0,"trial_type":"html-button-response","trial_index":52,"time_elapsed":577632,"internal_node_id":"0.0-4.0-1.20","subject_id":"614a433bba99b00a68b0a435","study_id":"6197b3f67c2b5cd3b6d9596a","session_id":"619be321b64deff2fa035178","condition":"contingent","relevant_dimensions":["wings","legs"],"bee_group":{"antennae":"X","wings":"1","pattern":"X","legs":"F"},"bonus":0.6800000000000014},{"rt":3578,"stimulus":"bees-with-color/bee-A1DF.svg","response":0,"trial_type":"image-button-response","trial_index":53,"time_elapsed":581213,"internal_node_id":"0.0-4.0-0.21","subject_id":"614a433bba99b00a68b0a435","study_id":"6197b3f67c2b5cd3b6d9596a","session_id":"619be321b64deff2fa035178","condition":"contingent","relevant_dimensions":["wings","legs"],"bee_group":{"antennae":"X","wings":"1","pattern":"X","legs":"F"},"action":"harvest","summary":"bad-harvest","bonus":0.6800000000000014},{"rt":1251.3000000044703,"stimulus":"\n                    <p><b>Action: <em>harvest</em></b></p>\n                    <p>This is the bee that you just saw.</p>\n                    <img src=\"bees-with-color/bee-A1DF.svg\" width=\"200\">\n                    <p><span class=\"redText\">Bad choice, the bee was angry.</span><br><b>You have been stung!</b><br>Your pay has been decreased by $0.10. Your bonus pay is now $0.42.</p>\n            ","response":0,"trial_type":"html-button-response","trial_index":54,"time_elapsed":582466,"internal_node_id":"0.0-4.0-1.21","subject_id":"614a433bba99b00a68b0a435","study_id":"6197b3f67c2b5cd3b6d9596a","session_id":"619be321b64deff2fa035178","condition":"contingent","relevant_dimensions":["wings","legs"],"bee_group":{"antennae":"X","wings":"1","pattern":"X","legs":"F"},"bonus":0.6800000000000014},{"rt":1777.2999999970198,"stimulus":"bees-with-color/bee-B1SM.svg","response":0,"trial_type":"image-button-response","trial_index":55,"time_elapsed":584246,"internal_node_id":"0.0-4.0-0.22","subject_id":"614a433bba99b00a68b0a435","study_id":"6197b3f67c2b5cd3b6d9596a","session_id":"619be321b64deff2fa035178","condition":"contingent","relevant_dimensions":["wings","legs"],"bee_group":{"antennae":"X","wings":"1","pattern":"X","legs":"F"},"action":"harvest","summary":"good-harvest","bonus":0.6800000000000014},{"rt":1116.6000000014901,"stimulus":"\n                    <p><b>Action: <em>harvest</em></b></p>\n                    <p>This is the bee that you just saw.</p>\n                    <img src=\"bees-with-color/bee-B1SM.svg\" width=\"200\">\n                    <p><span class=\"greenText\"><b>Successful harvest!</b></span><br>Your pay has increased by $0.02. Your bonus pay is now $0.44.</p>\n            ","response":0,"trial_type":"html-button-response","trial_index":56,"time_elapsed":585365,"internal_node_id":"0.0-4.0-1.22","subject_id":"614a433bba99b00a68b0a435","study_id":"6197b3f67c2b5cd3b6d9596a","session_id":"619be321b64deff2fa035178","condition":"contingent","relevant_dimensions":["wings","legs"],"bee_group":{"antennae":"X","wings":"1","pattern":"X","legs":"F"},"bonus":0.6800000000000014},{"rt":3012.2999999970198,"stimulus":"bees-with-color/bee-A2SM.svg","response":0,"trial_type":"image-button-response","trial_index":57,"time_elapsed":588379,"internal_node_id":"0.0-4.0-0.23","subject_id":"614a433bba99b00a68b0a435","study_id":"6197b3f67c2b5cd3b6d9596a","session_id":"619be321b64deff2fa035178","condition":"contingent","relevant_dimensions":["wings","legs"],"bee_group":{"antennae":"X","wings":"1","pattern":"X","legs":"F"},"action":"harvest","summary":"good-harvest","bonus":0.6800000000000014},{"rt":1248.2999999970198,"stimulus":"\n                    <p><b>Action: <em>harvest</em></b></p>\n                    <p>This is the bee that you just saw.</p>\n                    <img src=\"bees-with-color/bee-A2SM.svg\" width=\"200\">\n                    <p><span class=\"greenText\"><b>Successful harvest!</b></span><br>Your pay has increased by $0.02. Your bonus pay is now $0.46.</p>\n            ","response":0,"trial_type":"html-button-response","trial_index":58,"time_elapsed":589630,"internal_node_id":"0.0-4.0-1.23","subject_id":"614a433bba99b00a68b0a435","study_id":"6197b3f67c2b5cd3b6d9596a","session_id":"619be321b64deff2fa035178","condition":"contingent","relevant_dimensions":["wings","legs"],"bee_group":{"antennae":"X","wings":"1","pattern":"X","legs":"F"},"bonus":0.6800000000000014},{"rt":1743.8999999985099,"stimulus":"bees-with-color/bee-A2DF.svg","response":0,"trial_type":"image-button-response","trial_index":59,"time_elapsed":591376,"internal_node_id":"0.0-4.0-0.24","subject_id":"614a433bba99b00a68b0a435","study_id":"6197b3f67c2b5cd3b6d9596a","session_id":"619be321b64deff2fa035178","condition":"contingent","relevant_dimensions":["wings","legs"],"bee_group":{"antennae":"X","wings":"1","pattern":"X","legs":"F"},"action":"harvest","summary":"good-harvest","bonus":0.6800000000000014},{"rt":1671.7000000029802,"stimulus":"\n                    <p><b>Action: <em>harvest</em></b></p>\n                    <p>This is the bee that you just saw.</p>\n                    <img src=\"bees-with-color/bee-A2DF.svg\" width=\"200\">\n                    <p><span class=\"greenText\"><b>Successful harvest!</b></span><br>Your pay has increased by $0.02. Your bonus pay is now $0.48.</p>\n            ","response":0,"trial_type":"html-button-response","trial_index":60,"time_elapsed":593050,"internal_node_id":"0.0-4.0-1.24","subject_id":"614a433bba99b00a68b0a435","study_id":"6197b3f67c2b5cd3b6d9596a","session_id":"619be321b64deff2fa035178","condition":"contingent","relevant_dimensions":["wings","legs"],"bee_group":{"antennae":"X","wings":"1","pattern":"X","legs":"F"},"bonus":0.6800000000000014},{"rt":2712.1999999955297,"stimulus":"bees-with-color/bee-A2DM.svg","response":1,"trial_type":"image-button-response","trial_index":61,"time_elapsed":595764,"internal_node_id":"0.0-4.0-0.25","subject_id":"614a433bba99b00a68b0a435","study_id":"6197b3f67c2b5cd3b6d9596a","session_id":"619be321b64deff2fa035178","condition":"contingent","relevant_dimensions":["wings","legs"],"bee_group":{"antennae":"X","wings":"1","pattern":"X","legs":"F"},"action":"avoid","summary":"bad-avoid","bonus":0.6800000000000014},{"rt":1144.2000000029802,"stimulus":"\n                    <p><b>Action: <em>avoid</em></b></p>\n                    <p>This is the bee that you just saw.</p>\n                    <img src=\"bees-with-color/bee-A2DM.svg\" width=\"200\">\n                    <p><br>Your bonus pay is unchanged, and remains at $0.48.</p>\n            ","response":0,"trial_type":"html-button-response","trial_index":62,"time_elapsed":596911,"internal_node_id":"0.0-4.0-1.25","subject_id":"614a433bba99b00a68b0a435","study_id":"6197b3f67c2b5cd3b6d9596a","session_id":"619be321b64deff2fa035178","condition":"contingent","relevant_dimensions":["wings","legs"],"bee_group":{"antennae":"X","wings":"1","pattern":"X","legs":"F"},"bonus":0.6800000000000014},{"rt":1491.3999999985099,"stimulus":"bees-with-color/bee-A1SM.svg","response":0,"trial_type":"image-button-response","trial_index":63,"time_elapsed":598405,"internal_node_id":"0.0-4.0-0.26","subject_id":"614a433bba99b00a68b0a435","study_id":"6197b3f67c2b5cd3b6d9596a","session_id":"619be321b64deff2fa035178","condition":"contingent","relevant_dimensions":["wings","legs"],"bee_group":{"antennae":"X","wings":"1","pattern":"X","legs":"F"},"action":"harvest","summary":"good-harvest","bonus":0.6800000000000014},{"rt":1090.7999999970198,"stimulus":"\n                    <p><b>Action: <em>harvest</em></b></p>\n                    <p>This is the bee that you just saw.</p>\n                    <img src=\"bees-with-color/bee-A1SM.svg\" width=\"200\">\n                    <p><span class=\"greenText\"><b>Successful harvest!</b></span><br>Your pay has increased by $0.02. Your bonus pay is now $0.50.</p>\n            ","response":0,"trial_type":"html-button-response","trial_index":64,"time_elapsed":599499,"internal_node_id":"0.0-4.0-1.26","subject_id":"614a433bba99b00a68b0a435","study_id":"6197b3f67c2b5cd3b6d9596a","session_id":"619be321b64deff2fa035178","condition":"contingent","relevant_dimensions":["wings","legs"],"bee_group":{"antennae":"X","wings":"1","pattern":"X","legs":"F"},"bonus":0.6800000000000014},{"rt":2494.8000000044703,"stimulus":"bees-with-color/bee-A1SF.svg","response":0,"trial_type":"image-button-response","trial_index":65,"time_elapsed":601995,"internal_node_id":"0.0-4.0-0.27","subject_id":"614a433bba99b00a68b0a435","study_id":"6197b3f67c2b5cd3b6d9596a","session_id":"619be321b64deff2fa035178","condition":"contingent","relevant_dimensions":["wings","legs"],"bee_group":{"antennae":"X","wings":"1","pattern":"X","legs":"F"},"action":"harvest","summary":"bad-harvest","bonus":0.6800000000000014},{"rt":1582.1999999955297,"stimulus":"\n                    <p><b>Action: <em>harvest</em></b></p>\n                    <p>This is the bee that you just saw.</p>\n                    <img src=\"bees-with-color/bee-A1SF.svg\" width=\"200\">\n                    <p><span class=\"redText\">Bad choice, the bee was angry.</span><br><b>You have been stung!</b><br>Your pay has been decreased by $0.10. Your bonus pay is now $0.40.</p>\n            ","response":0,"trial_type":"html-button-response","trial_index":66,"time_elapsed":603580,"internal_node_id":"0.0-4.0-1.27","subject_id":"614a433bba99b00a68b0a435","study_id":"6197b3f67c2b5cd3b6d9596a","session_id":"619be321b64deff2fa035178","condition":"contingent","relevant_dimensions":["wings","legs"],"bee_group":{"antennae":"X","wings":"1","pattern":"X","legs":"F"},"bonus":0.6800000000000014},{"rt":1846.3999999985099,"stimulus":"bees-with-color/bee-B1DM.svg","response":0,"trial_type":"image-button-response","trial_index":67,"time_elapsed":605429,"internal_node_id":"0.0-4.0-0.28","subject_id":"614a433bba99b00a68b0a435","study_id":"6197b3f67c2b5cd3b6d9596a","session_id":"619be321b64deff2fa035178","condition":"contingent","relevant_dimensions":["wings","legs"],"bee_group":{"antennae":"X","wings":"1","pattern":"X","legs":"F"},"action":"harvest","summary":"good-harvest","bonus":0.6800000000000014},{"rt":1065.8999999985099,"stimulus":"\n                    <p><b>Action: <em>harvest</em></b></p>\n                    <p>This is the bee that you just saw.</p>\n                    <img src=\"bees-with-color/bee-B1DM.svg\" width=\"200\">\n                    <p><span class=\"greenText\"><b>Successful harvest!</b></span><br>Your pay has increased by $0.02. Your bonus pay is now $0.42.</p>\n            ","response":0,"trial_type":"html-button-response","trial_index":68,"time_elapsed":606498,"internal_node_id":"0.0-4.0-1.28","subject_id":"614a433bba99b00a68b0a435","study_id":"6197b3f67c2b5cd3b6d9596a","session_id":"619be321b64deff2fa035178","condition":"contingent","relevant_dimensions":["wings","legs"],"bee_group":{"antennae":"X","wings":"1","pattern":"X","legs":"F"},"bonus":0.6800000000000014},{"rt":1412.6000000014901,"stimulus":"bees-with-color/bee-A2SF.svg","response":0,"trial_type":"image-button-response","trial_index":69,"time_elapsed":607912,"internal_node_id":"0.0-4.0-0.29","subject_id":"614a433bba99b00a68b0a435","study_id":"6197b3f67c2b5cd3b6d9596a","session_id":"619be321b64deff2fa035178","condition":"contingent","relevant_dimensions":["wings","legs"],"bee_group":{"antennae":"X","wings":"1","pattern":"X","legs":"F"},"action":"harvest","summary":"good-harvest","bonus":0.6800000000000014},{"rt":984,"stimulus":"\n                    <p><b>Action: <em>harvest</em></b></p>\n                    <p>This is the bee that you just saw.</p>\n                    <img src=\"bees-with-color/bee-A2SF.svg\" width=\"200\">\n                    <p><span class=\"greenText\"><b>Successful harvest!</b></span><br>Your pay has increased by $0.02. Your bonus pay is now $0.44.</p>\n            ","response":0,"trial_type":"html-button-response","trial_index":70,"time_elapsed":608898,"internal_node_id":"0.0-4.0-1.29","subject_id":"614a433bba99b00a68b0a435","study_id":"6197b3f67c2b5cd3b6d9596a","session_id":"619be321b64deff2fa035178","condition":"contingent","relevant_dimensions":["wings","legs"],"bee_group":{"antennae":"X","wings":"1","pattern":"X","legs":"F"},"bonus":0.6800000000000014},{"rt":1285.3000000044703,"stimulus":"bees-with-color/bee-A1DM.svg","response":0,"trial_type":"image-button-response","trial_index":71,"time_elapsed":610185,"internal_node_id":"0.0-4.0-0.30","subject_id":"614a433bba99b00a68b0a435","study_id":"6197b3f67c2b5cd3b6d9596a","session_id":"619be321b64deff2fa035178","condition":"contingent","relevant_dimensions":["wings","legs"],"bee_group":{"antennae":"X","wings":"1","pattern":"X","legs":"F"},"action":"harvest","summary":"good-harvest","bonus":0.6800000000000014},{"rt":1159.5,"stimulus":"\n                    <p><b>Action: <em>harvest</em></b></p>\n                    <p>This is the bee that you just saw.</p>\n                    <img src=\"bees-with-color/bee-A1DM.svg\" width=\"200\">\n                    <p><span class=\"greenText\"><b>Successful harvest!</b></span><br>Your pay has increased by $0.02. Your bonus pay is now $0.46.</p>\n            ","response":0,"trial_type":"html-button-response","trial_index":72,"time_elapsed":611347,"internal_node_id":"0.0-4.0-1.30","subject_id":"614a433bba99b00a68b0a435","study_id":"6197b3f67c2b5cd3b6d9596a","session_id":"619be321b64deff2fa035178","condition":"contingent","relevant_dimensions":["wings","legs"],"bee_group":{"antennae":"X","wings":"1","pattern":"X","legs":"F"},"bonus":0.6800000000000014},{"rt":1670.8999999985099,"stimulus":"bees-with-color/bee-B1SF.svg","response":0,"trial_type":"image-button-response","trial_index":73,"time_elapsed":613019,"internal_node_id":"0.0-4.0-0.31","subject_id":"614a433bba99b00a68b0a435","study_id":"6197b3f67c2b5cd3b6d9596a","session_id":"619be321b64deff2fa035178","condition":"contingent","relevant_dimensions":["wings","legs"],"bee_group":{"antennae":"X","wings":"1","pattern":"X","legs":"F"},"action":"harvest","summary":"bad-harvest","bonus":0.6800000000000014},{"rt":1641.3000000044703,"stimulus":"\n                    <p><b>Action: <em>harvest</em></b></p>\n                    <p>This is the bee that you just saw.</p>\n                    <img src=\"bees-with-color/bee-B1SF.svg\" width=\"200\">\n                    <p><span class=\"redText\">Bad choice, the bee was angry.</span><br><b>You have been stung!</b><br>Your pay has been decreased by $0.10. Your bonus pay is now $0.36.</p>\n            ","response":0,"trial_type":"html-button-response","trial_index":74,"time_elapsed":614663,"internal_node_id":"0.0-4.0-1.31","subject_id":"614a433bba99b00a68b0a435","study_id":"6197b3f67c2b5cd3b6d9596a","session_id":"619be321b64deff2fa035178","condition":"contingent","relevant_dimensions":["wings","legs"],"bee_group":{"antennae":"X","wings":"1","pattern":"X","legs":"F"},"bonus":0.6800000000000014},{"rt":1935,"stimulus":"bees-with-color/bee-B1SM.svg","response":0,"trial_type":"image-button-response","trial_index":75,"time_elapsed":616600,"internal_node_id":"0.0-4.0-0.32","subject_id":"614a433bba99b00a68b0a435","study_id":"6197b3f67c2b5cd3b6d9596a","session_id":"619be321b64deff2fa035178","condition":"contingent","relevant_dimensions":["wings","legs"],"bee_group":{"antennae":"X","wings":"1","pattern":"X","legs":"F"},"action":"harvest","summary":"good-harvest","bonus":0.6800000000000014},{"rt":1160.6000000014901,"stimulus":"\n                    <p><b>Action: <em>harvest</em></b></p>\n                    <p>This is the bee that you just saw.</p>\n                    <img src=\"bees-with-color/bee-B1SM.svg\" width=\"200\">\n                    <p><span class=\"greenText\"><b>Successful harvest!</b></span><br>Your pay has increased by $0.02. Your bonus pay is now $0.38.</p>\n            ","response":0,"trial_type":"html-button-response","trial_index":76,"time_elapsed":617762,"internal_node_id":"0.0-4.0-1.32","subject_id":"614a433bba99b00a68b0a435","study_id":"6197b3f67c2b5cd3b6d9596a","session_id":"619be321b64deff2fa035178","condition":"contingent","relevant_dimensions":["wings","legs"],"bee_group":{"antennae":"X","wings":"1","pattern":"X","legs":"F"},"bonus":0.6800000000000014},{"rt":1225.2999999970198,"stimulus":"bees-with-color/bee-A2DM.svg","response":0,"trial_type":"image-button-response","trial_index":77,"time_elapsed":618990,"internal_node_id":"0.0-4.0-0.33","subject_id":"614a433bba99b00a68b0a435","study_id":"6197b3f67c2b5cd3b6d9596a","session_id":"619be321b64deff2fa035178","condition":"contingent","relevant_dimensions":["wings","legs"],"bee_group":{"antennae":"X","wings":"1","pattern":"X","legs":"F"},"action":"harvest","summary":"good-harvest","bonus":0.6800000000000014},{"rt":1164.3000000044703,"stimulus":"\n                    <p><b>Action: <em>harvest</em></b></p>\n                    <p>This is the bee that you just saw.</p>\n                    <img src=\"bees-with-color/bee-A2DM.svg\" width=\"200\">\n                    <p><span class=\"greenText\"><b>Successful harvest!</b></span><br>Your pay has increased by $0.02. Your bonus pay is now $0.40.</p>\n            ","response":0,"trial_type":"html-button-response","trial_index":78,"time_elapsed":620156,"internal_node_id":"0.0-4.0-1.33","subject_id":"614a433bba99b00a68b0a435","study_id":"6197b3f67c2b5cd3b6d9596a","session_id":"619be321b64deff2fa035178","condition":"contingent","relevant_dimensions":["wings","legs"],"bee_group":{"antennae":"X","wings":"1","pattern":"X","legs":"F"},"bonus":0.6800000000000014},{"rt":3121.8000000044703,"stimulus":"bees-with-color/bee-B2SM.svg","response":0,"trial_type":"image-button-response","trial_index":79,"time_elapsed":623280,"internal_node_id":"0.0-4.0-0.34","subject_id":"614a433bba99b00a68b0a435","study_id":"6197b3f67c2b5cd3b6d9596a","session_id":"619be321b64deff2fa035178","condition":"contingent","relevant_dimensions":["wings","legs"],"bee_group":{"antennae":"X","wings":"1","pattern":"X","legs":"F"},"action":"harvest","summary":"good-harvest","bonus":0.6800000000000014},{"rt":1196.5,"stimulus":"\n                    <p><b>Action: <em>harvest</em></b></p>\n                    <p>This is the bee that you just saw.</p>\n                    <img src=\"bees-with-color/bee-B2SM.svg\" width=\"200\">\n                    <p><span class=\"greenText\"><b>Successful harvest!</b></span><br>Your pay has increased by $0.02. Your bonus pay is now $0.42.</p>\n            ","response":0,"trial_type":"html-button-response","trial_index":80,"time_elapsed":624479,"internal_node_id":"0.0-4.0-1.34","subject_id":"614a433bba99b00a68b0a435","study_id":"6197b3f67c2b5cd3b6d9596a","session_id":"619be321b64deff2fa035178","condition":"contingent","relevant_dimensions":["wings","legs"],"bee_group":{"antennae":"X","wings":"1","pattern":"X","legs":"F"},"bonus":0.6800000000000014},{"rt":1831.3999999985099,"stimulus":"bees-with-color/bee-A2SF.svg","response":0,"trial_type":"image-button-response","trial_index":81,"time_elapsed":626312,"internal_node_id":"0.0-4.0-0.35","subject_id":"614a433bba99b00a68b0a435","study_id":"6197b3f67c2b5cd3b6d9596a","session_id":"619be321b64deff2fa035178","condition":"contingent","relevant_dimensions":["wings","legs"],"bee_group":{"antennae":"X","wings":"1","pattern":"X","legs":"F"},"action":"harvest","summary":"good-harvest","bonus":0.6800000000000014},{"rt":2083.2000000029802,"stimulus":"\n                    <p><b>Action: <em>harvest</em></b></p>\n                    <p>This is the bee that you just saw.</p>\n                    <img src=\"bees-with-color/bee-A2SF.svg\" width=\"200\">\n                    <p><span class=\"greenText\"><b>Successful harvest!</b></span><br>Your pay has increased by $0.02. Your bonus pay is now $0.44.</p>\n            ","response":0,"trial_type":"html-button-response","trial_index":82,"time_elapsed":628397,"internal_node_id":"0.0-4.0-1.35","subject_id":"614a433bba99b00a68b0a435","study_id":"6197b3f67c2b5cd3b6d9596a","session_id":"619be321b64deff2fa035178","condition":"contingent","relevant_dimensions":["wings","legs"],"bee_group":{"antennae":"X","wings":"1","pattern":"X","legs":"F"},"bonus":0.6800000000000014},{"rt":1729.2000000029802,"stimulus":"bees-with-color/bee-A2SM.svg","response":0,"trial_type":"image-button-response","trial_index":83,"time_elapsed":630129,"internal_node_id":"0.0-4.0-0.36","subject_id":"614a433bba99b00a68b0a435","study_id":"6197b3f67c2b5cd3b6d9596a","session_id":"619be321b64deff2fa035178","condition":"contingent","relevant_dimensions":["wings","legs"],"bee_group":{"antennae":"X","wings":"1","pattern":"X","legs":"F"},"action":"harvest","summary":"good-harvest","bonus":0.6800000000000014},{"rt":1178.6000000014901,"stimulus":"\n                    <p><b>Action: <em>harvest</em></b></p>\n                    <p>This is the bee that you just saw.</p>\n                    <img src=\"bees-with-color/bee-A2SM.svg\" width=\"200\">\n                    <p><span class=\"greenText\"><b>Successful harvest!</b></span><br>Your pay has increased by $0.02. Your bonus pay is now $0.46.</p>\n            ","response":0,"trial_type":"html-button-response","trial_index":84,"time_elapsed":631309,"internal_node_id":"0.0-4.0-1.36","subject_id":"614a433bba99b00a68b0a435","study_id":"6197b3f67c2b5cd3b6d9596a","session_id":"619be321b64deff2fa035178","condition":"contingent","relevant_dimensions":["wings","legs"],"bee_group":{"antennae":"X","wings":"1","pattern":"X","legs":"F"},"bonus":0.6800000000000014},{"rt":2856.39999999851,"stimulus":"bees-with-color/bee-B2SF.svg","response":0,"trial_type":"image-button-response","trial_index":85,"time_elapsed":634168,"internal_node_id":"0.0-4.0-0.37","subject_id":"614a433bba99b00a68b0a435","study_id":"6197b3f67c2b5cd3b6d9596a","session_id":"619be321b64deff2fa035178","condition":"contingent","relevant_dimensions":["wings","legs"],"bee_group":{"antennae":"X","wings":"1","pattern":"X","legs":"F"},"action":"harvest","summary":"good-harvest","bonus":0.6800000000000014},{"rt":1224.8999999985099,"stimulus":"\n                    <p><b>Action: <em>harvest</em></b></p>\n                    <p>This is the bee that you just saw.</p>\n                    <img src=\"bees-with-color/bee-B2SF.svg\" width=\"200\">\n                    <p><span class=\"greenText\"><b>Successful harvest!</b></span><br>Your pay has increased by $0.02. Your bonus pay is now $0.48.</p>\n            ","response":0,"trial_type":"html-button-response","trial_index":86,"time_elapsed":635395,"internal_node_id":"0.0-4.0-1.37","subject_id":"614a433bba99b00a68b0a435","study_id":"6197b3f67c2b5cd3b6d9596a","session_id":"619be321b64deff2fa035178","condition":"contingent","relevant_dimensions":["wings","legs"],"bee_group":{"antennae":"X","wings":"1","pattern":"X","legs":"F"},"bonus":0.6800000000000014},{"rt":3868.9000000059605,"stimulus":"bees-with-color/bee-A1DF.svg","response":0,"trial_type":"image-button-response","trial_index":87,"time_elapsed":639266,"internal_node_id":"0.0-4.0-0.38","subject_id":"614a433bba99b00a68b0a435","study_id":"6197b3f67c2b5cd3b6d9596a","session_id":"619be321b64deff2fa035178","condition":"contingent","relevant_dimensions":["wings","legs"],"bee_group":{"antennae":"X","wings":"1","pattern":"X","legs":"F"},"action":"harvest","summary":"bad-harvest","bonus":0.6800000000000014},{"rt":2634.60000000149,"stimulus":"\n                    <p><b>Action: <em>harvest</em></b></p>\n                    <p>This is the bee that you just saw.</p>\n                    <img src=\"bees-with-color/bee-A1DF.svg\" width=\"200\">\n                    <p><span class=\"redText\">Bad choice, the bee was angry.</span><br><b>You have been stung!</b><br>Your pay has been decreased by $0.10. Your bonus pay is now $0.38.</p>\n            ","response":0,"trial_type":"html-button-response","trial_index":88,"time_elapsed":641903,"internal_node_id":"0.0-4.0-1.38","subject_id":"614a433bba99b00a68b0a435","study_id":"6197b3f67c2b5cd3b6d9596a","session_id":"619be321b64deff2fa035178","condition":"contingent","relevant_dimensions":["wings","legs"],"bee_group":{"antennae":"X","wings":"1","pattern":"X","legs":"F"},"bonus":0.6800000000000014},{"rt":2340.5,"stimulus":"bees-with-color/bee-B1DF.svg","response":1,"trial_type":"image-button-response","trial_index":89,"time_elapsed":644246,"internal_node_id":"0.0-4.0-0.39","subject_id":"614a433bba99b00a68b0a435","study_id":"6197b3f67c2b5cd3b6d9596a","session_id":"619be321b64deff2fa035178","condition":"contingent","relevant_dimensions":["wings","legs"],"bee_group":{"antennae":"X","wings":"1","pattern":"X","legs":"F"},"action":"avoid","summary":"good-avoid","bonus":0.6800000000000014},{"rt":2255.60000000149,"stimulus":"\n                    <p><b>Action: <em>avoid</em></b></p>\n                    <p>This is the bee that you just saw.</p>\n                    <img src=\"bees-with-color/bee-B1DF.svg\" width=\"200\">\n                    <p><br>Your bonus pay is unchanged, and remains at $0.38.</p>\n            ","response":0,"trial_type":"html-button-response","trial_index":90,"time_elapsed":646504,"internal_node_id":"0.0-4.0-1.39","subject_id":"614a433bba99b00a68b0a435","study_id":"6197b3f67c2b5cd3b6d9596a","session_id":"619be321b64deff2fa035178","condition":"contingent","relevant_dimensions":["wings","legs"],"bee_group":{"antennae":"X","wings":"1","pattern":"X","legs":"F"},"bonus":0.6800000000000014},{"rt":1929.8999999985099,"stimulus":"bees-with-color/bee-A1DM.svg","response":0,"trial_type":"image-button-response","trial_index":91,"time_elapsed":648436,"internal_node_id":"0.0-4.0-0.40","subject_id":"614a433bba99b00a68b0a435","study_id":"6197b3f67c2b5cd3b6d9596a","session_id":"619be321b64deff2fa035178","condition":"contingent","relevant_dimensions":["wings","legs"],"bee_group":{"antennae":"X","wings":"1","pattern":"X","legs":"F"},"action":"harvest","summary":"good-harvest","bonus":0.6800000000000014},{"rt":1123.3000000044703,"stimulus":"\n                    <p><b>Action: <em>harvest</em></b></p>\n                    <p>This is the bee that you just saw.</p>\n                    <img src=\"bees-with-color/bee-A1DM.svg\" width=\"200\">\n                    <p><span class=\"greenText\"><b>Successful harvest!</b></span><br>Your pay has increased by $0.02. Your bonus pay is now $0.40.</p>\n            ","response":0,"trial_type":"html-button-response","trial_index":92,"time_elapsed":649562,"internal_node_id":"0.0-4.0-1.40","subject_id":"614a433bba99b00a68b0a435","study_id":"6197b3f67c2b5cd3b6d9596a","session_id":"619be321b64deff2fa035178","condition":"contingent","relevant_dimensions":["wings","legs"],"bee_group":{"antennae":"X","wings":"1","pattern":"X","legs":"F"},"bonus":0.6800000000000014},{"rt":2133.7999999970198,"stimulus":"bees-with-color/bee-B1DM.svg","response":0,"trial_type":"image-button-response","trial_index":93,"time_elapsed":651697,"internal_node_id":"0.0-4.0-0.41","subject_id":"614a433bba99b00a68b0a435","study_id":"6197b3f67c2b5cd3b6d9596a","session_id":"619be321b64deff2fa035178","condition":"contingent","relevant_dimensions":["wings","legs"],"bee_group":{"antennae":"X","wings":"1","pattern":"X","legs":"F"},"action":"harvest","summary":"good-harvest","bonus":0.6800000000000014},{"rt":1111.5,"stimulus":"\n                    <p><b>Action: <em>harvest</em></b></p>\n                    <p>This is the bee that you just saw.</p>\n                    <img src=\"bees-with-color/bee-B1DM.svg\" width=\"200\">\n                    <p><span class=\"greenText\"><b>Successful harvest!</b></span><br>Your pay has increased by $0.02. Your bonus pay is now $0.42.</p>\n            ","response":0,"trial_type":"html-button-response","trial_index":94,"time_elapsed":652811,"internal_node_id":"0.0-4.0-1.41","subject_id":"614a433bba99b00a68b0a435","study_id":"6197b3f67c2b5cd3b6d9596a","session_id":"619be321b64deff2fa035178","condition":"contingent","relevant_dimensions":["wings","legs"],"bee_group":{"antennae":"X","wings":"1","pattern":"X","legs":"F"},"bonus":0.6800000000000014},{"rt":1099.3999999985099,"stimulus":"bees-with-color/bee-B2DF.svg","response":0,"trial_type":"image-button-response","trial_index":95,"time_elapsed":653912,"internal_node_id":"0.0-4.0-0.42","subject_id":"614a433bba99b00a68b0a435","study_id":"6197b3f67c2b5cd3b6d9596a","session_id":"619be321b64deff2fa035178","condition":"contingent","relevant_dimensions":["wings","legs"],"bee_group":{"antennae":"X","wings":"1","pattern":"X","legs":"F"},"action":"harvest","summary":"good-harvest","bonus":0.6800000000000014},{"rt":1038.5,"stimulus":"\n                    <p><b>Action: <em>harvest</em></b></p>\n                    <p>This is the bee that you just saw.</p>\n                    <img src=\"bees-with-color/bee-B2DF.svg\" width=\"200\">\n                    <p><span class=\"greenText\"><b>Successful harvest!</b></span><br>Your pay has increased by $0.02. Your bonus pay is now $0.44.</p>\n            ","response":0,"trial_type":"html-button-response","trial_index":96,"time_elapsed":654953,"internal_node_id":"0.0-4.0-1.42","subject_id":"614a433bba99b00a68b0a435","study_id":"6197b3f67c2b5cd3b6d9596a","session_id":"619be321b64deff2fa035178","condition":"contingent","relevant_dimensions":["wings","legs"],"bee_group":{"antennae":"X","wings":"1","pattern":"X","legs":"F"},"bonus":0.6800000000000014},{"rt":3889.10000000149,"stimulus":"bees-with-color/bee-A1SF.svg","response":0,"trial_type":"image-button-response","trial_index":97,"time_elapsed":658844,"internal_node_id":"0.0-4.0-0.43","subject_id":"614a433bba99b00a68b0a435","study_id":"6197b3f67c2b5cd3b6d9596a","session_id":"619be321b64deff2fa035178","condition":"contingent","relevant_dimensions":["wings","legs"],"bee_group":{"antennae":"X","wings":"1","pattern":"X","legs":"F"},"action":"harvest","summary":"bad-harvest","bonus":0.6800000000000014},{"rt":1413,"stimulus":"\n                    <p><b>Action: <em>harvest</em></b></p>\n                    <p>This is the bee that you just saw.</p>\n                    <img src=\"bees-with-color/bee-A1SF.svg\" width=\"200\">\n                    <p><span class=\"redText\">Bad choice, the bee was angry.</span><br><b>You have been stung!</b><br>Your pay has been decreased by $0.10. Your bonus pay is now $0.34.</p>\n            ","response":0,"trial_type":"html-button-response","trial_index":98,"time_elapsed":660259,"internal_node_id":"0.0-4.0-1.43","subject_id":"614a433bba99b00a68b0a435","study_id":"6197b3f67c2b5cd3b6d9596a","session_id":"619be321b64deff2fa035178","condition":"contingent","relevant_dimensions":["wings","legs"],"bee_group":{"antennae":"X","wings":"1","pattern":"X","legs":"F"},"bonus":0.6800000000000014},{"rt":1181.3000000044703,"stimulus":"bees-with-color/bee-A1SM.svg","response":0,"trial_type":"image-button-response","trial_index":99,"time_elapsed":661443,"internal_node_id":"0.0-4.0-0.44","subject_id":"614a433bba99b00a68b0a435","study_id":"6197b3f67c2b5cd3b6d9596a","session_id":"619be321b64deff2fa035178","condition":"contingent","relevant_dimensions":["wings","legs"],"bee_group":{"antennae":"X","wings":"1","pattern":"X","legs":"F"},"action":"harvest","summary":"good-harvest","bonus":0.6800000000000014},{"rt":1016.8000000044703,"stimulus":"\n                    <p><b>Action: <em>harvest</em></b></p>\n                    <p>This is the bee that you just saw.</p>\n                    <img src=\"bees-with-color/bee-A1SM.svg\" width=\"200\">\n                    <p><span class=\"greenText\"><b>Successful harvest!</b></span><br>Your pay has increased by $0.02. Your bonus pay is now $0.36.</p>\n            ","response":0,"trial_type":"html-button-response","trial_index":100,"time_elapsed":662462,"internal_node_id":"0.0-4.0-1.44","subject_id":"614a433bba99b00a68b0a435","study_id":"6197b3f67c2b5cd3b6d9596a","session_id":"619be321b64deff2fa035178","condition":"contingent","relevant_dimensions":["wings","legs"],"bee_group":{"antennae":"X","wings":"1","pattern":"X","legs":"F"},"bonus":0.6800000000000014},{"rt":1506.6000000014901,"stimulus":"bees-with-color/bee-B2DM.svg","response":0,"trial_type":"image-button-response","trial_index":101,"time_elapsed":663970,"internal_node_id":"0.0-4.0-0.45","subject_id":"614a433bba99b00a68b0a435","study_id":"6197b3f67c2b5cd3b6d9596a","session_id":"619be321b64deff2fa035178","condition":"contingent","relevant_dimensions":["wings","legs"],"bee_group":{"antennae":"X","wings":"1","pattern":"X","legs":"F"},"action":"harvest","summary":"good-harvest","bonus":0.6800000000000014},{"rt":1321.2999999970198,"stimulus":"\n                    <p><b>Action: <em>harvest</em></b></p>\n                    <p>This is the bee that you just saw.</p>\n                    <img src=\"bees-with-color/bee-B2DM.svg\" width=\"200\">\n                    <p><span class=\"greenText\"><b>Successful harvest!</b></span><br>Your pay has increased by $0.02. Your bonus pay is now $0.38.</p>\n            ","response":0,"trial_type":"html-button-response","trial_index":102,"time_elapsed":665294,"internal_node_id":"0.0-4.0-1.45","subject_id":"614a433bba99b00a68b0a435","study_id":"6197b3f67c2b5cd3b6d9596a","session_id":"619be321b64deff2fa035178","condition":"contingent","relevant_dimensions":["wings","legs"],"bee_group":{"antennae":"X","wings":"1","pattern":"X","legs":"F"},"bonus":0.6800000000000014},{"rt":1100.0999999940395,"stimulus":"bees-with-color/bee-A2DF.svg","response":0,"trial_type":"image-button-response","trial_index":103,"time_elapsed":666396,"internal_node_id":"0.0-4.0-0.46","subject_id":"614a433bba99b00a68b0a435","study_id":"6197b3f67c2b5cd3b6d9596a","session_id":"619be321b64deff2fa035178","condition":"contingent","relevant_dimensions":["wings","legs"],"bee_group":{"antennae":"X","wings":"1","pattern":"X","legs":"F"},"action":"harvest","summary":"good-harvest","bonus":0.6800000000000014},{"rt":980.7000000029802,"stimulus":"\n                    <p><b>Action: <em>harvest</em></b></p>\n                    <p>This is the bee that you just saw.</p>\n                    <img src=\"bees-with-color/bee-A2DF.svg\" width=\"200\">\n                    <p><span class=\"greenText\"><b>Successful harvest!</b></span><br>Your pay has increased by $0.02. Your bonus pay is now $0.40.</p>\n            ","response":0,"trial_type":"html-button-response","trial_index":104,"time_elapsed":667379,"internal_node_id":"0.0-4.0-1.46","subject_id":"614a433bba99b00a68b0a435","study_id":"6197b3f67c2b5cd3b6d9596a","session_id":"619be321b64deff2fa035178","condition":"contingent","relevant_dimensions":["wings","legs"],"bee_group":{"antennae":"X","wings":"1","pattern":"X","legs":"F"},"bonus":0.6800000000000014},{"rt":1904.6000000014901,"stimulus":"bees-with-color/bee-B1SF.svg","response":1,"trial_type":"image-button-response","trial_index":105,"time_elapsed":669285,"internal_node_id":"0.0-4.0-0.47","subject_id":"614a433bba99b00a68b0a435","study_id":"6197b3f67c2b5cd3b6d9596a","session_id":"619be321b64deff2fa035178","condition":"contingent","relevant_dimensions":["wings","legs"],"bee_group":{"antennae":"X","wings":"1","pattern":"X","legs":"F"},"action":"avoid","summary":"good-avoid","bonus":0.6800000000000014},{"rt":1278.3000000044703,"stimulus":"\n                    <p><b>Action: <em>avoid</em></b></p>\n                    <p>This is the bee that you just saw.</p>\n                    <img src=\"bees-with-color/bee-B1SF.svg\" width=\"200\">\n                    <p><br>Your bonus pay is unchanged, and remains at $0.40.</p>\n            ","response":0,"trial_type":"html-button-response","trial_index":106,"time_elapsed":670566,"internal_node_id":"0.0-4.0-1.47","subject_id":"614a433bba99b00a68b0a435","study_id":"6197b3f67c2b5cd3b6d9596a","session_id":"619be321b64deff2fa035178","condition":"contingent","relevant_dimensions":["wings","legs"],"bee_group":{"antennae":"X","wings":"1","pattern":"X","legs":"F"},"bonus":0.6800000000000014},{"rt":1306.2000000029802,"stimulus":"bees-with-color/bee-A1DM.svg","response":0,"trial_type":"image-button-response","trial_index":107,"time_elapsed":671875,"internal_node_id":"0.0-4.0-0.48","subject_id":"614a433bba99b00a68b0a435","study_id":"6197b3f67c2b5cd3b6d9596a","session_id":"619be321b64deff2fa035178","condition":"contingent","relevant_dimensions":["wings","legs"],"bee_group":{"antennae":"X","wings":"1","pattern":"X","legs":"F"},"action":"harvest","summary":"good-harvest","bonus":0.6800000000000014},{"rt":991.4000000059605,"stimulus":"\n                    <p><b>Action: <em>harvest</em></b></p>\n                    <p>This is the bee that you just saw.</p>\n                    <img src=\"bees-with-color/bee-A1DM.svg\" width=\"200\">\n                    <p><span class=\"greenText\"><b>Successful harvest!</b></span><br>Your pay has increased by $0.02. Your bonus pay is now $0.42.</p>\n            ","response":0,"trial_type":"html-button-response","trial_index":108,"time_elapsed":672868,"internal_node_id":"0.0-4.0-1.48","subject_id":"614a433bba99b00a68b0a435","study_id":"6197b3f67c2b5cd3b6d9596a","session_id":"619be321b64deff2fa035178","condition":"contingent","relevant_dimensions":["wings","legs"],"bee_group":{"antennae":"X","wings":"1","pattern":"X","legs":"F"},"bonus":0.6800000000000014},{"rt":3039.89999999851,"stimulus":"bees-with-color/bee-B2SF.svg","response":1,"trial_type":"image-button-response","trial_index":109,"time_elapsed":675910,"internal_node_id":"0.0-4.0-0.49","subject_id":"614a433bba99b00a68b0a435","study_id":"6197b3f67c2b5cd3b6d9596a","session_id":"619be321b64deff2fa035178","condition":"contingent","relevant_dimensions":["wings","legs"],"bee_group":{"antennae":"X","wings":"1","pattern":"X","legs":"F"},"action":"avoid","summary":"bad-avoid","bonus":0.6800000000000014},{"rt":1387.8000000044703,"stimulus":"\n                    <p><b>Action: <em>avoid</em></b></p>\n                    <p>This is the bee that you just saw.</p>\n                    <img src=\"bees-with-color/bee-B2SF.svg\" width=\"200\">\n                    <p><br>Your bonus pay is unchanged, and remains at $0.42.</p>\n            ","response":0,"trial_type":"html-button-response","trial_index":110,"time_elapsed":677300,"internal_node_id":"0.0-4.0-1.49","subject_id":"614a433bba99b00a68b0a435","study_id":"6197b3f67c2b5cd3b6d9596a","session_id":"619be321b64deff2fa035178","condition":"contingent","relevant_dimensions":["wings","legs"],"bee_group":{"antennae":"X","wings":"1","pattern":"X","legs":"F"},"bonus":0.6800000000000014},{"rt":1374.2999999970198,"stimulus":"bees-with-color/bee-B1DF.svg","response":1,"trial_type":"image-button-response","trial_index":111,"time_elapsed":678677,"internal_node_id":"0.0-4.0-0.50","subject_id":"614a433bba99b00a68b0a435","study_id":"6197b3f67c2b5cd3b6d9596a","session_id":"619be321b64deff2fa035178","condition":"contingent","relevant_dimensions":["wings","legs"],"bee_group":{"antennae":"X","wings":"1","pattern":"X","legs":"F"},"action":"avoid","summary":"good-avoid","bonus":0.6800000000000014},{"rt":1447.3999999985099,"stimulus":"\n                    <p><b>Action: <em>avoid</em></b></p>\n                    <p>This is the bee that you just saw.</p>\n                    <img src=\"bees-with-color/bee-B1DF.svg\" width=\"200\">\n                    <p><br>Your bonus pay is unchanged, and remains at $0.42.</p>\n            ","response":0,"trial_type":"html-button-response","trial_index":112,"time_elapsed":680127,"internal_node_id":"0.0-4.0-1.50","subject_id":"614a433bba99b00a68b0a435","study_id":"6197b3f67c2b5cd3b6d9596a","session_id":"619be321b64deff2fa035178","condition":"contingent","relevant_dimensions":["wings","legs"],"bee_group":{"antennae":"X","wings":"1","pattern":"X","legs":"F"},"bonus":0.6800000000000014},{"rt":1031.1000000014901,"stimulus":"bees-with-color/bee-A2DM.svg","response":0,"trial_type":"image-button-response","trial_index":113,"time_elapsed":681161,"internal_node_id":"0.0-4.0-0.51","subject_id":"614a433bba99b00a68b0a435","study_id":"6197b3f67c2b5cd3b6d9596a","session_id":"619be321b64deff2fa035178","condition":"contingent","relevant_dimensions":["wings","legs"],"bee_group":{"antennae":"X","wings":"1","pattern":"X","legs":"F"},"action":"harvest","summary":"good-harvest","bonus":0.6800000000000014},{"rt":963.7999999970198,"stimulus":"\n                    <p><b>Action: <em>harvest</em></b></p>\n                    <p>This is the bee that you just saw.</p>\n                    <img src=\"bees-with-color/bee-A2DM.svg\" width=\"200\">\n                    <p><span class=\"greenText\"><b>Successful harvest!</b></span><br>Your pay has increased by $0.02. Your bonus pay is now $0.44.</p>\n            ","response":0,"trial_type":"html-button-response","trial_index":114,"time_elapsed":682126,"internal_node_id":"0.0-4.0-1.51","subject_id":"614a433bba99b00a68b0a435","study_id":"6197b3f67c2b5cd3b6d9596a","session_id":"619be321b64deff2fa035178","condition":"contingent","relevant_dimensions":["wings","legs"],"bee_group":{"antennae":"X","wings":"1","pattern":"X","legs":"F"},"bonus":0.6800000000000014},{"rt":1814.7999999970198,"stimulus":"bees-with-color/bee-A2DF.svg","response":0,"trial_type":"image-button-response","trial_index":115,"time_elapsed":683943,"internal_node_id":"0.0-4.0-0.52","subject_id":"614a433bba99b00a68b0a435","study_id":"6197b3f67c2b5cd3b6d9596a","session_id":"619be321b64deff2fa035178","condition":"contingent","relevant_dimensions":["wings","legs"],"bee_group":{"antennae":"X","wings":"1","pattern":"X","legs":"F"},"action":"harvest","summary":"good-harvest","bonus":0.6800000000000014},{"rt":1199.3999999985099,"stimulus":"\n                    <p><b>Action: <em>harvest</em></b></p>\n                    <p>This is the bee that you just saw.</p>\n                    <img src=\"bees-with-color/bee-A2DF.svg\" width=\"200\">\n                    <p><span class=\"greenText\"><b>Successful harvest!</b></span><br>Your pay has increased by $0.02. Your bonus pay is now $0.46.</p>\n            ","response":0,"trial_type":"html-button-response","trial_index":116,"time_elapsed":685144,"internal_node_id":"0.0-4.0-1.52","subject_id":"614a433bba99b00a68b0a435","study_id":"6197b3f67c2b5cd3b6d9596a","session_id":"619be321b64deff2fa035178","condition":"contingent","relevant_dimensions":["wings","legs"],"bee_group":{"antennae":"X","wings":"1","pattern":"X","legs":"F"},"bonus":0.6800000000000014},{"rt":1729.1000000014901,"stimulus":"bees-with-color/bee-A1DF.svg","response":1,"trial_type":"image-button-response","trial_index":117,"time_elapsed":686875,"internal_node_id":"0.0-4.0-0.53","subject_id":"614a433bba99b00a68b0a435","study_id":"6197b3f67c2b5cd3b6d9596a","session_id":"619be321b64deff2fa035178","condition":"contingent","relevant_dimensions":["wings","legs"],"bee_group":{"antennae":"X","wings":"1","pattern":"X","legs":"F"},"action":"avoid","summary":"good-avoid","bonus":0.6800000000000014},{"rt":998.3000000044703,"stimulus":"\n                    <p><b>Action: <em>avoid</em></b></p>\n                    <p>This is the bee that you just saw.</p>\n                    <img src=\"bees-with-color/bee-A1DF.svg\" width=\"200\">\n                    <p><br>Your bonus pay is unchanged, and remains at $0.46.</p>\n            ","response":0,"trial_type":"html-button-response","trial_index":118,"time_elapsed":687875,"internal_node_id":"0.0-4.0-1.53","subject_id":"614a433bba99b00a68b0a435","study_id":"6197b3f67c2b5cd3b6d9596a","session_id":"619be321b64deff2fa035178","condition":"contingent","relevant_dimensions":["wings","legs"],"bee_group":{"antennae":"X","wings":"1","pattern":"X","legs":"F"},"bonus":0.6800000000000014},{"rt":1300.7000000029802,"stimulus":"bees-with-color/bee-A2SF.svg","response":0,"trial_type":"image-button-response","trial_index":119,"time_elapsed":689177,"internal_node_id":"0.0-4.0-0.54","subject_id":"614a433bba99b00a68b0a435","study_id":"6197b3f67c2b5cd3b6d9596a","session_id":"619be321b64deff2fa035178","condition":"contingent","relevant_dimensions":["wings","legs"],"bee_group":{"antennae":"X","wings":"1","pattern":"X","legs":"F"},"action":"harvest","summary":"good-harvest","bonus":0.6800000000000014},{"rt":1096.5999999940395,"stimulus":"\n                    <p><b>Action: <em>harvest</em></b></p>\n                    <p>This is the bee that you just saw.</p>\n                    <img src=\"bees-with-color/bee-A2SF.svg\" width=\"200\">\n                    <p><span class=\"greenText\"><b>Successful harvest!</b></span><br>Your pay has increased by $0.02. Your bonus pay is now $0.48.</p>\n            ","response":0,"trial_type":"html-button-response","trial_index":120,"time_elapsed":690276,"internal_node_id":"0.0-4.0-1.54","subject_id":"614a433bba99b00a68b0a435","study_id":"6197b3f67c2b5cd3b6d9596a","session_id":"619be321b64deff2fa035178","condition":"contingent","relevant_dimensions":["wings","legs"],"bee_group":{"antennae":"X","wings":"1","pattern":"X","legs":"F"},"bonus":0.6800000000000014},{"rt":2582.2999999970198,"stimulus":"bees-with-color/bee-B2DF.svg","response":1,"trial_type":"image-button-response","trial_index":121,"time_elapsed":692860,"internal_node_id":"0.0-4.0-0.55","subject_id":"614a433bba99b00a68b0a435","study_id":"6197b3f67c2b5cd3b6d9596a","session_id":"619be321b64deff2fa035178","condition":"contingent","relevant_dimensions":["wings","legs"],"bee_group":{"antennae":"X","wings":"1","pattern":"X","legs":"F"},"action":"avoid","summary":"bad-avoid","bonus":0.6800000000000014},{"rt":1421,"stimulus":"\n                    <p><b>Action: <em>avoid</em></b></p>\n                    <p>This is the bee that you just saw.</p>\n                    <img src=\"bees-with-color/bee-B2DF.svg\" width=\"200\">\n                    <p><br>Your bonus pay is unchanged, and remains at $0.48.</p>\n            ","response":0,"trial_type":"html-button-response","trial_index":122,"time_elapsed":694283,"internal_node_id":"0.0-4.0-1.55","subject_id":"614a433bba99b00a68b0a435","study_id":"6197b3f67c2b5cd3b6d9596a","session_id":"619be321b64deff2fa035178","condition":"contingent","relevant_dimensions":["wings","legs"],"bee_group":{"antennae":"X","wings":"1","pattern":"X","legs":"F"},"bonus":0.6800000000000014},{"rt":1324.6999999955297,"stimulus":"bees-with-color/bee-A2SM.svg","response":0,"trial_type":"image-button-response","trial_index":123,"time_elapsed":695611,"internal_node_id":"0.0-4.0-0.56","subject_id":"614a433bba99b00a68b0a435","study_id":"6197b3f67c2b5cd3b6d9596a","session_id":"619be321b64deff2fa035178","condition":"contingent","relevant_dimensions":["wings","legs"],"bee_group":{"antennae":"X","wings":"1","pattern":"X","legs":"F"},"action":"harvest","summary":"good-harvest","bonus":0.6800000000000014},{"rt":1015.7000000029802,"stimulus":"\n                    <p><b>Action: <em>harvest</em></b></p>\n                    <p>This is the bee that you just saw.</p>\n                    <img src=\"bees-with-color/bee-A2SM.svg\" width=\"200\">\n                    <p><span class=\"greenText\"><b>Successful harvest!</b></span><br>Your pay has increased by $0.02. Your bonus pay is now $0.50.</p>\n            ","response":0,"trial_type":"html-button-response","trial_index":124,"time_elapsed":696628,"internal_node_id":"0.0-4.0-1.56","subject_id":"614a433bba99b00a68b0a435","study_id":"6197b3f67c2b5cd3b6d9596a","session_id":"619be321b64deff2fa035178","condition":"contingent","relevant_dimensions":["wings","legs"],"bee_group":{"antennae":"X","wings":"1","pattern":"X","legs":"F"},"bonus":0.6800000000000014},{"rt":2703,"stimulus":"bees-with-color/bee-B2SM.svg","response":0,"trial_type":"image-button-response","trial_index":125,"time_elapsed":699333,"internal_node_id":"0.0-4.0-0.57","subject_id":"614a433bba99b00a68b0a435","study_id":"6197b3f67c2b5cd3b6d9596a","session_id":"619be321b64deff2fa035178","condition":"contingent","relevant_dimensions":["wings","legs"],"bee_group":{"antennae":"X","wings":"1","pattern":"X","legs":"F"},"action":"harvest","summary":"good-harvest","bonus":0.6800000000000014},{"rt":1258.7999999970198,"stimulus":"\n                    <p><b>Action: <em>harvest</em></b></p>\n                    <p>This is the bee that you just saw.</p>\n                    <img src=\"bees-with-color/bee-B2SM.svg\" width=\"200\">\n                    <p><span class=\"greenText\"><b>Successful harvest!</b></span><br>Your pay has increased by $0.02. Your bonus pay is now $0.52.</p>\n            ","response":0,"trial_type":"html-button-response","trial_index":126,"time_elapsed":700594,"internal_node_id":"0.0-4.0-1.57","subject_id":"614a433bba99b00a68b0a435","study_id":"6197b3f67c2b5cd3b6d9596a","session_id":"619be321b64deff2fa035178","condition":"contingent","relevant_dimensions":["wings","legs"],"bee_group":{"antennae":"X","wings":"1","pattern":"X","legs":"F"},"bonus":0.6800000000000014},{"rt":2163.0999999940395,"stimulus":"bees-with-color/bee-B2DM.svg","response":0,"trial_type":"image-button-response","trial_index":127,"time_elapsed":702760,"internal_node_id":"0.0-4.0-0.58","subject_id":"614a433bba99b00a68b0a435","study_id":"6197b3f67c2b5cd3b6d9596a","session_id":"619be321b64deff2fa035178","condition":"contingent","relevant_dimensions":["wings","legs"],"bee_group":{"antennae":"X","wings":"1","pattern":"X","legs":"F"},"action":"harvest","summary":"good-harvest","bonus":0.6800000000000014},{"rt":2048.2999999970198,"stimulus":"\n                    <p><b>Action: <em>harvest</em></b></p>\n                    <p>This is the bee that you just saw.</p>\n                    <img src=\"bees-with-color/bee-B2DM.svg\" width=\"200\">\n                    <p><span class=\"greenText\"><b>Successful harvest!</b></span><br>Your pay has increased by $0.02. Your bonus pay is now $0.54.</p>\n            ","response":0,"trial_type":"html-button-response","trial_index":128,"time_elapsed":704810,"internal_node_id":"0.0-4.0-1.58","subject_id":"614a433bba99b00a68b0a435","study_id":"6197b3f67c2b5cd3b6d9596a","session_id":"619be321b64deff2fa035178","condition":"contingent","relevant_dimensions":["wings","legs"],"bee_group":{"antennae":"X","wings":"1","pattern":"X","legs":"F"},"bonus":0.6800000000000014},{"rt":4012.60000000149,"stimulus":"bees-with-color/bee-B1SM.svg","response":0,"trial_type":"image-button-response","trial_index":129,"time_elapsed":708824,"internal_node_id":"0.0-4.0-0.59","subject_id":"614a433bba99b00a68b0a435","study_id":"6197b3f67c2b5cd3b6d9596a","session_id":"619be321b64deff2fa035178","condition":"contingent","relevant_dimensions":["wings","legs"],"bee_group":{"antennae":"X","wings":"1","pattern":"X","legs":"F"},"action":"harvest","summary":"good-harvest","bonus":0.6800000000000014},{"rt":1148.5,"stimulus":"\n                    <p><b>Action: <em>harvest</em></b></p>\n                    <p>This is the bee that you just saw.</p>\n                    <img src=\"bees-with-color/bee-B1SM.svg\" width=\"200\">\n                    <p><span class=\"greenText\"><b>Successful harvest!</b></span><br>Your pay has increased by $0.02. Your bonus pay is now $0.56.</p>\n            ","response":0,"trial_type":"html-button-response","trial_index":130,"time_elapsed":709975,"internal_node_id":"0.0-4.0-1.59","subject_id":"614a433bba99b00a68b0a435","study_id":"6197b3f67c2b5cd3b6d9596a","session_id":"619be321b64deff2fa035178","condition":"contingent","relevant_dimensions":["wings","legs"],"bee_group":{"antennae":"X","wings":"1","pattern":"X","legs":"F"},"bonus":0.6800000000000014},{"rt":1483.3999999985099,"stimulus":"bees-with-color/bee-B1SF.svg","response":1,"trial_type":"image-button-response","trial_index":131,"time_elapsed":711461,"internal_node_id":"0.0-4.0-0.60","subject_id":"614a433bba99b00a68b0a435","study_id":"6197b3f67c2b5cd3b6d9596a","session_id":"619be321b64deff2fa035178","condition":"contingent","relevant_dimensions":["wings","legs"],"bee_group":{"antennae":"X","wings":"1","pattern":"X","legs":"F"},"action":"avoid","summary":"good-avoid","bonus":0.6800000000000014},{"rt":1144.7999999970198,"stimulus":"\n                    <p><b>Action: <em>avoid</em></b></p>\n                    <p>This is the bee that you just saw.</p>\n                    <img src=\"bees-with-color/bee-B1SF.svg\" width=\"200\">\n                    <p><br>Your bonus pay is unchanged, and remains at $0.56.</p>\n            ","response":0,"trial_type":"html-button-response","trial_index":132,"time_elapsed":712608,"internal_node_id":"0.0-4.0-1.60","subject_id":"614a433bba99b00a68b0a435","study_id":"6197b3f67c2b5cd3b6d9596a","session_id":"619be321b64deff2fa035178","condition":"contingent","relevant_dimensions":["wings","legs"],"bee_group":{"antennae":"X","wings":"1","pattern":"X","legs":"F"},"bonus":0.6800000000000014},{"rt":1300.6000000014901,"stimulus":"bees-with-color/bee-A1SM.svg","response":0,"trial_type":"image-button-response","trial_index":133,"time_elapsed":713910,"internal_node_id":"0.0-4.0-0.61","subject_id":"614a433bba99b00a68b0a435","study_id":"6197b3f67c2b5cd3b6d9596a","session_id":"619be321b64deff2fa035178","condition":"contingent","relevant_dimensions":["wings","legs"],"bee_group":{"antennae":"X","wings":"1","pattern":"X","legs":"F"},"action":"harvest","summary":"good-harvest","bonus":0.6800000000000014},{"rt":994.7999999970198,"stimulus":"\n                    <p><b>Action: <em>harvest</em></b></p>\n                    <p>This is the bee that you just saw.</p>\n                    <img src=\"bees-with-color/bee-A1SM.svg\" width=\"200\">\n                    <p><span class=\"greenText\"><b>Successful harvest!</b></span><br>Your pay has increased by $0.02. Your bonus pay is now $0.58.</p>\n            ","response":0,"trial_type":"html-button-response","trial_index":134,"time_elapsed":714907,"internal_node_id":"0.0-4.0-1.61","subject_id":"614a433bba99b00a68b0a435","study_id":"6197b3f67c2b5cd3b6d9596a","session_id":"619be321b64deff2fa035178","condition":"contingent","relevant_dimensions":["wings","legs"],"bee_group":{"antennae":"X","wings":"1","pattern":"X","legs":"F"},"bonus":0.6800000000000014},{"rt":2934,"stimulus":"bees-with-color/bee-B1DM.svg","response":0,"trial_type":"image-button-response","trial_index":135,"time_elapsed":717843,"internal_node_id":"0.0-4.0-0.62","subject_id":"614a433bba99b00a68b0a435","study_id":"6197b3f67c2b5cd3b6d9596a","session_id":"619be321b64deff2fa035178","condition":"contingent","relevant_dimensions":["wings","legs"],"bee_group":{"antennae":"X","wings":"1","pattern":"X","legs":"F"},"action":"harvest","summary":"good-harvest","bonus":0.6800000000000014},{"rt":1247.1000000014901,"stimulus":"\n                    <p><b>Action: <em>harvest</em></b></p>\n                    <p>This is the bee that you just saw.</p>\n                    <img src=\"bees-with-color/bee-B1DM.svg\" width=\"200\">\n                    <p><span class=\"greenText\"><b>Successful harvest!</b></span><br>Your pay has increased by $0.02. Your bonus pay is now $0.60.</p>\n            ","response":0,"trial_type":"html-button-response","trial_index":136,"time_elapsed":719092,"internal_node_id":"0.0-4.0-1.62","subject_id":"614a433bba99b00a68b0a435","study_id":"6197b3f67c2b5cd3b6d9596a","session_id":"619be321b64deff2fa035178","condition":"contingent","relevant_dimensions":["wings","legs"],"bee_group":{"antennae":"X","wings":"1","pattern":"X","legs":"F"},"bonus":0.6800000000000014},{"rt":2521.6999999955297,"stimulus":"bees-with-color/bee-A1SF.svg","response":1,"trial_type":"image-button-response","trial_index":137,"time_elapsed":721616,"internal_node_id":"0.0-4.0-0.63","subject_id":"614a433bba99b00a68b0a435","study_id":"6197b3f67c2b5cd3b6d9596a","session_id":"619be321b64deff2fa035178","condition":"contingent","relevant_dimensions":["wings","legs"],"bee_group":{"antennae":"X","wings":"1","pattern":"X","legs":"F"},"action":"avoid","summary":"good-avoid","bonus":0.6800000000000014},{"rt":1224.2999999970198,"stimulus":"\n                    <p><b>Action: <em>avoid</em></b></p>\n                    <p>This is the bee that you just saw.</p>\n                    <img src=\"bees-with-color/bee-A1SF.svg\" width=\"200\">\n                    <p><br>Your bonus pay is unchanged, and remains at $0.60.</p>\n            ","response":0,"trial_type":"html-button-response","trial_index":138,"time_elapsed":722842,"internal_node_id":"0.0-4.0-1.63","subject_id":"614a433bba99b00a68b0a435","study_id":"6197b3f67c2b5cd3b6d9596a","session_id":"619be321b64deff2fa035178","condition":"contingent","relevant_dimensions":["wings","legs"],"bee_group":{"antennae":"X","wings":"1","pattern":"X","legs":"F"},"bonus":0.6800000000000014},{"rt":9217.19999999553,"stimulus":"You have completed the first part of this experiment.<br><br>You will now begin a shorter second part, in which you will receive no feedback.<br>The same rules regarding bonus pay apply.<br><br>Press any key to begin.","response":" ","trial_type":"html-keyboard-response","trial_index":139,"time_elapsed":732061,"internal_node_id":"0.0-5.0","subject_id":"614a433bba99b00a68b0a435","study_id":"6197b3f67c2b5cd3b6d9596a","session_id":"619be321b64deff2fa035178","condition":"contingent","relevant_dimensions":["wings","legs"],"bee_group":{"antennae":"X","wings":"1","pattern":"X","legs":"F"},"bonus":0.6800000000000014},{"rt":5382.60000000149,"stimulus":"bees-with-color/bee-B1SF.svg","response":1,"trial_type":"image-button-response","trial_index":140,"time_elapsed":737457,"internal_node_id":"0.0-6.0-0.0","subject_id":"614a433bba99b00a68b0a435","study_id":"6197b3f67c2b5cd3b6d9596a","session_id":"619be321b64deff2fa035178","condition":"contingent","relevant_dimensions":["wings","legs"],"bee_group":{"antennae":"X","wings":"1","pattern":"X","legs":"F"},"bonus":0.6800000000000014},{"rt":3862.9000000059605,"stimulus":"bees-with-color/bee-A1SM.svg","response":0,"trial_type":"image-button-response","trial_index":141,"time_elapsed":741323,"internal_node_id":"0.0-6.0-0.1","subject_id":"614a433bba99b00a68b0a435","study_id":"6197b3f67c2b5cd3b6d9596a","session_id":"619be321b64deff2fa035178","condition":"contingent","relevant_dimensions":["wings","legs"],"bee_group":{"antennae":"X","wings":"1","pattern":"X","legs":"F"},"bonus":0.6800000000000014},{"rt":2030.7999999970198,"stimulus":"bees-with-color/bee-B1DF.svg","response":1,"trial_type":"image-button-response","trial_index":142,"time_elapsed":743358,"internal_node_id":"0.0-6.0-0.2","subject_id":"614a433bba99b00a68b0a435","study_id":"6197b3f67c2b5cd3b6d9596a","session_id":"619be321b64deff2fa035178","condition":"contingent","relevant_dimensions":["wings","legs"],"bee_group":{"antennae":"X","wings":"1","pattern":"X","legs":"F"},"bonus":0.6800000000000014},{"rt":1181.2000000029802,"stimulus":"bees-with-color/bee-B2DM.svg","response":0,"trial_type":"image-button-response","trial_index":143,"time_elapsed":744542,"internal_node_id":"0.0-6.0-0.3","subject_id":"614a433bba99b00a68b0a435","study_id":"6197b3f67c2b5cd3b6d9596a","session_id":"619be321b64deff2fa035178","condition":"contingent","relevant_dimensions":["wings","legs"],"bee_group":{"antennae":"X","wings":"1","pattern":"X","legs":"F"},"bonus":0.6800000000000014},{"rt":1144.2000000029802,"stimulus":"bees-with-color/bee-A2DF.svg","response":0,"trial_type":"image-button-response","trial_index":144,"time_elapsed":745690,"internal_node_id":"0.0-6.0-0.4","subject_id":"614a433bba99b00a68b0a435","study_id":"6197b3f67c2b5cd3b6d9596a","session_id":"619be321b64deff2fa035178","condition":"contingent","relevant_dimensions":["wings","legs"],"bee_group":{"antennae":"X","wings":"1","pattern":"X","legs":"F"},"bonus":0.6800000000000014},{"rt":1212.5,"stimulus":"bees-with-color/bee-A2DM.svg","response":0,"trial_type":"image-button-response","trial_index":145,"time_elapsed":746905,"internal_node_id":"0.0-6.0-0.5","subject_id":"614a433bba99b00a68b0a435","study_id":"6197b3f67c2b5cd3b6d9596a","session_id":"619be321b64deff2fa035178","condition":"contingent","relevant_dimensions":["wings","legs"],"bee_group":{"antennae":"X","wings":"1","pattern":"X","legs":"F"},"bonus":0.6800000000000014},{"rt":1448.8000000044703,"stimulus":"bees-with-color/bee-A1DM.svg","response":0,"trial_type":"image-button-response","trial_index":146,"time_elapsed":748357,"internal_node_id":"0.0-6.0-0.6","subject_id":"614a433bba99b00a68b0a435","study_id":"6197b3f67c2b5cd3b6d9596a","session_id":"619be321b64deff2fa035178","condition":"contingent","relevant_dimensions":["wings","legs"],"bee_group":{"antennae":"X","wings":"1","pattern":"X","legs":"F"},"bonus":0.6800000000000014},{"rt":4945.79999999702,"stimulus":"bees-with-color/bee-A2SF.svg","response":0,"trial_type":"image-button-response","trial_index":147,"time_elapsed":753305,"internal_node_id":"0.0-6.0-0.7","subject_id":"614a433bba99b00a68b0a435","study_id":"6197b3f67c2b5cd3b6d9596a","session_id":"619be321b64deff2fa035178","condition":"contingent","relevant_dimensions":["wings","legs"],"bee_group":{"antennae":"X","wings":"1","pattern":"X","legs":"F"},"bonus":0.6800000000000014},{"rt":1467.5,"stimulus":"bees-with-color/bee-B2SF.svg","response":1,"trial_type":"image-button-response","trial_index":148,"time_elapsed":754776,"internal_node_id":"0.0-6.0-0.8","subject_id":"614a433bba99b00a68b0a435","study_id":"6197b3f67c2b5cd3b6d9596a","session_id":"619be321b64deff2fa035178","condition":"contingent","relevant_dimensions":["wings","legs"],"bee_group":{"antennae":"X","wings":"1","pattern":"X","legs":"F"},"bonus":0.6800000000000014},{"rt":2327.10000000149,"stimulus":"bees-with-color/bee-B1DM.svg","response":0,"trial_type":"image-button-response","trial_index":149,"time_elapsed":757106,"internal_node_id":"0.0-6.0-0.9","subject_id":"614a433bba99b00a68b0a435","study_id":"6197b3f67c2b5cd3b6d9596a","session_id":"619be321b64deff2fa035178","condition":"contingent","relevant_dimensions":["wings","legs"],"bee_group":{"antennae":"X","wings":"1","pattern":"X","legs":"F"},"bonus":0.6800000000000014},{"rt":1148.1000000014901,"stimulus":"bees-with-color/bee-B1SM.svg","response":0,"trial_type":"image-button-response","trial_index":150,"time_elapsed":758257,"internal_node_id":"0.0-6.0-0.10","subject_id":"614a433bba99b00a68b0a435","study_id":"6197b3f67c2b5cd3b6d9596a","session_id":"619be321b64deff2fa035178","condition":"contingent","relevant_dimensions":["wings","legs"],"bee_group":{"antennae":"X","wings":"1","pattern":"X","legs":"F"},"bonus":0.6800000000000014},{"rt":1348.5,"stimulus":"bees-with-color/bee-A1DF.svg","response":0,"trial_type":"image-button-response","trial_index":151,"time_elapsed":759608,"internal_node_id":"0.0-6.0-0.11","subject_id":"614a433bba99b00a68b0a435","study_id":"6197b3f67c2b5cd3b6d9596a","session_id":"619be321b64deff2fa035178","condition":"contingent","relevant_dimensions":["wings","legs"],"bee_group":{"antennae":"X","wings":"1","pattern":"X","legs":"F"},"bonus":0.6800000000000014},{"rt":1226.7000000029802,"stimulus":"bees-with-color/bee-B2SM.svg","response":0,"trial_type":"image-button-response","trial_index":152,"time_elapsed":760837,"internal_node_id":"0.0-6.0-0.12","subject_id":"614a433bba99b00a68b0a435","study_id":"6197b3f67c2b5cd3b6d9596a","session_id":"619be321b64deff2fa035178","condition":"contingent","relevant_dimensions":["wings","legs"],"bee_group":{"antennae":"X","wings":"1","pattern":"X","legs":"F"},"bonus":0.6800000000000014},{"rt":1733.7999999970198,"stimulus":"bees-with-color/bee-A1SF.svg","response":0,"trial_type":"image-button-response","trial_index":153,"time_elapsed":762573,"internal_node_id":"0.0-6.0-0.13","subject_id":"614a433bba99b00a68b0a435","study_id":"6197b3f67c2b5cd3b6d9596a","session_id":"619be321b64deff2fa035178","condition":"contingent","relevant_dimensions":["wings","legs"],"bee_group":{"antennae":"X","wings":"1","pattern":"X","legs":"F"},"bonus":0.6800000000000014},{"rt":1581.8999999985099,"stimulus":"bees-with-color/bee-B2DF.svg","response":1,"trial_type":"image-button-response","trial_index":154,"time_elapsed":764158,"internal_node_id":"0.0-6.0-0.14","subject_id":"614a433bba99b00a68b0a435","study_id":"6197b3f67c2b5cd3b6d9596a","session_id":"619be321b64deff2fa035178","condition":"contingent","relevant_dimensions":["wings","legs"],"bee_group":{"antennae":"X","wings":"1","pattern":"X","legs":"F"},"bonus":0.6800000000000014},{"rt":1095.6000000014901,"stimulus":"bees-with-color/bee-A2SM.svg","response":0,"trial_type":"image-button-response","trial_index":155,"time_elapsed":765256,"internal_node_id":"0.0-6.0-0.15","subject_id":"614a433bba99b00a68b0a435","study_id":"6197b3f67c2b5cd3b6d9596a","session_id":"619be321b64deff2fa035178","condition":"contingent","relevant_dimensions":["wings","legs"],"bee_group":{"antennae":"X","wings":"1","pattern":"X","legs":"F"},"bonus":0.6800000000000014},{"rt":1780.5,"stimulus":"bees-with-color/bee-B1DF.svg","response":1,"trial_type":"image-button-response","trial_index":156,"time_elapsed":767038,"internal_node_id":"0.0-6.0-0.16","subject_id":"614a433bba99b00a68b0a435","study_id":"6197b3f67c2b5cd3b6d9596a","session_id":"619be321b64deff2fa035178","condition":"contingent","relevant_dimensions":["wings","legs"],"bee_group":{"antennae":"X","wings":"1","pattern":"X","legs":"F"},"bonus":0.6800000000000014},{"rt":1366.5,"stimulus":"bees-with-color/bee-A1DM.svg","response":0,"trial_type":"image-button-response","trial_index":157,"time_elapsed":768407,"internal_node_id":"0.0-6.0-0.17","subject_id":"614a433bba99b00a68b0a435","study_id":"6197b3f67c2b5cd3b6d9596a","session_id":"619be321b64deff2fa035178","condition":"contingent","relevant_dimensions":["wings","legs"],"bee_group":{"antennae":"X","wings":"1","pattern":"X","legs":"F"},"bonus":0.6800000000000014},{"rt":1068.5,"stimulus":"bees-with-color/bee-B2SM.svg","response":0,"trial_type":"image-button-response","trial_index":158,"time_elapsed":769478,"internal_node_id":"0.0-6.0-0.18","subject_id":"614a433bba99b00a68b0a435","study_id":"6197b3f67c2b5cd3b6d9596a","session_id":"619be321b64deff2fa035178","condition":"contingent","relevant_dimensions":["wings","legs"],"bee_group":{"antennae":"X","wings":"1","pattern":"X","legs":"F"},"bonus":0.6800000000000014},{"rt":1281.7000000029802,"stimulus":"bees-with-color/bee-A1SM.svg","response":0,"trial_type":"image-button-response","trial_index":159,"time_elapsed":770762,"internal_node_id":"0.0-6.0-0.19","subject_id":"614a433bba99b00a68b0a435","study_id":"6197b3f67c2b5cd3b6d9596a","session_id":"619be321b64deff2fa035178","condition":"contingent","relevant_dimensions":["wings","legs"],"bee_group":{"antennae":"X","wings":"1","pattern":"X",