[{"success":true,"trial_type":"fullscreen","trial_index":0,"time_elapsed":5632,"internal_node_id":"0.0-0.0","subject_id":"5dde680c40460edc4a5dc1a2","study_id":"60edd13110225f80f9f3709b","session_id":"6196c6b84d4a55b2d1a4bb3c","condition":"contingent","relevant_dimensions":["antennae","pattern"],"bee_group":{"antennae":"A","wings":"X","pattern":"D","legs":"X"},"bonus":1.300000000000001},{"success":true,"timeout":false,"failed_images":[],"failed_audio":[],"failed_video":[],"trial_type":"preload","trial_index":1,"time_elapsed":8859,"internal_node_id":"0.0-1.0","subject_id":"5dde680c40460edc4a5dc1a2","study_id":"60edd13110225f80f9f3709b","session_id":"6196c6b84d4a55b2d1a4bb3c","condition":"contingent","relevant_dimensions":["antennae","pattern"],"bee_group":{"antennae":"A","wings":"X","pattern":"D","legs":"X"},"bonus":1.300000000000001},{"rt":1427.6999999284744,"stimulus":"Welcome! Press any key to begin.","response":" ","trial_type":"html-keyboard-response","trial_index":2,"time_elapsed":10288,"internal_node_id":"0.0-2.0","subject_id":"5dde680c40460edc4a5dc1a2","study_id":"60edd13110225f80f9f3709b","session_id":"6196c6b84d4a55b2d1a4bb3c","condition":"contingent","relevant_dimensions":["antennae","pattern"],"bee_group":{"antennae":"A","wings":"X","pattern":"D","legs":"X"},"bonus":1.300000000000001},{"view_history":[{"page_index":0,"viewing_time":3135.3000000715256},{"page_index":1,"viewing_time":8071.799999952316},{"page_index":2,"viewing_time":12394.5},{"page_index":3,"viewing_time":14765.399999976158},{"page_index":4,"viewing_time":5356.200000047684},{"page_index":5,"viewing_time":10856.200000047684},{"page_index":6,"viewing_time":7475.899999976158},{"page_index":7,"viewing_time":5715.699999928474},{"page_index":8,"viewing_time":4731.900000095367},{"page_index":9,"viewing_time":3739.0999999046326},{"page_index":10,"viewing_time":4367},{"page_index":11,"viewing_time":7574.800000071526},{"page_index":12,"viewing_time":10837.799999952316},{"page_index":13,"viewing_time":1437.7000000476837},{"page_index":14,"viewing_time":1960.3999999761581}],"rt":102419.90000009537,"trial_type":"instructions","trial_index":3,"time_elapsed":112709,"internal_node_id":"0.0-3.0-0.0","subject_id":"5dde680c40460edc4a5dc1a2","study_id":"60edd13110225f80f9f3709b","session_id":"6196c6b84d4a55b2d1a4bb3c","condition":"contingent","relevant_dimensions":["antennae","pattern"],"bee_group":{"antennae":"A","wings":"X","pattern":"D","legs":"X"},"bonus":1.300000000000001},{"rt":10105.600000023842,"response":{"Q0":["Two or six legs","Stripes or spots on body","Single or double wings","Antennae or no antennae"]},"question_order":[0],"trial_type":"survey-multi-select","trial_index":4,"time_elapsed":122818,"internal_node_id":"0.0-3.0-1.0","subject_id":"5dde680c40460edc4a5dc1a2","study_id":"60edd13110225f80f9f3709b","session_id":"6196c6b84d4a55b2d1a4bb3c","condition":"contingent","relevant_dimensions":["antennae","pattern"],"bee_group":{"antennae":"A","wings":"X","pattern":"D","legs":"X"},"correct":true,"bonus":1.300000000000001},{"rt":16368.300000071526,"response":{"Q1":"No.","Q2":"Based on the four features of the bee.","Q3":"You do not learn if it was friendly or dangerous, and do not alter your bonus."},"question_order":[0,1,2],"trial_type":"survey-multi-choice","trial_index":5,"time_elapsed":139187,"internal_node_id":"0.0-3.0-2.0","subject_id":"5dde680c40460edc4a5dc1a2","study_id":"60edd13110225f80f9f3709b","session_id":"6196c6b84d4a55b2d1a4bb3c","condition":"contingent","relevant_dimensions":["antennae","pattern"],"bee_group":{"antennae":"A","wings":"X","pattern":"D","legs":"X"},"correct":true,"bonus":1.300000000000001},{"rt":1938.7999999523163,"stimulus":"<p>Congrats, you got everything right<br>When you're ready, click the button below to continue to the experiment.</p>","response":0,"trial_type":"html-button-response","trial_index":6,"time_elapsed":141127,"internal_node_id":"0.0-3.0-3.0","subject_id":"5dde680c40460edc4a5dc1a2","study_id":"60edd13110225f80f9f3709b","session_id":"6196c6b84d4a55b2d1a4bb3c","condition":"contingent","relevant_dimensions":["antennae","pattern"],"bee_group":{"antennae":"A","wings":"X","pattern":"D","legs":"X"},"bonus":1.300000000000001},{"rt":8963.799999952316,"stimulus":"bees-with-color/bee-A2DF.svg","response":0,"trial_type":"image-button-response","trial_index":7,"time_elapsed":150093,"internal_node_id":"0.0-4.0-0.0","subject_id":"5dde680c40460edc4a5dc1a2","study_id":"60edd13110225f80f9f3709b","session_id":"6196c6b84d4a55b2d1a4bb3c","condition":"contingent","relevant_dimensions":["antennae","pattern"],"bee_group":{"antennae":"A","wings":"X","pattern":"D","legs":"X"},"action":"harvest","summary":"bad-harvest","bonus":1.300000000000001},{"rt":9664.699999928474,"stimulus":"\n                    <p><b>Action: <em>harvest</em></b></p>\n                    <p>This is the bee that you just saw.</p>\n                    <img src=\"bees-with-color/bee-A2DF.svg\" width=\"200\">\n                    <p><span class=\"redText\">Bad choice, the bee was angry.</span><br><b>You have been stung!</b><br>Your pay has been decreased by $0.10. Your bonus pay is now $0.44.</p>\n            ","response":0,"trial_type":"html-button-response","trial_index":8,"time_elapsed":159761,"internal_node_id":"0.0-4.0-1.0","subject_id":"5dde680c40460edc4a5dc1a2","study_id":"60edd13110225f80f9f3709b","session_id":"6196c6b84d4a55b2d1a4bb3c","condition":"contingent","relevant_dimensions":["antennae","pattern"],"bee_group":{"antennae":"A","wings":"X","pattern":"D","legs":"X"},"bonus":1.300000000000001},{"rt":1853.6000000238419,"stimulus":"bees-with-color/bee-B1SM.svg","response":0,"trial_type":"image-button-response","trial_index":9,"time_elapsed":161617,"internal_node_id":"0.0-4.0-0.1","subject_id":"5dde680c40460edc4a5dc1a2","study_id":"60edd13110225f80f9f3709b","session_id":"6196c6b84d4a55b2d1a4bb3c","condition":"contingent","relevant_dimensions":["antennae","pattern"],"bee_group":{"antennae":"A","wings":"X","pattern":"D","legs":"X"},"action":"harvest","summary":"good-harvest","bonus":1.300000000000001},{"rt":7378.400000095367,"stimulus":"\n                    <p><b>Action: <em>harvest</em></b></p>\n                    <p>This is the bee that you just saw.</p>\n                    <img src=\"bees-with-color/bee-B1SM.svg\" width=\"200\">\n                    <p><span class=\"greenText\"><b>Successful harvest!</b></span><br>Your pay has increased by $0.02. Your bonus pay is now $0.46.</p>\n            ","response":0,"trial_type":"html-button-response","trial_index":10,"time_elapsed":168996,"internal_node_id":"0.0-4.0-1.1","subject_id":"5dde680c40460edc4a5dc1a2","study_id":"60edd13110225f80f9f3709b","session_id":"6196c6b84d4a55b2d1a4bb3c","condition":"contingent","relevant_dimensions":["antennae","pattern"],"bee_group":{"antennae":"A","wings":"X","pattern":"D","legs":"X"},"bonus":1.300000000000001},{"rt":2894.399999976158,"stimulus":"bees-with-color/bee-A1DM.svg","response":1,"trial_type":"image-button-response","trial_index":11,"time_elapsed":171892,"internal_node_id":"0.0-4.0-0.2","subject_id":"5dde680c40460edc4a5dc1a2","study_id":"60edd13110225f80f9f3709b","session_id":"6196c6b84d4a55b2d1a4bb3c","condition":"contingent","relevant_dimensions":["antennae","pattern"],"bee_group":{"antennae":"A","wings":"X","pattern":"D","legs":"X"},"action":"avoid","summary":"good-avoid","bonus":1.300000000000001},{"rt":2854.7999999523163,"stimulus":"\n                    <p><b>Action: <em>avoid</em></b></p>\n                    <p>This is the bee that you just saw.</p>\n                    <img src=\"bees-with-color/bee-A1DM.svg\" width=\"200\">\n                    <p><br>Your bonus pay is unchanged, and remains at $0.46.</p>\n            ","response":0,"trial_type":"html-button-response","trial_index":12,"time_elapsed":174748,"internal_node_id":"0.0-4.0-1.2","subject_id":"5dde680c40460edc4a5dc1a2","study_id":"60edd13110225f80f9f3709b","session_id":"6196c6b84d4a55b2d1a4bb3c","condition":"contingent","relevant_dimensions":["antennae","pattern"],"bee_group":{"antennae":"A","wings":"X","pattern":"D","legs":"X"},"bonus":1.300000000000001},{"rt":3403.600000023842,"stimulus":"bees-with-color/bee-A2SM.svg","response":0,"trial_type":"image-button-response","trial_index":13,"time_elapsed":178153,"internal_node_id":"0.0-4.0-0.3","subject_id":"5dde680c40460edc4a5dc1a2","study_id":"60edd13110225f80f9f3709b","session_id":"6196c6b84d4a55b2d1a4bb3c","condition":"contingent","relevant_dimensions":["antennae","pattern"],"bee_group":{"antennae":"A","wings":"X","pattern":"D","legs":"X"},"action":"harvest","summary":"good-harvest","bonus":1.300000000000001},{"rt":5248.600000023842,"stimulus":"\n                    <p><b>Action: <em>harvest</em></b></p>\n                    <p>This is the bee that you just saw.</p>\n                    <img src=\"bees-with-color/bee-A2SM.svg\" width=\"200\">\n                    <p><span class=\"greenText\"><b>Successful harvest!</b></span><br>Your pay has increased by $0.02. Your bonus pay is now $0.48.</p>\n            ","response":0,"trial_type":"html-button-response","trial_index":14,"time_elapsed":183403,"internal_node_id":"0.0-4.0-1.3","subject_id":"5dde680c40460edc4a5dc1a2","study_id":"60edd13110225f80f9f3709b","session_id":"6196c6b84d4a55b2d1a4bb3c","condition":"contingent","relevant_dimensions":["antennae","pattern"],"bee_group":{"antennae":"A","wings":"X","pattern":"D","legs":"X"},"bonus":1.300000000000001},{"rt":1755,"stimulus":"bees-with-color/bee-B2SM.svg","response":0,"trial_type":"image-button-response","trial_index":15,"time_elapsed":185160,"internal_node_id":"0.0-4.0-0.4","subject_id":"5dde680c40460edc4a5dc1a2","study_id":"60edd13110225f80f9f3709b","session_id":"6196c6b84d4a55b2d1a4bb3c","condition":"contingent","relevant_dimensions":["antennae","pattern"],"bee_group":{"antennae":"A","wings":"X","pattern":"D","legs":"X"},"action":"harvest","summary":"good-harvest","bonus":1.300000000000001},{"rt":2040.5,"stimulus":"\n                    <p><b>Action: <em>harvest</em></b></p>\n                    <p>This is the bee that you just saw.</p>\n                    <img src=\"bees-with-color/bee-B2SM.svg\" width=\"200\">\n                    <p><span class=\"greenText\"><b>Successful harvest!</b></span><br>Your pay has increased by $0.02. Your bonus pay is now $0.50.</p>\n            ","response":0,"trial_type":"html-button-response","trial_index":16,"time_elapsed":187201,"internal_node_id":"0.0-4.0-1.4","subject_id":"5dde680c40460edc4a5dc1a2","study_id":"60edd13110225f80f9f3709b","session_id":"6196c6b84d4a55b2d1a4bb3c","condition":"contingent","relevant_dimensions":["antennae","pattern"],"bee_group":{"antennae":"A","wings":"X","pattern":"D","legs":"X"},"bonus":1.300000000000001},{"rt":2320.600000023842,"stimulus":"bees-with-color/bee-B2SF.svg","response":0,"trial_type":"image-button-response","trial_index":17,"time_elapsed":189523,"internal_node_id":"0.0-4.0-0.5","subject_id":"5dde680c40460edc4a5dc1a2","study_id":"60edd13110225f80f9f3709b","session_id":"6196c6b84d4a55b2d1a4bb3c","condition":"contingent","relevant_dimensions":["antennae","pattern"],"bee_group":{"antennae":"A","wings":"X","pattern":"D","legs":"X"},"action":"harvest","summary":"good-harvest","bonus":1.300000000000001},{"rt":1864.3999999761581,"stimulus":"\n                    <p><b>Action: <em>harvest</em></b></p>\n                    <p>This is the bee that you just saw.</p>\n                    <img src=\"bees-with-color/bee-B2SF.svg\" width=\"200\">\n                    <p><span class=\"greenText\"><b>Successful harvest!</b></span><br>Your pay has increased by $0.02. Your bonus pay is now $0.52.</p>\n            ","response":0,"trial_type":"html-button-response","trial_index":18,"time_elapsed":191389,"internal_node_id":"0.0-4.0-1.5","subject_id":"5dde680c40460edc4a5dc1a2","study_id":"60edd13110225f80f9f3709b","session_id":"6196c6b84d4a55b2d1a4bb3c","condition":"contingent","relevant_dimensions":["antennae","pattern"],"bee_group":{"antennae":"A","wings":"X","pattern":"D","legs":"X"},"bonus":1.300000000000001},{"rt":902.4000000953674,"stimulus":"bees-with-color/bee-A1SF.svg","response":0,"trial_type":"image-button-response","trial_index":19,"time_elapsed":192293,"internal_node_id":"0.0-4.0-0.6","subject_id":"5dde680c40460edc4a5dc1a2","study_id":"60edd13110225f80f9f3709b","session_id":"6196c6b84d4a55b2d1a4bb3c","condition":"contingent","relevant_dimensions":["antennae","pattern"],"bee_group":{"antennae":"A","wings":"X","pattern":"D","legs":"X"},"action":"harvest","summary":"good-harvest","bonus":1.300000000000001},{"rt":1939,"stimulus":"\n                    <p><b>Action: <em>harvest</em></b></p>\n                    <p>This is the bee that you just saw.</p>\n                    <img src=\"bees-with-color/bee-A1SF.svg\" width=\"200\">\n                    <p><span class=\"greenText\"><b>Successful harvest!</b></span><br>Your pay has increased by $0.02. Your bonus pay is now $0.54.</p>\n            ","response":0,"trial_type":"html-button-response","trial_index":20,"time_elapsed":194233,"internal_node_id":"0.0-4.0-1.6","subject_id":"5dde680c40460edc4a5dc1a2","study_id":"60edd13110225f80f9f3709b","session_id":"6196c6b84d4a55b2d1a4bb3c","condition":"contingent","relevant_dimensions":["antennae","pattern"],"bee_group":{"antennae":"A","wings":"X","pattern":"D","legs":"X"},"bonus":1.300000000000001},{"rt":1042.2000000476837,"stimulus":"bees-with-color/bee-B2DM.svg","response":0,"trial_type":"image-button-response","trial_index":21,"time_elapsed":195277,"internal_node_id":"0.0-4.0-0.7","subject_id":"5dde680c40460edc4a5dc1a2","study_id":"60edd13110225f80f9f3709b","session_id":"6196c6b84d4a55b2d1a4bb3c","condition":"contingent","relevant_dimensions":["antennae","pattern"],"bee_group":{"antennae":"A","wings":"X","pattern":"D","legs":"X"},"action":"harvest","summary":"good-harvest","bonus":1.300000000000001},{"rt":4793.100000023842,"stimulus":"\n                    <p><b>Action: <em>harvest</em></b></p>\n                    <p>This is the bee that you just saw.</p>\n                    <img src=\"bees-with-color/bee-B2DM.svg\" width=\"200\">\n                    <p><span class=\"greenText\"><b>Successful harvest!</b></span><br>Your pay has increased by $0.02. Your bonus pay is now $0.56.</p>\n            ","response":0,"trial_type":"html-button-response","trial_index":22,"time_elapsed":200071,"internal_node_id":"0.0-4.0-1.7","subject_id":"5dde680c40460edc4a5dc1a2","study_id":"60edd13110225f80f9f3709b","session_id":"6196c6b84d4a55b2d1a4bb3c","condition":"contingent","relevant_dimensions":["antennae","pattern"],"bee_group":{"antennae":"A","wings":"X","pattern":"D","legs":"X"},"bonus":1.300000000000001},{"rt":1862.8999999761581,"stimulus":"bees-with-color/bee-A1DF.svg","response":1,"trial_type":"image-button-response","trial_index":23,"time_elapsed":201937,"internal_node_id":"0.0-4.0-0.8","subject_id":"5dde680c40460edc4a5dc1a2","study_id":"60edd13110225f80f9f3709b","session_id":"6196c6b84d4a55b2d1a4bb3c","condition":"contingent","relevant_dimensions":["antennae","pattern"],"bee_group":{"antennae":"A","wings":"X","pattern":"D","legs":"X"},"action":"avoid","summary":"good-avoid","bonus":1.300000000000001},{"rt":1276.6000000238419,"stimulus":"\n                    <p><b>Action: <em>avoid</em></b></p>\n                    <p>This is the bee that you just saw.</p>\n                    <img src=\"bees-with-color/bee-A1DF.svg\" width=\"200\">\n                    <p><br>Your bonus pay is unchanged, and remains at $0.56.</p>\n            ","response":0,"trial_type":"html-button-response","trial_index":24,"time_elapsed":203215,"internal_node_id":"0.0-4.0-1.8","subject_id":"5dde680c40460edc4a5dc1a2","study_id":"60edd13110225f80f9f3709b","session_id":"6196c6b84d4a55b2d1a4bb3c","condition":"contingent","relevant_dimensions":["antennae","pattern"],"bee_group":{"antennae":"A","wings":"X","pattern":"D","legs":"X"},"bonus":1.300000000000001},{"rt":1137,"stimulus":"bees-with-color/bee-B1DM.svg","response":1,"trial_type":"image-button-response","trial_index":25,"time_elapsed":204353,"internal_node_id":"0.0-4.0-0.9","subject_id":"5dde680c40460edc4a5dc1a2","study_id":"60edd13110225f80f9f3709b","session_id":"6196c6b84d4a55b2d1a4bb3c","condition":"contingent","relevant_dimensions":["antennae","pattern"],"bee_group":{"antennae":"A","wings":"X","pattern":"D","legs":"X"},"action":"avoid","summary":"bad-avoid","bonus":1.300000000000001},{"rt":1674.5999999046326,"stimulus":"\n                    <p><b>Action: <em>avoid</em></b></p>\n                    <p>This is the bee that you just saw.</p>\n                    <img src=\"bees-with-color/bee-B1DM.svg\" width=\"200\">\n                    <p><br>Your bonus pay is unchanged, and remains at $0.56.</p>\n            ","response":0,"trial_type":"html-button-response","trial_index":26,"time_elapsed":206029,"internal_node_id":"0.0-4.0-1.9","subject_id":"5dde680c40460edc4a5dc1a2","study_id":"60edd13110225f80f9f3709b","session_id":"6196c6b84d4a55b2d1a4bb3c","condition":"contingent","relevant_dimensions":["antennae","pattern"],"bee_group":{"antennae":"A","wings":"X","pattern":"D","legs":"X"},"bonus":1.300000000000001},{"rt":1832.3000000715256,"stimulus":"bees-with-color/bee-A2SF.svg","response":0,"trial_type":"image-button-response","trial_index":27,"time_elapsed":207863,"internal_node_id":"0.0-4.0-0.10","subject_id":"5dde680c40460edc4a5dc1a2","study_id":"60edd13110225f80f9f3709b","session_id":"6196c6b84d4a55b2d1a4bb3c","condition":"contingent","relevant_dimensions":["antennae","pattern"],"bee_group":{"antennae":"A","wings":"X","pattern":"D","legs":"X"},"action":"harvest","summary":"good-harvest","bonus":1.300000000000001},{"rt":1324.7000000476837,"stimulus":"\n                    <p><b>Action: <em>harvest</em></b></p>\n                    <p>This is the bee that you just saw.</p>\n                    <img src=\"bees-with-color/bee-A2SF.svg\" width=\"200\">\n                    <p><span class=\"greenText\"><b>Successful harvest!</b></span><br>Your pay has increased by $0.02. Your bonus pay is now $0.58.</p>\n            ","response":0,"trial_type":"html-button-response","trial_index":28,"time_elapsed":209189,"internal_node_id":"0.0-4.0-1.10","subject_id":"5dde680c40460edc4a5dc1a2","study_id":"60edd13110225f80f9f3709b","session_id":"6196c6b84d4a55b2d1a4bb3c","condition":"contingent","relevant_dimensions":["antennae","pattern"],"bee_group":{"antennae":"A","wings":"X","pattern":"D","legs":"X"},"bonus":1.300000000000001},{"rt":1286.6999999284744,"stimulus":"bees-with-color/bee-B2DF.svg","response":1,"trial_type":"image-button-response","trial_index":29,"time_elapsed":210477,"internal_node_id":"0.0-4.0-0.11","subject_id":"5dde680c40460edc4a5dc1a2","study_id":"60edd13110225f80f9f3709b","session_id":"6196c6b84d4a55b2d1a4bb3c","condition":"contingent","relevant_dimensions":["antennae","pattern"],"bee_group":{"antennae":"A","wings":"X","pattern":"D","legs":"X"},"action":"avoid","summary":"bad-avoid","bonus":1.300000000000001},{"rt":1090.2999999523163,"stimulus":"\n                    <p><b>Action: <em>avoid</em></b></p>\n                    <p>This is the bee that you just saw.</p>\n                    <img src=\"bees-with-color/bee-B2DF.svg\" width=\"200\">\n                    <p><br>Your bonus pay is unchanged, and remains at $0.58.</p>\n            ","response":0,"trial_type":"html-button-response","trial_index":30,"time_elapsed":211568,"internal_node_id":"0.0-4.0-1.11","subject_id":"5dde680c40460edc4a5dc1a2","study_id":"60edd13110225f80f9f3709b","session_id":"6196c6b84d4a55b2d1a4bb3c","condition":"contingent","relevant_dimensions":["antennae","pattern"],"bee_group":{"antennae":"A","wings":"X","pattern":"D","legs":"X"},"bonus":1.300000000000001},{"rt":991,"stimulus":"bees-with-color/bee-B1DF.svg","response":1,"trial_type":"image-button-response","trial_index":31,"time_elapsed":212561,"internal_node_id":"0.0-4.0-0.12","subject_id":"5dde680c40460edc4a5dc1a2","study_id":"60edd13110225f80f9f3709b","session_id":"6196c6b84d4a55b2d1a4bb3c","condition":"contingent","relevant_dimensions":["antennae","pattern"],"bee_group":{"antennae":"A","wings":"X","pattern":"D","legs":"X"},"action":"avoid","summary":"bad-avoid","bonus":1.300000000000001},{"rt":1037.5,"stimulus":"\n                    <p><b>Action: <em>avoid</em></b></p>\n                    <p>This is the bee that you just saw.</p>\n                    <img src=\"bees-with-color/bee-B1DF.svg\" width=\"200\">\n                    <p><br>Your bonus pay is unchanged, and remains at $0.58.</p>\n            ","response":0,"trial_type":"html-button-response","trial_index":32,"time_elapsed":213599,"internal_node_id":"0.0-4.0-1.12","subject_id":"5dde680c40460edc4a5dc1a2","study_id":"60edd13110225f80f9f3709b","session_id":"6196c6b84d4a55b2d1a4bb3c","condition":"contingent","relevant_dimensions":["antennae","pattern"],"bee_group":{"antennae":"A","wings":"X","pattern":"D","legs":"X"},"bonus":1.300000000000001},{"rt":1880.0999999046326,"stimulus":"bees-with-color/bee-B1SF.svg","response":0,"trial_type":"image-button-response","trial_index":33,"time_elapsed":215481,"internal_node_id":"0.0-4.0-0.13","subject_id":"5dde680c40460edc4a5dc1a2","study_id":"60edd13110225f80f9f3709b","session_id":"6196c6b84d4a55b2d1a4bb3c","condition":"contingent","relevant_dimensions":["antennae","pattern"],"bee_group":{"antennae":"A","wings":"X","pattern":"D","legs":"X"},"action":"harvest","summary":"good-harvest","bonus":1.300000000000001},{"rt":1968.6999999284744,"stimulus":"\n                    <p><b>Action: <em>harvest</em></b></p>\n                    <p>This is the bee that you just saw.</p>\n                    <img src=\"bees-with-color/bee-B1SF.svg\" width=\"200\">\n                    <p><span class=\"greenText\"><b>Successful harvest!</b></span><br>Your pay has increased by $0.02. Your bonus pay is now $0.60.</p>\n            ","response":0,"trial_type":"html-button-response","trial_index":34,"time_elapsed":217451,"internal_node_id":"0.0-4.0-1.13","subject_id":"5dde680c40460edc4a5dc1a2","study_id":"60edd13110225f80f9f3709b","session_id":"6196c6b84d4a55b2d1a4bb3c","condition":"contingent","relevant_dimensions":["antennae","pattern"],"bee_group":{"antennae":"A","wings":"X","pattern":"D","legs":"X"},"bonus":1.300000000000001},{"rt":1124.7000000476837,"stimulus":"bees-with-color/bee-A2DM.svg","response":1,"trial_type":"image-button-response","trial_index":35,"time_elapsed":218577,"internal_node_id":"0.0-4.0-0.14","subject_id":"5dde680c40460edc4a5dc1a2","study_id":"60edd13110225f80f9f3709b","session_id":"6196c6b84d4a55b2d1a4bb3c","condition":"contingent","relevant_dimensions":["antennae","pattern"],"bee_group":{"antennae":"A","wings":"X","pattern":"D","legs":"X"},"action":"avoid","summary":"good-avoid","bonus":1.300000000000001},{"rt":1288,"stimulus":"\n                    <p><b>Action: <em>avoid</em></b></p>\n                    <p>This is the bee that you just saw.</p>\n                    <img src=\"bees-with-color/bee-A2DM.svg\" width=\"200\">\n                    <p><br>Your bonus pay is unchanged, and remains at $0.60.</p>\n            ","response":0,"trial_type":"html-button-response","trial_index":36,"time_elapsed":219867,"internal_node_id":"0.0-4.0-1.14","subject_id":"5dde680c40460edc4a5dc1a2","study_id":"60edd13110225f80f9f3709b","session_id":"6196c6b84d4a55b2d1a4bb3c","condition":"contingent","relevant_dimensions":["antennae","pattern"],"bee_group":{"antennae":"A","wings":"X","pattern":"D","legs":"X"},"bonus":1.300000000000001},{"rt":1203.1000000238419,"stimulus":"bees-with-color/bee-A1SM.svg","response":1,"trial_type":"image-button-response","trial_index":37,"time_elapsed":221071,"internal_node_id":"0.0-4.0-0.15","subject_id":"5dde680c40460edc4a5dc1a2","study_id":"60edd13110225f80f9f3709b","session_id":"6196c6b84d4a55b2d1a4bb3c","condition":"contingent","relevant_dimensions":["antennae","pattern"],"bee_group":{"antennae":"A","wings":"X","pattern":"D","legs":"X"},"action":"avoid","summary":"bad-avoid","bonus":1.300000000000001},{"rt":1381.6000000238419,"stimulus":"\n                    <p><b>Action: <em>avoid</em></b></p>\n                    <p>This is the bee that you just saw.</p>\n                    <img src=\"bees-with-color/bee-A1SM.svg\" width=\"200\">\n                    <p><br>Your bonus pay is unchanged, and remains at $0.60.</p>\n            ","response":0,"trial_type":"html-button-response","trial_index":38,"time_elapsed":222455,"internal_node_id":"0.0-4.0-1.15","subject_id":"5dde680c40460edc4a5dc1a2","study_id":"60edd13110225f80f9f3709b","session_id":"6196c6b84d4a55b2d1a4bb3c","condition":"contingent","relevant_dimensions":["antennae","pattern"],"bee_group":{"antennae":"A","wings":"X","pattern":"D","legs":"X"},"bonus":1.300000000000001},{"rt":1038.6000000238419,"stimulus":"bees-with-color/bee-A1SM.svg","response":0,"trial_type":"image-button-response","trial_index":39,"time_elapsed":223495,"internal_node_id":"0.0-4.0-0.16","subject_id":"5dde680c40460edc4a5dc1a2","study_id":"60edd13110225f80f9f3709b","session_id":"6196c6b84d4a55b2d1a4bb3c","condition":"contingent","relevant_dimensions":["antennae","pattern"],"bee_group":{"antennae":"A","wings":"X","pattern":"D","legs":"X"},"action":"harvest","summary":"good-harvest","bonus":1.300000000000001},{"rt":1359,"stimulus":"\n                    <p><b>Action: <em>harvest</em></b></p>\n                    <p>This is the bee that you just saw.</p>\n                    <img src=\"bees-with-color/bee-A1SM.svg\" width=\"200\">\n                    <p><span class=\"greenText\"><b>Successful harvest!</b></span><br>Your pay has increased by $0.02. Your bonus pay is now $0.62.</p>\n            ","response":0,"trial_type":"html-button-response","trial_index":40,"time_elapsed":224855,"internal_node_id":"0.0-4.0-1.16","subject_id":"5dde680c40460edc4a5dc1a2","study_id":"60edd13110225f80f9f3709b","session_id":"6196c6b84d4a55b2d1a4bb3c","condition":"contingent","relevant_dimensions":["antennae","pattern"],"bee_group":{"antennae":"A","wings":"X","pattern":"D","legs":"X"},"bonus":1.300000000000001},{"rt":1449.1999999284744,"stimulus":"bees-with-color/bee-B2DF.svg","response":1,"trial_type":"image-button-response","trial_index":41,"time_elapsed":226305,"internal_node_id":"0.0-4.0-0.17","subject_id":"5dde680c40460edc4a5dc1a2","study_id":"60edd13110225f80f9f3709b","session_id":"6196c6b84d4a55b2d1a4bb3c","condition":"contingent","relevant_dimensions":["antennae","pattern"],"bee_group":{"antennae":"A","wings":"X","pattern":"D","legs":"X"},"action":"avoid","summary":"bad-avoid","bonus":1.300000000000001},{"rt":1075.5,"stimulus":"\n                    <p><b>Action: <em>avoid</em></b></p>\n                    <p>This is the bee that you just saw.</p>\n                    <img src=\"bees-with-color/bee-B2DF.svg\" width=\"200\">\n                    <p><br>Your bonus pay is unchanged, and remains at $0.62.</p>\n            ","response":0,"trial_type":"html-button-response","trial_index":42,"time_elapsed":227382,"internal_node_id":"0.0-4.0-1.17","subject_id":"5dde680c40460edc4a5dc1a2","study_id":"60edd13110225f80f9f3709b","session_id":"6196c6b84d4a55b2d1a4bb3c","condition":"contingent","relevant_dimensions":["antennae","pattern"],"bee_group":{"antennae":"A","wings":"X","pattern":"D","legs":"X"},"bonus":1.300000000000001},{"rt":1236.1000000238419,"stimulus":"bees-with-color/bee-A2SM.svg","response":0,"trial_type":"image-button-response","trial_index":43,"time_elapsed":228619,"internal_node_id":"0.0-4.0-0.18","subject_id":"5dde680c40460edc4a5dc1a2","study_id":"60edd13110225f80f9f3709b","session_id":"6196c6b84d4a55b2d1a4bb3c","condition":"contingent","relevant_dimensions":["antennae","pattern"],"bee_group":{"antennae":"A","wings":"X","pattern":"D","legs":"X"},"action":"harvest","summary":"good-harvest","bonus":1.300000000000001},{"rt":1084.8999999761581,"stimulus":"\n                    <p><b>Action: <em>harvest</em></b></p>\n                    <p>This is the bee that you just saw.</p>\n                    <img src=\"bees-with-color/bee-A2SM.svg\" width=\"200\">\n                    <p><span class=\"greenText\"><b>Successful harvest!</b></span><br>Your pay has increased by $0.02. Your bonus pay is now $0.64.</p>\n            ","response":0,"trial_type":"html-button-response","trial_index":44,"time_elapsed":229705,"internal_node_id":"0.0-4.0-1.18","subject_id":"5dde680c40460edc4a5dc1a2","study_id":"60edd13110225f80f9f3709b","session_id":"6196c6b84d4a55b2d1a4bb3c","condition":"contingent","relevant_dimensions":["antennae","pattern"],"bee_group":{"antennae":"A","wings":"X","pattern":"D","legs":"X"},"bonus":1.300000000000001},{"rt":1784.1999999284744,"stimulus":"bees-with-color/bee-B1DF.svg","response":1,"trial_type":"image-button-response","trial_index":45,"time_elapsed":231491,"internal_node_id":"0.0-4.0-0.19","subject_id":"5dde680c40460edc4a5dc1a2","study_id":"60edd13110225f80f9f3709b","session_id":"6196c6b84d4a55b2d1a4bb3c","condition":"contingent","relevant_dimensions":["antennae","pattern"],"bee_group":{"antennae":"A","wings":"X","pattern":"D","legs":"X"},"action":"avoid","summary":"bad-avoid","bonus":1.300000000000001},{"rt":1121,"stimulus":"\n                    <p><b>Action: <em>avoid</em></b></p>\n                    <p>This is the bee that you just saw.</p>\n                    <img src=\"bees-with-color/bee-B1DF.svg\" width=\"200\">\n                    <p><br>Your bonus pay is unchanged, and remains at $0.64.</p>\n            ","response":0,"trial_type":"html-button-response","trial_index":46,"time_elapsed":232613,"internal_node_id":"0.0-4.0-1.19","subject_id":"5dde680c40460edc4a5dc1a2","study_id":"60edd13110225f80f9f3709b","session_id":"6196c6b84d4a55b2d1a4bb3c","condition":"contingent","relevant_dimensions":["antennae","pattern"],"bee_group":{"antennae":"A","wings":"X","pattern":"D","legs":"X"},"bonus":1.300000000000001},{"rt":870.6000000238419,"stimulus":"bees-with-color/bee-A1DF.svg","response":1,"trial_type":"image-button-response","trial_index":47,"time_elapsed":233485,"internal_node_id":"0.0-4.0-0.20","subject_id":"5dde680c40460edc4a5dc1a2","study_id":"60edd13110225f80f9f3709b","session_id":"6196c6b84d4a55b2d1a4bb3c","condition":"contingent","relevant_dimensions":["antennae","pattern"],"bee_group":{"antennae":"A","wings":"X","pattern":"D","legs":"X"},"action":"avoid","summary":"good-avoid","bonus":1.300000000000001},{"rt":2233.6999999284744,"stimulus":"\n                    <p><b>Action: <em>avoid</em></b></p>\n                    <p>This is the bee that you just saw.</p>\n                    <img src=\"bees-with-color/bee-A1DF.svg\" width=\"200\">\n                    <p><br>Your bonus pay is unchanged, and remains at $0.64.</p>\n            ","response":0,"trial_type":"html-button-response","trial_index":48,"time_elapsed":235720,"internal_node_id":"0.0-4.0-1.20","subject_id":"5dde680c40460edc4a5dc1a2","study_id":"60edd13110225f80f9f3709b","session_id":"6196c6b84d4a55b2d1a4bb3c","condition":"contingent","relevant_dimensions":["antennae","pattern"],"bee_group":{"antennae":"A","wings":"X","pattern":"D","legs":"X"},"bonus":1.300000000000001},{"rt":1430.4000000953674,"stimulus":"bees-with-color/bee-B2SM.svg","response":0,"trial_type":"image-button-response","trial_index":49,"time_elapsed":237151,"internal_node_id":"0.0-4.0-0.21","subject_id":"5dde680c40460edc4a5dc1a2","study_id":"60edd13110225f80f9f3709b","session_id":"6196c6b84d4a55b2d1a4bb3c","condition":"contingent","relevant_dimensions":["antennae","pattern"],"bee_group":{"antennae":"A","wings":"X","pattern":"D","legs":"X"},"action":"harvest","summary":"good-harvest","bonus":1.300000000000001},{"rt":1122.1999999284744,"stimulus":"\n                    <p><b>Action: <em>harvest</em></b></p>\n                    <p>This is the bee that you just saw.</p>\n                    <img src=\"bees-with-color/bee-B2SM.svg\" width=\"200\">\n                    <p><span class=\"greenText\"><b>Successful harvest!</b></span><br>Your pay has increased by $0.02. Your bonus pay is now $0.66.</p>\n            ","response":0,"trial_type":"html-button-response","trial_index":50,"time_elapsed":238274,"internal_node_id":"0.0-4.0-1.21","subject_id":"5dde680c40460edc4a5dc1a2","study_id":"60edd13110225f80f9f3709b","session_id":"6196c6b84d4a55b2d1a4bb3c","condition":"contingent","relevant_dimensions":["antennae","pattern"],"bee_group":{"antennae":"A","wings":"X","pattern":"D","legs":"X"},"bonus":1.300000000000001},{"rt":1093.2999999523163,"stimulus":"bees-with-color/bee-A2DF.svg","response":1,"trial_type":"image-button-response","trial_index":51,"time_elapsed":239369,"internal_node_id":"0.0-4.0-0.22","subject_id":"5dde680c40460edc4a5dc1a2","study_id":"60edd13110225f80f9f3709b","session_id":"6196c6b84d4a55b2d1a4bb3c","condition":"contingent","relevant_dimensions":["antennae","pattern"],"bee_group":{"antennae":"A","wings":"X","pattern":"D","legs":"X"},"action":"avoid","summary":"good-avoid","bonus":1.300000000000001},{"rt":1584.6000000238419,"stimulus":"\n                    <p><b>Action: <em>avoid</em></b></p>\n                    <p>This is the bee that you just saw.</p>\n                    <img src=\"bees-with-color/bee-A2DF.svg\" width=\"200\">\n                    <p><br>Your bonus pay is unchanged, and remains at $0.66.</p>\n            ","response":0,"trial_type":"html-button-response","trial_index":52,"time_elapsed":240955,"internal_node_id":"0.0-4.0-1.22","subject_id":"5dde680c40460edc4a5dc1a2","study_id":"60edd13110225f80f9f3709b","session_id":"6196c6b84d4a55b2d1a4bb3c","condition":"contingent","relevant_dimensions":["antennae","pattern"],"bee_group":{"antennae":"A","wings":"X","pattern":"D","legs":"X"},"bonus":1.300000000000001},{"rt":1014.7999999523163,"stimulus":"bees-with-color/bee-B2SF.svg","response":0,"trial_type":"image-button-response","trial_index":53,"time_elapsed":241971,"internal_node_id":"0.0-4.0-0.23","subject_id":"5dde680c40460edc4a5dc1a2","study_id":"60edd13110225f80f9f3709b","session_id":"6196c6b84d4a55b2d1a4bb3c","condition":"contingent","relevant_dimensions":["antennae","pattern"],"bee_group":{"antennae":"A","wings":"X","pattern":"D","legs":"X"},"action":"harvest","summary":"good-harvest","bonus":1.300000000000001},{"rt":997.3000000715256,"stimulus":"\n                    <p><b>Action: <em>harvest</em></b></p>\n                    <p>This is the bee that you just saw.</p>\n                    <img src=\"bees-with-color/bee-B2SF.svg\" width=\"200\">\n                    <p><span class=\"greenText\"><b>Successful harvest!</b></span><br>Your pay has increased by $0.02. Your bonus pay is now $0.68.</p>\n            ","response":0,"trial_type":"html-button-response","trial_index":54,"time_elapsed":242969,"internal_node_id":"0.0-4.0-1.23","subject_id":"5dde680c40460edc4a5dc1a2","study_id":"60edd13110225f80f9f3709b","session_id":"6196c6b84d4a55b2d1a4bb3c","condition":"contingent","relevant_dimensions":["antennae","pattern"],"bee_group":{"antennae":"A","wings":"X","pattern":"D","legs":"X"},"bonus":1.300000000000001},{"rt":1326.2999999523163,"stimulus":"bees-with-color/bee-B1DM.svg","response":1,"trial_type":"image-button-response","trial_index":55,"time_elapsed":244297,"internal_node_id":"0.0-4.0-0.24","subject_id":"5dde680c40460edc4a5dc1a2","study_id":"60edd13110225f80f9f3709b","session_id":"6196c6b84d4a55b2d1a4bb3c","condition":"contingent","relevant_dimensions":["antennae","pattern"],"bee_group":{"antennae":"A","wings":"X","pattern":"D","legs":"X"},"action":"avoid","summary":"bad-avoid","bonus":1.300000000000001},{"rt":969.1000000238419,"stimulus":"\n                    <p><b>Action: <em>avoid</em></b></p>\n                    <p>This is the bee that you just saw.</p>\n                    <img src=\"bees-with-color/bee-B1DM.svg\" width=\"200\">\n                    <p><br>Your bonus pay is unchanged, and remains at $0.68.</p>\n            ","response":0,"trial_type":"html-button-response","trial_index":56,"time_elapsed":245266,"internal_node_id":"0.0-4.0-1.24","subject_id":"5dde680c40460edc4a5dc1a2","study_id":"60edd13110225f80f9f3709b","session_id":"6196c6b84d4a55b2d1a4bb3c","condition":"contingent","relevant_dimensions":["antennae","pattern"],"bee_group":{"antennae":"A","wings":"X","pattern":"D","legs":"X"},"bonus":1.300000000000001},{"rt":976.3999999761581,"stimulus":"bees-with-color/bee-B1SF.svg","response":0,"trial_type":"image-button-response","trial_index":57,"time_elapsed":246244,"internal_node_id":"0.0-4.0-0.25","subject_id":"5dde680c40460edc4a5dc1a2","study_id":"60edd13110225f80f9f3709b","session_id":"6196c6b84d4a55b2d1a4bb3c","condition":"contingent","relevant_dimensions":["antennae","pattern"],"bee_group":{"antennae":"A","wings":"X","pattern":"D","legs":"X"},"action":"harvest","summary":"good-harvest","bonus":1.300000000000001},{"rt":1000.8999999761581,"stimulus":"\n                    <p><b>Action: <em>harvest</em></b></p>\n                    <p>This is the bee that you just saw.</p>\n                    <img src=\"bees-with-color/bee-B1SF.svg\" width=\"200\">\n                    <p><span class=\"greenText\"><b>Successful harvest!</b></span><br>Your pay has increased by $0.02. Your bonus pay is now $0.70.</p>\n            ","response":0,"trial_type":"html-button-response","trial_index":58,"time_elapsed":247246,"internal_node_id":"0.0-4.0-1.25","subject_id":"5dde680c40460edc4a5dc1a2","study_id":"60edd13110225f80f9f3709b","session_id":"6196c6b84d4a55b2d1a4bb3c","condition":"contingent","relevant_dimensions":["antennae","pattern"],"bee_group":{"antennae":"A","wings":"X","pattern":"D","legs":"X"},"bonus":1.300000000000001},{"rt":1261.2000000476837,"stimulus":"bees-with-color/bee-B2DM.svg","response":1,"trial_type":"image-button-response","trial_index":59,"time_elapsed":248509,"internal_node_id":"0.0-4.0-0.26","subject_id":"5dde680c40460edc4a5dc1a2","study_id":"60edd13110225f80f9f3709b","session_id":"6196c6b84d4a55b2d1a4bb3c","condition":"contingent","relevant_dimensions":["antennae","pattern"],"bee_group":{"antennae":"A","wings":"X","pattern":"D","legs":"X"},"action":"avoid","summary":"bad-avoid","bonus":1.300000000000001},{"rt":886.3999999761581,"stimulus":"\n                    <p><b>Action: <em>avoid</em></b></p>\n                    <p>This is the bee that you just saw.</p>\n                    <img src=\"bees-with-color/bee-B2DM.svg\" width=\"200\">\n                    <p><br>Your bonus pay is unchanged, and remains at $0.70.</p>\n            ","response":0,"trial_type":"html-button-response","trial_index":60,"time_elapsed":249397,"internal_node_id":"0.0-4.0-1.26","subject_id":"5dde680c40460edc4a5dc1a2","study_id":"60edd13110225f80f9f3709b","session_id":"6196c6b84d4a55b2d1a4bb3c","condition":"contingent","relevant_dimensions":["antennae","pattern"],"bee_group":{"antennae":"A","wings":"X","pattern":"D","legs":"X"},"bonus":1.300000000000001},{"rt":972.3999999761581,"stimulus":"bees-with-color/bee-A1DM.svg","response":1,"trial_type":"image-button-response","trial_index":61,"time_elapsed":250370,"internal_node_id":"0.0-4.0-0.27","subject_id":"5dde680c40460edc4a5dc1a2","study_id":"60edd13110225f80f9f3709b","session_id":"6196c6b84d4a55b2d1a4bb3c","condition":"contingent","relevant_dimensions":["antennae","pattern"],"bee_group":{"antennae":"A","wings":"X","pattern":"D","legs":"X"},"action":"avoid","summary":"good-avoid","bonus":1.300000000000001},{"rt":981.6000000238419,"stimulus":"\n                    <p><b>Action: <em>avoid</em></b></p>\n                    <p>This is the bee that you just saw.</p>\n                    <img src=\"bees-with-color/bee-A1DM.svg\" width=\"200\">\n                    <p><br>Your bonus pay is unchanged, and remains at $0.70.</p>\n            ","response":0,"trial_type":"html-button-response","trial_index":62,"time_elapsed":251353,"internal_node_id":"0.0-4.0-1.27","subject_id":"5dde680c40460edc4a5dc1a2","study_id":"60edd13110225f80f9f3709b","session_id":"6196c6b84d4a55b2d1a4bb3c","condition":"contingent","relevant_dimensions":["antennae","pattern"],"bee_group":{"antennae":"A","wings":"X","pattern":"D","legs":"X"},"bonus":1.300000000000001},{"rt":1167.2999999523163,"stimulus":"bees-with-color/bee-A2SF.svg","response":0,"trial_type":"image-button-response","trial_index":63,"time_elapsed":252522,"internal_node_id":"0.0-4.0-0.28","subject_id":"5dde680c40460edc4a5dc1a2","study_id":"60edd13110225f80f9f3709b","session_id":"6196c6b84d4a55b2d1a4bb3c","condition":"contingent","relevant_dimensions":["antennae","pattern"],"bee_group":{"antennae":"A","wings":"X","pattern":"D","legs":"X"},"action":"harvest","summary":"good-harvest","bonus":1.300000000000001},{"rt":1171.3999999761581,"stimulus":"\n                    <p><b>Action: <em>harvest</em></b></p>\n                    <p>This is the bee that you just saw.</p>\n                    <img src=\"bees-with-color/bee-A2SF.svg\" width=\"200\">\n                    <p><span class=\"greenText\"><b>Successful harvest!</b></span><br>Your pay has increased by $0.02. Your bonus pay is now $0.72.</p>\n            ","response":0,"trial_type":"html-button-response","trial_index":64,"time_elapsed":253695,"internal_node_id":"0.0-4.0-1.28","subject_id":"5dde680c40460edc4a5dc1a2","study_id":"60edd13110225f80f9f3709b","session_id":"6196c6b84d4a55b2d1a4bb3c","condition":"contingent","relevant_dimensions":["antennae","pattern"],"bee_group":{"antennae":"A","wings":"X","pattern":"D","legs":"X"},"bonus":1.300000000000001},{"rt":1292.4000000953674,"stimulus":"bees-with-color/bee-A2DM.svg","response":1,"trial_type":"image-button-response","trial_index":65,"time_elapsed":254989,"internal_node_id":"0.0-4.0-0.29","subject_id":"5dde680c40460edc4a5dc1a2","study_id":"60edd13110225f80f9f3709b","session_id":"6196c6b84d4a55b2d1a4bb3c","condition":"contingent","relevant_dimensions":["antennae","pattern"],"bee_group":{"antennae":"A","wings":"X","pattern":"D","legs":"X"},"action":"avoid","summary":"good-avoid","bonus":1.300000000000001},{"rt":1304.3000000715256,"stimulus":"\n                    <p><b>Action: <em>avoid</em></b></p>\n                    <p>This is the bee that you just saw.</p>\n                    <img src=\"bees-with-color/bee-A2DM.svg\" width=\"200\">\n                    <p><br>Your bonus pay is unchanged, and remains at $0.72.</p>\n            ","response":0,"trial_type":"html-button-response","trial_index":66,"time_elapsed":256294,"internal_node_id":"0.0-4.0-1.29","subject_id":"5dde680c40460edc4a5dc1a2","study_id":"60edd13110225f80f9f3709b","session_id":"6196c6b84d4a55b2d1a4bb3c","condition":"contingent","relevant_dimensions":["antennae","pattern"],"bee_group":{"antennae":"A","wings":"X","pattern":"D","legs":"X"},"bonus":1.300000000000001},{"rt":1124.8000000715256,"stimulus":"bees-with-color/bee-A1SF.svg","response":0,"trial_type":"image-button-response","trial_index":67,"time_elapsed":257420,"internal_node_id":"0.0-4.0-0.30","subject_id":"5dde680c40460edc4a5dc1a2","study_id":"60edd13110225f80f9f3709b","session_id":"6196c6b84d4a55b2d1a4bb3c","condition":"contingent","relevant_dimensions":["antennae","pattern"],"bee_group":{"antennae":"A","wings":"X","pattern":"D","legs":"X"},"action":"harvest","summary":"good-harvest","bonus":1.300000000000001},{"rt":980.5,"stimulus":"\n                    <p><b>Action: <em>harvest</em></b></p>\n                    <p>This is the bee that you just saw.</p>\n                    <img src=\"bees-with-color/bee-A1SF.svg\" width=\"200\">\n                    <p><span class=\"greenText\"><b>Successful harvest!</b></span><br>Your pay has increased by $0.02. Your bonus pay is now $0.74.</p>\n            ","response":0,"trial_type":"html-button-response","trial_index":68,"time_elapsed":258402,"internal_node_id":"0.0-4.0-1.30","subject_id":"5dde680c40460edc4a5dc1a2","study_id":"60edd13110225f80f9f3709b","session_id":"6196c6b84d4a55b2d1a4bb3c","condition":"contingent","relevant_dimensions":["antennae","pattern"],"bee_group":{"antennae":"A","wings":"X","pattern":"D","legs":"X"},"bonus":1.300000000000001},{"rt":912.5,"stimulus":"bees-with-color/bee-B1SM.svg","response":0,"trial_type":"image-button-response","trial_index":69,"time_elapsed":259316,"internal_node_id":"0.0-4.0-0.31","subject_id":"5dde680c40460edc4a5dc1a2","study_id":"60edd13110225f80f9f3709b","session_id":"6196c6b84d4a55b2d1a4bb3c","condition":"contingent","relevant_dimensions":["antennae","pattern"],"bee_group":{"antennae":"A","wings":"X","pattern":"D","legs":"X"},"action":"harvest","summary":"good-harvest","bonus":1.300000000000001},{"rt":979.8999999761581,"stimulus":"\n                    <p><b>Action: <em>harvest</em></b></p>\n                    <p>This is the bee that you just saw.</p>\n                    <img src=\"bees-with-color/bee-B1SM.svg\" width=\"200\">\n                    <p><span class=\"greenText\"><b>Successful harvest!</b></span><br>Your pay has increased by $0.02. Your bonus pay is now $0.76.</p>\n            ","response":0,"trial_type":"html-button-response","trial_index":70,"time_elapsed":260299,"internal_node_id":"0.0-4.0-1.31","subject_id":"5dde680c40460edc4a5dc1a2","study_id":"60edd13110225f80f9f3709b","session_id":"6196c6b84d4a55b2d1a4bb3c","condition":"contingent","relevant_dimensions":["antennae","pattern"],"bee_group":{"antennae":"A","wings":"X","pattern":"D","legs":"X"},"bonus":1.300000000000001},{"rt":914.8999999761581,"stimulus":"bees-with-color/bee-B1SF.svg","response":0,"trial_type":"image-button-response","trial_index":71,"time_elapsed":261214,"internal_node_id":"0.0-4.0-0.32","subject_id":"5dde680c40460edc4a5dc1a2","study_id":"60edd13110225f80f9f3709b","session_id":"6196c6b84d4a55b2d1a4bb3c","condition":"contingent","relevant_dimensions":["antennae","pattern"],"bee_group":{"antennae":"A","wings":"X","pattern":"D","legs":"X"},"action":"harvest","summary":"good-harvest","bonus":1.300000000000001},{"rt":860.8999999761581,"stimulus":"\n                    <p><b>Action: <em>harvest</em></b></p>\n                    <p>This is the bee that you just saw.</p>\n                    <img src=\"bees-with-color/bee-B1SF.svg\" width=\"200\">\n                    <p><span class=\"greenText\"><b>Successful harvest!</b></span><br>Your pay has increased by $0.02. Your bonus pay is now $0.78.</p>\n            ","response":0,"trial_type":"html-button-response","trial_index":72,"time_elapsed":262076,"internal_node_id":"0.0-4.0-1.32","subject_id":"5dde680c40460edc4a5dc1a2","study_id":"60edd13110225f80f9f3709b","session_id":"6196c6b84d4a55b2d1a4bb3c","condition":"contingent","relevant_dimensions":["antennae","pattern"],"bee_group":{"antennae":"A","wings":"X","pattern":"D","legs":"X"},"bonus":1.300000000000001},{"rt":1347.2000000476837,"stimulus":"bees-with-color/bee-B1DF.svg","response":1,"trial_type":"image-button-response","trial_index":73,"time_elapsed":263425,"internal_node_id":"0.0-4.0-0.33","subject_id":"5dde680c40460edc4a5dc1a2","study_id":"60edd13110225f80f9f3709b","session_id":"6196c6b84d4a55b2d1a4bb3c","condition":"contingent","relevant_dimensions":["antennae","pattern"],"bee_group":{"antennae":"A","wings":"X","pattern":"D","legs":"X"},"action":"avoid","summary":"bad-avoid","bonus":1.300000000000001},{"rt":803.7000000476837,"stimulus":"\n                    <p><b>Action: <em>avoid</em></b></p>\n                    <p>This is the bee that you just saw.</p>\n                    <img src=\"bees-with-color/bee-B1DF.svg\" width=\"200\">\n                    <p><br>Your bonus pay is unchanged, and remains at $0.78.</p>\n            ","response":0,"trial_type":"html-button-response","trial_index":74,"time_elapsed":264229,"internal_node_id":"0.0-4.0-1.33","subject_id":"5dde680c40460edc4a5dc1a2","study_id":"60edd13110225f80f9f3709b","session_id":"6196c6b84d4a55b2d1a4bb3c","condition":"contingent","relevant_dimensions":["antennae","pattern"],"bee_group":{"antennae":"A","wings":"X","pattern":"D","legs":"X"},"bonus":1.300000000000001},{"rt":875.7999999523163,"stimulus":"bees-with-color/bee-B2DF.svg","response":1,"trial_type":"image-button-response","trial_index":75,"time_elapsed":265106,"internal_node_id":"0.0-4.0-0.34","subject_id":"5dde680c40460edc4a5dc1a2","study_id":"60edd13110225f80f9f3709b","session_id":"6196c6b84d4a55b2d1a4bb3c","condition":"contingent","relevant_dimensions":["antennae","pattern"],"bee_group":{"antennae":"A","wings":"X","pattern":"D","legs":"X"},"action":"avoid","summary":"bad-avoid","bonus":1.300000000000001},{"rt":1355.0999999046326,"stimulus":"\n                    <p><b>Action: <em>avoid</em></b></p>\n                    <p>This is the bee that you just saw.</p>\n                    <img src=\"bees-with-color/bee-B2DF.svg\" width=\"200\">\n                    <p><br>Your bonus pay is unchanged, and remains at $0.78.</p>\n            ","response":0,"trial_type":"html-button-response","trial_index":76,"time_elapsed":266463,"internal_node_id":"0.0-4.0-1.34","subject_id":"5dde680c40460edc4a5dc1a2","study_id":"60edd13110225f80f9f3709b","session_id":"6196c6b84d4a55b2d1a4bb3c","condition":"contingent","relevant_dimensions":["antennae","pattern"],"bee_group":{"antennae":"A","wings":"X","pattern":"D","legs":"X"},"bonus":1.300000000000001},{"rt":1000.3999999761581,"stimulus":"bees-with-color/bee-A1DF.svg","response":1,"trial_type":"image-button-response","trial_index":77,"time_elapsed":267464,"internal_node_id":"0.0-4.0-0.35","subject_id":"5dde680c40460edc4a5dc1a2","study_id":"60edd13110225f80f9f3709b","session_id":"6196c6b84d4a55b2d1a4bb3c","condition":"contingent","relevant_dimensions":["antennae","pattern"],"bee_group":{"antennae":"A","wings":"X","pattern":"D","legs":"X"},"action":"avoid","summary":"good-avoid","bonus":1.300000000000001},{"rt":714.8999999761581,"stimulus":"\n                    <p><b>Action: <em>avoid</em></b></p>\n                    <p>This is the bee that you just saw.</p>\n                    <img src=\"bees-with-color/bee-A1DF.svg\" width=\"200\">\n                    <p><br>Your bonus pay is unchanged, and remains at $0.78.</p>\n            ","response":0,"trial_type":"html-button-response","trial_index":78,"time_elapsed":268180,"internal_node_id":"0.0-4.0-1.35","subject_id":"5dde680c40460edc4a5dc1a2","study_id":"60edd13110225f80f9f3709b","session_id":"6196c6b84d4a55b2d1a4bb3c","condition":"contingent","relevant_dimensions":["antennae","pattern"],"bee_group":{"antennae":"A","wings":"X","pattern":"D","legs":"X"},"bonus":1.300000000000001},{"rt":1929.2000000476837,"stimulus":"bees-with-color/bee-A1SM.svg","response":0,"trial_type":"image-button-response","trial_index":79,"time_elapsed":270110,"internal_node_id":"0.0-4.0-0.36","subject_id":"5dde680c40460edc4a5dc1a2","study_id":"60edd13110225f80f9f3709b","session_id":"6196c6b84d4a55b2d1a4bb3c","condition":"contingent","relevant_dimensions":["antennae","pattern"],"bee_group":{"antennae":"A","wings":"X","pattern":"D","legs":"X"},"action":"harvest","summary":"good-harvest","bonus":1.300000000000001},{"rt":851,"stimulus":"\n                    <p><b>Action: <em>harvest</em></b></p>\n                    <p>This is the bee that you just saw.</p>\n                    <img src=\"bees-with-color/bee-A1SM.svg\" width=\"200\">\n                    <p><span class=\"greenText\"><b>Successful harvest!</b></span><br>Your pay has increased by $0.02. Your bonus pay is now $0.80.</p>\n            ","response":0,"trial_type":"html-button-response","trial_index":80,"time_elapsed":270962,"internal_node_id":"0.0-4.0-1.36","subject_id":"5dde680c40460edc4a5dc1a2","study_id":"60edd13110225f80f9f3709b","session_id":"6196c6b84d4a55b2d1a4bb3c","condition":"contingent","relevant_dimensions":["antennae","pattern"],"bee_group":{"antennae":"A","wings":"X","pattern":"D","legs":"X"},"bonus":1.300000000000001},{"rt":801.1000000238419,"stimulus":"bees-with-color/bee-B2SM.svg","response":0,"trial_type":"image-button-response","trial_index":81,"time_elapsed":271765,"internal_node_id":"0.0-4.0-0.37","subject_id":"5dde680c40460edc4a5dc1a2","study_id":"60edd13110225f80f9f3709b","session_id":"6196c6b84d4a55b2d1a4bb3c","condition":"contingent","relevant_dimensions":["antennae","pattern"],"bee_group":{"antennae":"A","wings":"X","pattern":"D","legs":"X"},"action":"harvest","summary":"good-harvest","bonus":1.300000000000001},{"rt":943.2999999523163,"stimulus":"\n                    <p><b>Action: <em>harvest</em></b></p>\n                    <p>This is the bee that you just saw.</p>\n                    <img src=\"bees-with-color/bee-B2SM.svg\" width=\"200\">\n                    <p><span class=\"greenText\"><b>Successful harvest!</b></span><br>Your pay has increased by $0.02. Your bonus pay is now $0.82.</p>\n            ","response":0,"trial_type":"html-button-response","trial_index":82,"time_elapsed":272709,"internal_node_id":"0.0-4.0-1.37","subject_id":"5dde680c40460edc4a5dc1a2","study_id":"60edd13110225f80f9f3709b","session_id":"6196c6b84d4a55b2d1a4bb3c","condition":"contingent","relevant_dimensions":["antennae","pattern"],"bee_group":{"antennae":"A","wings":"X","pattern":"D","legs":"X"},"bonus":1.300000000000001},{"rt":952.4000000953674,"stimulus":"bees-with-color/bee-A2DM.svg","response":0,"trial_type":"image-button-response","trial_index":83,"time_elapsed":273663,"internal_node_id":"0.0-4.0-0.38","subject_id":"5dde680c40460edc4a5dc1a2","study_id":"60edd13110225f80f9f3709b","session_id":"6196c6b84d4a55b2d1a4bb3c","condition":"contingent","relevant_dimensions":["antennae","pattern"],"bee_group":{"antennae":"A","wings":"X","pattern":"D","legs":"X"},"action":"harvest","summary":"bad-harvest","bonus":1.300000000000001},{"rt":3795.100000023842,"stimulus":"\n                    <p><b>Action: <em>harvest</em></b></p>\n                    <p>This is the bee that you just saw.</p>\n                    <img src=\"bees-with-color/bee-A2DM.svg\" width=\"200\">\n                    <p><span class=\"redText\">Bad choice, the bee was angry.</span><br><b>You have been stung!</b><br>Your pay has been decreased by $0.10. Your bonus pay is now $0.72.</p>\n            ","response":0,"trial_type":"html-button-response","trial_index":84,"time_elapsed":277459,"internal_node_id":"0.0-4.0-1.38","subject_id":"5dde680c40460edc4a5dc1a2","study_id":"60edd13110225f80f9f3709b","session_id":"6196c6b84d4a55b2d1a4bb3c","condition":"contingent","relevant_dimensions":["antennae","pattern"],"bee_group":{"antennae":"A","wings":"X","pattern":"D","legs":"X"},"bonus":1.300000000000001},{"rt":1646.2999999523163,"stimulus":"bees-with-color/bee-A2SM.svg","response":0,"trial_type":"image-button-response","trial_index":85,"time_elapsed":279106,"internal_node_id":"0.0-4.0-0.39","subject_id":"5dde680c40460edc4a5dc1a2","study_id":"60edd13110225f80f9f3709b","session_id":"6196c6b84d4a55b2d1a4bb3c","condition":"contingent","relevant_dimensions":["antennae","pattern"],"bee_group":{"antennae":"A","wings":"X","pattern":"D","legs":"X"},"action":"harvest","summary":"good-harvest","bonus":1.300000000000001},{"rt":936.5999999046326,"stimulus":"\n                    <p><b>Action: <em>harvest</em></b></p>\n                    <p>This is the bee that you just saw.</p>\n                    <img src=\"bees-with-color/bee-A2SM.svg\" width=\"200\">\n                    <p><span class=\"greenText\"><b>Successful harvest!</b></span><br>Your pay has increased by $0.02. Your bonus pay is now $0.74.</p>\n            ","response":0,"trial_type":"html-button-response","trial_index":86,"time_elapsed":280044,"internal_node_id":"0.0-4.0-1.39","subject_id":"5dde680c40460edc4a5dc1a2","study_id":"60edd13110225f80f9f3709b","session_id":"6196c6b84d4a55b2d1a4bb3c","condition":"contingent","relevant_dimensions":["antennae","pattern"],"bee_group":{"antennae":"A","wings":"X","pattern":"D","legs":"X"},"bonus":1.300000000000001},{"rt":1128.8000000715256,"stimulus":"bees-with-color/bee-A2DF.svg","response":1,"trial_type":"image-button-response","trial_index":87,"time_elapsed":281175,"internal_node_id":"0.0-4.0-0.40","subject_id":"5dde680c40460edc4a5dc1a2","study_id":"60edd13110225f80f9f3709b","session_id":"6196c6b84d4a55b2d1a4bb3c","condition":"contingent","relevant_dimensions":["antennae","pattern"],"bee_group":{"antennae":"A","wings":"X","pattern":"D","legs":"X"},"action":"avoid","summary":"good-avoid","bonus":1.300000000000001},{"rt":853.6000000238419,"stimulus":"\n                    <p><b>Action: <em>avoid</em></b></p>\n                    <p>This is the bee that you just saw.</p>\n                    <img src=\"bees-with-color/bee-A2DF.svg\" width=\"200\">\n                    <p><br>Your bonus pay is unchanged, and remains at $0.74.</p>\n            ","response":0,"trial_type":"html-button-response","trial_index":88,"time_elapsed":282029,"internal_node_id":"0.0-4.0-1.40","subject_id":"5dde680c40460edc4a5dc1a2","study_id":"60edd13110225f80f9f3709b","session_id":"6196c6b84d4a55b2d1a4bb3c","condition":"contingent","relevant_dimensions":["antennae","pattern"],"bee_group":{"antennae":"A","wings":"X","pattern":"D","legs":"X"},"bonus":1.300000000000001},{"rt":1367.3999999761581,"stimulus":"bees-with-color/bee-A1SF.svg","response":0,"trial_type":"image-button-response","trial_index":89,"time_elapsed":283398,"internal_node_id":"0.0-4.0-0.41","subject_id":"5dde680c40460edc4a5dc1a2","study_id":"60edd13110225f80f9f3709b","session_id":"6196c6b84d4a55b2d1a4bb3c","condition":"contingent","relevant_dimensions":["antennae","pattern"],"bee_group":{"antennae":"A","wings":"X","pattern":"D","legs":"X"},"action":"harvest","summary":"good-harvest","bonus":1.300000000000001},{"rt":1223.1000000238419,"stimulus":"\n                    <p><b>Action: <em>harvest</em></b></p>\n                    <p>This is the bee that you just saw.</p>\n                    <img src=\"bees-with-color/bee-A1SF.svg\" width=\"200\">\n                    <p><span class=\"greenText\"><b>Successful harvest!</b></span><br>Your pay has increased by $0.02. Your bonus pay is now $0.76.</p>\n            ","response":0,"trial_type":"html-button-response","trial_index":90,"time_elapsed":284622,"internal_node_id":"0.0-4.0-1.41","subject_id":"5dde680c40460edc4a5dc1a2","study_id":"60edd13110225f80f9f3709b","session_id":"6196c6b84d4a55b2d1a4bb3c","condition":"contingent","relevant_dimensions":["antennae","pattern"],"bee_group":{"antennae":"A","wings":"X","pattern":"D","legs":"X"},"bonus":1.300000000000001},{"rt":1203.1000000238419,"stimulus":"bees-with-color/bee-A1DM.svg","response":1,"trial_type":"image-button-response","trial_index":91,"time_elapsed":285827,"internal_node_id":"0.0-4.0-0.42","subject_id":"5dde680c40460edc4a5dc1a2","study_id":"60edd13110225f80f9f3709b","session_id":"6196c6b84d4a55b2d1a4bb3c","condition":"contingent","relevant_dimensions":["antennae","pattern"],"bee_group":{"antennae":"A","wings":"X","pattern":"D","legs":"X"},"action":"avoid","summary":"good-avoid","bonus":1.300000000000001},{"rt":750.1999999284744,"stimulus":"\n                    <p><b>Action: <em>avoid</em></b></p>\n                    <p>This is the bee that you just saw.</p>\n                    <img src=\"bees-with-color/bee-A1DM.svg\" width=\"200\">\n                    <p><br>Your bonus pay is unchanged, and remains at $0.76.</p>\n            ","response":0,"trial_type":"html-button-response","trial_index":92,"time_elapsed":286578,"internal_node_id":"0.0-4.0-1.42","subject_id":"5dde680c40460edc4a5dc1a2","study_id":"60edd13110225f80f9f3709b","session_id":"6196c6b84d4a55b2d1a4bb3c","condition":"contingent","relevant_dimensions":["antennae","pattern"],"bee_group":{"antennae":"A","wings":"X","pattern":"D","legs":"X"},"bonus":1.300000000000001},{"rt":1067.1000000238419,"stimulus":"bees-with-color/bee-B1SM.svg","response":0,"trial_type":"image-button-response","trial_index":93,"time_elapsed":287646,"internal_node_id":"0.0-4.0-0.43","subject_id":"5dde680c40460edc4a5dc1a2","study_id":"60edd13110225f80f9f3709b","session_id":"6196c6b84d4a55b2d1a4bb3c","condition":"contingent","relevant_dimensions":["antennae","pattern"],"bee_group":{"antennae":"A","wings":"X","pattern":"D","legs":"X"},"action":"harvest","summary":"good-harvest","bonus":1.300000000000001},{"rt":944.3999999761581,"stimulus":"\n                    <p><b>Action: <em>harvest</em></b></p>\n                    <p>This is the bee that you just saw.</p>\n                    <img src=\"bees-with-color/bee-B1SM.svg\" width=\"200\">\n                    <p><span class=\"greenText\"><b>Successful harvest!</b></span><br>Your pay has increased by $0.02. Your bonus pay is now $0.78.</p>\n            ","response":0,"trial_type":"html-button-response","trial_index":94,"time_elapsed":288593,"internal_node_id":"0.0-4.0-1.43","subject_id":"5dde680c40460edc4a5dc1a2","study_id":"60edd13110225f80f9f3709b","session_id":"6196c6b84d4a55b2d1a4bb3c","condition":"contingent","relevant_dimensions":["antennae","pattern"],"bee_group":{"antennae":"A","wings":"X","pattern":"D","legs":"X"},"bonus":1.300000000000001},{"rt":972.6000000238419,"stimulus":"bees-with-color/bee-A2SF.svg","response":0,"trial_type":"image-button-response","trial_index":95,"time_elapsed":289567,"internal_node_id":"0.0-4.0-0.44","subject_id":"5dde680c40460edc4a5dc1a2","study_id":"60edd13110225f80f9f3709b","session_id":"6196c6b84d4a55b2d1a4bb3c","condition":"contingent","relevant_dimensions":["antennae","pattern"],"bee_group":{"antennae":"A","wings":"X","pattern":"D","legs":"X"},"action":"harvest","summary":"good-harvest","bonus":1.300000000000001},{"rt":789.7999999523163,"stimulus":"\n                    <p><b>Action: <em>harvest</em></b></p>\n                    <p>This is the bee that you just saw.</p>\n                    <img src=\"bees-with-color/bee-A2SF.svg\" width=\"200\">\n                    <p><span class=\"greenText\"><b>Successful harvest!</b></span><br>Your pay has increased by $0.02. Your bonus pay is now $0.80.</p>\n            ","response":0,"trial_type":"html-button-response","trial_index":96,"time_elapsed":290358,"internal_node_id":"0.0-4.0-1.44","subject_id":"5dde680c40460edc4a5dc1a2","study_id":"60edd13110225f80f9f3709b","session_id":"6196c6b84d4a55b2d1a4bb3c","condition":"contingent","relevant_dimensions":["antennae","pattern"],"bee_group":{"antennae":"A","wings":"X","pattern":"D","legs":"X"},"bonus":1.300000000000001},{"rt":832.8999999761581,"stimulus":"bees-with-color/bee-B2SF.svg","response":0,"trial_type":"image-button-response","trial_index":97,"time_elapsed":291192,"internal_node_id":"0.0-4.0-0.45","subject_id":"5dde680c40460edc4a5dc1a2","study_id":"60edd13110225f80f9f3709b","session_id":"6196c6b84d4a55b2d1a4bb3c","condition":"contingent","relevant_dimensions":["antennae","pattern"],"bee_group":{"antennae":"A","wings":"X","pattern":"D","legs":"X"},"action":"harvest","summary":"good-harvest","bonus":1.300000000000001},{"rt":781.1000000238419,"stimulus":"\n                    <p><b>Action: <em>harvest</em></b></p>\n                    <p>This is the bee that you just saw.</p>\n                    <img src=\"bees-with-color/bee-B2SF.svg\" width=\"200\">\n                    <p><span class=\"greenText\"><b>Successful harvest!</b></span><br>Your pay has increased by $0.02. Your bonus pay is now $0.82.</p>\n            ","response":0,"trial_type":"html-button-response","trial_index":98,"time_elapsed":291974,"internal_node_id":"0.0-4.0-1.45","subject_id":"5dde680c40460edc4a5dc1a2","study_id":"60edd13110225f80f9f3709b","session_id":"6196c6b84d4a55b2d1a4bb3c","condition":"contingent","relevant_dimensions":["antennae","pattern"],"bee_group":{"antennae":"A","wings":"X","pattern":"D","legs":"X"},"bonus":1.300000000000001},{"rt":828,"stimulus":"bees-with-color/bee-B1DM.svg","response":1,"trial_type":"image-button-response","trial_index":99,"time_elapsed":292804,"internal_node_id":"0.0-4.0-0.46","subject_id":"5dde680c40460edc4a5dc1a2","study_id":"60edd13110225f80f9f3709b","session_id":"6196c6b84d4a55b2d1a4bb3c","condition":"contingent","relevant_dimensions":["antennae","pattern"],"bee_group":{"antennae":"A","wings":"X","pattern":"D","legs":"X"},"action":"avoid","summary":"bad-avoid","bonus":1.300000000000001},{"rt":708.8000000715256,"stimulus":"\n                    <p><b>Action: <em>avoid</em></b></p>\n                    <p>This is the bee that you just saw.</p>\n                    <img src=\"bees-with-color/bee-B1DM.svg\" width=\"200\">\n                    <p><br>Your bonus pay is unchanged, and remains at $0.82.</p>\n            ","response":0,"trial_type":"html-button-response","trial_index":100,"time_elapsed":293514,"internal_node_id":"0.0-4.0-1.46","subject_id":"5dde680c40460edc4a5dc1a2","study_id":"60edd13110225f80f9f3709b","session_id":"6196c6b84d4a55b2d1a4bb3c","condition":"contingent","relevant_dimensions":["antennae","pattern"],"bee_group":{"antennae":"A","wings":"X","pattern":"D","legs":"X"},"bonus":1.300000000000001},{"rt":754.8000000715256,"stimulus":"bees-with-color/bee-B2DM.svg","response":1,"trial_type":"image-button-response","trial_index":101,"time_elapsed":294270,"internal_node_id":"0.0-4.0-0.47","subject_id":"5dde680c40460edc4a5dc1a2","study_id":"60edd13110225f80f9f3709b","session_id":"6196c6b84d4a55b2d1a4bb3c","condition":"contingent","relevant_dimensions":["antennae","pattern"],"bee_group":{"antennae":"A","wings":"X","pattern":"D","legs":"X"},"action":"avoid","summary":"bad-avoid","bonus":1.300000000000001},{"rt":686.7999999523163,"stimulus":"\n                    <p><b>Action: <em>avoid</em></b></p>\n                    <p>This is the bee that you just saw.</p>\n                    <img src=\"bees-with-color/bee-B2DM.svg\" width=\"200\">\n                    <p><br>Your bonus pay is unchanged, and remains at $0.82.</p>\n            ","response":0,"trial_type":"html-button-response","trial_index":102,"time_elapsed":294958,"internal_node_id":"0.0-4.0-1.47","subject_id":"5dde680c40460edc4a5dc1a2","study_id":"60edd13110225f80f9f3709b","session_id":"6196c6b84d4a55b2d1a4bb3c","condition":"contingent","relevant_dimensions":["antennae","pattern"],"bee_group":{"antennae":"A","wings":"X","pattern":"D","legs":"X"},"bonus":1.300000000000001},{"rt":1013.5,"stimulus":"bees-with-color/bee-A1SM.svg","response":0,"trial_type":"image-button-response","trial_index":103,"time_elapsed":295972,"internal_node_id":"0.0-4.0-0.48","subject_id":"5dde680c40460edc4a5dc1a2","study_id":"60edd13110225f80f9f3709b","session_id":"6196c6b84d4a55b2d1a4bb3c","condition":"contingent","relevant_dimensions":["antennae","pattern"],"bee_group":{"antennae":"A","wings":"X","pattern":"D","legs":"X"},"action":"harvest","summary":"good-harvest","bonus":1.300000000000001},{"rt":871,"stimulus":"\n                    <p><b>Action: <em>harvest</em></b></p>\n                    <p>This is the bee that you just saw.</p>\n                    <img src=\"bees-with-color/bee-A1SM.svg\" width=\"200\">\n                    <p><span class=\"greenText\"><b>Successful harvest!</b></span><br>Your pay has increased by $0.02. Your bonus pay is now $0.84.</p>\n            ","response":0,"trial_type":"html-button-response","trial_index":104,"time_elapsed":296845,"internal_node_id":"0.0-4.0-1.48","subject_id":"5dde680c40460edc4a5dc1a2","study_id":"60edd13110225f80f9f3709b","session_id":"6196c6b84d4a55b2d1a4bb3c","condition":"contingent","relevant_dimensions":["antennae","pattern"],"bee_group":{"antennae":"A","wings":"X","pattern":"D","legs":"X"},"bonus":1.300000000000001},{"rt":1012,"stimulus":"bees-with-color/bee-A1DM.svg","response":1,"trial_type":"image-button-response","trial_index":105,"time_elapsed":297858,"internal_node_id":"0.0-4.0-0.49","subject_id":"5dde680c40460edc4a5dc1a2","study_id":"60edd13110225f80f9f3709b","session_id":"6196c6b84d4a55b2d1a4bb3c","condition":"contingent","relevant_dimensions":["antennae","pattern"],"bee_group":{"antennae":"A","wings":"X","pattern":"D","legs":"X"},"action":"avoid","summary":"good-avoid","bonus":1.300000000000001},{"rt":769.1999999284744,"stimulus":"\n                    <p><b>Action: <em>avoid</em></b></p>\n                    <p>This is the bee that you just saw.</p>\n                    <img src=\"bees-with-color/bee-A1DM.svg\" width=\"200\">\n                    <p><br>Your bonus pay is unchanged, and remains at $0.84.</p>\n            ","response":0,"trial_type":"html-button-response","trial_index":106,"time_elapsed":298628,"internal_node_id":"0.0-4.0-1.49","subject_id":"5dde680c40460edc4a5dc1a2","study_id":"60edd13110225f80f9f3709b","session_id":"6196c6b84d4a55b2d1a4bb3c","condition":"contingent","relevant_dimensions":["antennae","pattern"],"bee_group":{"antennae":"A","wings":"X","pattern":"D","legs":"X"},"bonus":1.300000000000001},{"rt":1613.2000000476837,"stimulus":"bees-with-color/bee-B2DM.svg","response":1,"trial_type":"image-button-response","trial_index":107,"time_elapsed":300243,"internal_node_id":"0.0-4.0-0.50","subject_id":"5dde680c40460edc4a5dc1a2","study_id":"60edd13110225f80f9f3709b","session_id":"6196c6b84d4a55b2d1a4bb3c","condition":"contingent","relevant_dimensions":["antennae","pattern"],"bee_group":{"antennae":"A","wings":"X","pattern":"D","legs":"X"},"action":"avoid","summary":"bad-avoid","bonus":1.300000000000001},{"rt":754.8000000715256,"stimulus":"\n                    <p><b>Action: <em>avoid</em></b></p>\n                    <p>This is the bee that you just saw.</p>\n                    <img src=\"bees-with-color/bee-B2DM.svg\" width=\"200\">\n                    <p><br>Your bonus pay is unchanged, and remains at $0.84.</p>\n            ","response":0,"trial_type":"html-button-response","trial_index":108,"time_elapsed":300999,"internal_node_id":"0.0-4.0-1.50","subject_id":"5dde680c40460edc4a5dc1a2","study_id":"60edd13110225f80f9f3709b","session_id":"6196c6b84d4a55b2d1a4bb3c","condition":"contingent","relevant_dimensions":["antennae","pattern"],"bee_group":{"antennae":"A","wings":"X","pattern":"D","legs":"X"},"bonus":1.300000000000001},{"rt":1690.6000000238419,"stimulus":"bees-with-color/bee-B1DM.svg","response":1,"trial_type":"image-button-response","trial_index":109,"time_elapsed":302690,"internal_node_id":"0.0-4.0-0.51","subject_id":"5dde680c40460edc4a5dc1a2","study_id":"60edd13110225f80f9f3709b","session_id":"6196c6b84d4a55b2d1a4bb3c","condition":"contingent","relevant_dimensions":["antennae","pattern"],"bee_group":{"antennae":"A","wings":"X","pattern":"D","legs":"X"},"action":"avoid","summary":"bad-avoid","bonus":1.300000000000001},{"rt":730.8999999761581,"stimulus":"\n                    <p><b>Action: <em>avoid</em></b></p>\n                    <p>This is the bee that you just saw.</p>\n                    <img src=\"bees-with-color/bee-B1DM.svg\" width=\"200\">\n                    <p><br>Your bonus pay is unchanged, and remains at $0.84.</p>\n            ","response":0,"trial_type":"html-button-response","trial_index":110,"time_elapsed":303422,"internal_node_id":"0.0-4.0-1.51","subject_id":"5dde680c40460edc4a5dc1a2","study_id":"60edd13110225f80f9f3709b","session_id":"6196c6b84d4a55b2d1a4bb3c","condition":"contingent","relevant_dimensions":["antennae","pattern"],"bee_group":{"antennae":"A","wings":"X","pattern":"D","legs":"X"},"bonus":1.300000000000001},{"rt":1035.1000000238419,"stimulus":"bees-with-color/bee-A2SM.svg","response":0,"trial_type":"image-button-response","trial_index":111,"time_elapsed":304458,"internal_node_id":"0.0-4.0-0.52","subject_id":"5dde680c40460edc4a5dc1a2","study_id":"60edd13110225f80f9f3709b","session_id":"6196c6b84d4a55b2d1a4bb3c","condition":"contingent","relevant_dimensions":["antennae","pattern"],"bee_group":{"antennae":"A","wings":"X","pattern":"D","legs":"X"},"action":"harvest","summary":"good-harvest","bonus":1.300000000000001},{"rt":746.7999999523163,"stimulus":"\n                    <p><b>Action: <em>harvest</em></b></p>\n                    <p>This is the bee that you just saw.</p>\n                    <img src=\"bees-with-color/bee-A2SM.svg\" width=\"200\">\n                    <p><span class=\"greenText\"><b>Successful harvest!</b></span><br>Your pay has increased by $0.02. Your bonus pay is now $0.86.</p>\n            ","response":0,"trial_type":"html-button-response","trial_index":112,"time_elapsed":305206,"internal_node_id":"0.0-4.0-1.52","subject_id":"5dde680c40460edc4a5dc1a2","study_id":"60edd13110225f80f9f3709b","session_id":"6196c6b84d4a55b2d1a4bb3c","condition":"contingent","relevant_dimensions":["antennae","pattern"],"bee_group":{"antennae":"A","wings":"X","pattern":"D","legs":"X"},"bonus":1.300000000000001},{"rt":935,"stimulus":"bees-with-color/bee-A2DF.svg","response":1,"trial_type":"image-button-response","trial_index":113,"time_elapsed":306142,"internal_node_id":"0.0-4.0-0.53","subject_id":"5dde680c40460edc4a5dc1a2","study_id":"60edd13110225f80f9f3709b","session_id":"6196c6b84d4a55b2d1a4bb3c","condition":"contingent","relevant_dimensions":["antennae","pattern"],"bee_group":{"antennae":"A","wings":"X","pattern":"D","legs":"X"},"action":"avoid","summary":"good-avoid","bonus":1.300000000000001},{"rt":742,"stimulus":"\n                    <p><b>Action: <em>avoid</em></b></p>\n                    <p>This is the bee that you just saw.</p>\n                    <img src=\"bees-with-color/bee-A2DF.svg\" width=\"200\">\n                    <p><br>Your bonus pay is unchanged, and remains at $0.86.</p>\n            ","response":0,"trial_type":"html-button-response","trial_index":114,"time_elapsed":306885,"internal_node_id":"0.0-4.0-1.53","subject_id":"5dde680c40460edc4a5dc1a2","study_id":"60edd13110225f80f9f3709b","session_id":"6196c6b84d4a55b2d1a4bb3c","condition":"contingent","relevant_dimensions":["antennae","pattern"],"bee_group":{"antennae":"A","wings":"X","pattern":"D","legs":"X"},"bonus":1.300000000000001},{"rt":969.5,"stimulus":"bees-with-color/bee-B1SM.svg","response":0,"trial_type":"image-button-response","trial_index":115,"time_elapsed":307856,"internal_node_id":"0.0-4.0-0.54","subject_id":"5dde680c40460edc4a5dc1a2","study_id":"60edd13110225f80f9f3709b","session_id":"6196c6b84d4a55b2d1a4bb3c","condition":"contingent","relevant_dimensions":["antennae","pattern"],"bee_group":{"antennae":"A","wings":"X","pattern":"D","legs":"X"},"action":"harvest","summary":"good-harvest","bonus":1.300000000000001},{"rt":992.8999999761581,"stimulus":"\n                    <p><b>Action: <em>harvest</em></b></p>\n                    <p>This is the bee that you just saw.</p>\n                    <img src=\"bees-with-color/bee-B1SM.svg\" width=\"200\">\n                    <p><span class=\"greenText\"><b>Successful harvest!</b></span><br>Your pay has increased by $0.02. Your bonus pay is now $0.88.</p>\n            ","response":0,"trial_type":"html-button-response","trial_index":116,"time_elapsed":308850,"internal_node_id":"0.0-4.0-1.54","subject_id":"5dde680c40460edc4a5dc1a2","study_id":"60edd13110225f80f9f3709b","session_id":"6196c6b84d4a55b2d1a4bb3c","condition":"contingent","relevant_dimensions":["antennae","pattern"],"bee_group":{"antennae":"A","wings":"X","pattern":"D","legs":"X"},"bonus":1.300000000000001},{"rt":772.6999999284744,"stimulus":"bees-with-color/bee-B2SF.svg","response":0,"trial_type":"image-button-response","trial_index":117,"time_elapsed":309625,"internal_node_id":"0.0-4.0-0.55","subject_id":"5dde680c40460edc4a5dc1a2","study_id":"60edd13110225f80f9f3709b","session_id":"6196c6b84d4a55b2d1a4bb3c","condition":"contingent","relevant_dimensions":["antennae","pattern"],"bee_group":{"antennae":"A","wings":"X","pattern":"D","legs":"X"},"action":"harvest","summary":"good-harvest","bonus":1.300000000000001},{"rt":793.5,"stimulus":"\n                    <p><b>Action: <em>harvest</em></b></p>\n                    <p>This is the bee that you just saw.</p>\n                    <img src=\"bees-with-color/bee-B2SF.svg\" width=\"200\">\n                    <p><span class=\"greenText\"><b>Successful harvest!</b></span><br>Your pay has increased by $0.02. Your bonus pay is now $0.90.</p>\n            ","response":0,"trial_type":"html-button-response","trial_index":118,"time_elapsed":310419,"internal_node_id":"0.0-4.0-1.55","subject_id":"5dde680c40460edc4a5dc1a2","study_id":"60edd13110225f80f9f3709b","session_id":"6196c6b84d4a55b2d1a4bb3c","condition":"contingent","relevant_dimensions":["antennae","pattern"],"bee_group":{"antennae":"A","wings":"X","pattern":"D","legs":"X"},"bonus":1.300000000000001},{"rt":913.6999999284744,"stimulus":"bees-with-color/bee-A1DF.svg","response":1,"trial_type":"image-button-response","trial_index":119,"time_elapsed":311335,"internal_node_id":"0.0-4.0-0.56","subject_id":"5dde680c40460edc4a5dc1a2","study_id":"60edd13110225f80f9f3709b","session_id":"6196c6b84d4a55b2d1a4bb3c","condition":"contingent","relevant_dimensions":["antennae","pattern"],"bee_group":{"antennae":"A","wings":"X","pattern":"D","legs":"X"},"action":"avoid","summary":"good-avoid","bonus":1.300000000000001},{"rt":679.7999999523163,"stimulus":"\n                    <p><b>Action: <em>avoid</em></b></p>\n                    <p>This is the bee that you just saw.</p>\n                    <img src=\"bees-with-color/bee-A1DF.svg\" width=\"200\">\n                    <p><br>Your bonus pay is unchanged, and remains at $0.90.</p>\n            ","response":0,"trial_type":"html-button-response","trial_index":120,"time_elapsed":312016,"internal_node_id":"0.0-4.0-1.56","subject_id":"5dde680c40460edc4a5dc1a2","study_id":"60edd13110225f80f9f3709b","session_id":"6196c6b84d4a55b2d1a4bb3c","condition":"contingent","relevant_dimensions":["antennae","pattern"],"bee_group":{"antennae":"A","wings":"X","pattern":"D","legs":"X"},"bonus":1.300000000000001},{"rt":1432.6999999284744,"stimulus":"bees-with-color/bee-B1DF.svg","response":1,"trial_type":"image-button-response","trial_index":121,"time_elapsed":313450,"internal_node_id":"0.0-4.0-0.57","subject_id":"5dde680c40460edc4a5dc1a2","study_id":"60edd13110225f80f9f3709b","session_id":"6196c6b84d4a55b2d1a4bb3c","condition":"contingent","relevant_dimensions":["antennae","pattern"],"bee_group":{"antennae":"A","wings":"X","pattern":"D","legs":"X"},"action":"avoid","summary":"bad-avoid","bonus":1.300000000000001},{"rt":1740.2999999523163,"stimulus":"\n                    <p><b>Action: <em>avoid</em></b></p>\n                    <p>This is the bee that you just saw.</p>\n                    <img src=\"bees-with-color/bee-B1DF.svg\" width=\"200\">\n                    <p><br>Your bonus pay is unchanged, and remains at $0.90.</p>\n            ","response":0,"trial_type":"html-button-response","trial_index":122,"time_elapsed":315192,"internal_node_id":"0.0-4.0-1.57","subject_id":"5dde680c40460edc4a5dc1a2","study_id":"60edd13110225f80f9f3709b","session_id":"6196c6b84d4a55b2d1a4bb3c","condition":"contingent","relevant_dimensions":["antennae","pattern"],"bee_group":{"antennae":"A","wings":"X","pattern":"D","legs":"X"},"bonus":1.300000000000001},{"rt":738.5999999046326,"stimulus":"bees-with-color/bee-A2DM.svg","response":1,"trial_type":"image-button-response","trial_index":123,"time_elapsed":315933,"internal_node_id":"0.0-4.0-0.58","subject_id":"5dde680c40460edc4a5dc1a2","study_id":"60edd13110225f80f9f3709b","session_id":"6196c6b84d4a55b2d1a4bb3c","condition":"contingent","relevant_dimensions":["antennae","pattern"],"bee_group":{"antennae":"A","wings":"X","pattern":"D","legs":"X"},"action":"avoid","summary":"good-avoid","bonus":1.300000000000001},{"rt":625.5,"stimulus":"\n                    <p><b>Action: <em>avoid</em></b></p>\n                    <p>This is the bee that you just saw.</p>\n                    <img src=\"bees-with-color/bee-A2DM.svg\" width=\"200\">\n                    <p><br>Your bonus pay is unchanged, and remains at $0.90.</p>\n            ","response":0,"trial_type":"html-button-response","trial_index":124,"time_elapsed":316560,"internal_node_id":"0.0-4.0-1.58","subject_id":"5dde680c40460edc4a5dc1a2","study_id":"60edd13110225f80f9f3709b","session_id":"6196c6b84d4a55b2d1a4bb3c","condition":"contingent","relevant_dimensions":["antennae","pattern"],"bee_group":{"antennae":"A","wings":"X","pattern":"D","legs":"X"},"bonus":1.300000000000001},{"rt":1085.1000000238419,"stimulus":"bees-with-color/bee-A1SF.svg","response":0,"trial_type":"image-button-response","trial_index":125,"time_elapsed":317646,"internal_node_id":"0.0-4.0-0.59","subject_id":"5dde680c40460edc4a5dc1a2","study_id":"60edd13110225f80f9f3709b","session_id":"6196c6b84d4a55b2d1a4bb3c","condition":"contingent","relevant_dimensions":["antennae","pattern"],"bee_group":{"antennae":"A","wings":"X","pattern":"D","legs":"X"},"action":"harvest","summary":"good-harvest","bonus":1.300000000000001},{"rt":808.1999999284744,"stimulus":"\n                    <p><b>Action: <em>harvest</em></b></p>\n                    <p>This is the bee that you just saw.</p>\n                    <img src=\"bees-with-color/bee-A1SF.svg\" width=\"200\">\n                    <p><span class=\"greenText\"><b>Successful harvest!</b></span><br>Your pay has increased by $0.02. Your bonus pay is now $0.92.</p>\n            ","response":0,"trial_type":"html-button-response","trial_index":126,"time_elapsed":318456,"internal_node_id":"0.0-4.0-1.59","subject_id":"5dde680c40460edc4a5dc1a2","study_id":"60edd13110225f80f9f3709b","session_id":"6196c6b84d4a55b2d1a4bb3c","condition":"contingent","relevant_dimensions":["antennae","pattern"],"bee_group":{"antennae":"A","wings":"X","pattern":"D","legs":"X"},"bonus":1.300000000000001},{"rt":930.7999999523163,"stimulus":"bees-with-color/bee-B2SM.svg","response":0,"trial_type":"image-button-response","trial_index":127,"time_elapsed":319388,"internal_node_id":"0.0-4.0-0.60","subject_id":"5dde680c40460edc4a5dc1a2","study_id":"60edd13110225f80f9f3709b","session_id":"6196c6b84d4a55b2d1a4bb3c","condition":"contingent","relevant_dimensions":["antennae","pattern"],"bee_group":{"antennae":"A","wings":"X","pattern":"D","legs":"X"},"action":"harvest","summary":"good-harvest","bonus":1.300000000000001},{"rt":712.3999999761581,"stimulus":"\n                    <p><b>Action: <em>harvest</em></b></p>\n                    <p>This is the bee that you just saw.</p>\n                    <img src=\"bees-with-color/bee-B2SM.svg\" width=\"200\">\n                    <p><span class=\"greenText\"><b>Successful harvest!</b></span><br>Your pay has increased by $0.02. Your bonus pay is now $0.94.</p>\n            ","response":0,"trial_type":"html-button-response","trial_index":128,"time_elapsed":320102,"internal_node_id":"0.0-4.0-1.60","subject_id":"5dde680c40460edc4a5dc1a2","study_id":"60edd13110225f80f9f3709b","session_id":"6196c6b84d4a55b2d1a4bb3c","condition":"contingent","relevant_dimensions":["antennae","pattern"],"bee_group":{"antennae":"A","wings":"X","pattern":"D","legs":"X"},"bonus":1.300000000000001},{"rt":1869.1000000238419,"stimulus":"bees-with-color/bee-B1SF.svg","response":0,"trial_type":"image-button-response","trial_index":129,"time_elapsed":321973,"internal_node_id":"0.0-4.0-0.61","subject_id":"5dde680c40460edc4a5dc1a2","study_id":"60edd13110225f80f9f3709b","session_id":"6196c6b84d4a55b2d1a4bb3c","condition":"contingent","relevant_dimensions":["antennae","pattern"],"bee_group":{"antennae":"A","wings":"X","pattern":"D","legs":"X"},"action":"harvest","summary":"good-harvest","bonus":1.300000000000001},{"rt":757.7000000476837,"stimulus":"\n                    <p><b>Action: <em>harvest</em></b></p>\n                    <p>This is the bee that you just saw.</p>\n                    <img src=\"bees-with-color/bee-B1SF.svg\" width=\"200\">\n                    <p><span class=\"greenText\"><b>Successful harvest!</b></span><br>Your pay has increased by $0.02. Your bonus pay is now $0.96.</p>\n            ","response":0,"trial_type":"html-button-response","trial_index":130,"time_elapsed":322732,"internal_node_id":"0.0-4.0-1.61","subject_id":"5dde680c40460edc4a5dc1a2","study_id":"60edd13110225f80f9f3709b","session_id":"6196c6b84d4a55b2d1a4bb3c","condition":"contingent","relevant_dimensions":["antennae","pattern"],"bee_group":{"antennae":"A","wings":"X","pattern":"D","legs":"X"},"bonus":1.300000000000001},{"rt":1290.9000000953674,"stimulus":"bees-with-color/bee-A2SF.svg","response":0,"trial_type":"image-button-response","trial_index":131,"time_elapsed":324024,"internal_node_id":"0.0-4.0-0.62","subject_id":"5dde680c40460edc4a5dc1a2","study_id":"60edd13110225f80f9f3709b","session_id":"6196c6b84d4a55b2d1a4bb3c","condition":"contingent","relevant_dimensions":["antennae","pattern"],"bee_group":{"antennae":"A","wings":"X","pattern":"D","legs":"X"},"action":"harvest","summary":"good-harvest","bonus":1.300000000000001},{"rt":635.2000000476837,"stimulus":"\n                    <p><b>Action: <em>harvest</em></b></p>\n                    <p>This is the bee that you just saw.</p>\n                    <img src=\"bees-with-color/bee-A2SF.svg\" width=\"200\">\n                    <p><span class=\"greenText\"><b>Successful harvest!</b></span><br>Your pay has increased by $0.02. Your bonus pay is now $0.98.</p>\n            ","response":0,"trial_type":"html-button-response","trial_index":132,"time_elapsed":324661,"internal_node_id":"0.0-4.0-1.62","subject_id":"5dde680c40460edc4a5dc1a2","study_id":"60edd13110225f80f9f3709b","session_id":"6196c6b84d4a55b2d1a4bb3c","condition":"contingent","relevant_dimensions":["antennae","pattern"],"bee_group":{"antennae":"A","wings":"X","pattern":"D","legs":"X"},"bonus":1.300000000000001},{"rt":926.6999999284744,"stimulus":"bees-with-color/bee-B2DF.svg","response":1,"trial_type":"image-button-response","trial_index":133,"time_elapsed":325588,"internal_node_id":"0.0-4.0-0.63","subject_id":"5dde680c40460edc4a5dc1a2","study_id":"60edd13110225f80f9f3709b","session_id":"6196c6b84d4a55b2d1a4bb3c","condition":"contingent","relevant_dimensions":["antennae","pattern"],"bee_group":{"antennae":"A","wings":"X","pattern":"D","legs":"X"},"action":"avoid","summary":"bad-avoid","bonus":1.300000000000001},{"rt":636.2000000476837,"stimulus":"\n                    <p><b>Action: <em>avoid</em></b></p>\n                    <p>This is the bee that you just saw.</p>\n                    <img src=\"bees-with-color/bee-B2DF.svg\" width=\"200\">\n                    <p><br>Your bonus pay is unchanged, and remains at $0.98.</p>\n            ","response":0,"trial_type":"html-button-response","trial_index":134,"time_elapsed":326226,"internal_node_id":"0.0-4.0-1.63","subject_id":"5dde680c40460edc4a5dc1a2","study_id":"60edd13110225f80f9f3709b","session_id":"6196c6b84d4a55b2d1a4bb3c","condition":"contingent","relevant_dimensions":["antennae","pattern"],"bee_group":{"antennae":"A","wings":"X","pattern":"D","legs":"X"},"bonus":1.300000000000001},{"rt":4486,"stimulus":"You have completed the first part of this experiment.<br><br>You will now begin a shorter second part, in which you will receive no feedback.<br>The same rules regarding bonus pay apply.<br><br>Press any key to begin.","response":" ","trial_type":"html-keyboard-response","trial_index":135,"time_elapsed":330713,"internal_node_id":"0.0-5.0","subject_id":"5dde680c40460edc4a5dc1a2","study_id":"60edd13110225f80f9f3709b","session_id":"6196c6b84d4a55b2d1a4bb3c","condition":"contingent","relevant_dimensions":["antennae","pattern"],"bee_group":{"antennae":"A","wings":"X","pattern":"D","legs":"X"},"bonus":1.300000000000001},{"rt":2326.5999999046326,"stimulus":"bees-with-color/bee-A2DF.svg","response":1,"trial_type":"image-button-response","trial_index":136,"time_elapsed":333050,"internal_node_id":"0.0-6.0-0.0","subject_id":"5dde680c40460edc4a5dc1a2","study_id":"60edd13110225f80f9f3709b","session_id":"6196c6b84d4a55b2d1a4bb3c","condition":"contingent","relevant_dimensions":["antennae","pattern"],"bee_group":{"antennae":"A","wings":"X","pattern":"D","legs":"X"},"bonus":1.300000000000001},{"rt":933.1000000238419,"stimulus":"bees-with-color/bee-A1SM.svg","response":0,"trial_type":"image-button-response","trial_index":137,"time_elapsed":333985,"internal_node_id":"0.0-6.0-0.1","subject_id":"5dde680c40460edc4a5dc1a2","study_id":"60edd13110225f80f9f3709b","session_id":"6196c6b84d4a55b2d1a4bb3c","condition":"contingent","relevant_dimensions":["antennae","pattern"],"bee_group":{"antennae":"A","wings":"X","pattern":"D","legs":"X"},"bonus":1.300000000000001},{"rt":813.8000000715256,"stimulus":"bees-with-color/bee-B1DM.svg","response":1,"trial_type":"image-button-response","trial_index":138,"time_elapsed":334800,"internal_node_id":"0.0-6.0-0.2","subject_id":"5dde680c40460edc4a5dc1a2","study_id":"60edd13110225f80f9f3709b","session_id":"6196c6b84d4a55b2d1a4bb3c","condition":"contingent","relevant_dimensions":["antennae","pattern"],"bee_group":{"antennae":"A","wings":"X","pattern":"D","legs":"X"},"bonus":1.300000000000001},{"rt":866.1000000238419,"stimulus":"bees-with-color/bee-A1DF.svg","response":1,"trial_type":"image-button-response","trial_index":139,"time_elapsed":335668,"internal_node_id":"0.0-6.0-0.3","subject_id":"5dde680c40460edc4a5dc1a2","study_id":"60edd13110225f80f9f3709b","session_id":"6196c6b84d4a55b2d1a4bb3c","condition":"contingent","relevant_dimensions":["antennae","pattern"],"bee_group":{"antennae":"A","wings":"X","pattern":"D","legs":"X"},"bonus":1.300000000000001},{"rt":867.8999999761581,"stimulus":"bees-with-color/bee-B1SM.svg","response":0,"trial_type":"image-button-response","trial_index":140,"time_elapsed":336538,"internal_node_id":"0.0-6.0-0.4","subject_id":"5dde680c40460edc4a5dc1a2","study_id":"60edd13110225f80f9f3709b","session_id":"6196c6b84d4a55b2d1a4bb3c","condition":"contingent","relevant_dimensions":["antennae","pattern"],"bee_group":{"antennae":"A","wings":"X","pattern":"D","legs":"X"},"bonus":1.300000000000001},{"rt":824.4000000953674,"stimulus":"bees-with-color/bee-B1SF.svg","response":0,"trial_type":"image-button-response","trial_index":141,"time_elapsed":337364,"internal_node_id":"0.0-6.0-0.5","subject_id":"5dde680c40460edc4a5dc1a2","study_id":"60edd13110225f80f9f3709b","session_id":"6196c6b84d4a55b2d1a4bb3c","condition":"contingent","relevant_dimensions":["antennae","pattern"],"bee_group":{"antennae":"A","wings":"X","pattern":"D","legs":"X"},"bonus":1.300000000000001},{"rt":1041.8999999761581,"stimulus":"bees-with-color/bee-A2SF.svg","response":0,"trial_type":"image-button-response","trial_index":142,"time_elapsed":338408,"internal_node_id":"0.0-6.0-0.6","subject_id":"5dde680c40460edc4a5dc1a2","study_id":"60edd13110225f80f9f3709b","session_id":"6196c6b84d4a55b2d1a4bb3c","condition":"contingent","relevant_dimensions":["antennae","pattern"],"bee_group":{"antennae":"A","wings":"X","pattern":"D","legs":"X"},"bonus":1.300000000000001},{"rt":832.7999999523163,"stimulus":"bees-with-color/bee-B2SF.svg","response":0,"trial_type":"image-button-response","trial_index":143,"time_elapsed":339242,"internal_node_id":"0.0-6.0-0.7","subject_id":"5dde680c40460edc4a5dc1a2","study_id":"60edd13110225f80f9f3709b","session_id":"6196c6b84d4a55b2d1a4bb3c","condition":"contingent","relevant_dimensions":["antennae","pattern"],"bee_group":{"antennae":"A","wings":"X","pattern":"D","legs":"X"},"bonus":1.300000000000001},{"rt":1009.9000000953674,"stimulus":"bees-with-color/bee-B2DF.svg","response":1,"trial_type":"image-button-response","trial_index":144,"time_elapsed":340254,"internal_node_id":"0.0-6.0-0.8","subject_id":"5dde680c40460edc4a5dc1a2","study_id":"60edd13110225f80f9f3709b","session_id":"6196c6b84d4a55b2d1a4bb3c","condition":"contingent","relevant_dimensions":["antennae","pattern"],"bee_group":{"antennae":"A","wings":"X","pattern":"D","legs":"X"},"bonus":1.300000000000001},{"rt":770.1000000238419,"stimulus":"bees-with-color/bee-A1DM.svg","response":1,"trial_type":"image-button-response","trial_index":145,"time_elapsed":341026,"internal_node_id":"0.0-6.0-0.9","subject_id":"5dde680c40460edc4a5dc1a2","study_id":"60edd13110225f80f9f3709b","session_id":"6196c6b84d4a55b2d1a4bb3c","condition":"contingent","relevant_dimensions":["antennae","pattern"],"bee_group":{"antennae":"A","wings":"X","pattern":"D","legs":"X"},"bonus":1.300000000000001},{"rt":839.9000000953674,"stimulus":"bees-with-color/bee-A2SM.svg","response":0,"trial_type":"image-button-response","trial_index":146,"time_elapsed":341868,"internal_node_id":"0.0-6.0-0.10","subject_id":"5dde680c40460edc4a5dc1a2","study_id":"60edd13110225f80f9f3709b","session_id":"6196c6b84d4a55b2d1a4bb3c","condition":"contingent","relevant_dimensions":["antennae","pattern"],"bee_group":{"antennae":"A","wings":"X","pattern":"D","legs":"X"},"bonus":1.300000000000001},{"rt":930.8999999761581,"stimulus":"bees-with-color/bee-A2DM.svg","response":1,"trial_type":"image-button-response","trial_index":147,"time_elapsed":342800,"internal_node_id":"0.0-6.0-0.11","subject_id":"5dde680c40460edc4a5dc1a2","study_id":"60edd13110225f80f9f3709b","session_id":"6196c6b84d4a55b2d1a4bb3c","condition":"contingent","relevant_dimensions":["antennae","pattern"],"bee_group":{"antennae":"A","wings":"X","pattern":"D","legs":"X"},"bonus":1.300000000000001},{"rt":1474.7000000476837,"stimulus":"bees-with-color/bee-B2DM.svg","response":1,"trial_type":"image-button-response","trial_index":148,"time_elapsed":344276,"internal_node_id":"0.0-6.0-0.12","subject_id":"5dde680c40460edc4a5dc1a2","study_id":"60edd13110225f80f9f3709b","session_id":"6196c6b84d4a55b2d1a4bb3c","condition":"contingent","relevant_dimensions":["antennae","pattern"],"bee_group":{"antennae":"A","wings":"X","pattern":"D","legs":"X"},"bonus":1.300000000000001},{"rt":766.2999999523163,"stimulus":"bees-with-color/bee-B2SM.svg","response":0,"trial_type":"image-button-response","trial_index":149,"time_elapsed":345044,"internal_node_id":"0.0-6.0-0.13","subject_id":"5dde680c40460edc4a5dc1a2","study_id":"60edd13110225f80f9f3709b","session_id":"6196c6b84d4a55b2d1a4bb3c","condition":"contingent","relevant_dimensions":["antennae","pattern"],"bee_group":{"antennae":"A","wings":"X","pattern":"D","legs":"X"},"bonus":1.300000000000001},{"rt":878.3999999761581,"stimulus":"bees-with-color/bee-B1DF.svg","response":1,"trial_type":"image-button-response","trial_index":150,"time_elapsed":345924,"internal_node_id":"0.0-6.0-0.14","subject_id":"5dde680c40460edc4a5dc1a2","study_id":"60edd13110225f80f9f3709b","session_id":"6196c6b84d4a55b2d1a4bb3c","condition":"contingent","relevant_dimensions":["antennae","pattern"],"bee_group":{"antennae":"A","wings":"X","pattern":"D","legs":"X"},"bonus":1.300000000000001},{"rt":1082.5,"stimulus":"bees-with-color/bee-A1SF.svg","response":0,"trial_type":"image-button-response","trial_index":151,"time_elapsed":347008,"internal_node_id":"0.0-6.0-0.15","subject_id":"5dde680c40460edc4a5dc1a2","study_id":"60edd13110225f80f9f3709b","session_id":"6196c6b84d4a55b2d1a4bb3c","condition":"contingent","relevant_dimensions":["antennae","pattern"],"bee_group":{"antennae":"A","wings":"X","pattern":"D","legs":"X"},"bonus":1.300000000000001},{"rt":879.1000000238419,"stimulus":"bees-with-color/bee-B2DF.svg","response":1,"trial_type":"image-button-response","trial_index":152,"time_elapsed":347888,"internal_node_id":"0.0-6.0-0.16","subject_id":"5dde680c40460edc4a5dc1a2","study_id":"60edd13110225f80f9f3709b","session_id":"6196c6b84d4a55b2d1a4bb3c","condition":"contingent","relevant_dimensions":["antennae","pattern"],"bee_group":{"antennae":"A","wings":"X","pattern":"D","legs":"X"},"bonus":1.300000000000001},{"rt":952.8000000715256,"stimulus":"bees-with-color/bee-B1DF.svg","response":1,"trial_type":"image-button-response","trial_index":153,"time_elapsed":348842,"internal_node_id":"0.0-6.0-0.17","subject_id":"5dde680c40460edc4a5dc1a2","study_id":"60edd13110225f80f9f3709b","session_id":"6196c6b84d4a55b2d1a4bb3c","condition":"contingent","relevant_dimensions":["antennae","pattern"],"bee_group":{"antennae":"A","wings":"X","pattern":"D","legs":"X"},"bonus":1.300000000000001},{"rt":786.8000000715256,"stimulus":"bees-with-color/bee-A2SM.svg","response":0,"trial_type":"image-button-response","trial_index":154,"time_elapsed":349630,"internal_node_id":"0.0-6.0-0.18","subject_id":"5dde680c40460edc4a5dc1a2","study_id":"60edd13110225f80f9f3709b","session_id":"6196c6b84d4a55b2d1a4bb3c","condition":"contingent","relevant_dimensions":["antennae","pattern"],"bee_group":{"antennae":"A","wings":"X","pattern":"D","legs":"X"},"bonus":1.300000000000001},{"rt":898.1999999284744,"stimulus":"bees-with-color/bee-B1DM.svg","response":1,"trial_type":"image-button-response","trial_index":155,"time_elapsed":350531,"internal_node_id":"0.0-6.0-0.19","subject_id":"5dde680c40460edc4a5dc1a2","study_id":"60edd13110225f80f9f3709b","session_id":"6196c6b84d4a55b2d1a4bb3c","condition":"contingent","relevant_dimensions":["antennae","pattern"],"bee_group":{"antennae":"A","wings":"X","pattern":"D","legs":"X"},"bonus":1.300000000000001},{"rt":687.8999999761581,"stimulus":"bees-with-color/bee-A1DF.svg","response":1,"trial_type":"image-button-response","trial_index":156,"time_elapsed":351221,"internal_node_id":"0.0-6.0-0.20","subject_id":"5dde680c40460edc4a5dc1a2","study_id":"60edd13110225f80f9f3709b","session_id":"6196c6b84d4a55b2d1a4bb3c","condition":"contingent","relevant_dimensions":["antennae","pattern"],"bee_group":{"antennae":"A","wings":"X","pattern":"D","legs":"X"},"bonus":1.300000000000001},{"rt":792.3000000715256,"stimulus":"bees-with-color/bee-B1SF.svg","response":0,"trial_type":"image-button-response","trial_index":157,"time_elapsed":352014,"internal_node_id":"0.0-6.0-0.21","subject_id":"5dde680c40460edc4a5dc1a2","study_id":"60edd13110225f80f9f3709b","session_id":"6196c6b84d4a55b2d1a4bb3c","condition":"contingent","relevant_dimensions":["antennae","pattern"],"bee_group":{"antennae":"A","wings":"X","pattern":"D","legs":"X"},"bonus":1.300000000000001},{"rt":820.7000000476837,"stimulus":"bees-with-color/bee-A2DM.svg","response":1,"trial_type":"image-button-response","trial_index":158,"time_elapsed":352836,"internal_node_id":"0.0-6.0-0.22","subject_id":"5dde680c40460edc4a5dc1a2","study_id":"60edd13110225f80f9f3709b","session_id":"6196c6b84d4a55b2d1a4bb3c","condition":"contingent","relevant_dimensions":["antennae","pattern"],"bee_group":{"antennae":"A","wings":"X","pattern":"D","legs":"X"},"bonus":1.300000000000001},{"rt":778.1000000238419,"stimulus":"bees-with-color/bee-B1SM.svg","response":0,"trial_type":"image-button-response","trial_index":159,"time_elapsed":353616,"internal_node_id":"0.0-6.0-0.23","subject_id":"5dde680c40460edc4a5dc1a2","study_id":"60edd13110225f80f9f3709b","session_id":"6196c6b84d4a55b2d1a4bb3c","condition":"contingent","relevant_dimensions":["antennae","pattern"],"bee_group":{"antennae":"A","wings":"X","pattern":"D","legs":"X"},"bonus":1.300000000000001},{"rt":869,"stimulus":"bees-with-color/bee-B2DM.svg","response":1,"trial_type":"image-button-response","trial_index":160,"time_elapsed":354486,"internal_node_id":"0.0-6.0-0.24","subject_id":"5dde680c40460edc4a5dc1a2","study_id":"60edd13110225f80f9f3709b","session_id":"6196c6b84d4a55b2d1a4bb3c","condition":"contingent","relevant_dimensions":["antennae","pattern"],"bee_group":{"antennae":"A","wings":"X","pattern":"D","legs":"X"},"bonus":1.300000000000001},{"rt":711,"stimulus":"bees-with-color/bee-A1SM.svg","response":0,"trial_type":"image-button-response","trial_index":161,"time_elapsed":355198,"internal_node_id":"0.0-6.0-0.25","subject_id":"5dde680c40460edc4a5dc1a2","study_id":"60edd13110225f80f9f3709b","session_id":"6196c6b84d4a55b2d1a4bb3c","condition":"contingent","relevant_dimensions":["antennae","pattern"],"bee_group":{"antennae":"A","wings":"X","pattern":"D","legs":"X"},"bonus":1.300000000000001},{"rt":940.5,"stimulus":"bees-with-color/bee-A1SF.svg","response":0,"trial_type":"image-button-response","trial_index":162,"time_elapsed":356140,"internal_node_id":"0.0-6.0-0.26","subject_id":"5dde680c40460edc4a5dc1a2","study_id":"60edd13110225f80f9f3709b","session_id":"6196c6b84d4a55b2d1a4bb3c","condition":"contingent","relevant_dimensions":["antennae","pattern"],"bee_group":{"antennae":"A","wings":"X","pattern":"D","legs":"X"},"bonus":1.300000000000001},{"rt":754.7000000476837,"stimulus":"bees-with-color/bee-A2SF.svg","response":0,"trial_type":"image-button-response","trial_index":163,"time_elapsed":356897,"internal_node_id":"0.0-6.0-0.27","subject_id":"5dde680c40460edc4a5dc1a2","study_id":"60edd131102