[{"success":true,"trial_type":"fullscreen","trial_index":0,"time_elapsed":27865,"internal_node_id":"0.0-0.0","subject_id":"617032f133b49cddf96ad317","study_id":"6197b3f67c2b5cd3b6d9596a","session_id":"6197bd1d38e864b3376abcf7","condition":"full-information","relevant_dimensions":["antennae","wings"],"bee_group":{"antennae":"A","wings":"2","pattern":"X","legs":"X"},"bonus":0.020000000000000583},{"success":true,"timeout":false,"failed_images":[],"failed_audio":[],"failed_video":[],"trial_type":"preload","trial_index":1,"time_elapsed":29578,"internal_node_id":"0.0-1.0","subject_id":"617032f133b49cddf96ad317","study_id":"6197b3f67c2b5cd3b6d9596a","session_id":"6197bd1d38e864b3376abcf7","condition":"full-information","relevant_dimensions":["antennae","wings"],"bee_group":{"antennae":"A","wings":"2","pattern":"X","legs":"X"},"bonus":0.020000000000000583},{"rt":2352.100000023842,"stimulus":"Welcome! Press any key to begin.","response":" ","trial_type":"html-keyboard-response","trial_index":2,"time_elapsed":31931,"internal_node_id":"0.0-2.0","subject_id":"617032f133b49cddf96ad317","study_id":"6197b3f67c2b5cd3b6d9596a","session_id":"6197bd1d38e864b3376abcf7","condition":"full-information","relevant_dimensions":["antennae","wings"],"bee_group":{"antennae":"A","wings":"2","pattern":"X","legs":"X"},"bonus":0.020000000000000583},{"view_history":[{"page_index":0,"viewing_time":5161.5},{"page_index":1,"viewing_time":14341.600000023842},{"page_index":2,"viewing_time":16451.599999964237},{"page_index":3,"viewing_time":30390.900000035763},{"page_index":4,"viewing_time":11162.699999988079},{"page_index":5,"viewing_time":9260.300000011921},{"page_index":6,"viewing_time":11128.699999988079},{"page_index":7,"viewing_time":8553.100000023842},{"page_index":8,"viewing_time":4289.799999952316},{"page_index":7,"viewing_time":1857},{"page_index":8,"viewing_time":3717.900000035763},{"page_index":7,"viewing_time":772.1999999880791},{"page_index":8,"viewing_time":1082},{"page_index":9,"viewing_time":7686.899999976158},{"page_index":10,"viewing_time":9367.100000023842},{"page_index":11,"viewing_time":9548.899999976158},{"page_index":10,"viewing_time":889.3000000119209},{"page_index":9,"viewing_time":441.19999998807907},{"page_index":8,"viewing_time":274.60000002384186},{"page_index":7,"viewing_time":246.39999997615814},{"page_index":6,"viewing_time":786.6000000238419},{"page_index":7,"viewing_time":7765},{"page_index":8,"viewing_time":2508},{"page_index":9,"viewing_time":2154.100000023842},{"page_index":10,"viewing_time":1539.8999999761581},{"page_index":11,"viewing_time":10372.899999976158},{"page_index":12,"viewing_time":9953.900000035763},{"page_index":13,"viewing_time":1679.0999999642372},{"page_index":14,"viewing_time":2580.100000023842}],"rt":185964.10000002384,"trial_type":"instructions","trial_index":3,"time_elapsed":217895,"internal_node_id":"0.0-3.0-0.0","subject_id":"617032f133b49cddf96ad317","study_id":"6197b3f67c2b5cd3b6d9596a","session_id":"6197bd1d38e864b3376abcf7","condition":"full-information","relevant_dimensions":["antennae","wings"],"bee_group":{"antennae":"A","wings":"2","pattern":"X","legs":"X"},"bonus":0.020000000000000583},{"rt":15656.200000047684,"response":{"Q0":["Two or six legs","Stripes or spots on body","Single or double wings","Antennae or no antennae"]},"question_order":[0],"trial_type":"survey-multi-select","trial_index":4,"time_elapsed":233554,"internal_node_id":"0.0-3.0-1.0","subject_id":"617032f133b49cddf96ad317","study_id":"6197b3f67c2b5cd3b6d9596a","session_id":"6197bd1d38e864b3376abcf7","condition":"full-information","relevant_dimensions":["antennae","wings"],"bee_group":{"antennae":"A","wings":"2","pattern":"X","legs":"X"},"correct":true,"bonus":0.020000000000000583},{"rt":30963.299999952316,"response":{"Q1":"No.","Q2":"Based on the four features of the bee.","Q3":"You learn if it was friendly or dangerous, but do not alter your bonus."},"question_order":[0,1,2],"trial_type":"survey-multi-choice","trial_index":5,"time_elapsed":264519,"internal_node_id":"0.0-3.0-2.0","subject_id":"617032f133b49cddf96ad317","study_id":"6197b3f67c2b5cd3b6d9596a","session_id":"6197bd1d38e864b3376abcf7","condition":"full-information","relevant_dimensions":["antennae","wings"],"bee_group":{"antennae":"A","wings":"2","pattern":"X","legs":"X"},"correct":true,"bonus":0.020000000000000583},{"rt":5283.400000035763,"stimulus":"<p>Congrats, you got everything right<br>When you're ready, click the button below to continue to the experiment.</p>","response":0,"trial_type":"html-button-response","trial_index":6,"time_elapsed":269804,"internal_node_id":"0.0-3.0-3.0","subject_id":"617032f133b49cddf96ad317","study_id":"6197b3f67c2b5cd3b6d9596a","session_id":"6197bd1d38e864b3376abcf7","condition":"full-information","relevant_dimensions":["antennae","wings"],"bee_group":{"antennae":"A","wings":"2","pattern":"X","legs":"X"},"bonus":0.020000000000000583},{"rt":15087,"stimulus":"bees-with-color/bee-B2SF.svg","response":0,"trial_type":"image-button-response","trial_index":7,"time_elapsed":284893,"internal_node_id":"0.0-4.0-0.0","subject_id":"617032f133b49cddf96ad317","study_id":"6197b3f67c2b5cd3b6d9596a","session_id":"6197bd1d38e864b3376abcf7","condition":"full-information","relevant_dimensions":["antennae","wings"],"bee_group":{"antennae":"A","wings":"2","pattern":"X","legs":"X"},"action":"harvest","summary":"good-harvest","bonus":0.020000000000000583},{"rt":11229.400000035763,"stimulus":"\n                    <p><b>Action: <em>harvest</em></b></p>\n                    <p>This is the bee that you just saw.</p>\n                    <img src=\"bees-with-color/bee-B2SF.svg\" width=\"200\">\n                    <p><span class=\"greenText\"><b>Successful harvest!</b></span><br>Your pay has increased by $0.02. Your bonus pay is now $0.56.</p>\n            ","response":0,"trial_type":"html-button-response","trial_index":8,"time_elapsed":296125,"internal_node_id":"0.0-4.0-1.0","subject_id":"617032f133b49cddf96ad317","study_id":"6197b3f67c2b5cd3b6d9596a","session_id":"6197bd1d38e864b3376abcf7","condition":"full-information","relevant_dimensions":["antennae","wings"],"bee_group":{"antennae":"A","wings":"2","pattern":"X","legs":"X"},"bonus":0.020000000000000583},{"rt":3274,"stimulus":"bees-with-color/bee-A1DF.svg","response":0,"trial_type":"image-button-response","trial_index":9,"time_elapsed":299401,"internal_node_id":"0.0-4.0-0.1","subject_id":"617032f133b49cddf96ad317","study_id":"6197b3f67c2b5cd3b6d9596a","session_id":"6197bd1d38e864b3376abcf7","condition":"full-information","relevant_dimensions":["antennae","wings"],"bee_group":{"antennae":"A","wings":"2","pattern":"X","legs":"X"},"action":"harvest","summary":"good-harvest","bonus":0.020000000000000583},{"rt":9573.399999976158,"stimulus":"\n                    <p><b>Action: <em>harvest</em></b></p>\n                    <p>This is the bee that you just saw.</p>\n                    <img src=\"bees-with-color/bee-A1DF.svg\" width=\"200\">\n                    <p><span class=\"greenText\"><b>Successful harvest!</b></span><br>Your pay has increased by $0.02. Your bonus pay is now $0.58.</p>\n            ","response":0,"trial_type":"html-button-response","trial_index":10,"time_elapsed":308976,"internal_node_id":"0.0-4.0-1.1","subject_id":"617032f133b49cddf96ad317","study_id":"6197b3f67c2b5cd3b6d9596a","session_id":"6197bd1d38e864b3376abcf7","condition":"full-information","relevant_dimensions":["antennae","wings"],"bee_group":{"antennae":"A","wings":"2","pattern":"X","legs":"X"},"bonus":0.020000000000000583},{"rt":1780.3999999761581,"stimulus":"bees-with-color/bee-B2SM.svg","response":1,"trial_type":"image-button-response","trial_index":11,"time_elapsed":310758,"internal_node_id":"0.0-4.0-0.2","subject_id":"617032f133b49cddf96ad317","study_id":"6197b3f67c2b5cd3b6d9596a","session_id":"6197bd1d38e864b3376abcf7","condition":"full-information","relevant_dimensions":["antennae","wings"],"bee_group":{"antennae":"A","wings":"2","pattern":"X","legs":"X"},"action":"avoid","summary":"bad-avoid","bonus":0.020000000000000583},{"rt":18339,"stimulus":"\n                    <p><b>Action: <em>avoid</em></b></p>\n                    <p>This is the bee that you just saw.</p>\n                    <img src=\"bees-with-color/bee-B2SM.svg\" width=\"200\">\n                    <p><span class=\"redText\">Bad choice,</span> the bee was friendly.<br>Your bonus pay is unchanged, and remains at $0.58.</p>\n            ","response":0,"trial_type":"html-button-response","trial_index":12,"time_elapsed":329099,"internal_node_id":"0.0-4.0-1.2","subject_id":"617032f133b49cddf96ad317","study_id":"6197b3f67c2b5cd3b6d9596a","session_id":"6197bd1d38e864b3376abcf7","condition":"full-information","relevant_dimensions":["antennae","wings"],"bee_group":{"antennae":"A","wings":"2","pattern":"X","legs":"X"},"bonus":0.020000000000000583},{"rt":2027,"stimulus":"bees-with-color/bee-A2SM.svg","response":0,"trial_type":"image-button-response","trial_index":13,"time_elapsed":331127,"internal_node_id":"0.0-4.0-0.3","subject_id":"617032f133b49cddf96ad317","study_id":"6197b3f67c2b5cd3b6d9596a","session_id":"6197bd1d38e864b3376abcf7","condition":"full-information","relevant_dimensions":["antennae","wings"],"bee_group":{"antennae":"A","wings":"2","pattern":"X","legs":"X"},"action":"harvest","summary":"bad-harvest","bonus":0.020000000000000583},{"rt":7469.199999988079,"stimulus":"\n                    <p><b>Action: <em>harvest</em></b></p>\n                    <p>This is the bee that you just saw.</p>\n                    <img src=\"bees-with-color/bee-A2SM.svg\" width=\"200\">\n                    <p><span class=\"redText\">Bad choice, the bee was angry.</span><br><b>You have been stung!</b><br>Your pay has been decreased by $0.10. Your bonus pay is now $0.48.</p>\n            ","response":0,"trial_type":"html-button-response","trial_index":14,"time_elapsed":338598,"internal_node_id":"0.0-4.0-1.3","subject_id":"617032f133b49cddf96ad317","study_id":"6197b3f67c2b5cd3b6d9596a","session_id":"6197bd1d38e864b3376abcf7","condition":"full-information","relevant_dimensions":["antennae","wings"],"bee_group":{"antennae":"A","wings":"2","pattern":"X","legs":"X"},"bonus":0.020000000000000583},{"rt":3349.600000023842,"stimulus":"bees-with-color/bee-A1SF.svg","response":0,"trial_type":"image-button-response","trial_index":15,"time_elapsed":341949,"internal_node_id":"0.0-4.0-0.4","subject_id":"617032f133b49cddf96ad317","study_id":"6197b3f67c2b5cd3b6d9596a","session_id":"6197bd1d38e864b3376abcf7","condition":"full-information","relevant_dimensions":["antennae","wings"],"bee_group":{"antennae":"A","wings":"2","pattern":"X","legs":"X"},"action":"harvest","summary":"good-harvest","bonus":0.020000000000000583},{"rt":5705.200000047684,"stimulus":"\n                    <p><b>Action: <em>harvest</em></b></p>\n                    <p>This is the bee that you just saw.</p>\n                    <img src=\"bees-with-color/bee-A1SF.svg\" width=\"200\">\n                    <p><span class=\"greenText\"><b>Successful harvest!</b></span><br>Your pay has increased by $0.02. Your bonus pay is now $0.50.</p>\n            ","response":0,"trial_type":"html-button-response","trial_index":16,"time_elapsed":347655,"internal_node_id":"0.0-4.0-1.4","subject_id":"617032f133b49cddf96ad317","study_id":"6197b3f67c2b5cd3b6d9596a","session_id":"6197bd1d38e864b3376abcf7","condition":"full-information","relevant_dimensions":["antennae","wings"],"bee_group":{"antennae":"A","wings":"2","pattern":"X","legs":"X"},"bonus":0.020000000000000583},{"rt":3129.899999976158,"stimulus":"bees-with-color/bee-A2SF.svg","response":0,"trial_type":"image-button-response","trial_index":17,"time_elapsed":350787,"internal_node_id":"0.0-4.0-0.5","subject_id":"617032f133b49cddf96ad317","study_id":"6197b3f67c2b5cd3b6d9596a","session_id":"6197bd1d38e864b3376abcf7","condition":"full-information","relevant_dimensions":["antennae","wings"],"bee_group":{"antennae":"A","wings":"2","pattern":"X","legs":"X"},"action":"harvest","summary":"bad-harvest","bonus":0.020000000000000583},{"rt":10567.900000035763,"stimulus":"\n                    <p><b>Action: <em>harvest</em></b></p>\n                    <p>This is the bee that you just saw.</p>\n                    <img src=\"bees-with-color/bee-A2SF.svg\" width=\"200\">\n                    <p><span class=\"redText\">Bad choice, the bee was angry.</span><br><b>You have been stung!</b><br>Your pay has been decreased by $0.10. Your bonus pay is now $0.40.</p>\n            ","response":0,"trial_type":"html-button-response","trial_index":18,"time_elapsed":361355,"internal_node_id":"0.0-4.0-1.5","subject_id":"617032f133b49cddf96ad317","study_id":"6197b3f67c2b5cd3b6d9596a","session_id":"6197bd1d38e864b3376abcf7","condition":"full-information","relevant_dimensions":["antennae","wings"],"bee_group":{"antennae":"A","wings":"2","pattern":"X","legs":"X"},"bonus":0.020000000000000583},{"rt":1600.3999999761581,"stimulus":"bees-with-color/bee-B1DF.svg","response":0,"trial_type":"image-button-response","trial_index":19,"time_elapsed":362957,"internal_node_id":"0.0-4.0-0.6","subject_id":"617032f133b49cddf96ad317","study_id":"6197b3f67c2b5cd3b6d9596a","session_id":"6197bd1d38e864b3376abcf7","condition":"full-information","relevant_dimensions":["antennae","wings"],"bee_group":{"antennae":"A","wings":"2","pattern":"X","legs":"X"},"action":"harvest","summary":"good-harvest","bonus":0.020000000000000583},{"rt":1906.9000000357628,"stimulus":"\n                    <p><b>Action: <em>harvest</em></b></p>\n                    <p>This is the bee that you just saw.</p>\n                    <img src=\"bees-with-color/bee-B1DF.svg\" width=\"200\">\n                    <p><span class=\"greenText\"><b>Successful harvest!</b></span><br>Your pay has increased by $0.02. Your bonus pay is now $0.42.</p>\n            ","response":0,"trial_type":"html-button-response","trial_index":20,"time_elapsed":364865,"internal_node_id":"0.0-4.0-1.6","subject_id":"617032f133b49cddf96ad317","study_id":"6197b3f67c2b5cd3b6d9596a","session_id":"6197bd1d38e864b3376abcf7","condition":"full-information","relevant_dimensions":["antennae","wings"],"bee_group":{"antennae":"A","wings":"2","pattern":"X","legs":"X"},"bonus":0.020000000000000583},{"rt":2049.699999988079,"stimulus":"bees-with-color/bee-A1SM.svg","response":0,"trial_type":"image-button-response","trial_index":21,"time_elapsed":366917,"internal_node_id":"0.0-4.0-0.7","subject_id":"617032f133b49cddf96ad317","study_id":"6197b3f67c2b5cd3b6d9596a","session_id":"6197bd1d38e864b3376abcf7","condition":"full-information","relevant_dimensions":["antennae","wings"],"bee_group":{"antennae":"A","wings":"2","pattern":"X","legs":"X"},"action":"harvest","summary":"good-harvest","bonus":0.020000000000000583},{"rt":1600.300000011921,"stimulus":"\n                    <p><b>Action: <em>harvest</em></b></p>\n                    <p>This is the bee that you just saw.</p>\n                    <img src=\"bees-with-color/bee-A1SM.svg\" width=\"200\">\n                    <p><span class=\"greenText\"><b>Successful harvest!</b></span><br>Your pay has increased by $0.02. Your bonus pay is now $0.44.</p>\n            ","response":0,"trial_type":"html-button-response","trial_index":22,"time_elapsed":368518,"internal_node_id":"0.0-4.0-1.7","subject_id":"617032f133b49cddf96ad317","study_id":"6197b3f67c2b5cd3b6d9596a","session_id":"6197bd1d38e864b3376abcf7","condition":"full-information","relevant_dimensions":["antennae","wings"],"bee_group":{"antennae":"A","wings":"2","pattern":"X","legs":"X"},"bonus":0.020000000000000583},{"rt":4828.800000011921,"stimulus":"bees-with-color/bee-A1DM.svg","response":0,"trial_type":"image-button-response","trial_index":23,"time_elapsed":373348,"internal_node_id":"0.0-4.0-0.8","subject_id":"617032f133b49cddf96ad317","study_id":"6197b3f67c2b5cd3b6d9596a","session_id":"6197bd1d38e864b3376abcf7","condition":"full-information","relevant_dimensions":["antennae","wings"],"bee_group":{"antennae":"A","wings":"2","pattern":"X","legs":"X"},"action":"harvest","summary":"good-harvest","bonus":0.020000000000000583},{"rt":1208.1000000238419,"stimulus":"\n                    <p><b>Action: <em>harvest</em></b></p>\n                    <p>This is the bee that you just saw.</p>\n                    <img src=\"bees-with-color/bee-A1DM.svg\" width=\"200\">\n                    <p><span class=\"greenText\"><b>Successful harvest!</b></span><br>Your pay has increased by $0.02. Your bonus pay is now $0.46.</p>\n            ","response":0,"trial_type":"html-button-response","trial_index":24,"time_elapsed":374558,"internal_node_id":"0.0-4.0-1.8","subject_id":"617032f133b49cddf96ad317","study_id":"6197b3f67c2b5cd3b6d9596a","session_id":"6197bd1d38e864b3376abcf7","condition":"full-information","relevant_dimensions":["antennae","wings"],"bee_group":{"antennae":"A","wings":"2","pattern":"X","legs":"X"},"bonus":0.020000000000000583},{"rt":2605.400000035763,"stimulus":"bees-with-color/bee-A2DF.svg","response":0,"trial_type":"image-button-response","trial_index":25,"time_elapsed":377164,"internal_node_id":"0.0-4.0-0.9","subject_id":"617032f133b49cddf96ad317","study_id":"6197b3f67c2b5cd3b6d9596a","session_id":"6197bd1d38e864b3376abcf7","condition":"full-information","relevant_dimensions":["antennae","wings"],"bee_group":{"antennae":"A","wings":"2","pattern":"X","legs":"X"},"action":"harvest","summary":"bad-harvest","bonus":0.020000000000000583},{"rt":1742.1000000238419,"stimulus":"\n                    <p><b>Action: <em>harvest</em></b></p>\n                    <p>This is the bee that you just saw.</p>\n                    <img src=\"bees-with-color/bee-A2DF.svg\" width=\"200\">\n                    <p><span class=\"redText\">Bad choice, the bee was angry.</span><br><b>You have been stung!</b><br>Your pay has been decreased by $0.10. Your bonus pay is now $0.36.</p>\n            ","response":0,"trial_type":"html-button-response","trial_index":26,"time_elapsed":378908,"internal_node_id":"0.0-4.0-1.9","subject_id":"617032f133b49cddf96ad317","study_id":"6197b3f67c2b5cd3b6d9596a","session_id":"6197bd1d38e864b3376abcf7","condition":"full-information","relevant_dimensions":["antennae","wings"],"bee_group":{"antennae":"A","wings":"2","pattern":"X","legs":"X"},"bonus":0.020000000000000583},{"rt":1513.3999999761581,"stimulus":"bees-with-color/bee-A2DM.svg","response":0,"trial_type":"image-button-response","trial_index":27,"time_elapsed":380422,"internal_node_id":"0.0-4.0-0.10","subject_id":"617032f133b49cddf96ad317","study_id":"6197b3f67c2b5cd3b6d9596a","session_id":"6197bd1d38e864b3376abcf7","condition":"full-information","relevant_dimensions":["antennae","wings"],"bee_group":{"antennae":"A","wings":"2","pattern":"X","legs":"X"},"action":"harvest","summary":"bad-harvest","bonus":0.020000000000000583},{"rt":1559,"stimulus":"\n                    <p><b>Action: <em>harvest</em></b></p>\n                    <p>This is the bee that you just saw.</p>\n                    <img src=\"bees-with-color/bee-A2DM.svg\" width=\"200\">\n                    <p><span class=\"redText\">Bad choice, the bee was angry.</span><br><b>You have been stung!</b><br>Your pay has been decreased by $0.10. Your bonus pay is now $0.26.</p>\n            ","response":0,"trial_type":"html-button-response","trial_index":28,"time_elapsed":381983,"internal_node_id":"0.0-4.0-1.10","subject_id":"617032f133b49cddf96ad317","study_id":"6197b3f67c2b5cd3b6d9596a","session_id":"6197bd1d38e864b3376abcf7","condition":"full-information","relevant_dimensions":["antennae","wings"],"bee_group":{"antennae":"A","wings":"2","pattern":"X","legs":"X"},"bonus":0.020000000000000583},{"rt":4419.599999964237,"stimulus":"bees-with-color/bee-B1DM.svg","response":0,"trial_type":"image-button-response","trial_index":29,"time_elapsed":386403,"internal_node_id":"0.0-4.0-0.11","subject_id":"617032f133b49cddf96ad317","study_id":"6197b3f67c2b5cd3b6d9596a","session_id":"6197bd1d38e864b3376abcf7","condition":"full-information","relevant_dimensions":["antennae","wings"],"bee_group":{"antennae":"A","wings":"2","pattern":"X","legs":"X"},"action":"harvest","summary":"good-harvest","bonus":0.020000000000000583},{"rt":966.6999999880791,"stimulus":"\n                    <p><b>Action: <em>harvest</em></b></p>\n                    <p>This is the bee that you just saw.</p>\n                    <img src=\"bees-with-color/bee-B1DM.svg\" width=\"200\">\n                    <p><span class=\"greenText\"><b>Successful harvest!</b></span><br>Your pay has increased by $0.02. Your bonus pay is now $0.28.</p>\n            ","response":0,"trial_type":"html-button-response","trial_index":30,"time_elapsed":387371,"internal_node_id":"0.0-4.0-1.11","subject_id":"617032f133b49cddf96ad317","study_id":"6197b3f67c2b5cd3b6d9596a","session_id":"6197bd1d38e864b3376abcf7","condition":"full-information","relevant_dimensions":["antennae","wings"],"bee_group":{"antennae":"A","wings":"2","pattern":"X","legs":"X"},"bonus":0.020000000000000583},{"rt":1967.5,"stimulus":"bees-with-color/bee-B2DM.svg","response":1,"trial_type":"image-button-response","trial_index":31,"time_elapsed":389340,"internal_node_id":"0.0-4.0-0.12","subject_id":"617032f133b49cddf96ad317","study_id":"6197b3f67c2b5cd3b6d9596a","session_id":"6197bd1d38e864b3376abcf7","condition":"full-information","relevant_dimensions":["antennae","wings"],"bee_group":{"antennae":"A","wings":"2","pattern":"X","legs":"X"},"action":"avoid","summary":"bad-avoid","bonus":0.020000000000000583},{"rt":1567.5,"stimulus":"\n                    <p><b>Action: <em>avoid</em></b></p>\n                    <p>This is the bee that you just saw.</p>\n                    <img src=\"bees-with-color/bee-B2DM.svg\" width=\"200\">\n                    <p><span class=\"redText\">Bad choice,</span> the bee was friendly.<br>Your bonus pay is unchanged, and remains at $0.28.</p>\n            ","response":0,"trial_type":"html-button-response","trial_index":32,"time_elapsed":390909,"internal_node_id":"0.0-4.0-1.12","subject_id":"617032f133b49cddf96ad317","study_id":"6197b3f67c2b5cd3b6d9596a","session_id":"6197bd1d38e864b3376abcf7","condition":"full-information","relevant_dimensions":["antennae","wings"],"bee_group":{"antennae":"A","wings":"2","pattern":"X","legs":"X"},"bonus":0.020000000000000583},{"rt":1889.300000011921,"stimulus":"bees-with-color/bee-B2DF.svg","response":0,"trial_type":"image-button-response","trial_index":33,"time_elapsed":392799,"internal_node_id":"0.0-4.0-0.13","subject_id":"617032f133b49cddf96ad317","study_id":"6197b3f67c2b5cd3b6d9596a","session_id":"6197bd1d38e864b3376abcf7","condition":"full-information","relevant_dimensions":["antennae","wings"],"bee_group":{"antennae":"A","wings":"2","pattern":"X","legs":"X"},"action":"harvest","summary":"good-harvest","bonus":0.020000000000000583},{"rt":4667,"stimulus":"\n                    <p><b>Action: <em>harvest</em></b></p>\n                    <p>This is the bee that you just saw.</p>\n                    <img src=\"bees-with-color/bee-B2DF.svg\" width=\"200\">\n                    <p><span class=\"greenText\"><b>Successful harvest!</b></span><br>Your pay has increased by $0.02. Your bonus pay is now $0.30.</p>\n            ","response":0,"trial_type":"html-button-response","trial_index":34,"time_elapsed":397468,"internal_node_id":"0.0-4.0-1.13","subject_id":"617032f133b49cddf96ad317","study_id":"6197b3f67c2b5cd3b6d9596a","session_id":"6197bd1d38e864b3376abcf7","condition":"full-information","relevant_dimensions":["antennae","wings"],"bee_group":{"antennae":"A","wings":"2","pattern":"X","legs":"X"},"bonus":0.020000000000000583},{"rt":1642.300000011921,"stimulus":"bees-with-color/bee-B1SF.svg","response":0,"trial_type":"image-button-response","trial_index":35,"time_elapsed":399111,"internal_node_id":"0.0-4.0-0.14","subject_id":"617032f133b49cddf96ad317","study_id":"6197b3f67c2b5cd3b6d9596a","session_id":"6197bd1d38e864b3376abcf7","condition":"full-information","relevant_dimensions":["antennae","wings"],"bee_group":{"antennae":"A","wings":"2","pattern":"X","legs":"X"},"action":"harvest","summary":"good-harvest","bonus":0.020000000000000583},{"rt":1798.8999999761581,"stimulus":"\n                    <p><b>Action: <em>harvest</em></b></p>\n                    <p>This is the bee that you just saw.</p>\n                    <img src=\"bees-with-color/bee-B1SF.svg\" width=\"200\">\n                    <p><span class=\"greenText\"><b>Successful harvest!</b></span><br>Your pay has increased by $0.02. Your bonus pay is now $0.32.</p>\n            ","response":0,"trial_type":"html-button-response","trial_index":36,"time_elapsed":400911,"internal_node_id":"0.0-4.0-1.14","subject_id":"617032f133b49cddf96ad317","study_id":"6197b3f67c2b5cd3b6d9596a","session_id":"6197bd1d38e864b3376abcf7","condition":"full-information","relevant_dimensions":["antennae","wings"],"bee_group":{"antennae":"A","wings":"2","pattern":"X","legs":"X"},"bonus":0.020000000000000583},{"rt":1843.5999999642372,"stimulus":"bees-with-color/bee-B1SM.svg","response":0,"trial_type":"image-button-response","trial_index":37,"time_elapsed":402756,"internal_node_id":"0.0-4.0-0.15","subject_id":"617032f133b49cddf96ad317","study_id":"6197b3f67c2b5cd3b6d9596a","session_id":"6197bd1d38e864b3376abcf7","condition":"full-information","relevant_dimensions":["antennae","wings"],"bee_group":{"antennae":"A","wings":"2","pattern":"X","legs":"X"},"action":"harvest","summary":"good-harvest","bonus":0.020000000000000583},{"rt":1306.300000011921,"stimulus":"\n                    <p><b>Action: <em>harvest</em></b></p>\n                    <p>This is the bee that you just saw.</p>\n                    <img src=\"bees-with-color/bee-B1SM.svg\" width=\"200\">\n                    <p><span class=\"greenText\"><b>Successful harvest!</b></span><br>Your pay has increased by $0.02. Your bonus pay is now $0.34.</p>\n            ","response":0,"trial_type":"html-button-response","trial_index":38,"time_elapsed":404063,"internal_node_id":"0.0-4.0-1.15","subject_id":"617032f133b49cddf96ad317","study_id":"6197b3f67c2b5cd3b6d9596a","session_id":"6197bd1d38e864b3376abcf7","condition":"full-information","relevant_dimensions":["antennae","wings"],"bee_group":{"antennae":"A","wings":"2","pattern":"X","legs":"X"},"bonus":0.020000000000000583},{"rt":3238.600000023842,"stimulus":"bees-with-color/bee-B2SF.svg","response":0,"trial_type":"image-button-response","trial_index":39,"time_elapsed":407303,"internal_node_id":"0.0-4.0-0.16","subject_id":"617032f133b49cddf96ad317","study_id":"6197b3f67c2b5cd3b6d9596a","session_id":"6197bd1d38e864b3376abcf7","condition":"full-information","relevant_dimensions":["antennae","wings"],"bee_group":{"antennae":"A","wings":"2","pattern":"X","legs":"X"},"action":"harvest","summary":"good-harvest","bonus":0.020000000000000583},{"rt":913.8000000119209,"stimulus":"\n                    <p><b>Action: <em>harvest</em></b></p>\n                    <p>This is the bee that you just saw.</p>\n                    <img src=\"bees-with-color/bee-B2SF.svg\" width=\"200\">\n                    <p><span class=\"greenText\"><b>Successful harvest!</b></span><br>Your pay has increased by $0.02. Your bonus pay is now $0.36.</p>\n            ","response":0,"trial_type":"html-button-response","trial_index":40,"time_elapsed":408218,"internal_node_id":"0.0-4.0-1.16","subject_id":"617032f133b49cddf96ad317","study_id":"6197b3f67c2b5cd3b6d9596a","session_id":"6197bd1d38e864b3376abcf7","condition":"full-information","relevant_dimensions":["antennae","wings"],"bee_group":{"antennae":"A","wings":"2","pattern":"X","legs":"X"},"bonus":0.020000000000000583},{"rt":1902.8999999761581,"stimulus":"bees-with-color/bee-A2DF.svg","response":1,"trial_type":"image-button-response","trial_index":41,"time_elapsed":410122,"internal_node_id":"0.0-4.0-0.17","subject_id":"617032f133b49cddf96ad317","study_id":"6197b3f67c2b5cd3b6d9596a","session_id":"6197bd1d38e864b3376abcf7","condition":"full-information","relevant_dimensions":["antennae","wings"],"bee_group":{"antennae":"A","wings":"2","pattern":"X","legs":"X"},"action":"avoid","summary":"good-avoid","bonus":0.020000000000000583},{"rt":7475.600000023842,"stimulus":"\n                    <p><b>Action: <em>avoid</em></b></p>\n                    <p>This is the bee that you just saw.</p>\n                    <img src=\"bees-with-color/bee-A2DF.svg\" width=\"200\">\n                    <p><span class=\"greenText\">Good choice!</span>  This bee would have stung you.<br>Your bonus pay is unchanged, and remains at $0.36.</p>\n            ","response":0,"trial_type":"html-button-response","trial_index":42,"time_elapsed":417599,"internal_node_id":"0.0-4.0-1.17","subject_id":"617032f133b49cddf96ad317","study_id":"6197b3f67c2b5cd3b6d9596a","session_id":"6197bd1d38e864b3376abcf7","condition":"full-information","relevant_dimensions":["antennae","wings"],"bee_group":{"antennae":"A","wings":"2","pattern":"X","legs":"X"},"bonus":0.020000000000000583},{"rt":1072.5,"stimulus":"bees-with-color/bee-A1SM.svg","response":0,"trial_type":"image-button-response","trial_index":43,"time_elapsed":418673,"internal_node_id":"0.0-4.0-0.18","subject_id":"617032f133b49cddf96ad317","study_id":"6197b3f67c2b5cd3b6d9596a","session_id":"6197bd1d38e864b3376abcf7","condition":"full-information","relevant_dimensions":["antennae","wings"],"bee_group":{"antennae":"A","wings":"2","pattern":"X","legs":"X"},"action":"harvest","summary":"good-harvest","bonus":0.020000000000000583},{"rt":704,"stimulus":"\n                    <p><b>Action: <em>harvest</em></b></p>\n                    <p>This is the bee that you just saw.</p>\n                    <img src=\"bees-with-color/bee-A1SM.svg\" width=\"200\">\n                    <p><span class=\"greenText\"><b>Successful harvest!</b></span><br>Your pay has increased by $0.02. Your bonus pay is now $0.38.</p>\n            ","response":0,"trial_type":"html-button-response","trial_index":44,"time_elapsed":419378,"internal_node_id":"0.0-4.0-1.18","subject_id":"617032f133b49cddf96ad317","study_id":"6197b3f67c2b5cd3b6d9596a","session_id":"6197bd1d38e864b3376abcf7","condition":"full-information","relevant_dimensions":["antennae","wings"],"bee_group":{"antennae":"A","wings":"2","pattern":"X","legs":"X"},"bonus":0.020000000000000583},{"rt":1083.800000011921,"stimulus":"bees-with-color/bee-B2DF.svg","response":1,"trial_type":"image-button-response","trial_index":45,"time_elapsed":420463,"internal_node_id":"0.0-4.0-0.19","subject_id":"617032f133b49cddf96ad317","study_id":"6197b3f67c2b5cd3b6d9596a","session_id":"6197bd1d38e864b3376abcf7","condition":"full-information","relevant_dimensions":["antennae","wings"],"bee_group":{"antennae":"A","wings":"2","pattern":"X","legs":"X"},"action":"avoid","summary":"bad-avoid","bonus":0.020000000000000583},{"rt":1677.7999999523163,"stimulus":"\n                    <p><b>Action: <em>avoid</em></b></p>\n                    <p>This is the bee that you just saw.</p>\n                    <img src=\"bees-with-color/bee-B2DF.svg\" width=\"200\">\n                    <p><span class=\"redText\">Bad choice,</span> the bee was friendly.<br>Your bonus pay is unchanged, and remains at $0.38.</p>\n            ","response":0,"trial_type":"html-button-response","trial_index":46,"time_elapsed":422143,"internal_node_id":"0.0-4.0-1.19","subject_id":"617032f133b49cddf96ad317","study_id":"6197b3f67c2b5cd3b6d9596a","session_id":"6197bd1d38e864b3376abcf7","condition":"full-information","relevant_dimensions":["antennae","wings"],"bee_group":{"antennae":"A","wings":"2","pattern":"X","legs":"X"},"bonus":0.020000000000000583},{"rt":1784.300000011921,"stimulus":"bees-with-color/bee-B1DF.svg","response":0,"trial_type":"image-button-response","trial_index":47,"time_elapsed":423928,"internal_node_id":"0.0-4.0-0.20","subject_id":"617032f133b49cddf96ad317","study_id":"6197b3f67c2b5cd3b6d9596a","session_id":"6197bd1d38e864b3376abcf7","condition":"full-information","relevant_dimensions":["antennae","wings"],"bee_group":{"antennae":"A","wings":"2","pattern":"X","legs":"X"},"action":"harvest","summary":"good-harvest","bonus":0.020000000000000583},{"rt":1039.8999999761581,"stimulus":"\n                    <p><b>Action: <em>harvest</em></b></p>\n                    <p>This is the bee that you just saw.</p>\n                    <img src=\"bees-with-color/bee-B1DF.svg\" width=\"200\">\n                    <p><span class=\"greenText\"><b>Successful harvest!</b></span><br>Your pay has increased by $0.02. Your bonus pay is now $0.40.</p>\n            ","response":0,"trial_type":"html-button-response","trial_index":48,"time_elapsed":424969,"internal_node_id":"0.0-4.0-1.20","subject_id":"617032f133b49cddf96ad317","study_id":"6197b3f67c2b5cd3b6d9596a","session_id":"6197bd1d38e864b3376abcf7","condition":"full-information","relevant_dimensions":["antennae","wings"],"bee_group":{"antennae":"A","wings":"2","pattern":"X","legs":"X"},"bonus":0.020000000000000583},{"rt":5965.199999988079,"stimulus":"bees-with-color/bee-A2SF.svg","response":0,"trial_type":"image-button-response","trial_index":49,"time_elapsed":430936,"internal_node_id":"0.0-4.0-0.21","subject_id":"617032f133b49cddf96ad317","study_id":"6197b3f67c2b5cd3b6d9596a","session_id":"6197bd1d38e864b3376abcf7","condition":"full-information","relevant_dimensions":["antennae","wings"],"bee_group":{"antennae":"A","wings":"2","pattern":"X","legs":"X"},"action":"harvest","summary":"bad-harvest","bonus":0.020000000000000583},{"rt":1060.800000011921,"stimulus":"\n                    <p><b>Action: <em>harvest</em></b></p>\n                    <p>This is the bee that you just saw.</p>\n                    <img src=\"bees-with-color/bee-A2SF.svg\" width=\"200\">\n                    <p><span class=\"redText\">Bad choice, the bee was angry.</span><br><b>You have been stung!</b><br>Your pay has been decreased by $0.10. Your bonus pay is now $0.30.</p>\n            ","response":0,"trial_type":"html-button-response","trial_index":50,"time_elapsed":431997,"internal_node_id":"0.0-4.0-1.21","subject_id":"617032f133b49cddf96ad317","study_id":"6197b3f67c2b5cd3b6d9596a","session_id":"6197bd1d38e864b3376abcf7","condition":"full-information","relevant_dimensions":["antennae","wings"],"bee_group":{"antennae":"A","wings":"2","pattern":"X","legs":"X"},"bonus":0.020000000000000583},{"rt":1340.6000000238419,"stimulus":"bees-with-color/bee-A1SF.svg","response":0,"trial_type":"image-button-response","trial_index":51,"time_elapsed":433339,"internal_node_id":"0.0-4.0-0.22","subject_id":"617032f133b49cddf96ad317","study_id":"6197b3f67c2b5cd3b6d9596a","session_id":"6197bd1d38e864b3376abcf7","condition":"full-information","relevant_dimensions":["antennae","wings"],"bee_group":{"antennae":"A","wings":"2","pattern":"X","legs":"X"},"action":"harvest","summary":"good-harvest","bonus":0.020000000000000583},{"rt":874.8999999761581,"stimulus":"\n                    <p><b>Action: <em>harvest</em></b></p>\n                    <p>This is the bee that you just saw.</p>\n                    <img src=\"bees-with-color/bee-A1SF.svg\" width=\"200\">\n                    <p><span class=\"greenText\"><b>Successful harvest!</b></span><br>Your pay has increased by $0.02. Your bonus pay is now $0.32.</p>\n            ","response":0,"trial_type":"html-button-response","trial_index":52,"time_elapsed":434215,"internal_node_id":"0.0-4.0-1.22","subject_id":"617032f133b49cddf96ad317","study_id":"6197b3f67c2b5cd3b6d9596a","session_id":"6197bd1d38e864b3376abcf7","condition":"full-information","relevant_dimensions":["antennae","wings"],"bee_group":{"antennae":"A","wings":"2","pattern":"X","legs":"X"},"bonus":0.020000000000000583},{"rt":1453,"stimulus":"bees-with-color/bee-B2DM.svg","response":1,"trial_type":"image-button-response","trial_index":53,"time_elapsed":435669,"internal_node_id":"0.0-4.0-0.23","subject_id":"617032f133b49cddf96ad317","study_id":"6197b3f67c2b5cd3b6d9596a","session_id":"6197bd1d38e864b3376abcf7","condition":"full-information","relevant_dimensions":["antennae","wings"],"bee_group":{"antennae":"A","wings":"2","pattern":"X","legs":"X"},"action":"avoid","summary":"bad-avoid","bonus":0.020000000000000583},{"rt":7418,"stimulus":"\n                    <p><b>Action: <em>avoid</em></b></p>\n                    <p>This is the bee that you just saw.</p>\n                    <img src=\"bees-with-color/bee-B2DM.svg\" width=\"200\">\n                    <p><span class=\"redText\">Bad choice,</span> the bee was friendly.<br>Your bonus pay is unchanged, and remains at $0.32.</p>\n            ","response":0,"trial_type":"html-button-response","trial_index":54,"time_elapsed":443089,"internal_node_id":"0.0-4.0-1.23","subject_id":"617032f133b49cddf96ad317","study_id":"6197b3f67c2b5cd3b6d9596a","session_id":"6197bd1d38e864b3376abcf7","condition":"full-information","relevant_dimensions":["antennae","wings"],"bee_group":{"antennae":"A","wings":"2","pattern":"X","legs":"X"},"bonus":0.020000000000000583},{"rt":1186.8999999761581,"stimulus":"bees-with-color/bee-A2SM.svg","response":0,"trial_type":"image-button-response","trial_index":55,"time_elapsed":444277,"internal_node_id":"0.0-4.0-0.24","subject_id":"617032f133b49cddf96ad317","study_id":"6197b3f67c2b5cd3b6d9596a","session_id":"6197bd1d38e864b3376abcf7","condition":"full-information","relevant_dimensions":["antennae","wings"],"bee_group":{"antennae":"A","wings":"2","pattern":"X","legs":"X"},"action":"harvest","summary":"bad-harvest","bonus":0.020000000000000583},{"rt":1309.5,"stimulus":"\n                    <p><b>Action: <em>harvest</em></b></p>\n                    <p>This is the bee that you just saw.</p>\n                    <img src=\"bees-with-color/bee-A2SM.svg\" width=\"200\">\n                    <p><span class=\"redText\">Bad choice, the bee was angry.</span><br><b>You have been stung!</b><br>Your pay has been decreased by $0.10. Your bonus pay is now $0.22.</p>\n            ","response":0,"trial_type":"html-button-response","trial_index":56,"time_elapsed":445588,"internal_node_id":"0.0-4.0-1.24","subject_id":"617032f133b49cddf96ad317","study_id":"6197b3f67c2b5cd3b6d9596a","session_id":"6197bd1d38e864b3376abcf7","condition":"full-information","relevant_dimensions":["antennae","wings"],"bee_group":{"antennae":"A","wings":"2","pattern":"X","legs":"X"},"bonus":0.020000000000000583},{"rt":23694.899999976158,"stimulus":"bees-with-color/bee-B1SM.svg","response":0,"trial_type":"image-button-response","trial_index":57,"time_elapsed":469284,"internal_node_id":"0.0-4.0-0.25","subject_id":"617032f133b49cddf96ad317","study_id":"6197b3f67c2b5cd3b6d9596a","session_id":"6197bd1d38e864b3376abcf7","condition":"full-information","relevant_dimensions":["antennae","wings"],"bee_group":{"antennae":"A","wings":"2","pattern":"X","legs":"X"},"action":"harvest","summary":"good-harvest","bonus":0.020000000000000583},{"rt":925.5999999642372,"stimulus":"\n                    <p><b>Action: <em>harvest</em></b></p>\n                    <p>This is the bee that you just saw.</p>\n                    <img src=\"bees-with-color/bee-B1SM.svg\" width=\"200\">\n                    <p><span class=\"greenText\"><b>Successful harvest!</b></span><br>Your pay has increased by $0.02. Your bonus pay is now $0.24.</p>\n            ","response":0,"trial_type":"html-button-response","trial_index":58,"time_elapsed":470211,"internal_node_id":"0.0-4.0-1.25","subject_id":"617032f133b49cddf96ad317","study_id":"6197b3f67c2b5cd3b6d9596a","session_id":"6197bd1d38e864b3376abcf7","condition":"full-information","relevant_dimensions":["antennae","wings"],"bee_group":{"antennae":"A","wings":"2","pattern":"X","legs":"X"},"bonus":0.020000000000000583},{"rt":13194.399999976158,"stimulus":"bees-with-color/bee-A1DM.svg","response":0,"trial_type":"image-button-response","trial_index":59,"time_elapsed":483407,"internal_node_id":"0.0-4.0-0.26","subject_id":"617032f133b49cddf96ad317","study_id":"6197b3f67c2b5cd3b6d9596a","session_id":"6197bd1d38e864b3376abcf7","condition":"full-information","relevant_dimensions":["antennae","wings"],"bee_group":{"antennae":"A","wings":"2","pattern":"X","legs":"X"},"action":"harvest","summary":"good-harvest","bonus":0.020000000000000583},{"rt":3340.699999988079,"stimulus":"\n                    <p><b>Action: <em>harvest</em></b></p>\n                    <p>This is the bee that you just saw.</p>\n                    <img src=\"bees-with-color/bee-A1DM.svg\" width=\"200\">\n                    <p><span class=\"greenText\"><b>Successful harvest!</b></span><br>Your pay has increased by $0.02. Your bonus pay is now $0.26.</p>\n            ","response":0,"trial_type":"html-button-response","trial_index":60,"time_elapsed":486749,"internal_node_id":"0.0-4.0-1.26","subject_id":"617032f133b49cddf96ad317","study_id":"6197b3f67c2b5cd3b6d9596a","session_id":"6197bd1d38e864b3376abcf7","condition":"full-information","relevant_dimensions":["antennae","wings"],"bee_group":{"antennae":"A","wings":"2","pattern":"X","legs":"X"},"bonus":0.020000000000000583},{"rt":1470.4000000357628,"stimulus":"bees-with-color/bee-B2SM.svg","response":0,"trial_type":"image-button-response","trial_index":61,"time_elapsed":488221,"internal_node_id":"0.0-4.0-0.27","subject_id":"617032f133b49cddf96ad317","study_id":"6197b3f67c2b5cd3b6d9596a","session_id":"6197bd1d38e864b3376abcf7","condition":"full-information","relevant_dimensions":["antennae","wings"],"bee_group":{"antennae":"A","wings":"2","pattern":"X","legs":"X"},"action":"harvest","summary":"good-harvest","bonus":0.020000000000000583},{"rt":890,"stimulus":"\n                    <p><b>Action: <em>harvest</em></b></p>\n                    <p>This is the bee that you just saw.</p>\n                    <img src=\"bees-with-color/bee-B2SM.svg\" width=\"200\">\n                    <p><span class=\"greenText\"><b>Successful harvest!</b></span><br>Your pay has increased by $0.02. Your bonus pay is now $0.28.</p>\n            ","response":0,"trial_type":"html-button-response","trial_index":62,"time_elapsed":489112,"internal_node_id":"0.0-4.0-1.27","subject_id":"617032f133b49cddf96ad317","study_id":"6197b3f67c2b5cd3b6d9596a","session_id":"6197bd1d38e864b3376abcf7","condition":"full-information","relevant_dimensions":["antennae","wings"],"bee_group":{"antennae":"A","wings":"2","pattern":"X","legs":"X"},"bonus":0.020000000000000583},{"rt":1501.5,"stimulus":"bees-with-color/bee-B1DM.svg","response":1,"trial_type":"image-button-response","trial_index":63,"time_elapsed":490615,"internal_node_id":"0.0-4.0-0.28","subject_id":"617032f133b49cddf96ad317","study_id":"6197b3f67c2b5cd3b6d9596a","session_id":"6197bd1d38e864b3376abcf7","condition":"full-information","relevant_dimensions":["antennae","wings"],"bee_group":{"antennae":"A","wings":"2","pattern":"X","legs":"X"},"action":"avoid","summary":"bad-avoid","bonus":0.020000000000000583},{"rt":3400.100000023842,"stimulus":"\n                    <p><b>Action: <em>avoid</em></b></p>\n                    <p>This is the bee that you just saw.</p>\n                    <img src=\"bees-with-color/bee-B1DM.svg\" width=\"200\">\n                    <p><span class=\"redText\">Bad choice,</span> the bee was friendly.<br>Your bonus pay is unchanged, and remains at $0.28.</p>\n            ","response":0,"trial_type":"html-button-response","trial_index":64,"time_elapsed":494016,"internal_node_id":"0.0-4.0-1.28","subject_id":"617032f133b49cddf96ad317","study_id":"6197b3f67c2b5cd3b6d9596a","session_id":"6197bd1d38e864b3376abcf7","condition":"full-information","relevant_dimensions":["antennae","wings"],"bee_group":{"antennae":"A","wings":"2","pattern":"X","legs":"X"},"bonus":0.020000000000000583},{"rt":1382.800000011921,"stimulus":"bees-with-color/bee-A1DF.svg","response":1,"trial_type":"image-button-response","trial_index":65,"time_elapsed":495400,"internal_node_id":"0.0-4.0-0.29","subject_id":"617032f133b49cddf96ad317","study_id":"6197b3f67c2b5cd3b6d9596a","session_id":"6197bd1d38e864b3376abcf7","condition":"full-information","relevant_dimensions":["antennae","wings"],"bee_group":{"antennae":"A","wings":"2","pattern":"X","legs":"X"},"action":"avoid","summary":"bad-avoid","bonus":0.020000000000000583},{"rt":652.9000000357628,"stimulus":"\n                    <p><b>Action: <em>avoid</em></b></p>\n                    <p>This is the bee that you just saw.</p>\n                    <img src=\"bees-with-color/bee-A1DF.svg\" width=\"200\">\n                    <p><span class=\"redText\">Bad choice,</span> the bee was friendly.<br>Your bonus pay is unchanged, and remains at $0.28.</p>\n            ","response":0,"trial_type":"html-button-response","trial_index":66,"time_elapsed":496054,"internal_node_id":"0.0-4.0-1.29","subject_id":"617032f133b49cddf96ad317","study_id":"6197b3f67c2b5cd3b6d9596a","session_id":"6197bd1d38e864b3376abcf7","condition":"full-information","relevant_dimensions":["antennae","wings"],"bee_group":{"antennae":"A","wings":"2","pattern":"X","legs":"X"},"bonus":0.020000000000000583},{"rt":1123.800000011921,"stimulus":"bees-with-color/bee-B1SF.svg","response":0,"trial_type":"image-button-response","trial_index":67,"time_elapsed":497179,"internal_node_id":"0.0-4.0-0.30","subject_id":"617032f133b49cddf96ad317","study_id":"6197b3f67c2b5cd3b6d9596a","session_id":"6197bd1d38e864b3376abcf7","condition":"full-information","relevant_dimensions":["antennae","wings"],"bee_group":{"antennae":"A","wings":"2","pattern":"X","legs":"X"},"action":"harvest","summary":"good-harvest","bonus":0.020000000000000583},{"rt":916.7000000476837,"stimulus":"\n                    <p><b>Action: <em>harvest</em></b></p>\n                    <p>This is the bee that you just saw.</p>\n                    <img src=\"bees-with-color/bee-B1SF.svg\" width=\"200\">\n                    <p><span class=\"greenText\"><b>Successful harvest!</b></span><br>Your pay has increased by $0.02. Your bonus pay is now $0.30.</p>\n            ","response":0,"trial_type":"html-button-response","trial_index":68,"time_elapsed":498096,"internal_node_id":"0.0-4.0-1.30","subject_id":"617032f133b49cddf96ad317","study_id":"6197b3f67c2b5cd3b6d9596a","session_id":"6197bd1d38e864b3376abcf7","condition":"full-information","relevant_dimensions":["antennae","wings"],"bee_group":{"antennae":"A","wings":"2","pattern":"X","legs":"X"},"bonus":0.020000000000000583},{"rt":2539.899999976158,"stimulus":"bees-with-color/bee-A2DM.svg","response":1,"trial_type":"image-button-response","trial_index":69,"time_elapsed":500637,"internal_node_id":"0.0-4.0-0.31","subject_id":"617032f133b49cddf96ad317","study_id":"6197b3f67c2b5cd3b6d9596a","session_id":"6197bd1d38e864b3376abcf7","condition":"full-information","relevant_dimensions":["antennae","wings"],"bee_group":{"antennae":"A","wings":"2","pattern":"X","legs":"X"},"action":"avoid","summary":"good-avoid","bonus":0.020000000000000583},{"rt":4619.199999988079,"stimulus":"\n                    <p><b>Action: <em>avoid</em></b></p>\n                    <p>This is the bee that you just saw.</p>\n                    <img src=\"bees-with-color/bee-A2DM.svg\" width=\"200\">\n                    <p><span class=\"greenText\">Good choice!</span>  This bee would have stung you.<br>Your bonus pay is unchanged, and remains at $0.30.</p>\n            ","response":0,"trial_type":"html-button-response","trial_index":70,"time_elapsed":505258,"internal_node_id":"0.0-4.0-1.31","subject_id":"617032f133b49cddf96ad317","study_id":"6197b3f67c2b5cd3b6d9596a","session_id":"6197bd1d38e864b3376abcf7","condition":"full-information","relevant_dimensions":["antennae","wings"],"bee_group":{"antennae":"A","wings":"2","pattern":"X","legs":"X"},"bonus":0.020000000000000583},{"rt":1613.5,"stimulus":"bees-with-color/bee-B2DF.svg","response":0,"trial_type":"image-button-response","trial_index":71,"time_elapsed":506873,"internal_node_id":"0.0-4.0-0.32","subject_id":"617032f133b49cddf96ad317","study_id":"6197b3f67c2b5cd3b6d9596a","session_id":"6197bd1d38e864b3376abcf7","condition":"full-information","relevant_dimensions":["antennae","wings"],"bee_group":{"antennae":"A","wings":"2","pattern":"X","legs":"X"},"action":"harvest","summary":"good-harvest","bonus":0.020000000000000583},{"rt":791.6000000238419,"stimulus":"\n                    <p><b>Action: <em>harvest</em></b></p>\n                    <p>This is the bee that you just saw.</p>\n                    <img src=\"bees-with-color/bee-B2DF.svg\" width=\"200\">\n                    <p><span class=\"greenText\"><b>Successful harvest!</b></span><br>Your pay has increased by $0.02. Your bonus pay is now $0.32.</p>\n            ","response":0,"trial_type":"html-button-response","trial_index":72,"time_elapsed":507666,"internal_node_id":"0.0-4.0-1.32","subject_id":"617032f133b49cddf96ad317","study_id":"6197b3f67c2b5cd3b6d9596a","session_id":"6197bd1d38e864b3376abcf7","condition":"full-information","relevant_dimensions":["antennae","wings"],"bee_group":{"antennae":"A","wings":"2","pattern":"X","legs":"X"},"bonus":0.020000000000000583},{"rt":1473,"stimulus":"bees-with-color/bee-B1DF.svg","response":1,"trial_type":"image-button-response","trial_index":73,"time_elapsed":509140,"internal_node_id":"0.0-4.0-0.33","subject_id":"617032f133b49cddf96ad317","study_id":"6197b3f67c2b5cd3b6d9596a","session_id":"6197bd1d38e864b3376abcf7","condition":"full-information","relevant_dimensions":["antennae","wings"],"bee_group":{"antennae":"A","wings":"2","pattern":"X","legs":"X"},"action":"avoid","summary":"bad-avoid","bonus":0.020000000000000583},{"rt":903.7000000476837,"stimulus":"\n                    <p><b>Action: <em>avoid</em></b></p>\n                    <p>This is the bee that you just saw.</p>\n                    <img src=\"bees-with-color/bee-B1DF.svg\" width=\"200\">\n                    <p><span class=\"redText\">Bad choice,</span> the bee was friendly.<br>Your bonus pay is unchanged, and remains at $0.32.</p>\n            ","response":0,"trial_type":"html-button-response","trial_index":74,"time_elapsed":510045,"internal_node_id":"0.0-4.0-1.33","subject_id":"617032f133b49cddf96ad317","study_id":"6197b3f67c2b5cd3b6d9596a","session_id":"6197bd1d38e864b3376abcf7","condition":"full-information","relevant_dimensions":["antennae","wings"],"bee_group":{"antennae":"A","wings":"2","pattern":"X","legs":"X"},"bonus":0.020000000000000583},{"rt":1414.800000011921,"stimulus":"bees-with-color/bee-B1SF.svg","response":1,"trial_type":"image-button-response","trial_index":75,"time_elapsed":511461,"internal_node_id":"0.0-4.0-0.34","subject_id":"617032f133b49cddf96ad317","study_id":"6197b3f67c2b5cd3b6d9596a","session_id":"6197bd1d38e864b3376abcf7","condition":"full-information","relevant_dimensions":["antennae","wings"],"bee_group":{"antennae":"A","wings":"2","pattern":"X","legs":"X"},"action":"avoid","summary":"bad-avoid","bonus":0.020000000000000583},{"rt":670.9000000357628,"stimulus":"\n                    <p><b>Action: <em>avoid</em></b></p>\n                    <p>This is the bee that you just saw.</p>\n                    <img src=\"bees-with-color/bee-B1SF.svg\" width=\"200\">\n                    <p><span class=\"redText\">Bad choice,</span> the bee was friendly.<br>Your bonus pay is unchanged, and remains at $0.32.</p>\n            ","response":0,"trial_type":"html-button-response","trial_index":76,"time_elapsed":512133,"internal_node_id":"0.0-4.0-1.34","subject_id":"617032f133b49cddf96ad317","study_id":"6197b3f67c2b5cd3b6d9596a","session_id":"6197bd1d38e864b3376abcf7","condition":"full-information","relevant_dimensions":["antennae","wings"],"bee_group":{"antennae":"A","wings":"2","pattern":"X","legs":"X"},"bonus":0.020000000000000583},{"rt":3871.800000011921,"stimulus":"bees-with-color/bee-A2DF.svg","response":1,"trial_type":"image-button-response","trial_index":77,"time_elapsed":516006,"internal_node_id":"0.0-4.0-0.35","subject_id":"617032f133b49cddf96ad317","study_id":"6197b3f67c2b5cd3b6d9596a","session_id":"6197bd1d38e864b3376abcf7","condition":"full-information","relevant_dimensions":["antennae","wings"],"bee_group":{"antennae":"A","wings":"2","pattern":"X","legs":"X"},"action":"avoid","summary":"good-avoid","bonus":0.020000000000000583},{"rt":945.6999999880791,"stimulus":"\n                    <p><b>Action: <em>avoid</em></b></p>\n                    <p>This is the bee that you just saw.</p>\n                    <img src=\"bees-with-color/bee-A2DF.svg\" width=\"200\">\n                    <p><span class=\"greenText\">Good choice!</span>  This bee would have stung you.<br>Your bonus pay is unchanged, and remains at $0.32.</p>\n            ","response":0,"trial_type":"html-button-response","trial_index":78,"time_elapsed":516953,"internal_node_id":"0.0-4.0-1.35","subject_id":"617032f133b49cddf96ad317","study_id":"6197b3f67c2b5cd3b6d9596a","session_id":"6197bd1d38e864b3376abcf7","condition":"full-information","relevant_dimensions":["antennae","wings"],"bee_group":{"antennae":"A","wings":"2","pattern":"X","legs":"X"},"bonus":0.020000000000000583},{"rt":1234.1000000238419,"stimulus":"bees-with-color/bee-A1SM.svg","response":0,"trial_type":"image-button-response","trial_index":79,"time_elapsed":518190,"internal_node_id":"0.0-4.0-0.36","subject_id":"617032f133b49cddf96ad317","study_id":"6197b3f67c2b5cd3b6d9596a","session_id":"6197bd1d38e864b3376abcf7","condition":"full-information","relevant_dimensions":["antennae","wings"],"bee_group":{"antennae":"A","wings":"2","pattern":"X","legs":"X"},"action":"harvest","summary":"good-harvest","bonus":0.020000000000000583},{"rt":832.6999999880791,"stimulus":"\n                    <p><b>Action: <em>harvest</em></b></p>\n                    <p>This is the bee that you just saw.</p>\n                    <img src=\"bees-with-color/bee-A1SM.svg\" width=\"200\">\n                    <p><span class=\"greenText\"><b>Successful harvest!</b></span><br>Your pay has increased by $0.02. Your bonus pay is now $0.34.</p>\n            ","response":0,"trial_type":"html-button-response","trial_index":80,"time_elapsed":519024,"internal_node_id":"0.0-4.0-1.36","subject_id":"617032f133b49cddf96ad317","study_id":"6197b3f67c2b5cd3b6d9596a","session_id":"6197bd1d38e864b3376abcf7","condition":"full-information","relevant_dimensions":["antennae","wings"],"bee_group":{"antennae":"A","wings":"2","pattern":"X","legs":"X"},"bonus":0.020000000000000583},{"rt":1346.1000000238419,"stimulus":"bees-with-color/bee-B1SM.svg","response":0,"trial_type":"image-button-response","trial_index":81,"time_elapsed":520371,"internal_node_id":"0.0-4.0-0.37","subject_id":"617032f133b49cddf96ad317","study_id":"6197b3f67c2b5cd3b6d9596a","session_id":"6197bd1d38e864b3376abcf7","condition":"full-information","relevant_dimensions":["antennae","wings"],"bee_group":{"antennae":"A","wings":"2","pattern":"X","legs":"X"},"action":"harvest","summary":"good-harvest","bonus":0.020000000000000583},{"rt":734.0999999642372,"stimulus":"\n                    <p><b>Action: <em>harvest</em></b></p>\n                    <p>This is the bee that you just saw.</p>\n                    <img src=\"bees-with-color/bee-B1SM.svg\" width=\"200\">\n                    <p><span class=\"greenText\"><b>Successful harvest!</b></span><br>Your pay has increased by $0.02. Your bonus pay is now $0.36.</p>\n            ","response":0,"trial_type":"html-button-response","trial_index":82,"time_elapsed":521106,"internal_node_id":"0.0-4.0-1.37","subject_id":"617032f133b49cddf96ad317","study_id":"6197b3f67c2b5cd3b6d9596a","session_id":"6197bd1d38e864b3376abcf7","condition":"full-information","relevant_dimensions":["antennae","wings"],"bee_group":{"antennae":"A","wings":"2","pattern":"X","legs":"X"},"bonus":0.020000000000000583},{"rt":2405.7000000476837,"stimulus":"bees-with-color/bee-B2SF.svg","response":1,"trial_type":"image-button-response","trial_index":83,"time_elapsed":523512,"internal_node_id":"0.0-4.0-0.38","subject_id":"617032f133b49cddf96ad317","study_id":"6197b3f67c2b5cd3b6d9596a","session_id":"6197bd1d38e864b3376abcf7","condition":"full-information","relevant_dimensions":["antennae","wings"],"bee_group":{"antennae":"A","wings":"2","pattern":"X","legs":"X"},"action":"avoid","summary":"bad-avoid","bonus":0.020000000000000583},{"rt":803.8999999761581,"stimulus":"\n                    <p><b>Action: <em>avoid</em></b></p>\n                    <p>This is the bee that you just saw.</p>\n                    <img src=\"bees-with-color/bee-B2SF.svg\" width=\"200\">\n                    <p><span class=\"redText\">Bad choice,</span> the bee was friendly.<br>Your bonus pay is unchanged, and remains at $0.36.</p>\n            ","response":0,"trial_type":"html-button-response","trial_index":84,"time_elapsed":524317,"internal_node_id":"0.0-4.0-1.38","subject_id":"617032f133b49cddf96ad317","study_id":"6197b3f67c2b5cd3b6d9596a","session_id":"6197bd1d38e864b3376abcf7","condition":"full-information","relevant_dimensions":["antennae","wings"],"bee_group":{"antennae":"A","wings":"2","pattern":"X","legs":"X"},"bonus":0.020000000000000583},{"rt":1249.300000011921,"stimulus":"bees-with-color/bee-A2SM.svg","response":1,"trial_type":"image-button-response","trial_index":85,"time_elapsed":525567,"internal_node_id":"0.0-4.0-0.39","subject_id":"617032f133b49cddf96ad317","study_id":"6197b3f67c2b5cd3b6d9596a","session_id":"6197bd1d38e864b3376abcf7","condition":"full-information","relevant_dimensions":["antennae","wings"],"bee_group":{"antennae":"A","wings":"2","pattern":"X","legs":"X"},"action":"avoid","summary":"good-avoid","bonus":0.020000000000000583},{"rt":964.6999999880791,"stimulus":"\n                    <p><b>Action: <em>avoid</em></b></p>\n                    <p>This is the bee that you just saw.</p>\n                    <img src=\"bees-with-color/bee-A2SM.svg\" width=\"200\">\n                    <p><span class=\"greenText\">Good choice!</span>  This bee would have stung you.<br>Your bonus pay is unchanged, and remains at $0.36.</p>\n            ","response":0,"trial_type":"html-button-response","trial_index":86,"time_elapsed":526533,"internal_node_id":"0.0-4.0-1.39","subject_id":"617032f133b49cddf96ad317","study_id":"6197b3f67c2b5cd3b6d9596a","session_id":"6197bd1d38e864b3376abcf7","condition":"full-information","relevant_dimensions":["antennae","wings"],"bee_group":{"antennae":"A","wings":"2","pattern":"X","legs":"X"},"bonus":0.020000000000000583},{"rt":5931.100000023842,"stimulus":"bees-with-color/bee-A2SF.svg","response":0,"trial_type":"image-button-response","trial_index":87,"time_elapsed":532465,"internal_node_id":"0.0-4.0-0.40","subject_id":"617032f133b49cddf96ad317","study_id":"6197b3f67c2b5cd3b6d9596a","session_id":"6197bd1d38e864b3376abcf7","condition":"full-information","relevant_dimensions":["antennae","wings"],"bee_group":{"antennae":"A","wings":"2","pattern":"X","legs":"X"},"action":"harvest","summary":"bad-harvest","bonus":0.020000000000000583},{"rt":1312.800000011921,"stimulus":"\n                    <p><b>Action: <em>harvest</em></b></p>\n                    <p>This is the bee that you just saw.</p>\n                    <img src=\"bees-with-color/bee-A2SF.svg\" width=\"200\">\n                    <p><span class=\"redText\">Bad choice, the bee was angry.</span><br><b>You have been stung!</b><br>Your pay has been decreased by $0.10. Your bonus pay is now $0.26.</p>\n            ","response":0,"trial_type":"html-button-response","trial_index":88,"time_elapsed":533780,"internal_node_id":"0.0-4.0-1.40","subject_id":"617032f133b49cddf96ad317","study_id":"6197b3f67c2b5cd3b6d9596a","session_id":"6197bd1d38e864b3376abcf7","condition":"full-information","relevant_dimensions":["antennae","wings"],"bee_group":{"antennae":"A","wings":"2","pattern":"X","legs":"X"},"bonus":0.020000000000000583},{"rt":3787.399999976158,"stimulus":"bees-with-color/bee-A1DF.svg","response":1,"trial_type":"image-button-response","trial_index":89,"time_elapsed":537568,"internal_node_id":"0.0-4.0-0.41","subject_id":"617032f133b49cddf96ad317","study_id":"6197b3f67c2b5cd3b6d9596a","session_id":"6197bd1d38e864b3376abcf7","condition":"full-information","relevant_dimensions":["antennae","wings"],"bee_group":{"antennae":"A","wings":"2","pattern":"X","legs":"X"},"action":"avoid","summary":"bad-avoid","bonus":0.020000000000000583},{"rt":648.5999999642372,"stimulus":"\n                    <p><b>Action: <em>avoid</em></b></p>\n                    <p>This is the bee that you just saw.</p>\n                    <img src=\"bees-with-color/bee-A1DF.svg\" width=\"200\">\n                    <p><span class=\"redText\">Bad choice,</span> the bee was friendly.<br>Your bonus pay is unchanged, and remains at $0.26.</p>\n            ","response":0,"trial_type":"html-button-response","trial_index":90,"time_elapsed":538218,"internal_node_id":"0.0-4.0-1.41","subject_id":"617032f133b49cddf96ad317","study_id":"6197b3f67c2b5cd3b6d9596a","session_id":"6197bd1d38e864b3376abcf7","condition":"full-information","relevant_dimensions":["antennae","wings"],"bee_group":{"antennae":"A","wings":"2","pattern":"X","legs":"X"},"bonus":0.020000000000000583},{"rt":1175.300000011921,"stimulus":"bees-with-color/bee-B2SM.svg","response":1,"trial_type":"image-button-response","trial_index":91,"time_elapsed":539395,"internal_node_id":"0.0-4.0-0.42","subject_id":"617032f133b49cddf96ad317","study_id":"6197b3f67c2b5cd3b6d9596a","session_id":"6197bd1d38e864b3376abcf7","condition":"full-information","relevant_dimensions":["antennae","wings"],"bee_group":{"antennae":"A","wings":"2","pattern":"X","legs":"X"},"action":"avoid","summary":"bad-avoid","bonus":0.020000000000000583},{"rt":679.8000000119209,"stimulus":"\n                    <p><b>Action: <em>avoid</em></b></p>\n                    <p>This is the bee that you just saw.</p>\n                    <img src=\"bees-with-color/bee-B2SM.svg\" width=\"200\">\n                    <p><span class=\"redText\">Bad choice,</span> the bee was friendly.<br>Your bonus pay is unchanged, and remains at $0.26.</p>\n            ","response":0,"trial_type":"html-button-response","trial_index":92,"time_elapsed":540076,"internal_node_id":"0.0-4.0-1.42","subject_id":"617032f133b49cddf96ad317","study_id":"6197b3f67c2b5cd3b6d9596a","session_id":"6197bd1d38e864b3376abcf7","condition":"full-information","relevant_dimensions":["antennae","wings"],"bee_group":{"antennae":"A","wings":"2","pattern":"X","legs":"X"},"bonus":0.020000000000000583},{"rt":950.1999999880791,"stimulus":"bees-with-color/bee-B2DM.svg","response":1,"trial_type":"image-button-response","trial_index":93,"time_elapsed":541027,"internal_node_id":"0.0-4.0-0.43","subject_id":"617032f133b49cddf96ad317","study_id":"6197b3f67c2b5cd3b6d9596a","session_id":"6197bd1d38e864b3376abcf7","condition":"full-information","relevant_dimensions":["antennae","wings"],"bee_group":{"antennae":"A","wings":"2","pattern":"X","legs":"X"},"action":"avoid","summary":"bad-avoid","bonus":0.020000000000000583},{"rt":565.2999999523163,"stimulus":"\n                    <p><b>Action: <em>avoid</em></b></p>\n                    <p>This is the bee that you just saw.</p>\n                    <img src=\"bees-with-color/bee-B2DM.svg\" width=\"200\">\n                    <p><span class=\"redText\">Bad choice,</span> the bee was friendly.<br>Your bonus pay is unchanged, and remains at $0.26.</p>\n            ","response":0,"trial_type":"html-button-response","trial_index":94,"time_elapsed":541593,"internal_node_id":"0.0-4.0-1.43","subject_id":"617032f133b49cddf96ad317","study_id":"6197b3f67c2b5cd3b6d9596a","session_id":"6197bd1d38e864b3376abcf7","condition":"full-information","relevant_dimensions":["antennae","wings"],"bee_group":{"antennae":"A","wings":"2","pattern":"X","legs":"X"},"bonus":0.020000000000000583},{"rt":1141.199999988079,"stimulus":"bees-with-color/bee-A1DM.svg","response":0,"trial_type":"image-button-response","trial_index":95,"time_elapsed":542736,"internal_node_id":"0.0-4.0-0.44","subject_id":"617032f133b49cddf96ad317","study_id":"6197b3f67c2b5cd3b6d9596a","session_id":"6197bd1d38e864b3376abcf7","condition":"full-information","relevant_dimensions":["antennae","wings"],"bee_group":{"antennae":"A","wings":"2","pattern":"X","legs":"X"},"action":"harvest","summary":"good-harvest","bonus":0.020000000000000583},{"rt":743.6999999880791,"stimulus":"\n                    <p><b>Action: <em>harvest</em></b></p>\n                    <p>This is the bee that you just saw.</p>\n                    <img src=\"bees-with-color/bee-A1DM.svg\" width=\"200\">\n                    <p><span class=\"greenText\"><b>Successful harvest!</b></span><br>Your pay has increased by $0.02. Your bonus pay is now $0.28.</p>\n            ","response":0,"trial_type":"html-button-response","trial_index":96,"time_elapsed":543481,"internal_node_id":"0.0-4.0-1.44","subject_id":"617032f133b49cddf96ad317","study_id":"6197b3f67c2b5cd3b6d9596a","session_id":"6197bd1d38e864b3376abcf7","condition":"full-information","relevant_dimensions":["antennae","wings"],"bee_group":{"antennae":"A","wings":"2","pattern":"X","legs":"X"},"bonus":0.020000000000000583},{"rt":1145,"stimulus":"bees-with-color/bee-A2DM.svg","response":1,"trial_type":"image-button-response","trial_index":97,"time_elapsed":544627,"internal_node_id":"0.0-4.0-0.45","subject_id":"617032f133b49cddf96ad317","study_id":"6197b3f67c2b5cd3b6d9596a","session_id":"6197bd1d38e864b3376abcf7","condition":"full-information","relevant_dimensions":["antennae","wings"],"bee_group":{"antennae":"A","wings":"2","pattern":"X","legs":"X"},"action":"avoid","summary":"good-avoid","bonus":0.020000000000000583},{"rt":1909.300000011921,"stimulus":"\n                    <p><b>Action: <em>avoid</em></b></p>\n                    <p>This is the bee that you just saw.</p>\n                    <img src=\"bees-with-color/bee-A2DM.svg\" width=\"200\">\n                    <p><span class=\"greenText\">Good choice!</span>  This bee would have stung you.<br>Your bonus pay is unchanged, and remains at $0.28.</p>\n            ","response":0,"trial_type":"html-button-response","trial_index":98,"time_elapsed":546537,"internal_node_id":"0.0-4.0-1.45","subject_id":"617032f133b49cddf96ad317","study_id":"6197b3f67c2b5cd3b6d9596a","session_id":"6197bd1d38e864b3376abcf7","condition":"full-information","relevant_dimensions":["antennae","wings"],"bee_group":{"antennae":"A","wings":"2","pattern":"X","legs":"X"},"bonus":0.020000000000000583},{"rt":1246.8999999761581,"stimulus":"bees-with-color/bee-A1SF.svg","response":0,"trial_type":"image-button-response","trial_index":99,"time_elapsed":547785,"internal_node_id":"0.0-4.0-0.46","subject_id":"617032f133b49cddf96ad317","study_id":"6197b3f67c2b5cd3b6d9596a","session_id":"6197bd1d38e864b3376abcf7","condition":"full-information","relevant_dimensions":["antennae","wings"],"bee_group":{"antennae":"A","wings":"2","pattern":"X","legs":"X"},"action":"harvest","summary":"good-harvest","bonus":0.020000000000000583},{"rt":594.8999999761581,"stimulus":"\n                    <p><b>Action: <em>harvest</em></b></p>\n                    <p>This is the bee that you just saw.</p>\n                    <img src=\"bees-with-color/bee-A1SF.svg\" width=\"200\">\n                    <p><span class=\"greenText\"><b>Successful harvest!</b></span><br>Your pay has increased by $0.02. Your bonus pay is now $0.30.</p>\n            ","response":0,"trial_type":"html-button-response","trial_index":100,"time_elapsed":548382,"internal_node_id":"0.0-4.0-1.46","subject_id":"617032f133b49cddf96ad317","study_id":"6197b3f67c2b5cd3b6d9596a","session_id":"6197bd1d38e864b3376abcf7","condition":"full-information","relevant_dimensions":["antennae","wings"],"bee_group":{"antennae":"A","wings":"2","pattern":"X","legs":"X"},"bonus":0.020000000000000583},{"rt":1886.800000011921,"stimulus":"bees-with-color/bee-B1DM.svg","response":0,"trial_type":"image-button-response","trial_index":101,"time_elapsed":550269,"internal_node_id":"0.0-4.0-0.47","subject_id":"617032f133b49cddf96ad317","study_id":"6197b3f67c2b5cd3b6d9596a","session_id":"6197bd1d38e864b3376abcf7","condition":"full-information","relevant_dimensions":["antennae","wings"],"bee_group":{"antennae":"A","wings":"2","pattern":"X","legs":"X"},"action":"harvest","summary":"good-harvest","bonus":0.020000000000000583},{"rt":731.1000000238419,"stimulus":"\n                    <p><b>Action: <em>harvest</em></b></p>\n                    <p>This is the bee that you just saw.</p>\n                    <img src=\"bees-with-color/bee-B1DM.svg\" width=\"200\">\n                    <p><span class=\"greenText\"><b>Successful harvest!</b></span><br>Your pay has increased by $0.02. Your bonus pay is now $0.32.</p>\n            ","response":0,"trial_type":"html-button-response","trial_index":102,"time_elapsed":551001,"internal_node_id":"0.0-4.0-1.47","subject_id":"617032f133b49cddf96ad317","study_id":"6197b3f67c2b5cd3b6d9596a","session_id":"6197bd1d38e864b3376abcf7","condition":"full-information","relevant_dimensions":["antennae","wings"],"bee_group":{"antennae":"A","wings":"2","pattern":"X","legs":"X"},"bonus":0.020000000000000583},{"rt":3412.900000035763,"stimulus":"bees-with-color/bee-A2DF.svg","response":1,"trial_type":"image-button-response","trial_index":103,"time_elapsed":554415,"internal_node_id":"0.0-4.0-0.48","subject_id":"617032f133b49cddf96ad317","study_id":"6197b3f67c2b5cd3b6d9596a","session_id":"6197bd1d38e864b3376abcf7","condition":"full-information","relevant_dimensions":["antennae","wings"],"bee_group":{"antennae":"A","wings":"2","pattern":"X","legs":"X"},"action":"avoid","summary":"good-avoid","bonus":0.020000000000000583},{"rt":1013,"stimulus":"\n                    <p><b>Action: <em>avoid</em></b></p>\n                    <p>This is the bee that you just saw.</p>\n                    <img src=\"bees-with-color/bee-A2DF.svg\" width=\"200\">\n                    <p><span class=\"greenText\">Good choice!</span>  This bee would have stung you.<br>Your bonus pay is unchanged, and remains at $0.32.</p>\n            ","response":0,"trial_type":"html-button-response","trial_index":104,"time_elapsed":555430,"internal_node_id":"0.0-4.0-1.48","subject_id":"617032f133b49cddf96ad317","study_id":"6197b3f67c2b5cd3b6d9596a","session_id":"6197bd1d38e864b3376abcf7","condition":"full-information","relevant_dimensions":["antennae","wings"],"bee_group":{"antennae":"A","wings":"2","pattern":"X","legs":"X"},"bonus":0.020000000000000583},{"rt":1666.3999999761581,"stimulus":"bees-with-color/bee-B1DM.svg","response":0,"trial_type":"image-button-response","trial_index":105,"time_elapsed":557097,"internal_node_id":"0.0-4.0-0.49","subject_id":"617032f133b49cddf96ad317","study_id":"6197b3f67c2b5cd3b6d9596a","session_id":"6197bd1d38e864b3376abcf7","condition":"full-information","relevant_dimensions":["antennae","wings"],"bee_group":{"antennae":"A","wings":"2","pattern":"X","legs":"X"},"action":"harvest","summary":"good-harvest","bonus":0.020000000000000583},{"rt":742.1999999880791,"stimulus":"\n                    <p><b>Action: <em>harvest</em></b></p>\n                    <p>This is the bee that you just saw.</p>\n                    <img src=\"bees-with-color/bee-B1DM.svg\" width=\"200\">\n                    <p><span class=\"greenText\"><b>Successful harvest!</b></span><br>Your pay has increased by $0.02. Your bonus pay is now $0.34.</p>\n            ","response":0,"trial_type":"html-button-response","trial_index":106,"time_elapsed":557841,"internal_node_id":"0.0-4.0-1.49","subject_id":"617032f133b49cddf96ad317","study_id":"6197b3f67c2b5cd3b6d9596a","session_id":"6197bd1d38e864b3376abcf7","condition":"full-information","relevant_dimensions":["antennae","wings"],"bee_group":{"antennae":"A","wings":"2","pattern":"X","legs":"X"},"bonus":0.020000000000000583},{"rt":1540.800000011921,"stimulus":"bees-with-color/bee-A1DM.svg","response":1,"trial_type":"image-button-response","trial_index":107,"time_elapsed":559382,"internal_node_id":"0.0-4.0-0.50","subject_id":"617032f133b49cddf96ad317","study_id":"6197b3f67c2b5cd3b6d9596a","session_id":"6197bd1d38e864b3376abcf7","condition":"full-information","relevant_dimensions":["antennae","wings"],"bee_group":{"antennae":"A","wings":"2","pattern":"X","legs":"X"},"action":"avoid","summary":"bad-avoid","bonus":0.020000000000000583},{"rt":841.8999999761581,"stimulus":"\n                    <p><b>Action: <em>avoid</em></b></p>\n                    <p>This is the bee that you just saw.</p>\n                    <img src=\"bees-with-color/bee-A1DM.svg\" width=\"200\">\n                    <p><span class=\"redText\">Bad choice,</span> the bee was friendly.<br>Your bonus pay is unchanged, and remains at $0.34.</p>\n            ","response":0,"trial_type":"html-button-response","trial_index":108,"time_elapsed":560225,"internal_node_id":"0.0-4.0-1.50","subject_id":"617032f133b49cddf96ad317","study_id":"6197b3f67c2b5cd3b6d9596a","session_id":"6197bd1d38e864b3376abcf7","condition":"full-information","relevant_dimensions":["antennae","wings"],"bee_group":{"antennae":"A","wings":"2","pattern":"X","legs":"X"},"bonus":0.020000000000000583},{"rt":938.1000000238419,"stimulus":"bees-with-color/bee-B2DM.svg","response":1,"trial_type":"image-button-response","trial_index":109,"time_elapsed":561165,"internal_node_id":"0.0-4.0-0.51","subject_id":"617032f133b49cddf96ad317","study_id":"6197b3f67c2b5cd3b6d9596a","session_id":"6197bd1d38e864b3376abcf7","condition":"full-information","relevant_dimensions":["antennae","wings"],"bee_group":{"antennae":"A","wings":"2","pattern":"X","legs":"X"},"action":"avoid","summary":"bad-avoid","bonus":0.020000000000000583},{"rt":688.6000000238419,"stimulus":"\n                    <p><b>Action: <em>avoid</em></b></p>\n                    <p>This is the bee that you just saw.</p>\n                    <img src=\"bees-with-color/bee-B2DM.svg\" width=\"200\">\n                    <p><span class=\"redText\">Bad choice,</span> the bee was friendly.<br>Your bonus pay is unchanged, and remains at $0.34.</p>\n            ","response":0,"trial_type":"html-button-response","trial_index":110,"time_elapsed":561855,"internal_node_id":"0.0-4.0-1.51","subject_id":"617032f133b49cddf96ad317","study_id":"6197b3f67c2b5cd3b6d9596a","session_id":"6197bd1d38e864b3376abcf7","condition":"full-information","relevant_dimensions":["antennae","wings"],"bee_group":{"antennae":"A","wings":"2","pattern":"X","legs":"X"},"bonus":0.020000000000000583},{"rt":1084.699999988079,"stimulus":"bees-with-color/bee-A2SF.svg","response":0,"trial_type":"image-button-response","trial_index":111,"time_elapsed":562940,"internal_node_id":"0.0-4.0-0.52","subject_id":"617032f133b49cddf96ad317","study_id":"6197b3f67c2b5cd3b6d9596a","session_id":"6197bd1d38e864b3376abcf7","condition":"full-information","relevant_dimensions":["antennae","wings"],"bee_group":{"antennae":"A","wings":"2","pattern":"X","legs":"X"},"action":"harvest","summary":"bad-harvest","bonus":0.020000000000000583},{"rt":1108.9000000357628,"stimulus":"\n                    <p><b>Action: <em>harvest</em></b></p>\n                    <p>This is the bee that you just saw.</p>\n                    <img src=\"bees-with-color/bee-A2SF.svg\" width=\"200\">\n                    <p><span class=\"redText\">Bad choice, the bee was angry.</span><br><b>You have been stung!</b><br>Your pay has been decreased by $0.10. Your bonus pay is now $0.24.</p>\n            ","response":0,"trial_type":"html-button-response","trial_index":112,"time_elapsed":564050,"internal_node_id":"0.0-4.0-1.52","subject_id":"617032f133b49cddf96ad317","study_id":"6197b3f67c2b5cd3b6d9596a","session_id":"6197bd1d38e864b3376abcf7","condition":"full-information","relevant_dimensions":["antennae","wings"],"bee_group":{"antennae":"A","wings":"2","pattern":"X","legs":"X"},"bonus":0.020000000000000583},{"rt":2740.699999988079,"stimulus":"bees-with-color/bee-A1DF.svg","response":0,"trial_type":"image-button-response","trial_index":113,"time_elapsed":566792,"internal_node_id":"0.0-4.0-0.53","subject_id":"617032f133b49cddf96ad317","study_id":"6197b3f67c2b5cd3b6d9596a","session_id":"6197bd1d38e864b3376abcf7","condition":"full-information","relevant_dimensions":["antennae","wings"],"bee_group":{"antennae":"A","wings":"2","pattern":"X","legs":"X"},"action":"harvest","summary":"good-harvest","bonus":0.020000000000000583},{"rt":616.3999999761581,"stimulus":"\n                    <p><b>Action: <em>harvest</em></b></p>\n                    <p>This is the bee that you just saw.</p>\n                    <img src=\"bees-with-color/bee-A1DF.svg\" width=\"200\">\n                    <p><span class=\"greenText\"><b>Successful harvest!</b></span><br>Your pay has increased by $0.02. Your bonus pay is now $0.26.</p>\n            ","response":0,"trial_type":"html-button-response","trial_index":114,"time_elapsed":567410,"internal_node_id":"0.0-4.0-1.53","subject_id":"617032f133b49cddf96ad317","study_id":"6197b3f67c2b5cd3b6d9596a","session_id":"6197bd1d38e864b3376abcf7","condition":"full-information","relevant_dimensions":["antennae","wings"],"bee_group":{"antennae":"A","wings":"2","pattern":"X","legs":"X"},"bonus":0.020000000000000583},{"rt":5078,"stimulus":"bees-with-color/bee-B1DF.svg","response":0,"trial_type":"image-button-response","trial_index":115,"time_elapsed":572490,"internal_node_id":"0.0-4.0-0.54","subject_id":"617032f133b49cddf96ad317","study_id":"6197b3f67c2b5cd3b6d9596a","session_id":"6197bd1d38e864b3376abcf7","condition":"full-information","relevant_dimensions":["antennae","wings"],"bee_group":{"antennae":"A","wings":"2","pattern":"X","legs":"X"},"action":"harvest","summary":"good-harvest","bonus":0.020000000000000583},{"rt":762.6999999880791,"stimulus":"\n                    <p><b>Action: <em>harvest</em></b></p>\n                    <p>This is the bee that you just saw.</p>\n                    <img src=\"bees-with-color/bee-B1DF.svg\" width=\"200\">\n                    <p><span class=\"greenText\"><b>Successful harvest!</b></span><br>Your pay has increased by $0.02. Your bonus pay is now $0.28.</p>\n            ","response":0,"trial_type":"html-button-response","trial_index":116,"time_elapsed":573253,"internal_node_id":"0.0-4.0-1.54","subject_id":"617032f133b49cddf96ad317","study_id":"6197b3f67c2b5cd3b6d9596a","session_id":"6197bd1d38e864b3376abcf7","condition":"full-information","relevant_dimensions":["antennae","wings"],"bee_group":{"antennae":"A","wings":"2","pattern":"X","legs":"X"},"bonus":0.020000000000000583},{"rt":1426.699999988079,"stimulus":"bees-with-color/bee-B2DF.svg","response":0,"trial_type":"image-button-response","trial_index":117,"time_elapsed":574682,"internal_node_id":"0.0-4.0-0.55","subject_id":"617032f133b49cddf96ad317","study_id":"6197b3f67c2b5cd3b6d9596a","session_id":"6197bd1d38e864b3376abcf7","condition":"full-information","relevant_dimensions":["antennae","wings"],"bee_group":{"antennae":"A","wings":"2","pattern":"X","legs":"X"},"action":"harvest","summary":"good-harvest","bonus":0.020000000000000583},{"rt":631.4000000357628,"stimulus":"\n                    <p><b>Action: <em>harvest</em></b></p>\n                    <p>This is the bee that you just saw.</p>\n                    <img src=\"bees-with-color/bee-B2DF.svg\" width=\"200\">\n                    <p><span class=\"greenText\"><b>Successful harvest!</b></span><br>Your pay has increased by $0.02. Your bonus pay is now $0.30.</p>\n            ","response":0,"trial_type":"html-button-response","trial_index":118,"time_elapsed":575314,"internal_node_id":"0.0-4.0-1.55","subject_id":"617032f133b49cddf96ad317","study_id":"6197b3f67c2b5cd3b6d9596a","session_id":"6197bd1d38e864b3376abcf7","condition":"full-information","relevant_dimensions":["antennae","wings"],"bee_group":{"antennae":"A","wings":"2","pattern":"X","legs":"X"},"bonus":0.020000000000000583},{"rt":1329.699999988079,"stimulus":"bees-with-color/bee-B1SM.svg","response":0,"trial_type":"image-button-response","trial_index":119,"time_elapsed":576645,"internal_node_id":"0.0-4.0-0.56","subject_id":"617032f133b49cddf96ad317","study_id":"6197b3f67c2b5cd3b6d9596a","session_id":"6197bd1d38e864b3376abcf7","condition":"full-information","relevant_dimensions":["antennae","wings"],"bee_group":{"antennae":"A","wings":"2","pattern":"X","legs":"X"},"action":"harvest","summary":"good-harvest","bonus":0.020000000000000583},{"rt":563,"stimulus":"\n                    <p><b>Action: <em>harvest</em></b></p>\n                    <p>This is the bee that you just saw.</p>\n                    <img src=\"bees-with-color/bee-B1SM.svg\" width=\"200\">\n                    <p><span class=\"greenText\"><b>Successful harvest!</b></span><br>Your pay has increased by $0.02. Your bonus pay is now $0.32.</p>\n            ","response":0,"trial_type":"html-button-response","trial_index":120,"time_elapsed":577210,"internal_node_id":"0.0-4.0-1.56","subject_id":"617032f133b49cddf96ad317","study_id":"6197b3f67c2b5cd3b6d9596a","session_id":"6197bd1d38e864b3376abcf7","condition":"full-information","relevant_dimensions":["antennae","wings"],"bee_group":{"antennae":"A","wings":"2","pattern":"X","legs":"X"},"bonus":0.020000000000000583},{"rt":1795.6000000238419,"stimulus":"bees-with-color/bee-B2SM.svg","response":0,"trial_type":"image-button-response","trial_index":121,"time_elapsed":579006,"internal_node_id":"0.0-4.0-0.57","subject_id":"617032f133b49cddf96ad317","study_id":"6197b3f67c2b5cd3b6d9596a","session_id":"6197bd1d38e864b3376abcf7","condition":"full-information","relevant_dimensions":["antennae","wings"],"bee_group":{"antennae":"A","wings":"2","pattern":"X","legs":"X"},"action":"harvest","summary":"good-harvest","bonus":0.020000000000000583},{"rt":581.8000000119209,"stimulus":"\n                    <p><b>Action: <em>harvest</em></b></p>\n                    <p>This is the bee that you just saw.</p>\n                    <img src=\"bees-with-color/bee-B2SM.svg\" width=\"200\">\n                    <p><span class=\"greenText\"><b>Successful harvest!</b></span><br>Your pay has increased by $0.02. Your bonus pay is now $0.34.</p>\n            ","response":0,"trial_type":"html-button-response","trial_index":122,"time_elapsed":579589,"internal_node_id":"0.0-4.0-1.57","subject_id":"617032f133b49cddf96ad317","study_id":"6197b3f67c2b5cd3b6d9596a","session_id":"6197bd1d38e864b3376abcf7","condition":"full-information","relevant_dimensions":["antennae","wings"],"bee_group":{"antennae":"A","wings":"2","pattern":"X","legs":"X"},"bonus":0.020000000000000583},{"rt":1394.1000000238419,"stimulus":"bees-with-color/bee-A2SM.svg","response":0,"trial_type":"image-button-response","trial_index":123,"time_elapsed":580984,"internal_node_id":"0.0-4.0-0.58","subject_id":"617032f133b49cddf96ad317","study_id":"6197b3f67c2b5cd3b6d9596a","session_id":"6197bd1d38e864b3376abcf7","condition":"full-information","relevant_dimensions":["antennae","wings"],"bee_group":{"antennae":"A","wings":"2","pattern":"X","legs":"X"},"action":"harvest","summary":"bad-harvest","bonus":0.020000000000000583},{"rt":1120.5999999642372,"stimulus":"\n                    <p><b>Action: <em>harvest</em></b></p>\n                    <p>This is the bee that you just saw.</p>\n                    <img src=\"bees-with-color/bee-A2SM.svg\" width=\"200\">\n                    <p><span class=\"redText\">Bad choice, the bee was angry.</span><br><b>You have been stung!</b><br>Your pay has been decreased by $0.10. Your bonus pay is now $0.24.</p>\n            ","response":0,"trial_type":"html-button-response","trial_index":124,"time_elapsed":582106,"internal_node_id":"0.0-4.0-1.58","subject_id":"617032f133b49cddf96ad317","study_id":"6197b3f67c2b5cd3b6d9596a","session_id":"6197bd1d38e864b3376abcf7","condition":"full-information","relevant_dimensions":["antennae","wings"],"bee_group":{"antennae":"A","wings":"2","pattern":"X","legs":"X"},"bonus":0.020000000000000583},{"rt":2723,"stimulus":"bees-with-color/bee-A1SM.svg","response":0,"trial_type":"image-button-response","trial_index":125,"time_elapsed":584830,"internal_node_id":"0.0-4.0-0.59","subject_id":"617032f133b49cddf96ad317","study_id":"6197b3f67c2b5cd3b6d9596a","session_id":"6197bd1d38e864b3376abcf7","condition":"full-information","relevant_dimensions":["antennae","wings"],"bee_group":{"antennae":"A","wings":"2","pattern":"X","legs":"X"},"action":"harvest","summary":"good-harvest","bonus":0.020000000000000583},{"rt":599.1999999880791,"stimulus":"\n                    <p><b>Action: <em>harvest</em></b></p>\n                    <p>This is the bee that you just saw.</p>\n                    <img src=\"bees-with-color/bee-A1SM.svg\" width=\"200\">\n                    <p><span class=\"greenText\"><b>Successful harvest!</b></span><br>Your pay has increased by $0.02. Your bonus pay is now $0.26.</p>\n            ","response":0,"trial_type":"html-button-response","trial_index":126,"time_elapsed":585431,"internal_node_id":"0.0-4.0-1.59","subject_id":"617032f133b49cddf96ad317","study_id":"6197b3f67c2b5cd3b6d9596a","session_id":"6197bd1d38e864b3376abcf7","condition":"full-information","relevant_dimensions":["antennae","wings"],"bee_group":{"antennae":"A","wings":"2","pattern":"X","legs":"X"},"bonus":0.020000000000000583},{"rt":1473.0999999642372,"stimulus":"bees-with-color/bee-B2SF.svg","response":0,"trial_type":"image-button-response","trial_index":127,"time_elapsed":586905,"internal_node_id":"0.0-4.0-0.60","subject_id":"617032f133b49cddf96ad317","study_id":"6197b3f67c2b5cd3b6d9596a","session_id":"6197bd1d38e864b3376abcf7","condition":"full-information","relevant_dimensions":["antennae","wings"],"bee_group":{"antennae":"A","wings":"2","pattern":"X","legs":"X"},"action":"harvest","summary":"good-harvest","bonus":0.020000000000000583},{"rt":581,"stimulus":"\n                    <p><b>Action: <em>harvest</em></b></p>\n                    <p>This is the bee that you just saw.</p>\n                    <img src=\"bees-with-color/bee-B2SF.svg\" width=\"200\">\n                    <p><span class=\"greenText\"><b>Successful harvest!</b></span><br>Your pay has increased by $0.02. Your bonus pay is now $0.28.</p>\n            ","response":0,"trial_type":"html-button-response","trial_index":128,"time_elapsed":587487,"internal_node_id":"0.0-4.0-1.60","subject_id":"617032f133b49cddf96ad317","study_id":"6197b3f67c2b5cd3b6d9596a","session_id":"6197bd1d38e864b3376abcf7","condition":"full-information","relevant_dimensions":["antennae","wings"],"bee_group":{"antennae":"A","wings":"2","pattern":"X","legs":"X"},"bonus":0.020000000000000583},{"rt":2568,"stimulus":"bees-with-color/bee-A1SF.svg","response":0,"trial_type":"image-button-response","trial_index":129,"time_elapsed":590057,"internal_node_id":"0.0-4.0-0.61","subject_id":"617032f133b49cddf96ad317","study_id":"6197b3f67c2b5cd3b6d9596a","session_id":"6197bd1d38e864b3376abcf7","condition":"full-information","relevant_dimensions":["antennae","wings"],"bee_group":{"antennae":"A","wings":"2","pattern":"X","legs":"X"},"action":"harvest","summary":"good-harvest","bonus":0.020000000000000583},{"rt":742.8999999761581,"stimulus":"\n                    <p><b>Action: <em>harvest</em></b></p>\n                    <p>This is the bee that you just saw.</p>\n                    <img src=\"bees-with-color/bee-A1SF.svg\" width=\"200\">\n                    <p><span class=\"greenText\"><b>Successful harvest!</b></span><br>Your pay has increased by $0.02. Your bonus pay is now $0.30.</p>\n            ","response":0,"trial_type":"html-button-response","trial_index":130,"time_elapsed":590800,"internal_node_id":"0.0-4.0-1.61","subject_id":"617032f133b49cddf96ad317","study_id":"6197b3f67c2b5cd3b6d9596a","session_id":"6197bd1d38e864b3376abcf7","condition":"full-information","relevant_dimensions":["antennae","wings"],"bee_group":{"antennae":"A","wings":"2","pattern":"X","legs":"X"},"bonus":0.020000000000000583},{"rt":1319.7000000476837,"stimulus":"bees-with-color/bee-A2DM.svg","response":1,"trial_type":"image-button-response","trial_index":131,"time_elapsed":592121,"internal_node_id":"0.0-4.0-0.62","subject_id":"617032f133b49cddf96ad317","study_id":"6197b3f67c2b5cd3b6d9596a","session_id":"6197bd1d38e864b3376abcf7","condition":"full-information","relevant_dimensions":["antennae","wings"],"bee_group":{"antennae":"A","wings":"2","pattern":"X","legs":"X"},"action":"avoid","summary":"good-avoid","bonus":0.020000000000000583},{"rt":830.8999999761581,"stimulus":"\n                    <p><b>Action: <em>avoid</em></b></p>\n                    <p>This is the bee that you just saw.</p>\n                    <img src=\"bees-with-color/bee-A2DM.svg\" width=\"200\">\n                    <p><span class=\"greenText\">Good choice!</span>  This bee would have stung you.<br>Your bonus pay is unchanged, and remains at $0.30.</p>\n            ","response":0,"trial_type":"html-button-response","trial_index":132,"time_elapsed":592954,"internal_node_id":"0.0-4.0-1.62","subject_id":"617032f133b49cddf96ad317","study_id":"6197b3f67c2b5cd3b6d9596a","session_id":"6197bd1d38e864b3376abcf7","condition":"full-information","relevant_dimensions":["antennae","wings"],"bee_group":{"antennae":"A","wings":"2","pattern":"X","legs":"X"},"bonus":0.020000000000000583},{"rt":1172,"stimulus":"bees-with-color/bee-B1SF.svg","response":0,"trial_type":"image-button-response","trial_index":133,"time_elapsed":594127,"internal_node_id":"0.0-4.0-0.63","subject_id":"617032f133b49cddf96ad317","study_id":"6197b3f67c2b5cd3b6d9596a","session_id":"6197bd1d38e864b3376abcf7","condition":"full-information","relevant_dimensions":["antennae","wings"],"bee_group":{"antennae":"A","wings":"2","pattern":"X","legs":"X"},"action":"harvest","summary":"good-harvest","bonus":0.020000000000000583},{"rt":739.8000000119209,"stimulus":"\n                    <p><b>Action: <em>harvest</em></b></p>\n                    <p>This is the bee that you just saw.</p>\n                    <img src=\"bees-with-color/bee-B1SF.svg\" width=\"200\">\n                    <p><span class=\"greenText\"><b>Successful harvest!</b></span><br>Your pay has increased by $0.02. Your bonus pay is now $0.32.</p>\n            ","response":0,"trial_type":"html-button-response","trial_index":134,"time_elapsed":594867,"internal_node_id":"0.0-4.0-1.63","subject_id":"617032f133b49cddf96ad317","study_id":"6197b3f67c2b5cd3b6d9596a","session_id":"6197bd1d38e864b3376abcf7","condition":"full-information","relevant_dimensions":["antennae","wings"],"bee_group":{"antennae":"A","wings":"2","pattern":"X","legs":"X"},"bonus":0.020000000000000583},{"rt":16765.900000035763,"stimulus":"You have completed the first part of this experiment.<br><br>You will now begin a shorter second part, in which you will receive no feedback.<br>The same rules regarding bonus pay apply.<br><br>Press any key to begin.","response":" ","trial_type":"html-keyboard-response","trial_index":135,"time_elapsed":611634,"internal_node_id":"0.0-5.0","subject_id":"617032f133b49cddf96ad317","study_id":"6197b3f67c2b5cd3b6d9596a","session_id":"6197bd1d38e864b3376abcf7","condition":"full-information","relevant_dimensions":["antennae","wings"],"bee_group":{"antennae":"A","wings":"2","pattern":"X","legs":"X"},"bonus":0.020000000000000583},{"rt":3233.5,"stimulus":"bees-with-color/bee-B1DF.svg","response":0,"trial_type":"image-button-response","trial_index":136,"time_elapsed":614876,"internal_node_id":"0.0-6.0-0.0","subject_id":"617032f133b49cddf96ad317","study_id":"6197b3f67c2b5cd3b6d9596a","session_id":"6197bd1d38e864b3376abcf7","condition":"full-information","relevant_dimensions":["antennae","wings"],"bee_group":{"antennae":"A","wings":"2","pattern":"X","legs":"X"},"bonus":0.020000000000000583},{"rt":3382.100000023842,"stimulus":"bees-with-color/bee-A2SM.svg","response":0,"trial_type":"image-button-response","trial_index":137,"time_elapsed":618260,"internal_node_id":"0.0-6.0-0.1","subject_id":"617032f133b49cddf96ad317","study_id":"6197b3f67c2b5cd3b6d9596a","session_id":"6197bd1d38e864b3376abcf7","condition":"full-information","relevant_dimensions":["antennae","wings"],"bee_group":{"antennae":"A","wings":"2","pattern":"X","legs":"X"},"bonus":0.020000000000000583},{"rt":1096,"stimulus":"bees-with-color/bee-A1DM.svg","response":1,"trial_type":"image-button-response","trial_index":138,"time_elapsed":619358,"internal_node_id":"0.0-6.0-0.2","subject_id":"617032f133b49cddf96ad317","study_id":"6197b3f67c2b5cd3b6d9596a","session_id":"6197bd1d38e864b3376abcf7","condition":"full-information","relevant_dimensions":["antennae","wings"],"bee_group":{"antennae":"A","wings":"2","pattern":"X","legs":"X"},"bonus":0.020000000000000583},{"rt":1447,"stimulus":"bees-with-color/bee-B2SM.svg","response":1,"trial_type":"image-button-response","trial_index":139,"time_elapsed":620807,"internal_node_id":"0.0-6.0-0.3","subject_id":"617032f133b49cddf96ad317","study_id":"6197b3f67c2b5cd3b6d9596a","session_id":"6197bd1d38e864b3376abcf7","condition":"full-information","relevant_dimensions":["antennae","wings"],"bee_group":{"antennae":"A","wings":"2","pattern":"X","legs":"X"},"bonus":0.020000000000000583},{"rt":4129.099999964237,"stimulus":"bees-with-color/bee-B2DM.svg","response":0,"trial_type":"image-button-response","trial_index":140,"time_elapsed":624938,"internal_node_id":"0.0-6.0-0.4","subject_id":"617032f133b49cddf96ad317","study_id":"6197b3f67c2b5cd3b6d9596a","session_id":"6197bd1d38e864b3376abcf7","condition":"full-information","relevant_dimensions":["antennae","wings"],"bee_group":{"antennae":"A","wings":"2","pattern":"X","legs":"X"},"bonus":0.020000000000000583},{"rt":990.3000000119209,"stimulus":"bees-with-color/bee-B2DF.svg","response":0,"trial_type":"image-button-response","trial_index":141,"time_elapsed":625930,"internal_node_id":"0.0-6.0-0.5","subject_id":"617032f133b49cddf96ad317","study_id":"6197b3f67c2b5cd3b6d9596a","session_id":"6197bd1d38e864b3376abcf7","condition":"full-information","relevant_dimensions":["antennae","wings"],"bee_group":{"antennae":"A","wings":"2","pattern":"X","legs":"X"},"bonus":0.020000000000000583},{"rt":1024.5,"stimulus":"bees-with-color/bee-B1SF.svg","response":0,"trial_type":"image-button-response","trial_index":142,"time_elapsed":626956,"internal_node_id":"0.0-6.0-0.6","subject_id":"617032f133b49cddf96ad317","study_id":"6197b3f67c2b5cd3b6d9596a","session_id":"6197bd1d38e864b3376abcf7","condition":"full-information","relevant_dimensions":["antennae","wings"],"bee_group":{"antennae":"A","wings":"2","pattern":"X","legs":"X"},"bonus":0.020000000000000583},{"rt":997.5,"stimulus":"bees-with-color/bee-A2SF.svg","response":0,"trial_type":"image-button-response","trial_index":143,"time_elapsed":627955,"internal_node_id":"0.0-6.0-0.7","subject_id":"617032f133b49cddf96ad317","study_id":"6197b3f67c2b5cd3b6d9596a","session_id":"6197bd1d38e864b3376abcf7","condition":"full-information","relevant_dimensions":["antennae","wings"],"bee_group":{"antennae":"A","wings":"2","pattern":"X","legs":"X"},"bonus":0.020000000000000583},{"rt":1036.5,"stimulus":"bees-with-color/bee-A1DF.svg","response":1,"trial_type":"image-button-response","trial_index":144,"time_elapsed":628993,"internal_node_id":"0.0-6.0-0.8","subject_id":"617032f133b49cddf96ad317","study_id":"6197b3f67c2b5cd3b6d9596a","session_id":"6197bd1d38e864b3376abcf7","condition":"full-information","relevant_dimensions":["antennae","wings"],"bee_group":{"antennae":"A","wings":"2","pattern":"X","legs":"X"},"bonus":0.020000000000000583},{"rt":2614.5,"stimulus":"bees-with-color/bee-B2SF.svg","response":0,"trial_type":"image-button-response","trial_index":145,"time_elapsed":631609,"internal_node_id":"0.0-6.0-0.9","subject_id":"617032f133b49cddf96ad317","study_id":"6197b3f67c2b5cd3b6d9596a","session_id":"6197bd1d38e864b3376abcf7","condition":"full-information","relevant_dimensions":["antennae","wings"],"bee_group":{"antennae":"A","wings":"2","pattern":"X","legs":"X"},"bonus":0.020000000000000583},{"rt":1555.2999999523163,"stimulus":"bees-with-color/bee-A1SF.svg","response":0,"trial_type":"image-button-response","trial_index":146,"time_elapsed":633166,"internal_node_id":"0.0-6.0-0.10","subject_id":"617032f133b49cddf96ad317","study_id":"6197b3f67c2b5cd3b6d9596a","session_id":"6197bd1d38e864b3376abcf7","condition":"full-information","relevant_dimensions":["antennae","wings"],"bee_group":{"antennae":"A","wings":"2","pattern":"X","legs":"X"},"bonus":0.020000000000000583},{"rt":1194.7000000476837,"stimulus":"bees-with-color/bee-B1SM.svg","response":1,"trial_type":"image-button-response","trial_index":147,"time_elapsed":634362,"internal_node_id":"0.0-6.0-0.11","subject_id":"617032f133b49cddf96ad317","study_id":"6197b3f67c2b5cd3b6d9596a","session_id":"6197bd1d38e864b3376abcf7","condition":"full-information","relevant_dimensions":["antennae","wings"],"bee_group":{"antennae":"A","wings":"2","pattern":"X","legs":"X"},"bonus":0.020000000000000583},{"rt":1376.1000000238419,"stimulus":"bees-with-color/bee-A1SM.svg","response":0,"trial_type":"image-button-response","trial_index":148,"time_elapsed":635740,"internal_node_id":"0.0-6.0-0.12","subject_id":"617032f133b49cddf96ad317","study_id":"6197b3f67c2b5cd3b6d9596a","session_id":"6197bd1d38e864b3376abcf7","condition":"full-information","relevant_dimensions":["antennae","wings"],"bee_group":{"antennae":"A","wings":"2","pattern":"X","legs":"X"},"bonus":0.020000000000000583},{"rt":2878.5,"stimulus":"bees-with-color/bee-B1DM.svg","response":0,"trial_type":"image-button-response","trial_index":149,"time_elapsed":638620,"internal_node_id":"0.0-6.0-0.13","subject_id":"617032f133b49cddf96ad317","study_id":"6197b3f67c2b5cd3b6d9596a","session_id":"6197bd1d38e864b3376abcf7","condition":"full-information","relevant_dimensions":["antennae","wings"],"bee_group":{"antennae":"A","wings":"2","pattern":"X","legs":"X"},"bonus":0.020000000000000583},{"rt":3456.100000023842,"stimulus":"bees-with-color/bee-A2DM.svg","response":0,"trial_type":"image-button-response","trial_index":150,"time_elapsed":642078,"internal_node_id":"0.0-6.0-0.14","subject_id":"617032f133b49cddf96ad317","study_id":"6197b3f67c2b5cd3b6d9596a","session_id":"6197bd1d38e864b3376abcf7","condition":"full-information","relevant_dimensions":["antennae","wings"],"bee_group":{"antennae":"A","wings":"2","pattern":"X","legs":"X"},"bonus":0.020000000000000583},{"rt":1861.5999999642372,"stimulus":"bees-with-color/bee-A2DF.svg","response":1,"trial_type":"image-button-response","trial_index":151,"time_elapsed":643941,"internal_node_id":"0.0-6.0-0.15","subject_id":"617032f133b49cddf96ad317","study_id":"6197b3f67c2b5cd3b6d9596a","session_id":"6197bd1d38e864b3376abcf7","condition":"full-information","relevant_dimensions":["antennae","wings"],"bee_group":{"antennae":"A","wings":"2","pattern":"X","legs":"X"},"bonus":0.020000000000000583},{"rt":1303.2000000476837,"stimulus":"bees-with-color/bee-A2DF.svg","response":1,"trial_type":"image-button-response","trial_index":152,"time_elapsed":645246,"internal_node_id":"0.0-6.0-0.16","subject_id":"617032f133b49cddf96ad317","study_id":"6197b3f67c2b5cd3b6d9596a","session_id":"6197bd1d38e864b3376abcf7","condition":"full-information","relevant_dimensions":["antennae","wings"],"bee_group":{"antennae":"A","wings":"2","pattern":"X","legs":"X"},"bonus":0.020000000000000583},{"rt":1333.800000011921,"stimulus":"bees-with-color/bee-B2DM.svg","response":1,"trial_type":"image-button-response","trial_index":153,"time_elapsed":646581,"internal_node_id":"0.0-6.0-0.17","subject_id":"617032f133b49cddf96ad317","study_id":"6197b3f67c2b5cd3b6d9596a","session_id":"6197bd1d38e864b3376abcf7","condition":"full-information","relevant_dimensions":["antennae","wings"],"bee_group":{"antennae":"A","wings":"2","pattern":"X","legs":"X"},"bonus":0.020000000000000583},{"rt":973.8999999761581,"stimulus":"bees-with-color/bee-A2DM.svg","response":0,"trial_type":"image-button-response","trial_index":154,"time_elapsed":647556,"internal_node_id":"0.0-6.0-0.18","subject_id":"617032f133b49cddf96ad317","study_id":"6197b3f67c2b5cd3b6d9596a","session_id":"6197bd1d38e864b3376abcf7","condition":"full-information","relevant_dimensions":["antennae","wings"],"bee_group":{"antennae":"A","wings":"2","pattern":"X","legs":"X"},"bonus":0.020