[{"success":true,"trial_type":"fullscreen","trial_index":0,"time_elapsed":145293,"internal_node_id":"0.0-0.0","subject_id":"6047a1ebd7eb2504348db25d","study_id":"60edd13110225f80f9f3709b","session_id":"6196c1f6a6f8bcc5f454ebc0","condition":"contingent","relevant_dimensions":["antennae","wings"],"bee_group":{"antennae":"B","wings":"2","pattern":"X","legs":"X"},"bonus":1.260000000000001},{"success":true,"timeout":false,"failed_images":[],"failed_audio":[],"failed_video":[],"trial_type":"preload","trial_index":1,"time_elapsed":147339,"internal_node_id":"0.0-1.0","subject_id":"6047a1ebd7eb2504348db25d","study_id":"60edd13110225f80f9f3709b","session_id":"6196c1f6a6f8bcc5f454ebc0","condition":"contingent","relevant_dimensions":["antennae","wings"],"bee_group":{"antennae":"B","wings":"2","pattern":"X","legs":"X"},"bonus":1.260000000000001},{"rt":2743.2000000029802,"stimulus":"Welcome! Press any key to begin.","response":" ","trial_type":"html-keyboard-response","trial_index":2,"time_elapsed":150083,"internal_node_id":"0.0-2.0","subject_id":"6047a1ebd7eb2504348db25d","study_id":"60edd13110225f80f9f3709b","session_id":"6196c1f6a6f8bcc5f454ebc0","condition":"contingent","relevant_dimensions":["antennae","wings"],"bee_group":{"antennae":"B","wings":"2","pattern":"X","legs":"X"},"bonus":1.260000000000001},{"view_history":[{"page_index":0,"viewing_time":4779.30000000447},{"page_index":1,"viewing_time":20548.10000000149},{"page_index":2,"viewing_time":10620.89999999851},{"page_index":3,"viewing_time":18655.10000000149},{"page_index":4,"viewing_time":9279.89999999851},{"page_index":5,"viewing_time":11700},{"page_index":6,"viewing_time":8154.79999999702},{"page_index":7,"viewing_time":7240.20000000298},{"page_index":8,"viewing_time":4009},{"page_index":9,"viewing_time":5502.10000000149},{"page_index":10,"viewing_time":3213},{"page_index":11,"viewing_time":10570},{"page_index":12,"viewing_time":10465},{"page_index":13,"viewing_time":1420},{"page_index":14,"viewing_time":3062.2999999970198}],"rt":129220.10000000149,"trial_type":"instructions","trial_index":3,"time_elapsed":279304,"internal_node_id":"0.0-3.0-0.0","subject_id":"6047a1ebd7eb2504348db25d","study_id":"60edd13110225f80f9f3709b","session_id":"6196c1f6a6f8bcc5f454ebc0","condition":"contingent","relevant_dimensions":["antennae","wings"],"bee_group":{"antennae":"B","wings":"2","pattern":"X","legs":"X"},"bonus":1.260000000000001},{"rt":15597.89999999851,"response":{"Q0":["Two or six legs","Stripes or spots on body","Single or double wings","Antennae or no antennae"]},"question_order":[0],"trial_type":"survey-multi-select","trial_index":4,"time_elapsed":294906,"internal_node_id":"0.0-3.0-1.0","subject_id":"6047a1ebd7eb2504348db25d","study_id":"60edd13110225f80f9f3709b","session_id":"6196c1f6a6f8bcc5f454ebc0","condition":"contingent","relevant_dimensions":["antennae","wings"],"bee_group":{"antennae":"B","wings":"2","pattern":"X","legs":"X"},"correct":true,"bonus":1.260000000000001},{"rt":27057.5,"response":{"Q1":"No.","Q2":"Based on the four features of the bee.","Q3":"You do not learn if it was friendly or dangerous, and do not alter your bonus."},"question_order":[0,1,2],"trial_type":"survey-multi-choice","trial_index":5,"time_elapsed":321970,"internal_node_id":"0.0-3.0-2.0","subject_id":"6047a1ebd7eb2504348db25d","study_id":"60edd13110225f80f9f3709b","session_id":"6196c1f6a6f8bcc5f454ebc0","condition":"contingent","relevant_dimensions":["antennae","wings"],"bee_group":{"antennae":"B","wings":"2","pattern":"X","legs":"X"},"correct":true,"bonus":1.260000000000001},{"rt":3240,"stimulus":"<p>Congrats, you got everything right<br>When you're ready, click the button below to continue to the experiment.</p>","response":0,"trial_type":"html-button-response","trial_index":6,"time_elapsed":325216,"internal_node_id":"0.0-3.0-3.0","subject_id":"6047a1ebd7eb2504348db25d","study_id":"60edd13110225f80f9f3709b","session_id":"6196c1f6a6f8bcc5f454ebc0","condition":"contingent","relevant_dimensions":["antennae","wings"],"bee_group":{"antennae":"B","wings":"2","pattern":"X","legs":"X"},"bonus":1.260000000000001},{"rt":3514.1999999955297,"stimulus":"bees-with-color/bee-A2SF.svg","response":0,"trial_type":"image-button-response","trial_index":7,"time_elapsed":328732,"internal_node_id":"0.0-4.0-0.0","subject_id":"6047a1ebd7eb2504348db25d","study_id":"60edd13110225f80f9f3709b","session_id":"6196c1f6a6f8bcc5f454ebc0","condition":"contingent","relevant_dimensions":["antennae","wings"],"bee_group":{"antennae":"B","wings":"2","pattern":"X","legs":"X"},"action":"harvest","summary":"good-harvest","bonus":1.260000000000001},{"rt":7649.70000000298,"stimulus":"\n                    <p><b>Action: <em>harvest</em></b></p>\n                    <p>This is the bee that you just saw.</p>\n                    <img src=\"bees-with-color/bee-A2SF.svg\" width=\"200\">\n                    <p><span class=\"greenText\"><b>Successful harvest!</b></span><br>Your pay has increased by $0.02. Your bonus pay is now $0.56.</p>\n            ","response":0,"trial_type":"html-button-response","trial_index":8,"time_elapsed":336384,"internal_node_id":"0.0-4.0-1.0","subject_id":"6047a1ebd7eb2504348db25d","study_id":"60edd13110225f80f9f3709b","session_id":"6196c1f6a6f8bcc5f454ebc0","condition":"contingent","relevant_dimensions":["antennae","wings"],"bee_group":{"antennae":"B","wings":"2","pattern":"X","legs":"X"},"bonus":1.260000000000001},{"rt":4254.69999999553,"stimulus":"bees-with-color/bee-B1SM.svg","response":0,"trial_type":"image-button-response","trial_index":9,"time_elapsed":340641,"internal_node_id":"0.0-4.0-0.1","subject_id":"6047a1ebd7eb2504348db25d","study_id":"60edd13110225f80f9f3709b","session_id":"6196c1f6a6f8bcc5f454ebc0","condition":"contingent","relevant_dimensions":["antennae","wings"],"bee_group":{"antennae":"B","wings":"2","pattern":"X","legs":"X"},"action":"harvest","summary":"good-harvest","bonus":1.260000000000001},{"rt":3056.5,"stimulus":"\n                    <p><b>Action: <em>harvest</em></b></p>\n                    <p>This is the bee that you just saw.</p>\n                    <img src=\"bees-with-color/bee-B1SM.svg\" width=\"200\">\n                    <p><span class=\"greenText\"><b>Successful harvest!</b></span><br>Your pay has increased by $0.02. Your bonus pay is now $0.58.</p>\n            ","response":0,"trial_type":"html-button-response","trial_index":10,"time_elapsed":343700,"internal_node_id":"0.0-4.0-1.1","subject_id":"6047a1ebd7eb2504348db25d","study_id":"60edd13110225f80f9f3709b","session_id":"6196c1f6a6f8bcc5f454ebc0","condition":"contingent","relevant_dimensions":["antennae","wings"],"bee_group":{"antennae":"B","wings":"2","pattern":"X","legs":"X"},"bonus":1.260000000000001},{"rt":1489,"stimulus":"bees-with-color/bee-B2DF.svg","response":1,"trial_type":"image-button-response","trial_index":11,"time_elapsed":345191,"internal_node_id":"0.0-4.0-0.2","subject_id":"6047a1ebd7eb2504348db25d","study_id":"60edd13110225f80f9f3709b","session_id":"6196c1f6a6f8bcc5f454ebc0","condition":"contingent","relevant_dimensions":["antennae","wings"],"bee_group":{"antennae":"B","wings":"2","pattern":"X","legs":"X"},"action":"avoid","summary":"good-avoid","bonus":1.260000000000001},{"rt":7694,"stimulus":"\n                    <p><b>Action: <em>avoid</em></b></p>\n                    <p>This is the bee that you just saw.</p>\n                    <img src=\"bees-with-color/bee-B2DF.svg\" width=\"200\">\n                    <p><br>Your bonus pay is unchanged, and remains at $0.58.</p>\n            ","response":0,"trial_type":"html-button-response","trial_index":12,"time_elapsed":352887,"internal_node_id":"0.0-4.0-1.2","subject_id":"6047a1ebd7eb2504348db25d","study_id":"60edd13110225f80f9f3709b","session_id":"6196c1f6a6f8bcc5f454ebc0","condition":"contingent","relevant_dimensions":["antennae","wings"],"bee_group":{"antennae":"B","wings":"2","pattern":"X","legs":"X"},"bonus":1.260000000000001},{"rt":2700.60000000149,"stimulus":"bees-with-color/bee-B1SF.svg","response":1,"trial_type":"image-button-response","trial_index":13,"time_elapsed":355589,"internal_node_id":"0.0-4.0-0.3","subject_id":"6047a1ebd7eb2504348db25d","study_id":"60edd13110225f80f9f3709b","session_id":"6196c1f6a6f8bcc5f454ebc0","condition":"contingent","relevant_dimensions":["antennae","wings"],"bee_group":{"antennae":"B","wings":"2","pattern":"X","legs":"X"},"action":"avoid","summary":"bad-avoid","bonus":1.260000000000001},{"rt":1523.1000000014901,"stimulus":"\n                    <p><b>Action: <em>avoid</em></b></p>\n                    <p>This is the bee that you just saw.</p>\n                    <img src=\"bees-with-color/bee-B1SF.svg\" width=\"200\">\n                    <p><br>Your bonus pay is unchanged, and remains at $0.58.</p>\n            ","response":0,"trial_type":"html-button-response","trial_index":14,"time_elapsed":357114,"internal_node_id":"0.0-4.0-1.3","subject_id":"6047a1ebd7eb2504348db25d","study_id":"60edd13110225f80f9f3709b","session_id":"6196c1f6a6f8bcc5f454ebc0","condition":"contingent","relevant_dimensions":["antennae","wings"],"bee_group":{"antennae":"B","wings":"2","pattern":"X","legs":"X"},"bonus":1.260000000000001},{"rt":3395.1999999955297,"stimulus":"bees-with-color/bee-A2DM.svg","response":0,"trial_type":"image-button-response","trial_index":15,"time_elapsed":360511,"internal_node_id":"0.0-4.0-0.4","subject_id":"6047a1ebd7eb2504348db25d","study_id":"60edd13110225f80f9f3709b","session_id":"6196c1f6a6f8bcc5f454ebc0","condition":"contingent","relevant_dimensions":["antennae","wings"],"bee_group":{"antennae":"B","wings":"2","pattern":"X","legs":"X"},"action":"harvest","summary":"good-harvest","bonus":1.260000000000001},{"rt":1402.1999999955297,"stimulus":"\n                    <p><b>Action: <em>harvest</em></b></p>\n                    <p>This is the bee that you just saw.</p>\n                    <img src=\"bees-with-color/bee-A2DM.svg\" width=\"200\">\n                    <p><span class=\"greenText\"><b>Successful harvest!</b></span><br>Your pay has increased by $0.02. Your bonus pay is now $0.60.</p>\n            ","response":0,"trial_type":"html-button-response","trial_index":16,"time_elapsed":361915,"internal_node_id":"0.0-4.0-1.4","subject_id":"6047a1ebd7eb2504348db25d","study_id":"60edd13110225f80f9f3709b","session_id":"6196c1f6a6f8bcc5f454ebc0","condition":"contingent","relevant_dimensions":["antennae","wings"],"bee_group":{"antennae":"B","wings":"2","pattern":"X","legs":"X"},"bonus":1.260000000000001},{"rt":5045.19999999553,"stimulus":"bees-with-color/bee-B1DM.svg","response":1,"trial_type":"image-button-response","trial_index":17,"time_elapsed":366962,"internal_node_id":"0.0-4.0-0.5","subject_id":"6047a1ebd7eb2504348db25d","study_id":"60edd13110225f80f9f3709b","session_id":"6196c1f6a6f8bcc5f454ebc0","condition":"contingent","relevant_dimensions":["antennae","wings"],"bee_group":{"antennae":"B","wings":"2","pattern":"X","legs":"X"},"action":"avoid","summary":"bad-avoid","bonus":1.260000000000001},{"rt":1380.8000000044703,"stimulus":"\n                    <p><b>Action: <em>avoid</em></b></p>\n                    <p>This is the bee that you just saw.</p>\n                    <img src=\"bees-with-color/bee-B1DM.svg\" width=\"200\">\n                    <p><br>Your bonus pay is unchanged, and remains at $0.60.</p>\n            ","response":0,"trial_type":"html-button-response","trial_index":18,"time_elapsed":368345,"internal_node_id":"0.0-4.0-1.5","subject_id":"6047a1ebd7eb2504348db25d","study_id":"60edd13110225f80f9f3709b","session_id":"6196c1f6a6f8bcc5f454ebc0","condition":"contingent","relevant_dimensions":["antennae","wings"],"bee_group":{"antennae":"B","wings":"2","pattern":"X","legs":"X"},"bonus":1.260000000000001},{"rt":2907.39999999851,"stimulus":"bees-with-color/bee-A2SM.svg","response":0,"trial_type":"image-button-response","trial_index":19,"time_elapsed":371254,"internal_node_id":"0.0-4.0-0.6","subject_id":"6047a1ebd7eb2504348db25d","study_id":"60edd13110225f80f9f3709b","session_id":"6196c1f6a6f8bcc5f454ebc0","condition":"contingent","relevant_dimensions":["antennae","wings"],"bee_group":{"antennae":"B","wings":"2","pattern":"X","legs":"X"},"action":"harvest","summary":"good-harvest","bonus":1.260000000000001},{"rt":1441.3999999985099,"stimulus":"\n                    <p><b>Action: <em>harvest</em></b></p>\n                    <p>This is the bee that you just saw.</p>\n                    <img src=\"bees-with-color/bee-A2SM.svg\" width=\"200\">\n                    <p><span class=\"greenText\"><b>Successful harvest!</b></span><br>Your pay has increased by $0.02. Your bonus pay is now $0.62.</p>\n            ","response":0,"trial_type":"html-button-response","trial_index":20,"time_elapsed":372697,"internal_node_id":"0.0-4.0-1.6","subject_id":"6047a1ebd7eb2504348db25d","study_id":"60edd13110225f80f9f3709b","session_id":"6196c1f6a6f8bcc5f454ebc0","condition":"contingent","relevant_dimensions":["antennae","wings"],"bee_group":{"antennae":"B","wings":"2","pattern":"X","legs":"X"},"bonus":1.260000000000001},{"rt":3455.39999999851,"stimulus":"bees-with-color/bee-B2DM.svg","response":1,"trial_type":"image-button-response","trial_index":21,"time_elapsed":376154,"internal_node_id":"0.0-4.0-0.7","subject_id":"6047a1ebd7eb2504348db25d","study_id":"60edd13110225f80f9f3709b","session_id":"6196c1f6a6f8bcc5f454ebc0","condition":"contingent","relevant_dimensions":["antennae","wings"],"bee_group":{"antennae":"B","wings":"2","pattern":"X","legs":"X"},"action":"avoid","summary":"good-avoid","bonus":1.260000000000001},{"rt":1003.1999999955297,"stimulus":"\n                    <p><b>Action: <em>avoid</em></b></p>\n                    <p>This is the bee that you just saw.</p>\n                    <img src=\"bees-with-color/bee-B2DM.svg\" width=\"200\">\n                    <p><br>Your bonus pay is unchanged, and remains at $0.62.</p>\n            ","response":0,"trial_type":"html-button-response","trial_index":22,"time_elapsed":377159,"internal_node_id":"0.0-4.0-1.7","subject_id":"6047a1ebd7eb2504348db25d","study_id":"60edd13110225f80f9f3709b","session_id":"6196c1f6a6f8bcc5f454ebc0","condition":"contingent","relevant_dimensions":["antennae","wings"],"bee_group":{"antennae":"B","wings":"2","pattern":"X","legs":"X"},"bonus":1.260000000000001},{"rt":3008.8000000044703,"stimulus":"bees-with-color/bee-A2DF.svg","response":1,"trial_type":"image-button-response","trial_index":23,"time_elapsed":380170,"internal_node_id":"0.0-4.0-0.8","subject_id":"6047a1ebd7eb2504348db25d","study_id":"60edd13110225f80f9f3709b","session_id":"6196c1f6a6f8bcc5f454ebc0","condition":"contingent","relevant_dimensions":["antennae","wings"],"bee_group":{"antennae":"B","wings":"2","pattern":"X","legs":"X"},"action":"avoid","summary":"bad-avoid","bonus":1.260000000000001},{"rt":827.3999999985099,"stimulus":"\n                    <p><b>Action: <em>avoid</em></b></p>\n                    <p>This is the bee that you just saw.</p>\n                    <img src=\"bees-with-color/bee-A2DF.svg\" width=\"200\">\n                    <p><br>Your bonus pay is unchanged, and remains at $0.62.</p>\n            ","response":0,"trial_type":"html-button-response","trial_index":24,"time_elapsed":380999,"internal_node_id":"0.0-4.0-1.8","subject_id":"6047a1ebd7eb2504348db25d","study_id":"60edd13110225f80f9f3709b","session_id":"6196c1f6a6f8bcc5f454ebc0","condition":"contingent","relevant_dimensions":["antennae","wings"],"bee_group":{"antennae":"B","wings":"2","pattern":"X","legs":"X"},"bonus":1.260000000000001},{"rt":2584.2999999970198,"stimulus":"bees-with-color/bee-B2SF.svg","response":1,"trial_type":"image-button-response","trial_index":25,"time_elapsed":383585,"internal_node_id":"0.0-4.0-0.9","subject_id":"6047a1ebd7eb2504348db25d","study_id":"60edd13110225f80f9f3709b","session_id":"6196c1f6a6f8bcc5f454ebc0","condition":"contingent","relevant_dimensions":["antennae","wings"],"bee_group":{"antennae":"B","wings":"2","pattern":"X","legs":"X"},"action":"avoid","summary":"good-avoid","bonus":1.260000000000001},{"rt":923.2000000029802,"stimulus":"\n                    <p><b>Action: <em>avoid</em></b></p>\n                    <p>This is the bee that you just saw.</p>\n                    <img src=\"bees-with-color/bee-B2SF.svg\" width=\"200\">\n                    <p><br>Your bonus pay is unchanged, and remains at $0.62.</p>\n            ","response":0,"trial_type":"html-button-response","trial_index":26,"time_elapsed":384511,"internal_node_id":"0.0-4.0-1.9","subject_id":"6047a1ebd7eb2504348db25d","study_id":"60edd13110225f80f9f3709b","session_id":"6196c1f6a6f8bcc5f454ebc0","condition":"contingent","relevant_dimensions":["antennae","wings"],"bee_group":{"antennae":"B","wings":"2","pattern":"X","legs":"X"},"bonus":1.260000000000001},{"rt":1985.1000000014901,"stimulus":"bees-with-color/bee-A1SM.svg","response":0,"trial_type":"image-button-response","trial_index":27,"time_elapsed":386498,"internal_node_id":"0.0-4.0-0.10","subject_id":"6047a1ebd7eb2504348db25d","study_id":"60edd13110225f80f9f3709b","session_id":"6196c1f6a6f8bcc5f454ebc0","condition":"contingent","relevant_dimensions":["antennae","wings"],"bee_group":{"antennae":"B","wings":"2","pattern":"X","legs":"X"},"action":"harvest","summary":"good-harvest","bonus":1.260000000000001},{"rt":1059,"stimulus":"\n                    <p><b>Action: <em>harvest</em></b></p>\n                    <p>This is the bee that you just saw.</p>\n                    <img src=\"bees-with-color/bee-A1SM.svg\" width=\"200\">\n                    <p><span class=\"greenText\"><b>Successful harvest!</b></span><br>Your pay has increased by $0.02. Your bonus pay is now $0.64.</p>\n            ","response":0,"trial_type":"html-button-response","trial_index":28,"time_elapsed":387559,"internal_node_id":"0.0-4.0-1.10","subject_id":"6047a1ebd7eb2504348db25d","study_id":"60edd13110225f80f9f3709b","session_id":"6196c1f6a6f8bcc5f454ebc0","condition":"contingent","relevant_dimensions":["antennae","wings"],"bee_group":{"antennae":"B","wings":"2","pattern":"X","legs":"X"},"bonus":1.260000000000001},{"rt":1825,"stimulus":"bees-with-color/bee-B1DF.svg","response":1,"trial_type":"image-button-response","trial_index":29,"time_elapsed":389386,"internal_node_id":"0.0-4.0-0.11","subject_id":"6047a1ebd7eb2504348db25d","study_id":"60edd13110225f80f9f3709b","session_id":"6196c1f6a6f8bcc5f454ebc0","condition":"contingent","relevant_dimensions":["antennae","wings"],"bee_group":{"antennae":"B","wings":"2","pattern":"X","legs":"X"},"action":"avoid","summary":"bad-avoid","bonus":1.260000000000001},{"rt":943.8999999985099,"stimulus":"\n                    <p><b>Action: <em>avoid</em></b></p>\n                    <p>This is the bee that you just saw.</p>\n                    <img src=\"bees-with-color/bee-B1DF.svg\" width=\"200\">\n                    <p><br>Your bonus pay is unchanged, and remains at $0.64.</p>\n            ","response":0,"trial_type":"html-button-response","trial_index":30,"time_elapsed":390331,"internal_node_id":"0.0-4.0-1.11","subject_id":"6047a1ebd7eb2504348db25d","study_id":"60edd13110225f80f9f3709b","session_id":"6196c1f6a6f8bcc5f454ebc0","condition":"contingent","relevant_dimensions":["antennae","wings"],"bee_group":{"antennae":"B","wings":"2","pattern":"X","legs":"X"},"bonus":1.260000000000001},{"rt":1969.5,"stimulus":"bees-with-color/bee-A1DM.svg","response":0,"trial_type":"image-button-response","trial_index":31,"time_elapsed":392302,"internal_node_id":"0.0-4.0-0.12","subject_id":"6047a1ebd7eb2504348db25d","study_id":"60edd13110225f80f9f3709b","session_id":"6196c1f6a6f8bcc5f454ebc0","condition":"contingent","relevant_dimensions":["antennae","wings"],"bee_group":{"antennae":"B","wings":"2","pattern":"X","legs":"X"},"action":"harvest","summary":"good-harvest","bonus":1.260000000000001},{"rt":1780.1000000014901,"stimulus":"\n                    <p><b>Action: <em>harvest</em></b></p>\n                    <p>This is the bee that you just saw.</p>\n                    <img src=\"bees-with-color/bee-A1DM.svg\" width=\"200\">\n                    <p><span class=\"greenText\"><b>Successful harvest!</b></span><br>Your pay has increased by $0.02. Your bonus pay is now $0.66.</p>\n            ","response":0,"trial_type":"html-button-response","trial_index":32,"time_elapsed":394084,"internal_node_id":"0.0-4.0-1.12","subject_id":"6047a1ebd7eb2504348db25d","study_id":"60edd13110225f80f9f3709b","session_id":"6196c1f6a6f8bcc5f454ebc0","condition":"contingent","relevant_dimensions":["antennae","wings"],"bee_group":{"antennae":"B","wings":"2","pattern":"X","legs":"X"},"bonus":1.260000000000001},{"rt":2051.5,"stimulus":"bees-with-color/bee-A1DF.svg","response":1,"trial_type":"image-button-response","trial_index":33,"time_elapsed":396138,"internal_node_id":"0.0-4.0-0.13","subject_id":"6047a1ebd7eb2504348db25d","study_id":"60edd13110225f80f9f3709b","session_id":"6196c1f6a6f8bcc5f454ebc0","condition":"contingent","relevant_dimensions":["antennae","wings"],"bee_group":{"antennae":"B","wings":"2","pattern":"X","legs":"X"},"action":"avoid","summary":"bad-avoid","bonus":1.260000000000001},{"rt":974.8999999985099,"stimulus":"\n                    <p><b>Action: <em>avoid</em></b></p>\n                    <p>This is the bee that you just saw.</p>\n                    <img src=\"bees-with-color/bee-A1DF.svg\" width=\"200\">\n                    <p><br>Your bonus pay is unchanged, and remains at $0.66.</p>\n            ","response":0,"trial_type":"html-button-response","trial_index":34,"time_elapsed":397114,"internal_node_id":"0.0-4.0-1.13","subject_id":"6047a1ebd7eb2504348db25d","study_id":"60edd13110225f80f9f3709b","session_id":"6196c1f6a6f8bcc5f454ebc0","condition":"contingent","relevant_dimensions":["antennae","wings"],"bee_group":{"antennae":"B","wings":"2","pattern":"X","legs":"X"},"bonus":1.260000000000001},{"rt":1731.5,"stimulus":"bees-with-color/bee-A1SF.svg","response":1,"trial_type":"image-button-response","trial_index":35,"time_elapsed":398847,"internal_node_id":"0.0-4.0-0.14","subject_id":"6047a1ebd7eb2504348db25d","study_id":"60edd13110225f80f9f3709b","session_id":"6196c1f6a6f8bcc5f454ebc0","condition":"contingent","relevant_dimensions":["antennae","wings"],"bee_group":{"antennae":"B","wings":"2","pattern":"X","legs":"X"},"action":"avoid","summary":"bad-avoid","bonus":1.260000000000001},{"rt":507.6000000014901,"stimulus":"\n                    <p><b>Action: <em>avoid</em></b></p>\n                    <p>This is the bee that you just saw.</p>\n                    <img src=\"bees-with-color/bee-A1SF.svg\" width=\"200\">\n                    <p><br>Your bonus pay is unchanged, and remains at $0.66.</p>\n            ","response":0,"trial_type":"html-button-response","trial_index":36,"time_elapsed":399356,"internal_node_id":"0.0-4.0-1.14","subject_id":"6047a1ebd7eb2504348db25d","study_id":"60edd13110225f80f9f3709b","session_id":"6196c1f6a6f8bcc5f454ebc0","condition":"contingent","relevant_dimensions":["antennae","wings"],"bee_group":{"antennae":"B","wings":"2","pattern":"X","legs":"X"},"bonus":1.260000000000001},{"rt":1788.6000000014901,"stimulus":"bees-with-color/bee-B2SM.svg","response":0,"trial_type":"image-button-response","trial_index":37,"time_elapsed":401146,"internal_node_id":"0.0-4.0-0.15","subject_id":"6047a1ebd7eb2504348db25d","study_id":"60edd13110225f80f9f3709b","session_id":"6196c1f6a6f8bcc5f454ebc0","condition":"contingent","relevant_dimensions":["antennae","wings"],"bee_group":{"antennae":"B","wings":"2","pattern":"X","legs":"X"},"action":"harvest","summary":"bad-harvest","bonus":1.260000000000001},{"rt":3101.1999999955297,"stimulus":"\n                    <p><b>Action: <em>harvest</em></b></p>\n                    <p>This is the bee that you just saw.</p>\n                    <img src=\"bees-with-color/bee-B2SM.svg\" width=\"200\">\n                    <p><span class=\"redText\">Bad choice, the bee was angry.</span><br><b>You have been stung!</b><br>Your pay has been decreased by $0.10. Your bonus pay is now $0.56.</p>\n            ","response":0,"trial_type":"html-button-response","trial_index":38,"time_elapsed":404249,"internal_node_id":"0.0-4.0-1.15","subject_id":"6047a1ebd7eb2504348db25d","study_id":"60edd13110225f80f9f3709b","session_id":"6196c1f6a6f8bcc5f454ebc0","condition":"contingent","relevant_dimensions":["antennae","wings"],"bee_group":{"antennae":"B","wings":"2","pattern":"X","legs":"X"},"bonus":1.260000000000001},{"rt":5103.60000000149,"stimulus":"bees-with-color/bee-B2DM.svg","response":0,"trial_type":"image-button-response","trial_index":39,"time_elapsed":409354,"internal_node_id":"0.0-4.0-0.16","subject_id":"6047a1ebd7eb2504348db25d","study_id":"60edd13110225f80f9f3709b","session_id":"6196c1f6a6f8bcc5f454ebc0","condition":"contingent","relevant_dimensions":["antennae","wings"],"bee_group":{"antennae":"B","wings":"2","pattern":"X","legs":"X"},"action":"harvest","summary":"bad-harvest","bonus":1.260000000000001},{"rt":921.1999999955297,"stimulus":"\n                    <p><b>Action: <em>harvest</em></b></p>\n                    <p>This is the bee that you just saw.</p>\n                    <img src=\"bees-with-color/bee-B2DM.svg\" width=\"200\">\n                    <p><span class=\"redText\">Bad choice, the bee was angry.</span><br><b>You have been stung!</b><br>Your pay has been decreased by $0.10. Your bonus pay is now $0.46.</p>\n            ","response":0,"trial_type":"html-button-response","trial_index":40,"time_elapsed":410277,"internal_node_id":"0.0-4.0-1.16","subject_id":"6047a1ebd7eb2504348db25d","study_id":"60edd13110225f80f9f3709b","session_id":"6196c1f6a6f8bcc5f454ebc0","condition":"contingent","relevant_dimensions":["antennae","wings"],"bee_group":{"antennae":"B","wings":"2","pattern":"X","legs":"X"},"bonus":1.260000000000001},{"rt":1300.5,"stimulus":"bees-with-color/bee-A2SM.svg","response":0,"trial_type":"image-button-response","trial_index":41,"time_elapsed":411580,"internal_node_id":"0.0-4.0-0.17","subject_id":"6047a1ebd7eb2504348db25d","study_id":"60edd13110225f80f9f3709b","session_id":"6196c1f6a6f8bcc5f454ebc0","condition":"contingent","relevant_dimensions":["antennae","wings"],"bee_group":{"antennae":"B","wings":"2","pattern":"X","legs":"X"},"action":"harvest","summary":"good-harvest","bonus":1.260000000000001},{"rt":715.7999999970198,"stimulus":"\n                    <p><b>Action: <em>harvest</em></b></p>\n                    <p>This is the bee that you just saw.</p>\n                    <img src=\"bees-with-color/bee-A2SM.svg\" width=\"200\">\n                    <p><span class=\"greenText\"><b>Successful harvest!</b></span><br>Your pay has increased by $0.02. Your bonus pay is now $0.48.</p>\n            ","response":0,"trial_type":"html-button-response","trial_index":42,"time_elapsed":412298,"internal_node_id":"0.0-4.0-1.17","subject_id":"6047a1ebd7eb2504348db25d","study_id":"60edd13110225f80f9f3709b","session_id":"6196c1f6a6f8bcc5f454ebc0","condition":"contingent","relevant_dimensions":["antennae","wings"],"bee_group":{"antennae":"B","wings":"2","pattern":"X","legs":"X"},"bonus":1.260000000000001},{"rt":1658.6999999955297,"stimulus":"bees-with-color/bee-A1DF.svg","response":0,"trial_type":"image-button-response","trial_index":43,"time_elapsed":413957,"internal_node_id":"0.0-4.0-0.18","subject_id":"6047a1ebd7eb2504348db25d","study_id":"60edd13110225f80f9f3709b","session_id":"6196c1f6a6f8bcc5f454ebc0","condition":"contingent","relevant_dimensions":["antennae","wings"],"bee_group":{"antennae":"B","wings":"2","pattern":"X","legs":"X"},"action":"harvest","summary":"good-harvest","bonus":1.260000000000001},{"rt":842.1999999955297,"stimulus":"\n                    <p><b>Action: <em>harvest</em></b></p>\n                    <p>This is the bee that you just saw.</p>\n                    <img src=\"bees-with-color/bee-A1DF.svg\" width=\"200\">\n                    <p><span class=\"greenText\"><b>Successful harvest!</b></span><br>Your pay has increased by $0.02. Your bonus pay is now $0.50.</p>\n            ","response":0,"trial_type":"html-button-response","trial_index":44,"time_elapsed":414801,"internal_node_id":"0.0-4.0-1.18","subject_id":"6047a1ebd7eb2504348db25d","study_id":"60edd13110225f80f9f3709b","session_id":"6196c1f6a6f8bcc5f454ebc0","condition":"contingent","relevant_dimensions":["antennae","wings"],"bee_group":{"antennae":"B","wings":"2","pattern":"X","legs":"X"},"bonus":1.260000000000001},{"rt":1191.5,"stimulus":"bees-with-color/bee-A2SF.svg","response":0,"trial_type":"image-button-response","trial_index":45,"time_elapsed":415994,"internal_node_id":"0.0-4.0-0.19","subject_id":"6047a1ebd7eb2504348db25d","study_id":"60edd13110225f80f9f3709b","session_id":"6196c1f6a6f8bcc5f454ebc0","condition":"contingent","relevant_dimensions":["antennae","wings"],"bee_group":{"antennae":"B","wings":"2","pattern":"X","legs":"X"},"action":"harvest","summary":"good-harvest","bonus":1.260000000000001},{"rt":877.6000000014901,"stimulus":"\n                    <p><b>Action: <em>harvest</em></b></p>\n                    <p>This is the bee that you just saw.</p>\n                    <img src=\"bees-with-color/bee-A2SF.svg\" width=\"200\">\n                    <p><span class=\"greenText\"><b>Successful harvest!</b></span><br>Your pay has increased by $0.02. Your bonus pay is now $0.52.</p>\n            ","response":0,"trial_type":"html-button-response","trial_index":46,"time_elapsed":416874,"internal_node_id":"0.0-4.0-1.19","subject_id":"6047a1ebd7eb2504348db25d","study_id":"60edd13110225f80f9f3709b","session_id":"6196c1f6a6f8bcc5f454ebc0","condition":"contingent","relevant_dimensions":["antennae","wings"],"bee_group":{"antennae":"B","wings":"2","pattern":"X","legs":"X"},"bonus":1.260000000000001},{"rt":972.3999999985099,"stimulus":"bees-with-color/bee-B1SF.svg","response":1,"trial_type":"image-button-response","trial_index":47,"time_elapsed":417848,"internal_node_id":"0.0-4.0-0.20","subject_id":"6047a1ebd7eb2504348db25d","study_id":"60edd13110225f80f9f3709b","session_id":"6196c1f6a6f8bcc5f454ebc0","condition":"contingent","relevant_dimensions":["antennae","wings"],"bee_group":{"antennae":"B","wings":"2","pattern":"X","legs":"X"},"action":"avoid","summary":"bad-avoid","bonus":1.260000000000001},{"rt":605.2999999970198,"stimulus":"\n                    <p><b>Action: <em>avoid</em></b></p>\n                    <p>This is the bee that you just saw.</p>\n                    <img src=\"bees-with-color/bee-B1SF.svg\" width=\"200\">\n                    <p><br>Your bonus pay is unchanged, and remains at $0.52.</p>\n            ","response":0,"trial_type":"html-button-response","trial_index":48,"time_elapsed":418455,"internal_node_id":"0.0-4.0-1.20","subject_id":"6047a1ebd7eb2504348db25d","study_id":"60edd13110225f80f9f3709b","session_id":"6196c1f6a6f8bcc5f454ebc0","condition":"contingent","relevant_dimensions":["antennae","wings"],"bee_group":{"antennae":"B","wings":"2","pattern":"X","legs":"X"},"bonus":1.260000000000001},{"rt":919.5,"stimulus":"bees-with-color/bee-B2SF.svg","response":1,"trial_type":"image-button-response","trial_index":49,"time_elapsed":419376,"internal_node_id":"0.0-4.0-0.21","subject_id":"6047a1ebd7eb2504348db25d","study_id":"60edd13110225f80f9f3709b","session_id":"6196c1f6a6f8bcc5f454ebc0","condition":"contingent","relevant_dimensions":["antennae","wings"],"bee_group":{"antennae":"B","wings":"2","pattern":"X","legs":"X"},"action":"avoid","summary":"good-avoid","bonus":1.260000000000001},{"rt":882,"stimulus":"\n                    <p><b>Action: <em>avoid</em></b></p>\n                    <p>This is the bee that you just saw.</p>\n                    <img src=\"bees-with-color/bee-B2SF.svg\" width=\"200\">\n                    <p><br>Your bonus pay is unchanged, and remains at $0.52.</p>\n            ","response":0,"trial_type":"html-button-response","trial_index":50,"time_elapsed":420260,"internal_node_id":"0.0-4.0-1.21","subject_id":"6047a1ebd7eb2504348db25d","study_id":"60edd13110225f80f9f3709b","session_id":"6196c1f6a6f8bcc5f454ebc0","condition":"contingent","relevant_dimensions":["antennae","wings"],"bee_group":{"antennae":"B","wings":"2","pattern":"X","legs":"X"},"bonus":1.260000000000001},{"rt":1700.3999999985099,"stimulus":"bees-with-color/bee-B1SM.svg","response":1,"trial_type":"image-button-response","trial_index":51,"time_elapsed":421961,"internal_node_id":"0.0-4.0-0.22","subject_id":"6047a1ebd7eb2504348db25d","study_id":"60edd13110225f80f9f3709b","session_id":"6196c1f6a6f8bcc5f454ebc0","condition":"contingent","relevant_dimensions":["antennae","wings"],"bee_group":{"antennae":"B","wings":"2","pattern":"X","legs":"X"},"action":"avoid","summary":"bad-avoid","bonus":1.260000000000001},{"rt":419.8999999985099,"stimulus":"\n                    <p><b>Action: <em>avoid</em></b></p>\n                    <p>This is the bee that you just saw.</p>\n                    <img src=\"bees-with-color/bee-B1SM.svg\" width=\"200\">\n                    <p><br>Your bonus pay is unchanged, and remains at $0.52.</p>\n            ","response":0,"trial_type":"html-button-response","trial_index":52,"time_elapsed":422383,"internal_node_id":"0.0-4.0-1.22","subject_id":"6047a1ebd7eb2504348db25d","study_id":"60edd13110225f80f9f3709b","session_id":"6196c1f6a6f8bcc5f454ebc0","condition":"contingent","relevant_dimensions":["antennae","wings"],"bee_group":{"antennae":"B","wings":"2","pattern":"X","legs":"X"},"bonus":1.260000000000001},{"rt":806.7999999970198,"stimulus":"bees-with-color/bee-A2DM.svg","response":0,"trial_type":"image-button-response","trial_index":53,"time_elapsed":423191,"internal_node_id":"0.0-4.0-0.23","subject_id":"6047a1ebd7eb2504348db25d","study_id":"60edd13110225f80f9f3709b","session_id":"6196c1f6a6f8bcc5f454ebc0","condition":"contingent","relevant_dimensions":["antennae","wings"],"bee_group":{"antennae":"B","wings":"2","pattern":"X","legs":"X"},"action":"harvest","summary":"good-harvest","bonus":1.260000000000001},{"rt":796.1000000014901,"stimulus":"\n                    <p><b>Action: <em>harvest</em></b></p>\n                    <p>This is the bee that you just saw.</p>\n                    <img src=\"bees-with-color/bee-A2DM.svg\" width=\"200\">\n                    <p><span class=\"greenText\"><b>Successful harvest!</b></span><br>Your pay has increased by $0.02. Your bonus pay is now $0.54.</p>\n            ","response":0,"trial_type":"html-button-response","trial_index":54,"time_elapsed":423990,"internal_node_id":"0.0-4.0-1.23","subject_id":"6047a1ebd7eb2504348db25d","study_id":"60edd13110225f80f9f3709b","session_id":"6196c1f6a6f8bcc5f454ebc0","condition":"contingent","relevant_dimensions":["antennae","wings"],"bee_group":{"antennae":"B","wings":"2","pattern":"X","legs":"X"},"bonus":1.260000000000001},{"rt":1070.7000000029802,"stimulus":"bees-with-color/bee-A1DM.svg","response":0,"trial_type":"image-button-response","trial_index":55,"time_elapsed":425061,"internal_node_id":"0.0-4.0-0.24","subject_id":"6047a1ebd7eb2504348db25d","study_id":"60edd13110225f80f9f3709b","session_id":"6196c1f6a6f8bcc5f454ebc0","condition":"contingent","relevant_dimensions":["antennae","wings"],"bee_group":{"antennae":"B","wings":"2","pattern":"X","legs":"X"},"action":"harvest","summary":"good-harvest","bonus":1.260000000000001},{"rt":680.3999999985099,"stimulus":"\n                    <p><b>Action: <em>harvest</em></b></p>\n                    <p>This is the bee that you just saw.</p>\n                    <img src=\"bees-with-color/bee-A1DM.svg\" width=\"200\">\n                    <p><span class=\"greenText\"><b>Successful harvest!</b></span><br>Your pay has increased by $0.02. Your bonus pay is now $0.56.</p>\n            ","response":0,"trial_type":"html-button-response","trial_index":56,"time_elapsed":425743,"internal_node_id":"0.0-4.0-1.24","subject_id":"6047a1ebd7eb2504348db25d","study_id":"60edd13110225f80f9f3709b","session_id":"6196c1f6a6f8bcc5f454ebc0","condition":"contingent","relevant_dimensions":["antennae","wings"],"bee_group":{"antennae":"B","wings":"2","pattern":"X","legs":"X"},"bonus":1.260000000000001},{"rt":1232.8999999985099,"stimulus":"bees-with-color/bee-A1SM.svg","response":0,"trial_type":"image-button-response","trial_index":57,"time_elapsed":426978,"internal_node_id":"0.0-4.0-0.25","subject_id":"6047a1ebd7eb2504348db25d","study_id":"60edd13110225f80f9f3709b","session_id":"6196c1f6a6f8bcc5f454ebc0","condition":"contingent","relevant_dimensions":["antennae","wings"],"bee_group":{"antennae":"B","wings":"2","pattern":"X","legs":"X"},"action":"harvest","summary":"good-harvest","bonus":1.260000000000001},{"rt":637,"stimulus":"\n                    <p><b>Action: <em>harvest</em></b></p>\n                    <p>This is the bee that you just saw.</p>\n                    <img src=\"bees-with-color/bee-A1SM.svg\" width=\"200\">\n                    <p><span class=\"greenText\"><b>Successful harvest!</b></span><br>Your pay has increased by $0.02. Your bonus pay is now $0.58.</p>\n            ","response":0,"trial_type":"html-button-response","trial_index":58,"time_elapsed":427616,"internal_node_id":"0.0-4.0-1.25","subject_id":"6047a1ebd7eb2504348db25d","study_id":"60edd13110225f80f9f3709b","session_id":"6196c1f6a6f8bcc5f454ebc0","condition":"contingent","relevant_dimensions":["antennae","wings"],"bee_group":{"antennae":"B","wings":"2","pattern":"X","legs":"X"},"bonus":1.260000000000001},{"rt":1166.8999999985099,"stimulus":"bees-with-color/bee-B2SM.svg","response":1,"trial_type":"image-button-response","trial_index":59,"time_elapsed":428785,"internal_node_id":"0.0-4.0-0.26","subject_id":"6047a1ebd7eb2504348db25d","study_id":"60edd13110225f80f9f3709b","session_id":"6196c1f6a6f8bcc5f454ebc0","condition":"contingent","relevant_dimensions":["antennae","wings"],"bee_group":{"antennae":"B","wings":"2","pattern":"X","legs":"X"},"action":"avoid","summary":"good-avoid","bonus":1.260000000000001},{"rt":506.70000000298023,"stimulus":"\n                    <p><b>Action: <em>avoid</em></b></p>\n                    <p>This is the bee that you just saw.</p>\n                    <img src=\"bees-with-color/bee-B2SM.svg\" width=\"200\">\n                    <p><br>Your bonus pay is unchanged, and remains at $0.58.</p>\n            ","response":0,"trial_type":"html-button-response","trial_index":60,"time_elapsed":429293,"internal_node_id":"0.0-4.0-1.26","subject_id":"6047a1ebd7eb2504348db25d","study_id":"60edd13110225f80f9f3709b","session_id":"6196c1f6a6f8bcc5f454ebc0","condition":"contingent","relevant_dimensions":["antennae","wings"],"bee_group":{"antennae":"B","wings":"2","pattern":"X","legs":"X"},"bonus":1.260000000000001},{"rt":1138.2000000029802,"stimulus":"bees-with-color/bee-A1SF.svg","response":0,"trial_type":"image-button-response","trial_index":61,"time_elapsed":430433,"internal_node_id":"0.0-4.0-0.27","subject_id":"6047a1ebd7eb2504348db25d","study_id":"60edd13110225f80f9f3709b","session_id":"6196c1f6a6f8bcc5f454ebc0","condition":"contingent","relevant_dimensions":["antennae","wings"],"bee_group":{"antennae":"B","wings":"2","pattern":"X","legs":"X"},"action":"harvest","summary":"good-harvest","bonus":1.260000000000001},{"rt":638.3999999985099,"stimulus":"\n                    <p><b>Action: <em>harvest</em></b></p>\n                    <p>This is the bee that you just saw.</p>\n                    <img src=\"bees-with-color/bee-A1SF.svg\" width=\"200\">\n                    <p><span class=\"greenText\"><b>Successful harvest!</b></span><br>Your pay has increased by $0.02. Your bonus pay is now $0.60.</p>\n            ","response":0,"trial_type":"html-button-response","trial_index":62,"time_elapsed":431073,"internal_node_id":"0.0-4.0-1.27","subject_id":"6047a1ebd7eb2504348db25d","study_id":"60edd13110225f80f9f3709b","session_id":"6196c1f6a6f8bcc5f454ebc0","condition":"contingent","relevant_dimensions":["antennae","wings"],"bee_group":{"antennae":"B","wings":"2","pattern":"X","legs":"X"},"bonus":1.260000000000001},{"rt":892.1999999955297,"stimulus":"bees-with-color/bee-B1DF.svg","response":1,"trial_type":"image-button-response","trial_index":63,"time_elapsed":431966,"internal_node_id":"0.0-4.0-0.28","subject_id":"6047a1ebd7eb2504348db25d","study_id":"60edd13110225f80f9f3709b","session_id":"6196c1f6a6f8bcc5f454ebc0","condition":"contingent","relevant_dimensions":["antennae","wings"],"bee_group":{"antennae":"B","wings":"2","pattern":"X","legs":"X"},"action":"avoid","summary":"bad-avoid","bonus":1.260000000000001},{"rt":474.20000000298023,"stimulus":"\n                    <p><b>Action: <em>avoid</em></b></p>\n                    <p>This is the bee that you just saw.</p>\n                    <img src=\"bees-with-color/bee-B1DF.svg\" width=\"200\">\n                    <p><br>Your bonus pay is unchanged, and remains at $0.60.</p>\n            ","response":0,"trial_type":"html-button-response","trial_index":64,"time_elapsed":432443,"internal_node_id":"0.0-4.0-1.28","subject_id":"6047a1ebd7eb2504348db25d","study_id":"60edd13110225f80f9f3709b","session_id":"6196c1f6a6f8bcc5f454ebc0","condition":"contingent","relevant_dimensions":["antennae","wings"],"bee_group":{"antennae":"B","wings":"2","pattern":"X","legs":"X"},"bonus":1.260000000000001},{"rt":1480.5,"stimulus":"bees-with-color/bee-A2DF.svg","response":0,"trial_type":"image-button-response","trial_index":65,"time_elapsed":433925,"internal_node_id":"0.0-4.0-0.29","subject_id":"6047a1ebd7eb2504348db25d","study_id":"60edd13110225f80f9f3709b","session_id":"6196c1f6a6f8bcc5f454ebc0","condition":"contingent","relevant_dimensions":["antennae","wings"],"bee_group":{"antennae":"B","wings":"2","pattern":"X","legs":"X"},"action":"harvest","summary":"good-harvest","bonus":1.260000000000001},{"rt":700.1999999955297,"stimulus":"\n                    <p><b>Action: <em>harvest</em></b></p>\n                    <p>This is the bee that you just saw.</p>\n                    <img src=\"bees-with-color/bee-A2DF.svg\" width=\"200\">\n                    <p><span class=\"greenText\"><b>Successful harvest!</b></span><br>Your pay has increased by $0.02. Your bonus pay is now $0.62.</p>\n            ","response":0,"trial_type":"html-button-response","trial_index":66,"time_elapsed":434627,"internal_node_id":"0.0-4.0-1.29","subject_id":"6047a1ebd7eb2504348db25d","study_id":"60edd13110225f80f9f3709b","session_id":"6196c1f6a6f8bcc5f454ebc0","condition":"contingent","relevant_dimensions":["antennae","wings"],"bee_group":{"antennae":"B","wings":"2","pattern":"X","legs":"X"},"bonus":1.260000000000001},{"rt":856.6000000014901,"stimulus":"bees-with-color/bee-B2DF.svg","response":1,"trial_type":"image-button-response","trial_index":67,"time_elapsed":435485,"internal_node_id":"0.0-4.0-0.30","subject_id":"6047a1ebd7eb2504348db25d","study_id":"60edd13110225f80f9f3709b","session_id":"6196c1f6a6f8bcc5f454ebc0","condition":"contingent","relevant_dimensions":["antennae","wings"],"bee_group":{"antennae":"B","wings":"2","pattern":"X","legs":"X"},"action":"avoid","summary":"good-avoid","bonus":1.260000000000001},{"rt":422,"stimulus":"\n                    <p><b>Action: <em>avoid</em></b></p>\n                    <p>This is the bee that you just saw.</p>\n                    <img src=\"bees-with-color/bee-B2DF.svg\" width=\"200\">\n                    <p><br>Your bonus pay is unchanged, and remains at $0.62.</p>\n            ","response":0,"trial_type":"html-button-response","trial_index":68,"time_elapsed":435908,"internal_node_id":"0.0-4.0-1.30","subject_id":"6047a1ebd7eb2504348db25d","study_id":"60edd13110225f80f9f3709b","session_id":"6196c1f6a6f8bcc5f454ebc0","condition":"contingent","relevant_dimensions":["antennae","wings"],"bee_group":{"antennae":"B","wings":"2","pattern":"X","legs":"X"},"bonus":1.260000000000001},{"rt":766.7999999970198,"stimulus":"bees-with-color/bee-B1DM.svg","response":1,"trial_type":"image-button-response","trial_index":69,"time_elapsed":436677,"internal_node_id":"0.0-4.0-0.31","subject_id":"6047a1ebd7eb2504348db25d","study_id":"60edd13110225f80f9f3709b","session_id":"6196c1f6a6f8bcc5f454ebc0","condition":"contingent","relevant_dimensions":["antennae","wings"],"bee_group":{"antennae":"B","wings":"2","pattern":"X","legs":"X"},"action":"avoid","summary":"bad-avoid","bonus":1.260000000000001},{"rt":394.8999999985099,"stimulus":"\n                    <p><b>Action: <em>avoid</em></b></p>\n                    <p>This is the bee that you just saw.</p>\n                    <img src=\"bees-with-color/bee-B1DM.svg\" width=\"200\">\n                    <p><br>Your bonus pay is unchanged, and remains at $0.62.</p>\n            ","response":0,"trial_type":"html-button-response","trial_index":70,"time_elapsed":437073,"internal_node_id":"0.0-4.0-1.31","subject_id":"6047a1ebd7eb2504348db25d","study_id":"60edd13110225f80f9f3709b","session_id":"6196c1f6a6f8bcc5f454ebc0","condition":"contingent","relevant_dimensions":["antennae","wings"],"bee_group":{"antennae":"B","wings":"2","pattern":"X","legs":"X"},"bonus":1.260000000000001},{"rt":729.6000000014901,"stimulus":"bees-with-color/bee-A1SM.svg","response":0,"trial_type":"image-button-response","trial_index":71,"time_elapsed":437804,"internal_node_id":"0.0-4.0-0.32","subject_id":"6047a1ebd7eb2504348db25d","study_id":"60edd13110225f80f9f3709b","session_id":"6196c1f6a6f8bcc5f454ebc0","condition":"contingent","relevant_dimensions":["antennae","wings"],"bee_group":{"antennae":"B","wings":"2","pattern":"X","legs":"X"},"action":"harvest","summary":"good-harvest","bonus":1.260000000000001},{"rt":447.5,"stimulus":"\n                    <p><b>Action: <em>harvest</em></b></p>\n                    <p>This is the bee that you just saw.</p>\n                    <img src=\"bees-with-color/bee-A1SM.svg\" width=\"200\">\n                    <p><span class=\"greenText\"><b>Successful harvest!</b></span><br>Your pay has increased by $0.02. Your bonus pay is now $0.64.</p>\n            ","response":0,"trial_type":"html-button-response","trial_index":72,"time_elapsed":438253,"internal_node_id":"0.0-4.0-1.32","subject_id":"6047a1ebd7eb2504348db25d","study_id":"60edd13110225f80f9f3709b","session_id":"6196c1f6a6f8bcc5f454ebc0","condition":"contingent","relevant_dimensions":["antennae","wings"],"bee_group":{"antennae":"B","wings":"2","pattern":"X","legs":"X"},"bonus":1.260000000000001},{"rt":1360.3999999985099,"stimulus":"bees-with-color/bee-A2SF.svg","response":0,"trial_type":"image-button-response","trial_index":73,"time_elapsed":439615,"internal_node_id":"0.0-4.0-0.33","subject_id":"6047a1ebd7eb2504348db25d","study_id":"60edd13110225f80f9f3709b","session_id":"6196c1f6a6f8bcc5f454ebc0","condition":"contingent","relevant_dimensions":["antennae","wings"],"bee_group":{"antennae":"B","wings":"2","pattern":"X","legs":"X"},"action":"harvest","summary":"good-harvest","bonus":1.260000000000001},{"rt":387.5,"stimulus":"\n                    <p><b>Action: <em>harvest</em></b></p>\n                    <p>This is the bee that you just saw.</p>\n                    <img src=\"bees-with-color/bee-A2SF.svg\" width=\"200\">\n                    <p><span class=\"greenText\"><b>Successful harvest!</b></span><br>Your pay has increased by $0.02. Your bonus pay is now $0.66.</p>\n            ","response":0,"trial_type":"html-button-response","trial_index":74,"time_elapsed":440004,"internal_node_id":"0.0-4.0-1.33","subject_id":"6047a1ebd7eb2504348db25d","study_id":"60edd13110225f80f9f3709b","session_id":"6196c1f6a6f8bcc5f454ebc0","condition":"contingent","relevant_dimensions":["antennae","wings"],"bee_group":{"antennae":"B","wings":"2","pattern":"X","legs":"X"},"bonus":1.260000000000001},{"rt":1181.7000000029802,"stimulus":"bees-with-color/bee-A1DM.svg","response":0,"trial_type":"image-button-response","trial_index":75,"time_elapsed":441188,"internal_node_id":"0.0-4.0-0.34","subject_id":"6047a1ebd7eb2504348db25d","study_id":"60edd13110225f80f9f3709b","session_id":"6196c1f6a6f8bcc5f454ebc0","condition":"contingent","relevant_dimensions":["antennae","wings"],"bee_group":{"antennae":"B","wings":"2","pattern":"X","legs":"X"},"action":"harvest","summary":"good-harvest","bonus":1.260000000000001},{"rt":436.29999999701977,"stimulus":"\n                    <p><b>Action: <em>harvest</em></b></p>\n                    <p>This is the bee that you just saw.</p>\n                    <img src=\"bees-with-color/bee-A1DM.svg\" width=\"200\">\n                    <p><span class=\"greenText\"><b>Successful harvest!</b></span><br>Your pay has increased by $0.02. Your bonus pay is now $0.68.</p>\n            ","response":0,"trial_type":"html-button-response","trial_index":76,"time_elapsed":441626,"internal_node_id":"0.0-4.0-1.34","subject_id":"6047a1ebd7eb2504348db25d","study_id":"60edd13110225f80f9f3709b","session_id":"6196c1f6a6f8bcc5f454ebc0","condition":"contingent","relevant_dimensions":["antennae","wings"],"bee_group":{"antennae":"B","wings":"2","pattern":"X","legs":"X"},"bonus":1.260000000000001},{"rt":1083.7000000029802,"stimulus":"bees-with-color/bee-B1DM.svg","response":1,"trial_type":"image-button-response","trial_index":77,"time_elapsed":442711,"internal_node_id":"0.0-4.0-0.35","subject_id":"6047a1ebd7eb2504348db25d","study_id":"60edd13110225f80f9f3709b","session_id":"6196c1f6a6f8bcc5f454ebc0","condition":"contingent","relevant_dimensions":["antennae","wings"],"bee_group":{"antennae":"B","wings":"2","pattern":"X","legs":"X"},"action":"avoid","summary":"bad-avoid","bonus":1.260000000000001},{"rt":378.1000000014901,"stimulus":"\n                    <p><b>Action: <em>avoid</em></b></p>\n                    <p>This is the bee that you just saw.</p>\n                    <img src=\"bees-with-color/bee-B1DM.svg\" width=\"200\">\n                    <p><br>Your bonus pay is unchanged, and remains at $0.68.</p>\n            ","response":0,"trial_type":"html-button-response","trial_index":78,"time_elapsed":443091,"internal_node_id":"0.0-4.0-1.35","subject_id":"6047a1ebd7eb2504348db25d","study_id":"60edd13110225f80f9f3709b","session_id":"6196c1f6a6f8bcc5f454ebc0","condition":"contingent","relevant_dimensions":["antennae","wings"],"bee_group":{"antennae":"B","wings":"2","pattern":"X","legs":"X"},"bonus":1.260000000000001},{"rt":734.7999999970198,"stimulus":"bees-with-color/bee-B2DM.svg","response":1,"trial_type":"image-button-response","trial_index":79,"time_elapsed":443827,"internal_node_id":"0.0-4.0-0.36","subject_id":"6047a1ebd7eb2504348db25d","study_id":"60edd13110225f80f9f3709b","session_id":"6196c1f6a6f8bcc5f454ebc0","condition":"contingent","relevant_dimensions":["antennae","wings"],"bee_group":{"antennae":"B","wings":"2","pattern":"X","legs":"X"},"action":"avoid","summary":"good-avoid","bonus":1.260000000000001},{"rt":323.3999999985099,"stimulus":"\n                    <p><b>Action: <em>avoid</em></b></p>\n                    <p>This is the bee that you just saw.</p>\n                    <img src=\"bees-with-color/bee-B2DM.svg\" width=\"200\">\n                    <p><br>Your bonus pay is unchanged, and remains at $0.68.</p>\n            ","response":0,"trial_type":"html-button-response","trial_index":80,"time_elapsed":444152,"internal_node_id":"0.0-4.0-1.36","subject_id":"6047a1ebd7eb2504348db25d","study_id":"60edd13110225f80f9f3709b","session_id":"6196c1f6a6f8bcc5f454ebc0","condition":"contingent","relevant_dimensions":["antennae","wings"],"bee_group":{"antennae":"B","wings":"2","pattern":"X","legs":"X"},"bonus":1.260000000000001},{"rt":956.8000000044703,"stimulus":"bees-with-color/bee-A2DM.svg","response":0,"trial_type":"image-button-response","trial_index":81,"time_elapsed":445110,"internal_node_id":"0.0-4.0-0.37","subject_id":"6047a1ebd7eb2504348db25d","study_id":"60edd13110225f80f9f3709b","session_id":"6196c1f6a6f8bcc5f454ebc0","condition":"contingent","relevant_dimensions":["antennae","wings"],"bee_group":{"antennae":"B","wings":"2","pattern":"X","legs":"X"},"action":"harvest","summary":"good-harvest","bonus":1.260000000000001},{"rt":409,"stimulus":"\n                    <p><b>Action: <em>harvest</em></b></p>\n                    <p>This is the bee that you just saw.</p>\n                    <img src=\"bees-with-color/bee-A2DM.svg\" width=\"200\">\n                    <p><span class=\"greenText\"><b>Successful harvest!</b></span><br>Your pay has increased by $0.02. Your bonus pay is now $0.70.</p>\n            ","response":0,"trial_type":"html-button-response","trial_index":82,"time_elapsed":445521,"internal_node_id":"0.0-4.0-1.37","subject_id":"6047a1ebd7eb2504348db25d","study_id":"60edd13110225f80f9f3709b","session_id":"6196c1f6a6f8bcc5f454ebc0","condition":"contingent","relevant_dimensions":["antennae","wings"],"bee_group":{"antennae":"B","wings":"2","pattern":"X","legs":"X"},"bonus":1.260000000000001},{"rt":1245.7000000029802,"stimulus":"bees-with-color/bee-B1SF.svg","response":1,"trial_type":"image-button-response","trial_index":83,"time_elapsed":446768,"internal_node_id":"0.0-4.0-0.38","subject_id":"6047a1ebd7eb2504348db25d","study_id":"60edd13110225f80f9f3709b","session_id":"6196c1f6a6f8bcc5f454ebc0","condition":"contingent","relevant_dimensions":["antennae","wings"],"bee_group":{"antennae":"B","wings":"2","pattern":"X","legs":"X"},"action":"avoid","summary":"bad-avoid","bonus":1.260000000000001},{"rt":490,"stimulus":"\n                    <p><b>Action: <em>avoid</em></b></p>\n                    <p>This is the bee that you just saw.</p>\n                    <img src=\"bees-with-color/bee-B1SF.svg\" width=\"200\">\n                    <p><br>Your bonus pay is unchanged, and remains at $0.70.</p>\n            ","response":0,"trial_type":"html-button-response","trial_index":84,"time_elapsed":447260,"internal_node_id":"0.0-4.0-1.38","subject_id":"6047a1ebd7eb2504348db25d","study_id":"60edd13110225f80f9f3709b","session_id":"6196c1f6a6f8bcc5f454ebc0","condition":"contingent","relevant_dimensions":["antennae","wings"],"bee_group":{"antennae":"B","wings":"2","pattern":"X","legs":"X"},"bonus":1.260000000000001},{"rt":913.6000000014901,"stimulus":"bees-with-color/bee-B2SF.svg","response":1,"trial_type":"image-button-response","trial_index":85,"time_elapsed":448175,"internal_node_id":"0.0-4.0-0.39","subject_id":"6047a1ebd7eb2504348db25d","study_id":"60edd13110225f80f9f3709b","session_id":"6196c1f6a6f8bcc5f454ebc0","condition":"contingent","relevant_dimensions":["antennae","wings"],"bee_group":{"antennae":"B","wings":"2","pattern":"X","legs":"X"},"action":"avoid","summary":"good-avoid","bonus":1.260000000000001},{"rt":340.5,"stimulus":"\n                    <p><b>Action: <em>avoid</em></b></p>\n                    <p>This is the bee that you just saw.</p>\n                    <img src=\"bees-with-color/bee-B2SF.svg\" width=\"200\">\n                    <p><br>Your bonus pay is unchanged, and remains at $0.70.</p>\n            ","response":0,"trial_type":"html-button-response","trial_index":86,"time_elapsed":448517,"internal_node_id":"0.0-4.0-1.39","subject_id":"6047a1ebd7eb2504348db25d","study_id":"60edd13110225f80f9f3709b","session_id":"6196c1f6a6f8bcc5f454ebc0","condition":"contingent","relevant_dimensions":["antennae","wings"],"bee_group":{"antennae":"B","wings":"2","pattern":"X","legs":"X"},"bonus":1.260000000000001},{"rt":947.5,"stimulus":"bees-with-color/bee-A2SM.svg","response":0,"trial_type":"image-button-response","trial_index":87,"time_elapsed":449466,"internal_node_id":"0.0-4.0-0.40","subject_id":"6047a1ebd7eb2504348db25d","study_id":"60edd13110225f80f9f3709b","session_id":"6196c1f6a6f8bcc5f454ebc0","condition":"contingent","relevant_dimensions":["antennae","wings"],"bee_group":{"antennae":"B","wings":"2","pattern":"X","legs":"X"},"action":"harvest","summary":"good-harvest","bonus":1.260000000000001},{"rt":333.29999999701977,"stimulus":"\n                    <p><b>Action: <em>harvest</em></b></p>\n                    <p>This is the bee that you just saw.</p>\n                    <img src=\"bees-with-color/bee-A2SM.svg\" width=\"200\">\n                    <p><span class=\"greenText\"><b>Successful harvest!</b></span><br>Your pay has increased by $0.02. Your bonus pay is now $0.72.</p>\n            ","response":0,"trial_type":"html-button-response","trial_index":88,"time_elapsed":449801,"internal_node_id":"0.0-4.0-1.40","subject_id":"6047a1ebd7eb2504348db25d","study_id":"60edd13110225f80f9f3709b","session_id":"6196c1f6a6f8bcc5f454ebc0","condition":"contingent","relevant_dimensions":["antennae","wings"],"bee_group":{"antennae":"B","wings":"2","pattern":"X","legs":"X"},"bonus":1.260000000000001},{"rt":1076.6000000014901,"stimulus":"bees-with-color/bee-B2DF.svg","response":1,"trial_type":"image-button-response","trial_index":89,"time_elapsed":450879,"internal_node_id":"0.0-4.0-0.41","subject_id":"6047a1ebd7eb2504348db25d","study_id":"60edd13110225f80f9f3709b","session_id":"6196c1f6a6f8bcc5f454ebc0","condition":"contingent","relevant_dimensions":["antennae","wings"],"bee_group":{"antennae":"B","wings":"2","pattern":"X","legs":"X"},"action":"avoid","summary":"good-avoid","bonus":1.260000000000001},{"rt":381.1000000014901,"stimulus":"\n                    <p><b>Action: <em>avoid</em></b></p>\n                    <p>This is the bee that you just saw.</p>\n                    <img src=\"bees-with-color/bee-B2DF.svg\" width=\"200\">\n                    <p><br>Your bonus pay is unchanged, and remains at $0.72.</p>\n            ","response":0,"trial_type":"html-button-response","trial_index":90,"time_elapsed":451262,"internal_node_id":"0.0-4.0-1.41","subject_id":"6047a1ebd7eb2504348db25d","study_id":"60edd13110225f80f9f3709b","session_id":"6196c1f6a6f8bcc5f454ebc0","condition":"contingent","relevant_dimensions":["antennae","wings"],"bee_group":{"antennae":"B","wings":"2","pattern":"X","legs":"X"},"bonus":1.260000000000001},{"rt":1709.8999999985099,"stimulus":"bees-with-color/bee-A1DF.svg","response":0,"trial_type":"image-button-response","trial_index":91,"time_elapsed":452973,"internal_node_id":"0.0-4.0-0.42","subject_id":"6047a1ebd7eb2504348db25d","study_id":"60edd13110225f80f9f3709b","session_id":"6196c1f6a6f8bcc5f454ebc0","condition":"contingent","relevant_dimensions":["antennae","wings"],"bee_group":{"antennae":"B","wings":"2","pattern":"X","legs":"X"},"action":"harvest","summary":"good-harvest","bonus":1.260000000000001},{"rt":483.79999999701977,"stimulus":"\n                    <p><b>Action: <em>harvest</em></b></p>\n                    <p>This is the bee that you just saw.</p>\n                    <img src=\"bees-with-color/bee-A1DF.svg\" width=\"200\">\n                    <p><span class=\"greenText\"><b>Successful harvest!</b></span><br>Your pay has increased by $0.02. Your bonus pay is now $0.74.</p>\n            ","response":0,"trial_type":"html-button-response","trial_index":92,"time_elapsed":453459,"internal_node_id":"0.0-4.0-1.42","subject_id":"6047a1ebd7eb2504348db25d","study_id":"60edd13110225f80f9f3709b","session_id":"6196c1f6a6f8bcc5f454ebc0","condition":"contingent","relevant_dimensions":["antennae","wings"],"bee_group":{"antennae":"B","wings":"2","pattern":"X","legs":"X"},"bonus":1.260000000000001},{"rt":807.5,"stimulus":"bees-with-color/bee-A1SF.svg","response":0,"trial_type":"image-button-response","trial_index":93,"time_elapsed":454268,"internal_node_id":"0.0-4.0-0.43","subject_id":"6047a1ebd7eb2504348db25d","study_id":"60edd13110225f80f9f3709b","session_id":"6196c1f6a6f8bcc5f454ebc0","condition":"contingent","relevant_dimensions":["antennae","wings"],"bee_group":{"antennae":"B","wings":"2","pattern":"X","legs":"X"},"action":"harvest","summary":"good-harvest","bonus":1.260000000000001},{"rt":511.3999999985099,"stimulus":"\n                    <p><b>Action: <em>harvest</em></b></p>\n                    <p>This is the bee that you just saw.</p>\n                    <img src=\"bees-with-color/bee-A1SF.svg\" width=\"200\">\n                    <p><span class=\"greenText\"><b>Successful harvest!</b></span><br>Your pay has increased by $0.02. Your bonus pay is now $0.76.</p>\n            ","response":0,"trial_type":"html-button-response","trial_index":94,"time_elapsed":454781,"internal_node_id":"0.0-4.0-1.43","subject_id":"6047a1ebd7eb2504348db25d","study_id":"60edd13110225f80f9f3709b","session_id":"6196c1f6a6f8bcc5f454ebc0","condition":"contingent","relevant_dimensions":["antennae","wings"],"bee_group":{"antennae":"B","wings":"2","pattern":"X","legs":"X"},"bonus":1.260000000000001},{"rt":833.6000000014901,"stimulus":"bees-with-color/bee-B1SM.svg","response":1,"trial_type":"image-button-response","trial_index":95,"time_elapsed":455616,"internal_node_id":"0.0-4.0-0.44","subject_id":"6047a1ebd7eb2504348db25d","study_id":"60edd13110225f80f9f3709b","session_id":"6196c1f6a6f8bcc5f454ebc0","condition":"contingent","relevant_dimensions":["antennae","wings"],"bee_group":{"antennae":"B","wings":"2","pattern":"X","legs":"X"},"action":"avoid","summary":"bad-avoid","bonus":1.260000000000001},{"rt":714.1000000014901,"stimulus":"\n                    <p><b>Action: <em>avoid</em></b></p>\n                    <p>This is the bee that you just saw.</p>\n                    <img src=\"bees-with-color/bee-B1SM.svg\" width=\"200\">\n                    <p><br>Your bonus pay is unchanged, and remains at $0.76.</p>\n            ","response":0,"trial_type":"html-button-response","trial_index":96,"time_elapsed":456332,"internal_node_id":"0.0-4.0-1.44","subject_id":"6047a1ebd7eb2504348db25d","study_id":"60edd13110225f80f9f3709b","session_id":"6196c1f6a6f8bcc5f454ebc0","condition":"contingent","relevant_dimensions":["antennae","wings"],"bee_group":{"antennae":"B","wings":"2","pattern":"X","legs":"X"},"bonus":1.260000000000001},{"rt":854.5,"stimulus":"bees-with-color/bee-B2SM.svg","response":1,"trial_type":"image-button-response","trial_index":97,"time_elapsed":457188,"internal_node_id":"0.0-4.0-0.45","subject_id":"6047a1ebd7eb2504348db25d","study_id":"60edd13110225f80f9f3709b","session_id":"6196c1f6a6f8bcc5f454ebc0","condition":"contingent","relevant_dimensions":["antennae","wings"],"bee_group":{"antennae":"B","wings":"2","pattern":"X","legs":"X"},"action":"avoid","summary":"good-avoid","bonus":1.260000000000001},{"rt":375.29999999701977,"stimulus":"\n                    <p><b>Action: <em>avoid</em></b></p>\n                    <p>This is the bee that you just saw.</p>\n                    <img src=\"bees-with-color/bee-B2SM.svg\" width=\"200\">\n                    <p><br>Your bonus pay is unchanged, and remains at $0.76.</p>\n            ","response":0,"trial_type":"html-button-response","trial_index":98,"time_elapsed":457565,"internal_node_id":"0.0-4.0-1.45","subject_id":"6047a1ebd7eb2504348db25d","study_id":"60edd13110225f80f9f3709b","session_id":"6196c1f6a6f8bcc5f454ebc0","condition":"contingent","relevant_dimensions":["antennae","wings"],"bee_group":{"antennae":"B","wings":"2","pattern":"X","legs":"X"},"bonus":1.260000000000001},{"rt":642.5,"stimulus":"bees-with-color/bee-B1DF.svg","response":1,"trial_type":"image-button-response","trial_index":99,"time_elapsed":458209,"internal_node_id":"0.0-4.0-0.46","subject_id":"6047a1ebd7eb2504348db25d","study_id":"60edd13110225f80f9f3709b","session_id":"6196c1f6a6f8bcc5f454ebc0","condition":"contingent","relevant_dimensions":["antennae","wings"],"bee_group":{"antennae":"B","wings":"2","pattern":"X","legs":"X"},"action":"avoid","summary":"bad-avoid","bonus":1.260000000000001},{"rt":307.1000000014901,"stimulus":"\n                    <p><b>Action: <em>avoid</em></b></p>\n                    <p>This is the bee that you just saw.</p>\n                    <img src=\"bees-with-color/bee-B1DF.svg\" width=\"200\">\n                    <p><br>Your bonus pay is unchanged, and remains at $0.76.</p>\n            ","response":0,"trial_type":"html-button-response","trial_index":100,"time_elapsed":458517,"internal_node_id":"0.0-4.0-1.46","subject_id":"6047a1ebd7eb2504348db25d","study_id":"60edd13110225f80f9f3709b","session_id":"6196c1f6a6f8bcc5f454ebc0","condition":"contingent","relevant_dimensions":["antennae","wings"],"bee_group":{"antennae":"B","wings":"2","pattern":"X","legs":"X"},"bonus":1.260000000000001},{"rt":720.7000000029802,"stimulus":"bees-with-color/bee-A2DF.svg","response":0,"trial_type":"image-button-response","trial_index":101,"time_elapsed":459240,"internal_node_id":"0.0-4.0-0.47","subject_id":"6047a1ebd7eb2504348db25d","study_id":"60edd13110225f80f9f3709b","session_id":"6196c1f6a6f8bcc5f454ebc0","condition":"contingent","relevant_dimensions":["antennae","wings"],"bee_group":{"antennae":"B","wings":"2","pattern":"X","legs":"X"},"action":"harvest","summary":"good-harvest","bonus":1.260000000000001},{"rt":400.1000000014901,"stimulus":"\n                    <p><b>Action: <em>harvest</em></b></p>\n                    <p>This is the bee that you just saw.</p>\n                    <img src=\"bees-with-color/bee-A2DF.svg\" width=\"200\">\n                    <p><span class=\"greenText\"><b>Successful harvest!</b></span><br>Your pay has increased by $0.02. Your bonus pay is now $0.78.</p>\n            ","response":0,"trial_type":"html-button-response","trial_index":102,"time_elapsed":459642,"internal_node_id":"0.0-4.0-1.47","subject_id":"6047a1ebd7eb2504348db25d","study_id":"60edd13110225f80f9f3709b","session_id":"6196c1f6a6f8bcc5f454ebc0","condition":"contingent","relevant_dimensions":["antennae","wings"],"bee_group":{"antennae":"B","wings":"2","pattern":"X","legs":"X"},"bonus":1.260000000000001},{"rt":760.6999999955297,"stimulus":"bees-with-color/bee-A2SF.svg","response":0,"trial_type":"image-button-response","trial_index":103,"time_elapsed":460404,"internal_node_id":"0.0-4.0-0.48","subject_id":"6047a1ebd7eb2504348db25d","study_id":"60edd13110225f80f9f3709b","session_id":"6196c1f6a6f8bcc5f454ebc0","condition":"contingent","relevant_dimensions":["antennae","wings"],"bee_group":{"antennae":"B","wings":"2","pattern":"X","legs":"X"},"action":"harvest","summary":"good-harvest","bonus":1.260000000000001},{"rt":385.1000000014901,"stimulus":"\n                    <p><b>Action: <em>harvest</em></b></p>\n                    <p>This is the bee that you just saw.</p>\n                    <img src=\"bees-with-color/bee-A2SF.svg\" width=\"200\">\n                    <p><span class=\"greenText\"><b>Successful harvest!</b></span><br>Your pay has increased by $0.02. Your bonus pay is now $0.80.</p>\n            ","response":0,"trial_type":"html-button-response","trial_index":104,"time_elapsed":460791,"internal_node_id":"0.0-4.0-1.48","subject_id":"6047a1ebd7eb2504348db25d","study_id":"60edd13110225f80f9f3709b","session_id":"6196c1f6a6f8bcc5f454ebc0","condition":"contingent","relevant_dimensions":["antennae","wings"],"bee_group":{"antennae":"B","wings":"2","pattern":"X","legs":"X"},"bonus":1.260000000000001},{"rt":886.8999999985099,"stimulus":"bees-with-color/bee-B2DF.svg","response":1,"trial_type":"image-button-response","trial_index":105,"time_elapsed":461679,"internal_node_id":"0.0-4.0-0.49","subject_id":"6047a1ebd7eb2504348db25d","study_id":"60edd13110225f80f9f3709b","session_id":"6196c1f6a6f8bcc5f454ebc0","condition":"contingent","relevant_dimensions":["antennae","wings"],"bee_group":{"antennae":"B","wings":"2","pattern":"X","legs":"X"},"action":"avoid","summary":"good-avoid","bonus":1.260000000000001},{"rt":295.6000000014901,"stimulus":"\n                    <p><b>Action: <em>avoid</em></b></p>\n                    <p>This is the bee that you just saw.</p>\n                    <img src=\"bees-with-color/bee-B2DF.svg\" width=\"200\">\n                    <p><br>Your bonus pay is unchanged, and remains at $0.80.</p>\n            ","response":0,"trial_type":"html-button-response","trial_index":106,"time_elapsed":461977,"internal_node_id":"0.0-4.0-1.49","subject_id":"6047a1ebd7eb2504348db25d","study_id":"60edd13110225f80f9f3709b","session_id":"6196c1f6a6f8bcc5f454ebc0","condition":"contingent","relevant_dimensions":["antennae","wings"],"bee_group":{"antennae":"B","wings":"2","pattern":"X","legs":"X"},"bonus":1.260000000000001},{"rt":755.8000000044703,"stimulus":"bees-with-color/bee-A2SM.svg","response":0,"trial_type":"image-button-response","trial_index":107,"time_elapsed":462734,"internal_node_id":"0.0-4.0-0.50","subject_id":"6047a1ebd7eb2504348db25d","study_id":"60edd13110225f80f9f3709b","session_id":"6196c1f6a6f8bcc5f454ebc0","condition":"contingent","relevant_dimensions":["antennae","wings"],"bee_group":{"antennae":"B","wings":"2","pattern":"X","legs":"X"},"action":"harvest","summary":"good-harvest","bonus":1.260000000000001},{"rt":1293.7999999970198,"stimulus":"\n                    <p><b>Action: <em>harvest</em></b></p>\n                    <p>This is the bee that you just saw.</p>\n                    <img src=\"bees-with-color/bee-A2SM.svg\" width=\"200\">\n                    <p><span class=\"greenText\"><b>Successful harvest!</b></span><br>Your pay has increased by $0.02. Your bonus pay is now $0.82.</p>\n            ","response":0,"trial_type":"html-button-response","trial_index":108,"time_elapsed":464030,"internal_node_id":"0.0-4.0-1.50","subject_id":"6047a1ebd7eb2504348db25d","study_id":"60edd13110225f80f9f3709b","session_id":"6196c1f6a6f8bcc5f454ebc0","condition":"contingent","relevant_dimensions":["antennae","wings"],"bee_group":{"antennae":"B","wings":"2","pattern":"X","legs":"X"},"bonus":1.260000000000001},{"rt":2117.39999999851,"stimulus":"bees-with-color/bee-A1SM.svg","response":0,"trial_type":"image-button-response","trial_index":109,"time_elapsed":466149,"internal_node_id":"0.0-4.0-0.51","subject_id":"6047a1ebd7eb2504348db25d","study_id":"60edd13110225f80f9f3709b","session_id":"6196c1f6a6f8bcc5f454ebc0","condition":"contingent","relevant_dimensions":["antennae","wings"],"bee_group":{"antennae":"B","wings":"2","pattern":"X","legs":"X"},"action":"harvest","summary":"good-harvest","bonus":1.260000000000001},{"rt":796.2999999970198,"stimulus":"\n                    <p><b>Action: <em>harvest</em></b></p>\n                    <p>This is the bee that you just saw.</p>\n                    <img src=\"bees-with-color/bee-A1SM.svg\" width=\"200\">\n                    <p><span class=\"greenText\"><b>Successful harvest!</b></span><br>Your pay has increased by $0.02. Your bonus pay is now $0.84.</p>\n            ","response":0,"trial_type":"html-button-response","trial_index":110,"time_elapsed":466947,"internal_node_id":"0.0-4.0-1.51","subject_id":"6047a1ebd7eb2504348db25d","study_id":"60edd13110225f80f9f3709b","session_id":"6196c1f6a6f8bcc5f454ebc0","condition":"contingent","relevant_dimensions":["antennae","wings"],"bee_group":{"antennae":"B","wings":"2","pattern":"X","legs":"X"},"bonus":1.260000000000001},{"rt":986.7000000029802,"stimulus":"bees-with-color/bee-B2DM.svg","response":1,"trial_type":"image-button-response","trial_index":111,"time_elapsed":467935,"internal_node_id":"0.0-4.0-0.52","subject_id":"6047a1ebd7eb2504348db25d","study_id":"60edd13110225f80f9f3709b","session_id":"6196c1f6a6f8bcc5f454ebc0","condition":"contingent","relevant_dimensions":["antennae","wings"],"bee_group":{"antennae":"B","wings":"2","pattern":"X","legs":"X"},"action":"avoid","summary":"good-avoid","bonus":1.260000000000001},{"rt":360.29999999701977,"stimulus":"\n                    <p><b>Action: <em>avoid</em></b></p>\n                    <p>This is the bee that you just saw.</p>\n                    <img src=\"bees-with-color/bee-B2DM.svg\" width=\"200\">\n                    <p><br>Your bonus pay is unchanged, and remains at $0.84.</p>\n            ","response":0,"trial_type":"html-button-response","trial_index":112,"time_elapsed":468297,"internal_node_id":"0.0-4.0-1.52","subject_id":"6047a1ebd7eb2504348db25d","study_id":"60edd13110225f80f9f3709b","session_id":"6196c1f6a6f8bcc5f454ebc0","condition":"contingent","relevant_dimensions":["antennae","wings"],"bee_group":{"antennae":"B","wings":"2","pattern":"X","legs":"X"},"bonus":1.260000000000001},{"rt":744.7000000029802,"stimulus":"bees-with-color/bee-A2DM.svg","response":0,"trial_type":"image-button-response","trial_index":113,"time_elapsed":469043,"internal_node_id":"0.0-4.0-0.53","subject_id":"6047a1ebd7eb2504348db25d","study_id":"60edd13110225f80f9f3709b","session_id":"6196c1f6a6f8bcc5f454ebc0","condition":"contingent","relevant_dimensions":["antennae","wings"],"bee_group":{"antennae":"B","wings":"2","pattern":"X","legs":"X"},"action":"harvest","summary":"good-harvest","bonus":1.260000000000001},{"rt":625.2000000029802,"stimulus":"\n                    <p><b>Action: <em>harvest</em></b></p>\n                    <p>This is the bee that you just saw.</p>\n                    <img src=\"bees-with-color/bee-A2DM.svg\" width=\"200\">\n                    <p><span class=\"greenText\"><b>Successful harvest!</b></span><br>Your pay has increased by $0.02. Your bonus pay is now $0.86.</p>\n            ","response":0,"trial_type":"html-button-response","trial_index":114,"time_elapsed":469670,"internal_node_id":"0.0-4.0-1.53","subject_id":"6047a1ebd7eb2504348db25d","study_id":"60edd13110225f80f9f3709b","session_id":"6196c1f6a6f8bcc5f454ebc0","condition":"contingent","relevant_dimensions":["antennae","wings"],"bee_group":{"antennae":"B","wings":"2","pattern":"X","legs":"X"},"bonus":1.260000000000001},{"rt":673.5,"stimulus":"bees-with-color/bee-B1SF.svg","response":1,"trial_type":"image-button-response","trial_index":115,"time_elapsed":470345,"internal_node_id":"0.0-4.0-0.54","subject_id":"6047a1ebd7eb2504348db25d","study_id":"60edd13110225f80f9f3709b","session_id":"6196c1f6a6f8bcc5f454ebc0","condition":"contingent","relevant_dimensions":["antennae","wings"],"bee_group":{"antennae":"B","wings":"2","pattern":"X","legs":"X"},"action":"avoid","summary":"bad-avoid","bonus":1.260000000000001},{"rt":366.3999999985099,"stimulus":"\n                    <p><b>Action: <em>avoid</em></b></p>\n                    <p>This is the bee that you just saw.</p>\n                    <img src=\"bees-with-color/bee-B1SF.svg\" width=\"200\">\n                    <p><br>Your bonus pay is unchanged, and remains at $0.86.</p>\n            ","response":0,"trial_type":"html-button-response","trial_index":116,"time_elapsed":470713,"internal_node_id":"0.0-4.0-1.54","subject_id":"6047a1ebd7eb2504348db25d","study_id":"60edd13110225f80f9f3709b","session_id":"6196c1f6a6f8bcc5f454ebc0","condition":"contingent","relevant_dimensions":["antennae","wings"],"bee_group":{"antennae":"B","wings":"2","pattern":"X","legs":"X"},"bonus":1.260000000000001},{"rt":744,"stimulus":"bees-with-color/bee-A1SF.svg","response":0,"trial_type":"image-button-response","trial_index":117,"time_elapsed":471458,"internal_node_id":"0.0-4.0-0.55","subject_id":"6047a1ebd7eb2504348db25d","study_id":"60edd13110225f80f9f3709b","session_id":"6196c1f6a6f8bcc5f454ebc0","condition":"contingent","relevant_dimensions":["antennae","wings"],"bee_group":{"antennae":"B","wings":"2","pattern":"X","legs":"X"},"action":"harvest","summary":"good-harvest","bonus":1.260000000000001},{"rt":420.79999999701977,"stimulus":"\n                    <p><b>Action: <em>harvest</em></b></p>\n                    <p>This is the bee that you just saw.</p>\n                    <img src=\"bees-with-color/bee-A1SF.svg\" width=\"200\">\n                    <p><span class=\"greenText\"><b>Successful harvest!</b></span><br>Your pay has increased by $0.02. Your bonus pay is now $0.88.</p>\n            ","response":0,"trial_type":"html-button-response","trial_index":118,"time_elapsed":471881,"internal_node_id":"0.0-4.0-1.55","subject_id":"6047a1ebd7eb2504348db25d","study_id":"60edd13110225f80f9f3709b","session_id":"6196c1f6a6f8bcc5f454ebc0","condition":"contingent","relevant_dimensions":["antennae","wings"],"bee_group":{"antennae":"B","wings":"2","pattern":"X","legs":"X"},"bonus":1.260000000000001},{"rt":783.7000000029802,"stimulus":"bees-with-color/bee-B2SM.svg","response":1,"trial_type":"image-button-response","trial_index":119,"time_elapsed":472666,"internal_node_id":"0.0-4.0-0.56","subject_id":"6047a1ebd7eb2504348db25d","study_id":"60edd13110225f80f9f3709b","session_id":"6196c1f6a6f8bcc5f454ebc0","condition":"contingent","relevant_dimensions":["antennae","wings"],"bee_group":{"antennae":"B","wings":"2","pattern":"X","legs":"X"},"action":"avoid","summary":"good-avoid","bonus":1.260000000000001},{"rt":329.69999999552965,"stimulus":"\n                    <p><b>Action: <em>avoid</em></b></p>\n                    <p>This is the bee that you just saw.</p>\n                    <img src=\"bees-with-color/bee-B2SM.svg\" width=\"200\">\n                    <p><br>Your bonus pay is unchanged, and remains at $0.88.</p>\n            ","response":0,"trial_type":"html-button-response","trial_index":120,"time_elapsed":472998,"internal_node_id":"0.0-4.0-1.56","subject_id":"6047a1ebd7eb2504348db25d","study_id":"60edd13110225f80f9f3709b","session_id":"6196c1f6a6f8bcc5f454ebc0","condition":"contingent","relevant_dimensions":["antennae","wings"],"bee_group":{"antennae":"B","wings":"2","pattern":"X","legs":"X"},"bonus":1.260000000000001},{"rt":719.6000000014901,"stimulus":"bees-with-color/bee-A1DF.svg","response":0,"trial_type":"image-button-response","trial_index":121,"time_elapsed":473719,"internal_node_id":"0.0-4.0-0.57","subject_id":"6047a1ebd7eb2504348db25d","study_id":"60edd13110225f80f9f3709b","session_id":"6196c1f6a6f8bcc5f454ebc0","condition":"contingent","relevant_dimensions":["antennae","wings"],"bee_group":{"antennae":"B","wings":"2","pattern":"X","legs":"X"},"action":"harvest","summary":"good-harvest","bonus":1.260000000000001},{"rt":421.80000000447035,"stimulus":"\n                    <p><b>Action: <em>harvest</em></b></p>\n                    <p>This is the bee that you just saw.</p>\n                    <img src=\"bees-with-color/bee-A1DF.svg\" width=\"200\">\n                    <p><span class=\"greenText\"><b>Successful harvest!</b></span><br>Your pay has increased by $0.02. Your bonus pay is now $0.90.</p>\n            ","response":0,"trial_type":"html-button-response","trial_index":122,"time_elapsed":474143,"internal_node_id":"0.0-4.0-1.57","subject_id":"6047a1ebd7eb2504348db25d","study_id":"60edd13110225f80f9f3709b","session_id":"6196c1f6a6f8bcc5f454ebc0","condition":"contingent","relevant_dimensions":["antennae","wings"],"bee_group":{"antennae":"B","wings":"2","pattern":"X","legs":"X"},"bonus":1.260000000000001},{"rt":1012.6000000014901,"stimulus":"bees-with-color/bee-B1DM.svg","response":1,"trial_type":"image-button-response","trial_index":123,"time_elapsed":475157,"internal_node_id":"0.0-4.0-0.58","subject_id":"6047a1ebd7eb2504348db25d","study_id":"60edd13110225f80f9f3709b","session_id":"6196c1f6a6f8bcc5f454ebc0","condition":"contingent","relevant_dimensions":["antennae","wings"],"bee_group":{"antennae":"B","wings":"2","pattern":"X","legs":"X"},"action":"avoid","summary":"bad-avoid","bonus":1.260000000000001},{"rt":343.09999999403954,"stimulus":"\n                    <p><b>Action: <em>avoid</em></b></p>\n                    <p>This is the bee that you just saw.</p>\n                    <img src=\"bees-with-color/bee-B1DM.svg\" width=\"200\">\n                    <p><br>Your bonus pay is unchanged, and remains at $0.90.</p>\n            ","response":0,"trial_type":"html-button-response","trial_index":124,"time_elapsed":475501,"internal_node_id":"0.0-4.0-1.58","subject_id":"6047a1ebd7eb2504348db25d","study_id":"60edd13110225f80f9f3709b","session_id":"6196c1f6a6f8bcc5f454ebc0","condition":"contingent","relevant_dimensions":["antennae","wings"],"bee_group":{"antennae":"B","wings":"2","pattern":"X","legs":"X"},"bonus":1.260000000000001},{"rt":1064,"stimulus":"bees-with-color/bee-B2SF.svg","response":1,"trial_type":"image-button-response","trial_index":125,"time_elapsed":476567,"internal_node_id":"0.0-4.0-0.59","subject_id":"6047a1ebd7eb2504348db25d","study_id":"60edd13110225f80f9f3709b","session_id":"6196c1f6a6f8bcc5f454ebc0","condition":"contingent","relevant_dimensions":["antennae","wings"],"bee_group":{"antennae":"B","wings":"2","pattern":"X","legs":"X"},"action":"avoid","summary":"good-avoid","bonus":1.260000000000001},{"rt":324.30000000447035,"stimulus":"\n                    <p><b>Action: <em>avoid</em></b></p>\n                    <p>This is the bee that you just saw.</p>\n                    <img src=\"bees-with-color/bee-B2SF.svg\" width=\"200\">\n                    <p><br>Your bonus pay is unchanged, and remains at $0.90.</p>\n            ","response":0,"trial_type":"html-button-response","trial_index":126,"time_elapsed":476893,"internal_node_id":"0.0-4.0-1.59","subject_id":"6047a1ebd7eb2504348db25d","study_id":"60edd13110225f80f9f3709b","session_id":"6196c1f6a6f8bcc5f454ebc0","condition":"contingent","relevant_dimensions":["antennae","wings"],"bee_group":{"antennae":"B","wings":"2","pattern":"X","legs":"X"},"bonus":1.260000000000001},{"rt":1029.3999999985099,"stimulus":"bees-with-color/bee-B1DF.svg","response":1,"trial_type":"image-button-response","trial_index":127,"time_elapsed":477924,"internal_node_id":"0.0-4.0-0.60","subject_id":"6047a1ebd7eb2504348db25d","study_id":"60edd13110225f80f9f3709b","session_id":"6196c1f6a6f8bcc5f454ebc0","condition":"contingent","relevant_dimensions":["antennae","wings"],"bee_group":{"antennae":"B","wings":"2","pattern":"X","legs":"X"},"action":"avoid","summary":"bad-avoid","bonus":1.260000000000001},{"rt":790,"stimulus":"\n                    <p><b>Action: <em>avoid</em></b></p>\n                    <p>This is the bee that you just saw.</p>\n                    <img src=\"bees-with-color/bee-B1DF.svg\" width=\"200\">\n                    <p><br>Your bonus pay is unchanged, and remains at $0.90.</p>\n            ","response":0,"trial_type":"html-button-response","trial_index":128,"time_elapsed":478716,"internal_node_id":"0.0-4.0-1.60","subject_id":"6047a1ebd7eb2504348db25d","study_id":"60edd13110225f80f9f3709b","session_id":"6196c1f6a6f8bcc5f454ebc0","condition":"contingent","relevant_dimensions":["antennae","wings"],"bee_group":{"antennae":"B","wings":"2","pattern":"X","legs":"X"},"bonus":1.260000000000001},{"rt":872.7000000029802,"stimulus":"bees-with-color/bee-A2DF.svg","response":0,"trial_type":"image-button-response","trial_index":129,"time_elapsed":479590,"internal_node_id":"0.0-4.0-0.61","subject_id":"6047a1ebd7eb2504348db25d","study_id":"60edd13110225f80f9f3709b","session_id":"6196c1f6a6f8bcc5f454ebc0","condition":"contingent","relevant_dimensions":["antennae","wings"],"bee_group":{"antennae":"B","wings":"2","pattern":"X","legs":"X"},"action":"harvest","summary":"good-harvest","bonus":1.260000000000001},{"rt":405.8999999985099,"stimulus":"\n                    <p><b>Action: <em>harvest</em></b></p>\n                    <p>This is the bee that you just saw.</p>\n                    <img src=\"bees-with-color/bee-A2DF.svg\" width=\"200\">\n                    <p><span class=\"greenText\"><b>Successful harvest!</b></span><br>Your pay has increased by $0.02. Your bonus pay is now $0.92.</p>\n            ","response":0,"trial_type":"html-button-response","trial_index":130,"time_elapsed":479997,"internal_node_id":"0.0-4.0-1.61","subject_id":"6047a1ebd7eb2504348db25d","study_id":"60edd13110225f80f9f3709b","session_id":"6196c1f6a6f8bcc5f454ebc0","condition":"contingent","relevant_dimensions":["antennae","wings"],"bee_group":{"antennae":"B","wings":"2","pattern":"X","legs":"X"},"bonus":1.260000000000001},{"rt":743.1000000014901,"stimulus":"bees-with-color/bee-A1DM.svg","response":0,"trial_type":"image-button-response","trial_index":131,"time_elapsed":480742,"internal_node_id":"0.0-4.0-0.62","subject_id":"6047a1ebd7eb2504348db25d","study_id":"60edd13110225f80f9f3709b","session_id":"6196c1f6a6f8bcc5f454ebc0","condition":"contingent","relevant_dimensions":["antennae","wings"],"bee_group":{"antennae":"B","wings":"2","pattern":"X","legs":"X"},"action":"harvest","summary":"good-harvest","bonus":1.260000000000001},{"rt":394,"stimulus":"\n                    <p><b>Action: <em>harvest</em></b></p>\n                    <p>This is the bee that you just saw.</p>\n                    <img src=\"bees-with-color/bee-A1DM.svg\" width=\"200\">\n                    <p><span class=\"greenText\"><b>Successful harvest!</b></span><br>Your pay has increased by $0.02. Your bonus pay is now $0.94.</p>\n            ","response":0,"trial_type":"html-button-response","trial_index":132,"time_elapsed":481138,"internal_node_id":"0.0-4.0-1.62","subject_id":"6047a1ebd7eb2504348db25d","study_id":"60edd13110225f80f9f3709b","session_id":"6196c1f6a6f8bcc5f454ebc0","condition":"contingent","relevant_dimensions":["antennae","wings"],"bee_group":{"antennae":"B","wings":"2","pattern":"X","legs":"X"},"bonus":1.260000000000001},{"rt":743.6000000014901,"stimulus":"bees-with-color/bee-B1SM.svg","response":1,"trial_type":"image-button-response","trial_index":133,"time_elapsed":481883,"internal_node_id":"0.0-4.0-0.63","subject_id":"6047a1ebd7eb2504348db25d","study_id":"60edd13110225f80f9f3709b","session_id":"6196c1f6a6f8bcc5f454ebc0","condition":"contingent","relevant_dimensions":["antennae","wings"],"bee_group":{"antennae":"B","wings":"2","pattern":"X","legs":"X"},"action":"avoid","summary":"bad-avoid","bonus":1.260000000000001},{"rt":330.1000000014901,"stimulus":"\n                    <p><b>Action: <em>avoid</em></b></p>\n                    <p>This is the bee that you just saw.</p>\n                    <img src=\"bees-with-color/bee-B1SM.svg\" width=\"200\">\n                    <p><br>Your bonus pay is unchanged, and remains at $0.94.</p>\n            ","response":0,"trial_type":"html-button-response","trial_index":134,"time_elapsed":482215,"internal_node_id":"0.0-4.0-1.63","subject_id":"6047a1ebd7eb2504348db25d","study_id":"60edd13110225f80f9f3709b","session_id":"6196c1f6a6f8bcc5f454ebc0","condition":"contingent","relevant_dimensions":["antennae","wings"],"bee_group":{"antennae":"B","wings":"2","pattern":"X","legs":"X"},"bonus":1.260000000000001},{"rt":7651.79999999702,"stimulus":"You have completed the first part of this experiment.<br><br>You will now begin a shorter second part, in which you will receive no feedback.<br>The same rules regarding bonus pay apply.<br><br>Press any key to begin.","response":"enter","trial_type":"html-keyboard-response","trial_index":135,"time_elapsed":489868,"internal_node_id":"0.0-5.0","subject_id":"6047a1ebd7eb2504348db25d","study_id":"60edd13110225f80f9f3709b","session_id":"6196c1f6a6f8bcc5f454ebc0","condition":"contingent","relevant_dimensions":["antennae","wings"],"bee_group":{"antennae":"B","wings":"2","pattern":"X","legs":"X"},"bonus":1.260000000000001},{"rt":2590.3000000044703,"stimulus":"bees-with-color/bee-B1SM.svg","response":1,"trial_type":"image-button-response","trial_index":136,"time_elapsed":492461,"internal_node_id":"0.0-6.0-0.0","subject_id":"6047a1ebd7eb2504348db25d","study_id":"60edd13110225f80f9f3709b","session_id":"6196c1f6a6f8bcc5f454ebc0","condition":"contingent","relevant_dimensions":["antennae","wings"],"bee_group":{"antennae":"B","wings":"2","pattern":"X","legs":"X"},"bonus":1.260000000000001},{"rt":3835.89999999851,"stimulus":"bees-with-color/bee-B2DF.svg","response":1,"trial_type":"image-button-response","trial_index":137,"time_elapsed":496299,"internal_node_id":"0.0-6.0-0.1","subject_id":"6047a1ebd7eb2504348db25d","study_id":"60edd13110225f80f9f3709b","session_id":"6196c1f6a6f8bcc5f454ebc0","condition":"contingent","relevant_dimensions":["antennae","wings"],"bee_group":{"antennae":"B","wings":"2","pattern":"X","legs":"X"},"bonus":1.260000000000001},{"rt":902.7999999970198,"stimulus":"bees-with-color/bee-A1DM.svg","response":0,"trial_type":"image-button-response","trial_index":138,"time_elapsed":497204,"internal_node_id":"0.0-6.0-0.2","subject_id":"6047a1ebd7eb2504348db25d","study_id":"60edd13110225f80f9f3709b","session_id":"6196c1f6a6f8bcc5f454ebc0","condition":"contingent","relevant_dimensions":["antennae","wings"],"bee_group":{"antennae":"B","wings":"2","pattern":"X","legs":"X"},"bonus":1.260000000000001},{"rt":648.2000000029802,"stimulus":"bees-with-color/bee-A2SF.svg","response":0,"trial_type":"image-button-response","trial_index":139,"time_elapsed":497854,"internal_node_id":"0.0-6.0-0.3","subject_id":"6047a1ebd7eb2504348db25d","study_id":"60edd13110225f80f9f3709b","session_id":"6196c1f6a6f8bcc5f454ebc0","condition":"contingent","relevant_dimensions":["antennae","wings"],"bee_group":{"antennae":"B","wings":"2","pattern":"X","legs":"X"},"bonus":1.260000000000001},{"rt":690.8999999985099,"stimulus":"bees-with-color/bee-B1DF.svg","response":1,"trial_type":"image-button-response","trial_index":140,"time_elapsed":498547,"internal_node_id":"0.0-6.0-0.4","subject_id":"6047a1ebd7eb2504348db25d","study_id":"60edd13110225f80f9f3709b","session_id":"6196c1f6a6f8bcc5f454ebc0","condition":"contingent","relevant_dimensions":["antennae","wings"],"bee_group":{"antennae":"B","wings":"2","pattern":"X","legs":"X"},"bonus":1.260000000000001},{"rt":647.6000000014901,"stimulus":"bees-with-color/bee-A1DF.svg","response":0,"trial_type":"image-button-response","trial_index":141,"time_elapsed":499197,"internal_node_id":"0.0-6.0-0.5","subject_id":"6047a1ebd7eb2504348db25d","study_id":"60edd13110225f80f9f3709b","session_id":"6196c1f6a6f8bcc5f454ebc0","condition":"contingent","relevant_dimensions":["antennae","wings"],"bee_group":{"antennae":"B","wings":"2","pattern":"X","legs":"X"},"bonus":1.260000000000001},{"rt":656,"stimulus":"bees-with-color/bee-B1SF.svg","response":1,"trial_type":"image-button-response","trial_index":142,"time_elapsed":499855,"internal_node_id":"0.0-6.0-0.6","subject_id":"6047a1ebd7eb2504348db25d","study_id":"60edd13110225f80f9f3709b","session_id":"6196c1f6a6f8bcc5f454ebc0","condition":"contingent","relevant_dimensions":["antennae","wings"],"bee_group":{"antennae":"B","wings":"2","pattern":"X","legs":"X"},"bonus":1.260000000000001},{"rt":696.3000000044703,"stimulus":"bees-with-color/bee-B2DM.svg","response":1,"trial_type":"image-button-response","trial_index":143,"time_elapsed":500553,"internal_node_id":"0.0-6.0-0.7","subject_id":"6047a1ebd7eb2504348db25d","study_id":"60edd13110225f80f9f3709b","session_id":"6196c1f6a6f8bcc5f454ebc0","condition":"contingent","relevant_dimensions":["antennae","wings"],"bee_group":{"antennae":"B","wings":"2","pattern":"X","legs":"X"},"bonus":1.260000000000001},{"rt":677.1000000014901,"stimulus":"bees-with-color/bee-A2DF.svg","response":0,"trial_type":"image-button-response","trial_index":144,"time_elapsed":501232,"internal_node_id":"0.0-6.0-0.8","subject_id":"6047a1ebd7eb2504348db25d","study_id":"60edd13110225f80f9f3709b","session_id":"6196c1f6a6f8bcc5f454ebc0","condition":"contingent","relevant_dimensions":["antennae","wings"],"bee_group":{"antennae":"B","wings":"2","pattern":"X","legs":"X"},"bonus":1.260000000000001},{"rt":619.1000000014901,"stimulus":"bees-with-color/bee-A2SM.svg","response":0,"trial_type":"image-button-response","trial_index":145,"time_elapsed":501853,"internal_node_id":"0.0-6.0-0.9","subject_id":"6047a1ebd7eb2504348db25d","study_id":"60edd13110225f80f9f3709b","session_id":"6196c1f6a6f8bcc5f454ebc0","condition":"contingent","relevant_dimensions":["antennae","wings"],"bee_group":{"antennae":"B","wings":"2","pattern":"X","legs":"X"},"bonus":1.260000000000001},{"rt":864.8999999985099,"stimulus":"bees-with-color/bee-B2SF.svg","response":1,"trial_type":"image-button-response","trial_index":146,"time_elapsed":502720,"internal_node_id":"0.0-6.0-0.10","subject_id":"6047a1ebd7eb2504348db25d","study_id":"60edd13110225f80f9f3709b","session_id":"6196c1f6a6f8bcc5f454ebc0","condition":"contingent","relevant_dimensions":["antennae","wings"],"bee_group":{"antennae":"B","wings":"2","pattern":"X","legs":"X"},"bonus":1.260000000000001},{"rt":658,"stimulus":"bees-with-color/bee-A1SF.svg","response":0,"trial_type":"image-button-response","trial_index":147,"time_elapsed":503380,"internal_node_id":"0.0-6.0-0.11","subject_id":"6047a1ebd7eb2504348db25d","study_id":"60edd13110225f80f9f3709b","session_id":"6196c1f6a6f8bcc5f454ebc0","condition":"contingent","relevant_dimensions":["antennae","wings"],"bee_group":{"antennae":"B","wings":"2","pattern":"X","legs":"X"},"bonus":1.260000000000001},{"rt":624,"stimulus":"bees-with-color/bee-A2DM.svg","response":0,"trial_type":"image-button-response","trial_index":148,"time_elapsed":504006,"internal_node_id":"0.0-6.0-0.12","subject_id":"6047a1ebd7eb2504348db25d","study_id":"60edd13110225f80f9f3709b","session_id":"6196c1f6a6f8bcc5f454ebc0","condition":"contingent","relevant_dimensions":["antennae","wings"],"bee_group":{"antennae":"B","wings":"2","pattern":"X","legs":"X"},"bonus":1.260000000000001},{"rt":1233.9000000059605,"stimulus":"bees-with-color/bee-B1DM.svg","response":1,"trial_type":"image-button-response","trial_index":149,"time_elapsed":505242,"internal_node_id":"0.0-6.0-0.13","subject_id":"6047a1ebd7eb2504348db25d","study_id":"60edd13110225f80f9f3709b","session_id":"6196c1f6a6f8bcc5f454ebc0","condition":"contingent","relevant_dimensions":["antennae","wings"],"bee_group":{"antennae":"B","wings":"2","pattern":"X","legs":"X"},"bonus":1.260000000000001},{"rt":631.7999999970198,"stimulus":"bees-with-color/bee-A1SM.svg","response":0,"trial_type":"image-button-response","trial_index":150,"time_elapsed":505876,"internal_node_id":"0.0-6.0-0.14","subject_id":"6047a1ebd7eb2504348db25d","study_id":"60edd13110225f80f9f3709b","session_id":"6196c1f6a6f8bcc5f454ebc0","condition":"contingent","relevant_dimensions":["antennae","wings"],"bee_group":{"antennae":"B","wings":"2","pattern":"X","legs":"X"},"bonus":1.260000000000001},{"rt":614,"stimulus":"bees-with-color/bee-B2SM.svg","response":1,"trial_type":"image-button-response","trial_index":151,"time_elapsed":506492,"internal_node_id":"0.0-6.0-0.15","subject_id":"6047a1ebd7eb2504348db25d","study_id":"60edd13110225f80f9f3709b","session_id":"6196c1f6a6f8bcc5f454ebc0","condition":"contingent","relevant_dimensions":["antennae","wings"],"bee_group":{"antennae":"B","wings":"2","pattern":"X","legs":"X"},"bonus":1.260000000000001},{"rt":622,"stimulus":"bees-with-color/bee-A1DF.svg","response":0,"trial_type":"image-button-response","trial_index":152,"time_elapsed":507116,"internal_node_id":"0.0-6.0-0.16","subject_id":"6047a1ebd7eb2504348db25d","study_id":"60edd13110225f80f9f3709b","session_id":"6196c1f6a6f8bcc5f454ebc0","condition":"contingent","relevant_dimensions":["antennae","wings"],"bee_group":{"antennae":"B","wings":"2","pattern":"X","legs":"X"},"bonus":1.260000000000001},{"rt":611.2000000029802,"stimulus":"bees-with-color/bee-A1DM.svg","response":0,"trial_type":"image-button-response","trial_index":153,"time_elapsed":507729,"internal_node_id":"0.0-6.0-0.17","subject_id":"6047a1ebd7eb2504348db25d","study_id":"60edd13110225f80f9f3709b","session_id":"6196c1f6a6f8bcc5f454ebc0","condition":"contingent","relevant_dimensions":["antennae","wings"],"bee_group":{"antennae":"B","wings":"2","pattern":"X","legs":"X"},"bonus":1.260000000000001},{"rt":746.2000000029802,"stimulus":"bees-with-color/bee-B1DM.svg","response":1,"trial_type":"image-button-response","trial_index":154,"time_elapsed":508477,"internal_node_id":"0.0-6.0-0.18","subject_id":"6047a1ebd7eb2504348db25d","study_id":"60edd13110225f80f9f3709b","session_id":"6196c1f6a6f8bcc5f454ebc0","condition":"contingent","relevant_dimensions":["antennae","wings"],"bee_group":{"antennae":"B","wings":"2","pattern":"X","legs":"X"},"bonus":1.260000000000001},{"rt":597,"stimulus":"bees-with-color/bee-B1SM.svg","response":1,"trial_type":"image-button-response","trial_index":155,"time_elapsed":509076,"internal_node_id":"0.0-6.0-0.19","subject_id":"6047a1ebd7eb2504348db25d","study_id":"60edd13110225f80f9f3709b","session_id":"6196c1f6a6f8bcc5f454ebc0","condition":"contingent","relevant_dimensions":["antennae","wings"],"bee_group":{"antennae":"B","wings":"2","pattern":"X","legs":"X"},"bonus":1.260000000000001},{"rt":570.5999999940395,"stimulus":"bees-with-color/bee-B2DM.svg","response":1,"trial_type":"image-button-response","trial_index":156,"time_elapsed":509648,"internal_node_id":"0.0-6.0-0.20","subject_id":"6047a1ebd7eb2504348db25d","study_id":"60edd13110225f80f9f3709b","session_id":"6196c1f6a6f8bcc5f454ebc0","condition":"contingent","relevant_dimensions":["antennae","wings"],"bee_group":{"antennae":"B","wings":"2","pattern":"X","legs":"X"},"bonus":1.260000000000001},{"rt":481,"stimulus":"bees-with-color/bee-B2DF.svg","response":1,"trial_type":"image-button-response","trial_index":157,"time_elapsed":510131,"internal_node_id":"0.0-6.0-0.21","subject_id":"6047a1ebd7eb2504348db25d","study_id":"60edd13110225f80f9f3709b","session_id":"6196c1f6a6f8bcc5f454ebc0","condition":"contingent","relevant_dimensions":["antennae","wings"],"bee_group":{"antennae":"B","wings":"2","pattern":"X","legs":"X"},"bonus":1.260000000000001},{"rt":682.8999999985099,"stimulus":"bees-with-color/bee-A2SM.svg","response":0,"trial_type":"image-button-response","trial_index":158,"time_elapsed":510816,"internal_node_id":"0.0-6.0-0.22","subject_id":"6047a1ebd7eb2504348db25d","study_id":"60edd13110225f80f9f3709b","session_id":"6196c1f6a6f8bcc5f454ebc0","condition":"contingent","relevant_dimensions":["antennae","wings"],"bee_group":{"antennae":"B","wings":"2","pattern":"X","legs":"X"},"bonus":1.260000000000001},{"rt":852.7000000029802,"stimulus":"bees-with-color/bee-B1DF.svg","response":1,"trial_type":"image-button-response","trial_index":159,"time_elapsed":511670,"internal_node_id":"0.0-6.0-0.23","subject_id":"6047a1ebd7eb2504348db25d","study_id":"60edd13110225f80f9f3709b","session_id":"6196c1f6a6f8bcc5f454ebc0","condition":"contingent","relevant_dimensions":["antennae","wings"],"bee_group":{"antennae":"B","wings":"2","pattern":"X","legs":"X"},"bonus":1.260000000000001},{"rt":821.2999999970198,"stimulus":"bees-with-color/bee-A2SF.svg","response":0,"trial_type":"image-button-response","trial_index":160,"time_elapsed":512493,"internal_node_id":"0.0-6.0-0.24","subject_id":"6047a1ebd7eb2504348db25d","study_id":"60edd13110225f80f9f3709b","session_id":"6196c1f6a6f8bcc5f454ebc0","condition":"contingent","relevant_dimensions":["antennae","wings"],"bee_group":{"antennae":"B","wings":"2","pattern":"X","legs":"X"},"bonus":1.260000000000001},{"rt":660.1000000014901,"stimulus":"bees-with-color/bee-A1SM.svg","response":0,"trial_type":"image-button-response","trial_index":161,"time_elapsed":513155,"internal_node_id":"0.0-6.0-0.25","subject_id":"6047a1ebd7eb2504348db25d","study_id":"60edd13110225f80f9f3709b","session_id":"6196c1f6a6f8bcc5f454ebc0","condition":"contingent","relevant_dimensions":["antennae","wings"],"bee_group":{"antennae":"B","wings":"2","pattern":"X","legs":"X"},"bonus":1.260000000000001},{"rt":491.3999999985099,"stimulus":"bees-with-color/bee-A2DF.svg","response":0,"trial_type":"image-button-response","trial_index":162,"time_elapsed":513648,"internal_node_id":"0.0-6.0-0.26","subject_id":"6047a1ebd7eb2504348db25d","study_id":"60edd13110225f80f9f3709b","session_id":"6196c1f6a6f8bcc5f454ebc0","condition":"contingent","relevant_dimensions":["antennae","wings"],"bee_group":{"antennae":"B","wings":"2","pattern":"X","legs":"X"},"bonus":1.260000000000001},{"rt":810.8999999985099,"stimulus":"bees-with-color/bee-B2SF.svg","response":1,"trial_type":"image-button-response","trial_index":163,"time_elapsed":514461,"internal_node_id":"0.0-6.0-0.27","subject_id":"6047a1ebd7eb2504348db25d","study_id":"60edd13110225f80f9f3709b","session_id":"6196c1f6a6f8bcc5f454ebc0","condition":"contingent","relevant_dimensions":["antennae","wings"],"bee_group":{"antennae":"B","wings":"2","pattern":"X","legs":"X"},"bonus":1.260000000000001},{"rt":727,"stimulus":"bees-with-color/bee-A1SF.svg","response":0,"trial_type":"image-button-response","trial_index":164,"time_elapsed":515189,"internal_node_id":"0.0-6.0-0.28","subject_id":"6047a1ebd7eb2504348db25d","study_id":"60edd13110225f80f9f3709b","session_id":"6196c1f6a6f8bcc5f454ebc0","condition":"contingent","relevant_dimensions":["antennae","wings"],"bee_group":{"antennae":"B","wings":"2","pattern":"X","legs":"X"},"bonus":1.260000000000001},{"rt":662.3999999985099,"stimul