[{"success":true,"trial_type":"fullscreen","trial_index":0,"time_elapsed":7532,"internal_node_id":"0.0-0.0","subject_id":"6170821d1e8ffb9c893b28a4","study_id":"60edd13110225f80f9f3709b","session_id":"6196c7005c2a084d08680404","condition":"full-information","relevant_dimensions":["wings","legs"],"bee_group":{"antennae":"X","wings":"2","pattern":"X","legs":"M"},"bonus":1.320000000000001},{"success":true,"timeout":false,"failed_images":[],"failed_audio":[],"failed_video":[],"trial_type":"preload","trial_index":1,"time_elapsed":12426,"internal_node_id":"0.0-1.0","subject_id":"6170821d1e8ffb9c893b28a4","study_id":"60edd13110225f80f9f3709b","session_id":"6196c7005c2a084d08680404","condition":"full-information","relevant_dimensions":["wings","legs"],"bee_group":{"antennae":"X","wings":"2","pattern":"X","legs":"M"},"bonus":1.320000000000001},{"rt":5856.800000011921,"stimulus":"Welcome! Press any key to begin.","response":" ","trial_type":"html-keyboard-response","trial_index":2,"time_elapsed":18291,"internal_node_id":"0.0-2.0","subject_id":"6170821d1e8ffb9c893b28a4","study_id":"60edd13110225f80f9f3709b","session_id":"6196c7005c2a084d08680404","condition":"full-information","relevant_dimensions":["wings","legs"],"bee_group":{"antennae":"X","wings":"2","pattern":"X","legs":"M"},"bonus":1.320000000000001},{"view_history":[{"page_index":0,"viewing_time":4492.300000011921},{"page_index":1,"viewing_time":9351.199999988079},{"page_index":2,"viewing_time":14494.300000011921},{"page_index":3,"viewing_time":12216.09999999404},{"page_index":4,"viewing_time":10056.800000011921},{"page_index":5,"viewing_time":9428.899999976158},{"page_index":6,"viewing_time":9715.600000023842},{"page_index":7,"viewing_time":4630.799999982119},{"page_index":8,"viewing_time":5132.800000011921},{"page_index":7,"viewing_time":1382.5},{"page_index":8,"viewing_time":1338.7999999821186},{"page_index":7,"viewing_time":979.7000000178814},{"page_index":8,"viewing_time":4161.699999988079},{"page_index":9,"viewing_time":2989.800000011921},{"page_index":10,"viewing_time":2467.9000000059605},{"page_index":11,"viewing_time":8605.5},{"page_index":12,"viewing_time":13775.5},{"page_index":13,"viewing_time":2117.399999976158},{"page_index":14,"viewing_time":3099.2000000178814}],"rt":120437.5,"trial_type":"instructions","trial_index":3,"time_elapsed":138728,"internal_node_id":"0.0-3.0-0.0","subject_id":"6170821d1e8ffb9c893b28a4","study_id":"60edd13110225f80f9f3709b","session_id":"6196c7005c2a084d08680404","condition":"full-information","relevant_dimensions":["wings","legs"],"bee_group":{"antennae":"X","wings":"2","pattern":"X","legs":"M"},"bonus":1.320000000000001},{"rt":10521.300000011921,"response":{"Q0":["Two or six legs","Stripes or spots on body","Single or double wings","Antennae or no antennae"]},"question_order":[0],"trial_type":"survey-multi-select","trial_index":4,"time_elapsed":149260,"internal_node_id":"0.0-3.0-1.0","subject_id":"6170821d1e8ffb9c893b28a4","study_id":"60edd13110225f80f9f3709b","session_id":"6196c7005c2a084d08680404","condition":"full-information","relevant_dimensions":["wings","legs"],"bee_group":{"antennae":"X","wings":"2","pattern":"X","legs":"M"},"correct":true,"bonus":1.320000000000001},{"rt":20440.19999998808,"response":{"Q1":"No.","Q2":"Based on the four features of the bee.","Q3":"You learn if it was friendly or dangerous, but do not alter your bonus."},"question_order":[0,1,2],"trial_type":"survey-multi-choice","trial_index":5,"time_elapsed":169709,"internal_node_id":"0.0-3.0-2.0","subject_id":"6170821d1e8ffb9c893b28a4","study_id":"60edd13110225f80f9f3709b","session_id":"6196c7005c2a084d08680404","condition":"full-information","relevant_dimensions":["wings","legs"],"bee_group":{"antennae":"X","wings":"2","pattern":"X","legs":"M"},"correct":true,"bonus":1.320000000000001},{"rt":4177,"stimulus":"<p>Congrats, you got everything right<br>When you're ready, click the button below to continue to the experiment.</p>","response":0,"trial_type":"html-button-response","trial_index":6,"time_elapsed":173891,"internal_node_id":"0.0-3.0-3.0","subject_id":"6170821d1e8ffb9c893b28a4","study_id":"60edd13110225f80f9f3709b","session_id":"6196c7005c2a084d08680404","condition":"full-information","relevant_dimensions":["wings","legs"],"bee_group":{"antennae":"X","wings":"2","pattern":"X","legs":"M"},"bonus":1.320000000000001},{"rt":5815,"stimulus":"bees-with-color/bee-A2SF.svg","response":0,"trial_type":"image-button-response","trial_index":7,"time_elapsed":179714,"internal_node_id":"0.0-4.0-0.0","subject_id":"6170821d1e8ffb9c893b28a4","study_id":"60edd13110225f80f9f3709b","session_id":"6196c7005c2a084d08680404","condition":"full-information","relevant_dimensions":["wings","legs"],"bee_group":{"antennae":"X","wings":"2","pattern":"X","legs":"M"},"action":"harvest","summary":"good-harvest","bonus":1.320000000000001},{"rt":3276.699999988079,"stimulus":"\n                    <p><b>Action: <em>harvest</em></b></p>\n                    <p>This is the bee that you just saw.</p>\n                    <img src=\"bees-with-color/bee-A2SF.svg\" width=\"200\">\n                    <p><span class=\"greenText\"><b>Successful harvest!</b></span><br>Your pay has increased by $0.02. Your bonus pay is now $0.56.</p>\n            ","response":0,"trial_type":"html-button-response","trial_index":8,"time_elapsed":182997,"internal_node_id":"0.0-4.0-1.0","subject_id":"6170821d1e8ffb9c893b28a4","study_id":"60edd13110225f80f9f3709b","session_id":"6196c7005c2a084d08680404","condition":"full-information","relevant_dimensions":["wings","legs"],"bee_group":{"antennae":"X","wings":"2","pattern":"X","legs":"M"},"bonus":1.320000000000001},{"rt":3709.5999999940395,"stimulus":"bees-with-color/bee-B2SF.svg","response":0,"trial_type":"image-button-response","trial_index":9,"time_elapsed":186711,"internal_node_id":"0.0-4.0-0.1","subject_id":"6170821d1e8ffb9c893b28a4","study_id":"60edd13110225f80f9f3709b","session_id":"6196c7005c2a084d08680404","condition":"full-information","relevant_dimensions":["wings","legs"],"bee_group":{"antennae":"X","wings":"2","pattern":"X","legs":"M"},"action":"harvest","summary":"good-harvest","bonus":1.320000000000001},{"rt":2093.5,"stimulus":"\n                    <p><b>Action: <em>harvest</em></b></p>\n                    <p>This is the bee that you just saw.</p>\n                    <img src=\"bees-with-color/bee-B2SF.svg\" width=\"200\">\n                    <p><span class=\"greenText\"><b>Successful harvest!</b></span><br>Your pay has increased by $0.02. Your bonus pay is now $0.58.</p>\n            ","response":0,"trial_type":"html-button-response","trial_index":10,"time_elapsed":188810,"internal_node_id":"0.0-4.0-1.1","subject_id":"6170821d1e8ffb9c893b28a4","study_id":"60edd13110225f80f9f3709b","session_id":"6196c7005c2a084d08680404","condition":"full-information","relevant_dimensions":["wings","legs"],"bee_group":{"antennae":"X","wings":"2","pattern":"X","legs":"M"},"bonus":1.320000000000001},{"rt":1748.5999999940395,"stimulus":"bees-with-color/bee-B2SM.svg","response":1,"trial_type":"image-button-response","trial_index":11,"time_elapsed":190566,"internal_node_id":"0.0-4.0-0.2","subject_id":"6170821d1e8ffb9c893b28a4","study_id":"60edd13110225f80f9f3709b","session_id":"6196c7005c2a084d08680404","condition":"full-information","relevant_dimensions":["wings","legs"],"bee_group":{"antennae":"X","wings":"2","pattern":"X","legs":"M"},"action":"avoid","summary":"good-avoid","bonus":1.320000000000001},{"rt":5822.4000000059605,"stimulus":"\n                    <p><b>Action: <em>avoid</em></b></p>\n                    <p>This is the bee that you just saw.</p>\n                    <img src=\"bees-with-color/bee-B2SM.svg\" width=\"200\">\n                    <p><span class=\"greenText\">Good choice!</span>  This bee would have stung you.<br>Your bonus pay is unchanged, and remains at $0.58.</p>\n            ","response":0,"trial_type":"html-button-response","trial_index":12,"time_elapsed":196394,"internal_node_id":"0.0-4.0-1.2","subject_id":"6170821d1e8ffb9c893b28a4","study_id":"60edd13110225f80f9f3709b","session_id":"6196c7005c2a084d08680404","condition":"full-information","relevant_dimensions":["wings","legs"],"bee_group":{"antennae":"X","wings":"2","pattern":"X","legs":"M"},"bonus":1.320000000000001},{"rt":3309.9000000059605,"stimulus":"bees-with-color/bee-A2DM.svg","response":1,"trial_type":"image-button-response","trial_index":13,"time_elapsed":199705,"internal_node_id":"0.0-4.0-0.3","subject_id":"6170821d1e8ffb9c893b28a4","study_id":"60edd13110225f80f9f3709b","session_id":"6196c7005c2a084d08680404","condition":"full-information","relevant_dimensions":["wings","legs"],"bee_group":{"antennae":"X","wings":"2","pattern":"X","legs":"M"},"action":"avoid","summary":"good-avoid","bonus":1.320000000000001},{"rt":2557.2999999821186,"stimulus":"\n                    <p><b>Action: <em>avoid</em></b></p>\n                    <p>This is the bee that you just saw.</p>\n                    <img src=\"bees-with-color/bee-A2DM.svg\" width=\"200\">\n                    <p><span class=\"greenText\">Good choice!</span>  This bee would have stung you.<br>Your bonus pay is unchanged, and remains at $0.58.</p>\n            ","response":0,"trial_type":"html-button-response","trial_index":14,"time_elapsed":202267,"internal_node_id":"0.0-4.0-1.3","subject_id":"6170821d1e8ffb9c893b28a4","study_id":"60edd13110225f80f9f3709b","session_id":"6196c7005c2a084d08680404","condition":"full-information","relevant_dimensions":["wings","legs"],"bee_group":{"antennae":"X","wings":"2","pattern":"X","legs":"M"},"bonus":1.320000000000001},{"rt":2093.2999999821186,"stimulus":"bees-with-color/bee-B1DM.svg","response":1,"trial_type":"image-button-response","trial_index":15,"time_elapsed":204366,"internal_node_id":"0.0-4.0-0.4","subject_id":"6170821d1e8ffb9c893b28a4","study_id":"60edd13110225f80f9f3709b","session_id":"6196c7005c2a084d08680404","condition":"full-information","relevant_dimensions":["wings","legs"],"bee_group":{"antennae":"X","wings":"2","pattern":"X","legs":"M"},"action":"avoid","summary":"bad-avoid","bonus":1.320000000000001},{"rt":2893.5999999940395,"stimulus":"\n                    <p><b>Action: <em>avoid</em></b></p>\n                    <p>This is the bee that you just saw.</p>\n                    <img src=\"bees-with-color/bee-B1DM.svg\" width=\"200\">\n                    <p><span class=\"redText\">Bad choice,</span> the bee was friendly.<br>Your bonus pay is unchanged, and remains at $0.58.</p>\n            ","response":0,"trial_type":"html-button-response","trial_index":16,"time_elapsed":207265,"internal_node_id":"0.0-4.0-1.4","subject_id":"6170821d1e8ffb9c893b28a4","study_id":"60edd13110225f80f9f3709b","session_id":"6196c7005c2a084d08680404","condition":"full-information","relevant_dimensions":["wings","legs"],"bee_group":{"antennae":"X","wings":"2","pattern":"X","legs":"M"},"bonus":1.320000000000001},{"rt":1878.2000000178814,"stimulus":"bees-with-color/bee-B1SF.svg","response":0,"trial_type":"image-button-response","trial_index":17,"time_elapsed":209151,"internal_node_id":"0.0-4.0-0.5","subject_id":"6170821d1e8ffb9c893b28a4","study_id":"60edd13110225f80f9f3709b","session_id":"6196c7005c2a084d08680404","condition":"full-information","relevant_dimensions":["wings","legs"],"bee_group":{"antennae":"X","wings":"2","pattern":"X","legs":"M"},"action":"harvest","summary":"good-harvest","bonus":1.320000000000001},{"rt":1653.699999988079,"stimulus":"\n                    <p><b>Action: <em>harvest</em></b></p>\n                    <p>This is the bee that you just saw.</p>\n                    <img src=\"bees-with-color/bee-B1SF.svg\" width=\"200\">\n                    <p><span class=\"greenText\"><b>Successful harvest!</b></span><br>Your pay has increased by $0.02. Your bonus pay is now $0.60.</p>\n            ","response":0,"trial_type":"html-button-response","trial_index":18,"time_elapsed":210810,"internal_node_id":"0.0-4.0-1.5","subject_id":"6170821d1e8ffb9c893b28a4","study_id":"60edd13110225f80f9f3709b","session_id":"6196c7005c2a084d08680404","condition":"full-information","relevant_dimensions":["wings","legs"],"bee_group":{"antennae":"X","wings":"2","pattern":"X","legs":"M"},"bonus":1.320000000000001},{"rt":1909.0999999940395,"stimulus":"bees-with-color/bee-A1SF.svg","response":0,"trial_type":"image-button-response","trial_index":19,"time_elapsed":212725,"internal_node_id":"0.0-4.0-0.6","subject_id":"6170821d1e8ffb9c893b28a4","study_id":"60edd13110225f80f9f3709b","session_id":"6196c7005c2a084d08680404","condition":"full-information","relevant_dimensions":["wings","legs"],"bee_group":{"antennae":"X","wings":"2","pattern":"X","legs":"M"},"action":"harvest","summary":"good-harvest","bonus":1.320000000000001},{"rt":1349.7000000178814,"stimulus":"\n                    <p><b>Action: <em>harvest</em></b></p>\n                    <p>This is the bee that you just saw.</p>\n                    <img src=\"bees-with-color/bee-A1SF.svg\" width=\"200\">\n                    <p><span class=\"greenText\"><b>Successful harvest!</b></span><br>Your pay has increased by $0.02. Your bonus pay is now $0.62.</p>\n            ","response":0,"trial_type":"html-button-response","trial_index":20,"time_elapsed":214079,"internal_node_id":"0.0-4.0-1.6","subject_id":"6170821d1e8ffb9c893b28a4","study_id":"60edd13110225f80f9f3709b","session_id":"6196c7005c2a084d08680404","condition":"full-information","relevant_dimensions":["wings","legs"],"bee_group":{"antennae":"X","wings":"2","pattern":"X","legs":"M"},"bonus":1.320000000000001},{"rt":1931.2000000178814,"stimulus":"bees-with-color/bee-A1DM.svg","response":1,"trial_type":"image-button-response","trial_index":21,"time_elapsed":216018,"internal_node_id":"0.0-4.0-0.7","subject_id":"6170821d1e8ffb9c893b28a4","study_id":"60edd13110225f80f9f3709b","session_id":"6196c7005c2a084d08680404","condition":"full-information","relevant_dimensions":["wings","legs"],"bee_group":{"antennae":"X","wings":"2","pattern":"X","legs":"M"},"action":"avoid","summary":"bad-avoid","bonus":1.320000000000001},{"rt":2138,"stimulus":"\n                    <p><b>Action: <em>avoid</em></b></p>\n                    <p>This is the bee that you just saw.</p>\n                    <img src=\"bees-with-color/bee-A1DM.svg\" width=\"200\">\n                    <p><span class=\"redText\">Bad choice,</span> the bee was friendly.<br>Your bonus pay is unchanged, and remains at $0.62.</p>\n            ","response":0,"trial_type":"html-button-response","trial_index":22,"time_elapsed":218162,"internal_node_id":"0.0-4.0-1.7","subject_id":"6170821d1e8ffb9c893b28a4","study_id":"60edd13110225f80f9f3709b","session_id":"6196c7005c2a084d08680404","condition":"full-information","relevant_dimensions":["wings","legs"],"bee_group":{"antennae":"X","wings":"2","pattern":"X","legs":"M"},"bonus":1.320000000000001},{"rt":3214.9000000059605,"stimulus":"bees-with-color/bee-B2DM.svg","response":1,"trial_type":"image-button-response","trial_index":23,"time_elapsed":221385,"internal_node_id":"0.0-4.0-0.8","subject_id":"6170821d1e8ffb9c893b28a4","study_id":"60edd13110225f80f9f3709b","session_id":"6196c7005c2a084d08680404","condition":"full-information","relevant_dimensions":["wings","legs"],"bee_group":{"antennae":"X","wings":"2","pattern":"X","legs":"M"},"action":"avoid","summary":"good-avoid","bonus":1.320000000000001},{"rt":2072.699999988079,"stimulus":"\n                    <p><b>Action: <em>avoid</em></b></p>\n                    <p>This is the bee that you just saw.</p>\n                    <img src=\"bees-with-color/bee-B2DM.svg\" width=\"200\">\n                    <p><span class=\"greenText\">Good choice!</span>  This bee would have stung you.<br>Your bonus pay is unchanged, and remains at $0.62.</p>\n            ","response":0,"trial_type":"html-button-response","trial_index":24,"time_elapsed":223461,"internal_node_id":"0.0-4.0-1.8","subject_id":"6170821d1e8ffb9c893b28a4","study_id":"60edd13110225f80f9f3709b","session_id":"6196c7005c2a084d08680404","condition":"full-information","relevant_dimensions":["wings","legs"],"bee_group":{"antennae":"X","wings":"2","pattern":"X","legs":"M"},"bonus":1.320000000000001},{"rt":2196.5999999940395,"stimulus":"bees-with-color/bee-B1SM.svg","response":0,"trial_type":"image-button-response","trial_index":25,"time_elapsed":225662,"internal_node_id":"0.0-4.0-0.9","subject_id":"6170821d1e8ffb9c893b28a4","study_id":"60edd13110225f80f9f3709b","session_id":"6196c7005c2a084d08680404","condition":"full-information","relevant_dimensions":["wings","legs"],"bee_group":{"antennae":"X","wings":"2","pattern":"X","legs":"M"},"action":"harvest","summary":"good-harvest","bonus":1.320000000000001},{"rt":1939.0999999940395,"stimulus":"\n                    <p><b>Action: <em>harvest</em></b></p>\n                    <p>This is the bee that you just saw.</p>\n                    <img src=\"bees-with-color/bee-B1SM.svg\" width=\"200\">\n                    <p><span class=\"greenText\"><b>Successful harvest!</b></span><br>Your pay has increased by $0.02. Your bonus pay is now $0.64.</p>\n            ","response":0,"trial_type":"html-button-response","trial_index":26,"time_elapsed":227606,"internal_node_id":"0.0-4.0-1.9","subject_id":"6170821d1e8ffb9c893b28a4","study_id":"60edd13110225f80f9f3709b","session_id":"6196c7005c2a084d08680404","condition":"full-information","relevant_dimensions":["wings","legs"],"bee_group":{"antennae":"X","wings":"2","pattern":"X","legs":"M"},"bonus":1.320000000000001},{"rt":1817.0999999940395,"stimulus":"bees-with-color/bee-B1DF.svg","response":1,"trial_type":"image-button-response","trial_index":27,"time_elapsed":229428,"internal_node_id":"0.0-4.0-0.10","subject_id":"6170821d1e8ffb9c893b28a4","study_id":"60edd13110225f80f9f3709b","session_id":"6196c7005c2a084d08680404","condition":"full-information","relevant_dimensions":["wings","legs"],"bee_group":{"antennae":"X","wings":"2","pattern":"X","legs":"M"},"action":"avoid","summary":"bad-avoid","bonus":1.320000000000001},{"rt":1704.5999999940395,"stimulus":"\n                    <p><b>Action: <em>avoid</em></b></p>\n                    <p>This is the bee that you just saw.</p>\n                    <img src=\"bees-with-color/bee-B1DF.svg\" width=\"200\">\n                    <p><span class=\"redText\">Bad choice,</span> the bee was friendly.<br>Your bonus pay is unchanged, and remains at $0.64.</p>\n            ","response":0,"trial_type":"html-button-response","trial_index":28,"time_elapsed":231136,"internal_node_id":"0.0-4.0-1.10","subject_id":"6170821d1e8ffb9c893b28a4","study_id":"60edd13110225f80f9f3709b","session_id":"6196c7005c2a084d08680404","condition":"full-information","relevant_dimensions":["wings","legs"],"bee_group":{"antennae":"X","wings":"2","pattern":"X","legs":"M"},"bonus":1.320000000000001},{"rt":1733.800000011921,"stimulus":"bees-with-color/bee-A2DF.svg","response":0,"trial_type":"image-button-response","trial_index":29,"time_elapsed":232874,"internal_node_id":"0.0-4.0-0.11","subject_id":"6170821d1e8ffb9c893b28a4","study_id":"60edd13110225f80f9f3709b","session_id":"6196c7005c2a084d08680404","condition":"full-information","relevant_dimensions":["wings","legs"],"bee_group":{"antennae":"X","wings":"2","pattern":"X","legs":"M"},"action":"harvest","summary":"good-harvest","bonus":1.320000000000001},{"rt":1479.7000000178814,"stimulus":"\n                    <p><b>Action: <em>harvest</em></b></p>\n                    <p>This is the bee that you just saw.</p>\n                    <img src=\"bees-with-color/bee-A2DF.svg\" width=\"200\">\n                    <p><span class=\"greenText\"><b>Successful harvest!</b></span><br>Your pay has increased by $0.02. Your bonus pay is now $0.66.</p>\n            ","response":0,"trial_type":"html-button-response","trial_index":30,"time_elapsed":234357,"internal_node_id":"0.0-4.0-1.11","subject_id":"6170821d1e8ffb9c893b28a4","study_id":"60edd13110225f80f9f3709b","session_id":"6196c7005c2a084d08680404","condition":"full-information","relevant_dimensions":["wings","legs"],"bee_group":{"antennae":"X","wings":"2","pattern":"X","legs":"M"},"bonus":1.320000000000001},{"rt":1843,"stimulus":"bees-with-color/bee-B2DF.svg","response":0,"trial_type":"image-button-response","trial_index":31,"time_elapsed":236203,"internal_node_id":"0.0-4.0-0.12","subject_id":"6170821d1e8ffb9c893b28a4","study_id":"60edd13110225f80f9f3709b","session_id":"6196c7005c2a084d08680404","condition":"full-information","relevant_dimensions":["wings","legs"],"bee_group":{"antennae":"X","wings":"2","pattern":"X","legs":"M"},"action":"harvest","summary":"good-harvest","bonus":1.320000000000001},{"rt":1473.7000000178814,"stimulus":"\n                    <p><b>Action: <em>harvest</em></b></p>\n                    <p>This is the bee that you just saw.</p>\n                    <img src=\"bees-with-color/bee-B2DF.svg\" width=\"200\">\n                    <p><span class=\"greenText\"><b>Successful harvest!</b></span><br>Your pay has increased by $0.02. Your bonus pay is now $0.68.</p>\n            ","response":0,"trial_type":"html-button-response","trial_index":32,"time_elapsed":237680,"internal_node_id":"0.0-4.0-1.12","subject_id":"6170821d1e8ffb9c893b28a4","study_id":"60edd13110225f80f9f3709b","session_id":"6196c7005c2a084d08680404","condition":"full-information","relevant_dimensions":["wings","legs"],"bee_group":{"antennae":"X","wings":"2","pattern":"X","legs":"M"},"bonus":1.320000000000001},{"rt":1856,"stimulus":"bees-with-color/bee-A1DF.svg","response":0,"trial_type":"image-button-response","trial_index":33,"time_elapsed":239541,"internal_node_id":"0.0-4.0-0.13","subject_id":"6170821d1e8ffb9c893b28a4","study_id":"60edd13110225f80f9f3709b","session_id":"6196c7005c2a084d08680404","condition":"full-information","relevant_dimensions":["wings","legs"],"bee_group":{"antennae":"X","wings":"2","pattern":"X","legs":"M"},"action":"harvest","summary":"good-harvest","bonus":1.320000000000001},{"rt":1662.7999999821186,"stimulus":"\n                    <p><b>Action: <em>harvest</em></b></p>\n                    <p>This is the bee that you just saw.</p>\n                    <img src=\"bees-with-color/bee-A1DF.svg\" width=\"200\">\n                    <p><span class=\"greenText\"><b>Successful harvest!</b></span><br>Your pay has increased by $0.02. Your bonus pay is now $0.70.</p>\n            ","response":0,"trial_type":"html-button-response","trial_index":34,"time_elapsed":241208,"internal_node_id":"0.0-4.0-1.13","subject_id":"6170821d1e8ffb9c893b28a4","study_id":"60edd13110225f80f9f3709b","session_id":"6196c7005c2a084d08680404","condition":"full-information","relevant_dimensions":["wings","legs"],"bee_group":{"antennae":"X","wings":"2","pattern":"X","legs":"M"},"bonus":1.320000000000001},{"rt":3635.9000000059605,"stimulus":"bees-with-color/bee-A2SM.svg","response":1,"trial_type":"image-button-response","trial_index":35,"time_elapsed":244848,"internal_node_id":"0.0-4.0-0.14","subject_id":"6170821d1e8ffb9c893b28a4","study_id":"60edd13110225f80f9f3709b","session_id":"6196c7005c2a084d08680404","condition":"full-information","relevant_dimensions":["wings","legs"],"bee_group":{"antennae":"X","wings":"2","pattern":"X","legs":"M"},"action":"avoid","summary":"good-avoid","bonus":1.320000000000001},{"rt":1233.9000000059605,"stimulus":"\n                    <p><b>Action: <em>avoid</em></b></p>\n                    <p>This is the bee that you just saw.</p>\n                    <img src=\"bees-with-color/bee-A2SM.svg\" width=\"200\">\n                    <p><span class=\"greenText\">Good choice!</span>  This bee would have stung you.<br>Your bonus pay is unchanged, and remains at $0.70.</p>\n            ","response":0,"trial_type":"html-button-response","trial_index":36,"time_elapsed":246086,"internal_node_id":"0.0-4.0-1.14","subject_id":"6170821d1e8ffb9c893b28a4","study_id":"60edd13110225f80f9f3709b","session_id":"6196c7005c2a084d08680404","condition":"full-information","relevant_dimensions":["wings","legs"],"bee_group":{"antennae":"X","wings":"2","pattern":"X","legs":"M"},"bonus":1.320000000000001},{"rt":1934.5999999940395,"stimulus":"bees-with-color/bee-A1SM.svg","response":1,"trial_type":"image-button-response","trial_index":37,"time_elapsed":248025,"internal_node_id":"0.0-4.0-0.15","subject_id":"6170821d1e8ffb9c893b28a4","study_id":"60edd13110225f80f9f3709b","session_id":"6196c7005c2a084d08680404","condition":"full-information","relevant_dimensions":["wings","legs"],"bee_group":{"antennae":"X","wings":"2","pattern":"X","legs":"M"},"action":"avoid","summary":"bad-avoid","bonus":1.320000000000001},{"rt":1273.5,"stimulus":"\n                    <p><b>Action: <em>avoid</em></b></p>\n                    <p>This is the bee that you just saw.</p>\n                    <img src=\"bees-with-color/bee-A1SM.svg\" width=\"200\">\n                    <p><span class=\"redText\">Bad choice,</span> the bee was friendly.<br>Your bonus pay is unchanged, and remains at $0.70.</p>\n            ","response":0,"trial_type":"html-button-response","trial_index":38,"time_elapsed":249304,"internal_node_id":"0.0-4.0-1.15","subject_id":"6170821d1e8ffb9c893b28a4","study_id":"60edd13110225f80f9f3709b","session_id":"6196c7005c2a084d08680404","condition":"full-information","relevant_dimensions":["wings","legs"],"bee_group":{"antennae":"X","wings":"2","pattern":"X","legs":"M"},"bonus":1.320000000000001},{"rt":1738.6000000238419,"stimulus":"bees-with-color/bee-A1DF.svg","response":0,"trial_type":"image-button-response","trial_index":39,"time_elapsed":251047,"internal_node_id":"0.0-4.0-0.16","subject_id":"6170821d1e8ffb9c893b28a4","study_id":"60edd13110225f80f9f3709b","session_id":"6196c7005c2a084d08680404","condition":"full-information","relevant_dimensions":["wings","legs"],"bee_group":{"antennae":"X","wings":"2","pattern":"X","legs":"M"},"action":"harvest","summary":"good-harvest","bonus":1.320000000000001},{"rt":1363.199999988079,"stimulus":"\n                    <p><b>Action: <em>harvest</em></b></p>\n                    <p>This is the bee that you just saw.</p>\n                    <img src=\"bees-with-color/bee-A1DF.svg\" width=\"200\">\n                    <p><span class=\"greenText\"><b>Successful harvest!</b></span><br>Your pay has increased by $0.02. Your bonus pay is now $0.72.</p>\n            ","response":0,"trial_type":"html-button-response","trial_index":40,"time_elapsed":252413,"internal_node_id":"0.0-4.0-1.16","subject_id":"6170821d1e8ffb9c893b28a4","study_id":"60edd13110225f80f9f3709b","session_id":"6196c7005c2a084d08680404","condition":"full-information","relevant_dimensions":["wings","legs"],"bee_group":{"antennae":"X","wings":"2","pattern":"X","legs":"M"},"bonus":1.320000000000001},{"rt":2188.199999988079,"stimulus":"bees-with-color/bee-A1SM.svg","response":1,"trial_type":"image-button-response","trial_index":41,"time_elapsed":254608,"internal_node_id":"0.0-4.0-0.17","subject_id":"6170821d1e8ffb9c893b28a4","study_id":"60edd13110225f80f9f3709b","session_id":"6196c7005c2a084d08680404","condition":"full-information","relevant_dimensions":["wings","legs"],"bee_group":{"antennae":"X","wings":"2","pattern":"X","legs":"M"},"action":"avoid","summary":"bad-avoid","bonus":1.320000000000001},{"rt":1176.0999999940395,"stimulus":"\n                    <p><b>Action: <em>avoid</em></b></p>\n                    <p>This is the bee that you just saw.</p>\n                    <img src=\"bees-with-color/bee-A1SM.svg\" width=\"200\">\n                    <p><span class=\"redText\">Bad choice,</span> the bee was friendly.<br>Your bonus pay is unchanged, and remains at $0.72.</p>\n            ","response":0,"trial_type":"html-button-response","trial_index":42,"time_elapsed":255788,"internal_node_id":"0.0-4.0-1.17","subject_id":"6170821d1e8ffb9c893b28a4","study_id":"60edd13110225f80f9f3709b","session_id":"6196c7005c2a084d08680404","condition":"full-information","relevant_dimensions":["wings","legs"],"bee_group":{"antennae":"X","wings":"2","pattern":"X","legs":"M"},"bonus":1.320000000000001},{"rt":1987.5999999940395,"stimulus":"bees-with-color/bee-A2SF.svg","response":1,"trial_type":"image-button-response","trial_index":43,"time_elapsed":257781,"internal_node_id":"0.0-4.0-0.18","subject_id":"6170821d1e8ffb9c893b28a4","study_id":"60edd13110225f80f9f3709b","session_id":"6196c7005c2a084d08680404","condition":"full-information","relevant_dimensions":["wings","legs"],"bee_group":{"antennae":"X","wings":"2","pattern":"X","legs":"M"},"action":"avoid","summary":"bad-avoid","bonus":1.320000000000001},{"rt":1073.9000000059605,"stimulus":"\n                    <p><b>Action: <em>avoid</em></b></p>\n                    <p>This is the bee that you just saw.</p>\n                    <img src=\"bees-with-color/bee-A2SF.svg\" width=\"200\">\n                    <p><span class=\"redText\">Bad choice,</span> the bee was friendly.<br>Your bonus pay is unchanged, and remains at $0.72.</p>\n            ","response":0,"trial_type":"html-button-response","trial_index":44,"time_elapsed":258865,"internal_node_id":"0.0-4.0-1.18","subject_id":"6170821d1e8ffb9c893b28a4","study_id":"60edd13110225f80f9f3709b","session_id":"6196c7005c2a084d08680404","condition":"full-information","relevant_dimensions":["wings","legs"],"bee_group":{"antennae":"X","wings":"2","pattern":"X","legs":"M"},"bonus":1.320000000000001},{"rt":1472.300000011921,"stimulus":"bees-with-color/bee-A2SM.svg","response":1,"trial_type":"image-button-response","trial_index":45,"time_elapsed":260341,"internal_node_id":"0.0-4.0-0.19","subject_id":"6170821d1e8ffb9c893b28a4","study_id":"60edd13110225f80f9f3709b","session_id":"6196c7005c2a084d08680404","condition":"full-information","relevant_dimensions":["wings","legs"],"bee_group":{"antennae":"X","wings":"2","pattern":"X","legs":"M"},"action":"avoid","summary":"good-avoid","bonus":1.320000000000001},{"rt":1235,"stimulus":"\n                    <p><b>Action: <em>avoid</em></b></p>\n                    <p>This is the bee that you just saw.</p>\n                    <img src=\"bees-with-color/bee-A2SM.svg\" width=\"200\">\n                    <p><span class=\"greenText\">Good choice!</span>  This bee would have stung you.<br>Your bonus pay is unchanged, and remains at $0.72.</p>\n            ","response":0,"trial_type":"html-button-response","trial_index":46,"time_elapsed":261580,"internal_node_id":"0.0-4.0-1.19","subject_id":"6170821d1e8ffb9c893b28a4","study_id":"60edd13110225f80f9f3709b","session_id":"6196c7005c2a084d08680404","condition":"full-information","relevant_dimensions":["wings","legs"],"bee_group":{"antennae":"X","wings":"2","pattern":"X","legs":"M"},"bonus":1.320000000000001},{"rt":3156.5999999940395,"stimulus":"bees-with-color/bee-A2DF.svg","response":0,"trial_type":"image-button-response","trial_index":47,"time_elapsed":264741,"internal_node_id":"0.0-4.0-0.20","subject_id":"6170821d1e8ffb9c893b28a4","study_id":"60edd13110225f80f9f3709b","session_id":"6196c7005c2a084d08680404","condition":"full-information","relevant_dimensions":["wings","legs"],"bee_group":{"antennae":"X","wings":"2","pattern":"X","legs":"M"},"action":"harvest","summary":"good-harvest","bonus":1.320000000000001},{"rt":1563.8999999761581,"stimulus":"\n                    <p><b>Action: <em>harvest</em></b></p>\n                    <p>This is the bee that you just saw.</p>\n                    <img src=\"bees-with-color/bee-A2DF.svg\" width=\"200\">\n                    <p><span class=\"greenText\"><b>Successful harvest!</b></span><br>Your pay has increased by $0.02. Your bonus pay is now $0.74.</p>\n            ","response":0,"trial_type":"html-button-response","trial_index":48,"time_elapsed":266309,"internal_node_id":"0.0-4.0-1.20","subject_id":"6170821d1e8ffb9c893b28a4","study_id":"60edd13110225f80f9f3709b","session_id":"6196c7005c2a084d08680404","condition":"full-information","relevant_dimensions":["wings","legs"],"bee_group":{"antennae":"X","wings":"2","pattern":"X","legs":"M"},"bonus":1.320000000000001},{"rt":1534.2000000178814,"stimulus":"bees-with-color/bee-B2DF.svg","response":1,"trial_type":"image-button-response","trial_index":49,"time_elapsed":267848,"internal_node_id":"0.0-4.0-0.21","subject_id":"6170821d1e8ffb9c893b28a4","study_id":"60edd13110225f80f9f3709b","session_id":"6196c7005c2a084d08680404","condition":"full-information","relevant_dimensions":["wings","legs"],"bee_group":{"antennae":"X","wings":"2","pattern":"X","legs":"M"},"action":"avoid","summary":"bad-avoid","bonus":1.320000000000001},{"rt":1226.199999988079,"stimulus":"\n                    <p><b>Action: <em>avoid</em></b></p>\n                    <p>This is the bee that you just saw.</p>\n                    <img src=\"bees-with-color/bee-B2DF.svg\" width=\"200\">\n                    <p><span class=\"redText\">Bad choice,</span> the bee was friendly.<br>Your bonus pay is unchanged, and remains at $0.74.</p>\n            ","response":0,"trial_type":"html-button-response","trial_index":50,"time_elapsed":269078,"internal_node_id":"0.0-4.0-1.21","subject_id":"6170821d1e8ffb9c893b28a4","study_id":"60edd13110225f80f9f3709b","session_id":"6196c7005c2a084d08680404","condition":"full-information","relevant_dimensions":["wings","legs"],"bee_group":{"antennae":"X","wings":"2","pattern":"X","legs":"M"},"bonus":1.320000000000001},{"rt":1457.7000000178814,"stimulus":"bees-with-color/bee-A1SF.svg","response":0,"trial_type":"image-button-response","trial_index":51,"time_elapsed":270540,"internal_node_id":"0.0-4.0-0.22","subject_id":"6170821d1e8ffb9c893b28a4","study_id":"60edd13110225f80f9f3709b","session_id":"6196c7005c2a084d08680404","condition":"full-information","relevant_dimensions":["wings","legs"],"bee_group":{"antennae":"X","wings":"2","pattern":"X","legs":"M"},"action":"harvest","summary":"good-harvest","bonus":1.320000000000001},{"rt":1264.7000000178814,"stimulus":"\n                    <p><b>Action: <em>harvest</em></b></p>\n                    <p>This is the bee that you just saw.</p>\n                    <img src=\"bees-with-color/bee-A1SF.svg\" width=\"200\">\n                    <p><span class=\"greenText\"><b>Successful harvest!</b></span><br>Your pay has increased by $0.02. Your bonus pay is now $0.76.</p>\n            ","response":0,"trial_type":"html-button-response","trial_index":52,"time_elapsed":271809,"internal_node_id":"0.0-4.0-1.22","subject_id":"6170821d1e8ffb9c893b28a4","study_id":"60edd13110225f80f9f3709b","session_id":"6196c7005c2a084d08680404","condition":"full-information","relevant_dimensions":["wings","legs"],"bee_group":{"antennae":"X","wings":"2","pattern":"X","legs":"M"},"bonus":1.320000000000001},{"rt":1589.9000000059605,"stimulus":"bees-with-color/bee-B2SM.svg","response":0,"trial_type":"image-button-response","trial_index":53,"time_elapsed":273403,"internal_node_id":"0.0-4.0-0.23","subject_id":"6170821d1e8ffb9c893b28a4","study_id":"60edd13110225f80f9f3709b","session_id":"6196c7005c2a084d08680404","condition":"full-information","relevant_dimensions":["wings","legs"],"bee_group":{"antennae":"X","wings":"2","pattern":"X","legs":"M"},"action":"harvest","summary":"bad-harvest","bonus":1.320000000000001},{"rt":3460.5,"stimulus":"\n                    <p><b>Action: <em>harvest</em></b></p>\n                    <p>This is the bee that you just saw.</p>\n                    <img src=\"bees-with-color/bee-B2SM.svg\" width=\"200\">\n                    <p><span class=\"redText\">Bad choice, the bee was angry.</span><br><b>You have been stung!</b><br>Your pay has been decreased by $0.10. Your bonus pay is now $0.66.</p>\n            ","response":0,"trial_type":"html-button-response","trial_index":54,"time_elapsed":276869,"internal_node_id":"0.0-4.0-1.23","subject_id":"6170821d1e8ffb9c893b28a4","study_id":"60edd13110225f80f9f3709b","session_id":"6196c7005c2a084d08680404","condition":"full-information","relevant_dimensions":["wings","legs"],"bee_group":{"antennae":"X","wings":"2","pattern":"X","legs":"M"},"bonus":1.320000000000001},{"rt":1715.9000000059605,"stimulus":"bees-with-color/bee-A2DM.svg","response":0,"trial_type":"image-button-response","trial_index":55,"time_elapsed":278591,"internal_node_id":"0.0-4.0-0.24","subject_id":"6170821d1e8ffb9c893b28a4","study_id":"60edd13110225f80f9f3709b","session_id":"6196c7005c2a084d08680404","condition":"full-information","relevant_dimensions":["wings","legs"],"bee_group":{"antennae":"X","wings":"2","pattern":"X","legs":"M"},"action":"harvest","summary":"bad-harvest","bonus":1.320000000000001},{"rt":2042.800000011921,"stimulus":"\n                    <p><b>Action: <em>harvest</em></b></p>\n                    <p>This is the bee that you just saw.</p>\n                    <img src=\"bees-with-color/bee-A2DM.svg\" width=\"200\">\n                    <p><span class=\"redText\">Bad choice, the bee was angry.</span><br><b>You have been stung!</b><br>Your pay has been decreased by $0.10. Your bonus pay is now $0.56.</p>\n            ","response":0,"trial_type":"html-button-response","trial_index":56,"time_elapsed":280638,"internal_node_id":"0.0-4.0-1.24","subject_id":"6170821d1e8ffb9c893b28a4","study_id":"60edd13110225f80f9f3709b","session_id":"6196c7005c2a084d08680404","condition":"full-information","relevant_dimensions":["wings","legs"],"bee_group":{"antennae":"X","wings":"2","pattern":"X","legs":"M"},"bonus":1.320000000000001},{"rt":2095.9000000059605,"stimulus":"bees-with-color/bee-B2SF.svg","response":0,"trial_type":"image-button-response","trial_index":57,"time_elapsed":282738,"internal_node_id":"0.0-4.0-0.25","subject_id":"6170821d1e8ffb9c893b28a4","study_id":"60edd13110225f80f9f3709b","session_id":"6196c7005c2a084d08680404","condition":"full-information","relevant_dimensions":["wings","legs"],"bee_group":{"antennae":"X","wings":"2","pattern":"X","legs":"M"},"action":"harvest","summary":"good-harvest","bonus":1.320000000000001},{"rt":2125.5999999940395,"stimulus":"\n                    <p><b>Action: <em>harvest</em></b></p>\n                    <p>This is the bee that you just saw.</p>\n                    <img src=\"bees-with-color/bee-B2SF.svg\" width=\"200\">\n                    <p><span class=\"greenText\"><b>Successful harvest!</b></span><br>Your pay has increased by $0.02. Your bonus pay is now $0.58.</p>\n            ","response":0,"trial_type":"html-button-response","trial_index":58,"time_elapsed":284867,"internal_node_id":"0.0-4.0-1.25","subject_id":"6170821d1e8ffb9c893b28a4","study_id":"60edd13110225f80f9f3709b","session_id":"6196c7005c2a084d08680404","condition":"full-information","relevant_dimensions":["wings","legs"],"bee_group":{"antennae":"X","wings":"2","pattern":"X","legs":"M"},"bonus":1.320000000000001},{"rt":1302.5999999940395,"stimulus":"bees-with-color/bee-A1DM.svg","response":1,"trial_type":"image-button-response","trial_index":59,"time_elapsed":286175,"internal_node_id":"0.0-4.0-0.26","subject_id":"6170821d1e8ffb9c893b28a4","study_id":"60edd13110225f80f9f3709b","session_id":"6196c7005c2a084d08680404","condition":"full-information","relevant_dimensions":["wings","legs"],"bee_group":{"antennae":"X","wings":"2","pattern":"X","legs":"M"},"action":"avoid","summary":"bad-avoid","bonus":1.320000000000001},{"rt":1534.5999999940395,"stimulus":"\n                    <p><b>Action: <em>avoid</em></b></p>\n                    <p>This is the bee that you just saw.</p>\n                    <img src=\"bees-with-color/bee-A1DM.svg\" width=\"200\">\n                    <p><span class=\"redText\">Bad choice,</span> the bee was friendly.<br>Your bonus pay is unchanged, and remains at $0.58.</p>\n            ","response":0,"trial_type":"html-button-response","trial_index":60,"time_elapsed":287712,"internal_node_id":"0.0-4.0-1.26","subject_id":"6170821d1e8ffb9c893b28a4","study_id":"60edd13110225f80f9f3709b","session_id":"6196c7005c2a084d08680404","condition":"full-information","relevant_dimensions":["wings","legs"],"bee_group":{"antennae":"X","wings":"2","pattern":"X","legs":"M"},"bonus":1.320000000000001},{"rt":2058.5999999940395,"stimulus":"bees-with-color/bee-B1DM.svg","response":1,"trial_type":"image-button-response","trial_index":61,"time_elapsed":289775,"internal_node_id":"0.0-4.0-0.27","subject_id":"6170821d1e8ffb9c893b28a4","study_id":"60edd13110225f80f9f3709b","session_id":"6196c7005c2a084d08680404","condition":"full-information","relevant_dimensions":["wings","legs"],"bee_group":{"antennae":"X","wings":"2","pattern":"X","legs":"M"},"action":"avoid","summary":"bad-avoid","bonus":1.320000000000001},{"rt":1201.5,"stimulus":"\n                    <p><b>Action: <em>avoid</em></b></p>\n                    <p>This is the bee that you just saw.</p>\n                    <img src=\"bees-with-color/bee-B1DM.svg\" width=\"200\">\n                    <p><span class=\"redText\">Bad choice,</span> the bee was friendly.<br>Your bonus pay is unchanged, and remains at $0.58.</p>\n            ","response":0,"trial_type":"html-button-response","trial_index":62,"time_elapsed":290981,"internal_node_id":"0.0-4.0-1.27","subject_id":"6170821d1e8ffb9c893b28a4","study_id":"60edd13110225f80f9f3709b","session_id":"6196c7005c2a084d08680404","condition":"full-information","relevant_dimensions":["wings","legs"],"bee_group":{"antennae":"X","wings":"2","pattern":"X","legs":"M"},"bonus":1.320000000000001},{"rt":1689.2000000178814,"stimulus":"bees-with-color/bee-B2DM.svg","response":1,"trial_type":"image-button-response","trial_index":63,"time_elapsed":292674,"internal_node_id":"0.0-4.0-0.28","subject_id":"6170821d1e8ffb9c893b28a4","study_id":"60edd13110225f80f9f3709b","session_id":"6196c7005c2a084d08680404","condition":"full-information","relevant_dimensions":["wings","legs"],"bee_group":{"antennae":"X","wings":"2","pattern":"X","legs":"M"},"action":"avoid","summary":"good-avoid","bonus":1.320000000000001},{"rt":1826.0999999940395,"stimulus":"\n                    <p><b>Action: <em>avoid</em></b></p>\n                    <p>This is the bee that you just saw.</p>\n                    <img src=\"bees-with-color/bee-B2DM.svg\" width=\"200\">\n                    <p><span class=\"greenText\">Good choice!</span>  This bee would have stung you.<br>Your bonus pay is unchanged, and remains at $0.58.</p>\n            ","response":0,"trial_type":"html-button-response","trial_index":64,"time_elapsed":294505,"internal_node_id":"0.0-4.0-1.28","subject_id":"6170821d1e8ffb9c893b28a4","study_id":"60edd13110225f80f9f3709b","session_id":"6196c7005c2a084d08680404","condition":"full-information","relevant_dimensions":["wings","legs"],"bee_group":{"antennae":"X","wings":"2","pattern":"X","legs":"M"},"bonus":1.320000000000001},{"rt":2509.699999988079,"stimulus":"bees-with-color/bee-B1SF.svg","response":0,"trial_type":"image-button-response","trial_index":65,"time_elapsed":297018,"internal_node_id":"0.0-4.0-0.29","subject_id":"6170821d1e8ffb9c893b28a4","study_id":"60edd13110225f80f9f3709b","session_id":"6196c7005c2a084d08680404","condition":"full-information","relevant_dimensions":["wings","legs"],"bee_group":{"antennae":"X","wings":"2","pattern":"X","legs":"M"},"action":"harvest","summary":"good-harvest","bonus":1.320000000000001},{"rt":1201.2000000178814,"stimulus":"\n                    <p><b>Action: <em>harvest</em></b></p>\n                    <p>This is the bee that you just saw.</p>\n                    <img src=\"bees-with-color/bee-B1SF.svg\" width=\"200\">\n                    <p><span class=\"greenText\"><b>Successful harvest!</b></span><br>Your pay has increased by $0.02. Your bonus pay is now $0.60.</p>\n            ","response":0,"trial_type":"html-button-response","trial_index":66,"time_elapsed":298225,"internal_node_id":"0.0-4.0-1.29","subject_id":"6170821d1e8ffb9c893b28a4","study_id":"60edd13110225f80f9f3709b","session_id":"6196c7005c2a084d08680404","condition":"full-information","relevant_dimensions":["wings","legs"],"bee_group":{"antennae":"X","wings":"2","pattern":"X","legs":"M"},"bonus":1.320000000000001},{"rt":1430.199999988079,"stimulus":"bees-with-color/bee-B1SM.svg","response":0,"trial_type":"image-button-response","trial_index":67,"time_elapsed":299661,"internal_node_id":"0.0-4.0-0.30","subject_id":"6170821d1e8ffb9c893b28a4","study_id":"60edd13110225f80f9f3709b","session_id":"6196c7005c2a084d08680404","condition":"full-information","relevant_dimensions":["wings","legs"],"bee_group":{"antennae":"X","wings":"2","pattern":"X","legs":"M"},"action":"harvest","summary":"good-harvest","bonus":1.320000000000001},{"rt":1260.6000000238419,"stimulus":"\n                    <p><b>Action: <em>harvest</em></b></p>\n                    <p>This is the bee that you just saw.</p>\n                    <img src=\"bees-with-color/bee-B1SM.svg\" width=\"200\">\n                    <p><span class=\"greenText\"><b>Successful harvest!</b></span><br>Your pay has increased by $0.02. Your bonus pay is now $0.62.</p>\n            ","response":0,"trial_type":"html-button-response","trial_index":68,"time_elapsed":300925,"internal_node_id":"0.0-4.0-1.30","subject_id":"6170821d1e8ffb9c893b28a4","study_id":"60edd13110225f80f9f3709b","session_id":"6196c7005c2a084d08680404","condition":"full-information","relevant_dimensions":["wings","legs"],"bee_group":{"antennae":"X","wings":"2","pattern":"X","legs":"M"},"bonus":1.320000000000001},{"rt":1296.0999999940395,"stimulus":"bees-with-color/bee-B1DF.svg","response":0,"trial_type":"image-button-response","trial_index":69,"time_elapsed":302225,"internal_node_id":"0.0-4.0-0.31","subject_id":"6170821d1e8ffb9c893b28a4","study_id":"60edd13110225f80f9f3709b","session_id":"6196c7005c2a084d08680404","condition":"full-information","relevant_dimensions":["wings","legs"],"bee_group":{"antennae":"X","wings":"2","pattern":"X","legs":"M"},"action":"harvest","summary":"good-harvest","bonus":1.320000000000001},{"rt":1218.800000011921,"stimulus":"\n                    <p><b>Action: <em>harvest</em></b></p>\n                    <p>This is the bee that you just saw.</p>\n                    <img src=\"bees-with-color/bee-B1DF.svg\" width=\"200\">\n                    <p><span class=\"greenText\"><b>Successful harvest!</b></span><br>Your pay has increased by $0.02. Your bonus pay is now $0.64.</p>\n            ","response":0,"trial_type":"html-button-response","trial_index":70,"time_elapsed":303448,"internal_node_id":"0.0-4.0-1.31","subject_id":"6170821d1e8ffb9c893b28a4","study_id":"60edd13110225f80f9f3709b","session_id":"6196c7005c2a084d08680404","condition":"full-information","relevant_dimensions":["wings","legs"],"bee_group":{"antennae":"X","wings":"2","pattern":"X","legs":"M"},"bonus":1.320000000000001},{"rt":1726.4000000059605,"stimulus":"bees-with-color/bee-A2DM.svg","response":1,"trial_type":"image-button-response","trial_index":71,"time_elapsed":305178,"internal_node_id":"0.0-4.0-0.32","subject_id":"6170821d1e8ffb9c893b28a4","study_id":"60edd13110225f80f9f3709b","session_id":"6196c7005c2a084d08680404","condition":"full-information","relevant_dimensions":["wings","legs"],"bee_group":{"antennae":"X","wings":"2","pattern":"X","legs":"M"},"action":"avoid","summary":"good-avoid","bonus":1.320000000000001},{"rt":1325.5999999940395,"stimulus":"\n                    <p><b>Action: <em>avoid</em></b></p>\n                    <p>This is the bee that you just saw.</p>\n                    <img src=\"bees-with-color/bee-A2DM.svg\" width=\"200\">\n                    <p><span class=\"greenText\">Good choice!</span>  This bee would have stung you.<br>Your bonus pay is unchanged, and remains at $0.64.</p>\n            ","response":0,"trial_type":"html-button-response","trial_index":72,"time_elapsed":306508,"internal_node_id":"0.0-4.0-1.32","subject_id":"6170821d1e8ffb9c893b28a4","study_id":"60edd13110225f80f9f3709b","session_id":"6196c7005c2a084d08680404","condition":"full-information","relevant_dimensions":["wings","legs"],"bee_group":{"antennae":"X","wings":"2","pattern":"X","legs":"M"},"bonus":1.320000000000001},{"rt":1539.5999999940395,"stimulus":"bees-with-color/bee-B1SM.svg","response":0,"trial_type":"image-button-response","trial_index":73,"time_elapsed":308051,"internal_node_id":"0.0-4.0-0.33","subject_id":"6170821d1e8ffb9c893b28a4","study_id":"60edd13110225f80f9f3709b","session_id":"6196c7005c2a084d08680404","condition":"full-information","relevant_dimensions":["wings","legs"],"bee_group":{"antennae":"X","wings":"2","pattern":"X","legs":"M"},"action":"harvest","summary":"good-harvest","bonus":1.320000000000001},{"rt":1189.0999999940395,"stimulus":"\n                    <p><b>Action: <em>harvest</em></b></p>\n                    <p>This is the bee that you just saw.</p>\n                    <img src=\"bees-with-color/bee-B1SM.svg\" width=\"200\">\n                    <p><span class=\"greenText\"><b>Successful harvest!</b></span><br>Your pay has increased by $0.02. Your bonus pay is now $0.66.</p>\n            ","response":0,"trial_type":"html-button-response","trial_index":74,"time_elapsed":309247,"internal_node_id":"0.0-4.0-1.33","subject_id":"6170821d1e8ffb9c893b28a4","study_id":"60edd13110225f80f9f3709b","session_id":"6196c7005c2a084d08680404","condition":"full-information","relevant_dimensions":["wings","legs"],"bee_group":{"antennae":"X","wings":"2","pattern":"X","legs":"M"},"bonus":1.320000000000001},{"rt":2308.5,"stimulus":"bees-with-color/bee-B2DF.svg","response":0,"trial_type":"image-button-response","trial_index":75,"time_elapsed":311561,"internal_node_id":"0.0-4.0-0.34","subject_id":"6170821d1e8ffb9c893b28a4","study_id":"60edd13110225f80f9f3709b","session_id":"6196c7005c2a084d08680404","condition":"full-information","relevant_dimensions":["wings","legs"],"bee_group":{"antennae":"X","wings":"2","pattern":"X","legs":"M"},"action":"harvest","summary":"good-harvest","bonus":1.320000000000001},{"rt":1147,"stimulus":"\n                    <p><b>Action: <em>harvest</em></b></p>\n                    <p>This is the bee that you just saw.</p>\n                    <img src=\"bees-with-color/bee-B2DF.svg\" width=\"200\">\n                    <p><span class=\"greenText\"><b>Successful harvest!</b></span><br>Your pay has increased by $0.02. Your bonus pay is now $0.68.</p>\n            ","response":0,"trial_type":"html-button-response","trial_index":76,"time_elapsed":312714,"internal_node_id":"0.0-4.0-1.34","subject_id":"6170821d1e8ffb9c893b28a4","study_id":"60edd13110225f80f9f3709b","session_id":"6196c7005c2a084d08680404","condition":"full-information","relevant_dimensions":["wings","legs"],"bee_group":{"antennae":"X","wings":"2","pattern":"X","legs":"M"},"bonus":1.320000000000001},{"rt":1357.199999988079,"stimulus":"bees-with-color/bee-A2SM.svg","response":1,"trial_type":"image-button-response","trial_index":77,"time_elapsed":314076,"internal_node_id":"0.0-4.0-0.35","subject_id":"6170821d1e8ffb9c893b28a4","study_id":"60edd13110225f80f9f3709b","session_id":"6196c7005c2a084d08680404","condition":"full-information","relevant_dimensions":["wings","legs"],"bee_group":{"antennae":"X","wings":"2","pattern":"X","legs":"M"},"action":"avoid","summary":"good-avoid","bonus":1.320000000000001},{"rt":1432.4000000059605,"stimulus":"\n                    <p><b>Action: <em>avoid</em></b></p>\n                    <p>This is the bee that you just saw.</p>\n                    <img src=\"bees-with-color/bee-A2SM.svg\" width=\"200\">\n                    <p><span class=\"greenText\">Good choice!</span>  This bee would have stung you.<br>Your bonus pay is unchanged, and remains at $0.68.</p>\n            ","response":0,"trial_type":"html-button-response","trial_index":78,"time_elapsed":315514,"internal_node_id":"0.0-4.0-1.35","subject_id":"6170821d1e8ffb9c893b28a4","study_id":"60edd13110225f80f9f3709b","session_id":"6196c7005c2a084d08680404","condition":"full-information","relevant_dimensions":["wings","legs"],"bee_group":{"antennae":"X","wings":"2","pattern":"X","legs":"M"},"bonus":1.320000000000001},{"rt":2040.2999999821186,"stimulus":"bees-with-color/bee-A2DF.svg","response":1,"trial_type":"image-button-response","trial_index":79,"time_elapsed":317560,"internal_node_id":"0.0-4.0-0.36","subject_id":"6170821d1e8ffb9c893b28a4","study_id":"60edd13110225f80f9f3709b","session_id":"6196c7005c2a084d08680404","condition":"full-information","relevant_dimensions":["wings","legs"],"bee_group":{"antennae":"X","wings":"2","pattern":"X","legs":"M"},"action":"avoid","summary":"bad-avoid","bonus":1.320000000000001},{"rt":1486.9000000059605,"stimulus":"\n                    <p><b>Action: <em>avoid</em></b></p>\n                    <p>This is the bee that you just saw.</p>\n                    <img src=\"bees-with-color/bee-A2DF.svg\" width=\"200\">\n                    <p><span class=\"redText\">Bad choice,</span> the bee was friendly.<br>Your bonus pay is unchanged, and remains at $0.68.</p>\n            ","response":0,"trial_type":"html-button-response","trial_index":80,"time_elapsed":319054,"internal_node_id":"0.0-4.0-1.36","subject_id":"6170821d1e8ffb9c893b28a4","study_id":"60edd13110225f80f9f3709b","session_id":"6196c7005c2a084d08680404","condition":"full-information","relevant_dimensions":["wings","legs"],"bee_group":{"antennae":"X","wings":"2","pattern":"X","legs":"M"},"bonus":1.320000000000001},{"rt":1523.2000000178814,"stimulus":"bees-with-color/bee-B1DM.svg","response":1,"trial_type":"image-button-response","trial_index":81,"time_elapsed":320584,"internal_node_id":"0.0-4.0-0.37","subject_id":"6170821d1e8ffb9c893b28a4","study_id":"60edd13110225f80f9f3709b","session_id":"6196c7005c2a084d08680404","condition":"full-information","relevant_dimensions":["wings","legs"],"bee_group":{"antennae":"X","wings":"2","pattern":"X","legs":"M"},"action":"avoid","summary":"bad-avoid","bonus":1.320000000000001},{"rt":1110.5999999940395,"stimulus":"\n                    <p><b>Action: <em>avoid</em></b></p>\n                    <p>This is the bee that you just saw.</p>\n                    <img src=\"bees-with-color/bee-B1DM.svg\" width=\"200\">\n                    <p><span class=\"redText\">Bad choice,</span> the bee was friendly.<br>Your bonus pay is unchanged, and remains at $0.68.</p>\n            ","response":0,"trial_type":"html-button-response","trial_index":82,"time_elapsed":321701,"internal_node_id":"0.0-4.0-1.37","subject_id":"6170821d1e8ffb9c893b28a4","study_id":"60edd13110225f80f9f3709b","session_id":"6196c7005c2a084d08680404","condition":"full-information","relevant_dimensions":["wings","legs"],"bee_group":{"antennae":"X","wings":"2","pattern":"X","legs":"M"},"bonus":1.320000000000001},{"rt":1594,"stimulus":"bees-with-color/bee-B1DF.svg","response":0,"trial_type":"image-button-response","trial_index":83,"time_elapsed":323300,"internal_node_id":"0.0-4.0-0.38","subject_id":"6170821d1e8ffb9c893b28a4","study_id":"60edd13110225f80f9f3709b","session_id":"6196c7005c2a084d08680404","condition":"full-information","relevant_dimensions":["wings","legs"],"bee_group":{"antennae":"X","wings":"2","pattern":"X","legs":"M"},"action":"harvest","summary":"good-harvest","bonus":1.320000000000001},{"rt":1286.9000000059605,"stimulus":"\n                    <p><b>Action: <em>harvest</em></b></p>\n                    <p>This is the bee that you just saw.</p>\n                    <img src=\"bees-with-color/bee-B1DF.svg\" width=\"200\">\n                    <p><span class=\"greenText\"><b>Successful harvest!</b></span><br>Your pay has increased by $0.02. Your bonus pay is now $0.70.</p>\n            ","response":0,"trial_type":"html-button-response","trial_index":84,"time_elapsed":324592,"internal_node_id":"0.0-4.0-1.38","subject_id":"6170821d1e8ffb9c893b28a4","study_id":"60edd13110225f80f9f3709b","session_id":"6196c7005c2a084d08680404","condition":"full-information","relevant_dimensions":["wings","legs"],"bee_group":{"antennae":"X","wings":"2","pattern":"X","legs":"M"},"bonus":1.320000000000001},{"rt":2640.4000000059605,"stimulus":"bees-with-color/bee-A1DM.svg","response":0,"trial_type":"image-button-response","trial_index":85,"time_elapsed":327236,"internal_node_id":"0.0-4.0-0.39","subject_id":"6170821d1e8ffb9c893b28a4","study_id":"60edd13110225f80f9f3709b","session_id":"6196c7005c2a084d08680404","condition":"full-information","relevant_dimensions":["wings","legs"],"bee_group":{"antennae":"X","wings":"2","pattern":"X","legs":"M"},"action":"harvest","summary":"good-harvest","bonus":1.320000000000001},{"rt":1224,"stimulus":"\n                    <p><b>Action: <em>harvest</em></b></p>\n                    <p>This is the bee that you just saw.</p>\n                    <img src=\"bees-with-color/bee-A1DM.svg\" width=\"200\">\n                    <p><span class=\"greenText\"><b>Successful harvest!</b></span><br>Your pay has increased by $0.02. Your bonus pay is now $0.72.</p>\n            ","response":0,"trial_type":"html-button-response","trial_index":86,"time_elapsed":328467,"internal_node_id":"0.0-4.0-1.39","subject_id":"6170821d1e8ffb9c893b28a4","study_id":"60edd13110225f80f9f3709b","session_id":"6196c7005c2a084d08680404","condition":"full-information","relevant_dimensions":["wings","legs"],"bee_group":{"antennae":"X","wings":"2","pattern":"X","legs":"M"},"bonus":1.320000000000001},{"rt":1523.699999988079,"stimulus":"bees-with-color/bee-B2DM.svg","response":1,"trial_type":"image-button-response","trial_index":87,"time_elapsed":329998,"internal_node_id":"0.0-4.0-0.40","subject_id":"6170821d1e8ffb9c893b28a4","study_id":"60edd13110225f80f9f3709b","session_id":"6196c7005c2a084d08680404","condition":"full-information","relevant_dimensions":["wings","legs"],"bee_group":{"antennae":"X","wings":"2","pattern":"X","legs":"M"},"action":"avoid","summary":"good-avoid","bonus":1.320000000000001},{"rt":1378.5,"stimulus":"\n                    <p><b>Action: <em>avoid</em></b></p>\n                    <p>This is the bee that you just saw.</p>\n                    <img src=\"bees-with-color/bee-B2DM.svg\" width=\"200\">\n                    <p><span class=\"greenText\">Good choice!</span>  This bee would have stung you.<br>Your bonus pay is unchanged, and remains at $0.72.</p>\n            ","response":0,"trial_type":"html-button-response","trial_index":88,"time_elapsed":331382,"internal_node_id":"0.0-4.0-1.40","subject_id":"6170821d1e8ffb9c893b28a4","study_id":"60edd13110225f80f9f3709b","session_id":"6196c7005c2a084d08680404","condition":"full-information","relevant_dimensions":["wings","legs"],"bee_group":{"antennae":"X","wings":"2","pattern":"X","legs":"M"},"bonus":1.320000000000001},{"rt":1564.300000011921,"stimulus":"bees-with-color/bee-B1SF.svg","response":0,"trial_type":"image-button-response","trial_index":89,"time_elapsed":332951,"internal_node_id":"0.0-4.0-0.41","subject_id":"6170821d1e8ffb9c893b28a4","study_id":"60edd13110225f80f9f3709b","session_id":"6196c7005c2a084d08680404","condition":"full-information","relevant_dimensions":["wings","legs"],"bee_group":{"antennae":"X","wings":"2","pattern":"X","legs":"M"},"action":"harvest","summary":"good-harvest","bonus":1.320000000000001},{"rt":1485,"stimulus":"\n                    <p><b>Action: <em>harvest</em></b></p>\n                    <p>This is the bee that you just saw.</p>\n                    <img src=\"bees-with-color/bee-B1SF.svg\" width=\"200\">\n                    <p><span class=\"greenText\"><b>Successful harvest!</b></span><br>Your pay has increased by $0.02. Your bonus pay is now $0.74.</p>\n            ","response":0,"trial_type":"html-button-response","trial_index":90,"time_elapsed":334442,"internal_node_id":"0.0-4.0-1.41","subject_id":"6170821d1e8ffb9c893b28a4","study_id":"60edd13110225f80f9f3709b","session_id":"6196c7005c2a084d08680404","condition":"full-information","relevant_dimensions":["wings","legs"],"bee_group":{"antennae":"X","wings":"2","pattern":"X","legs":"M"},"bonus":1.320000000000001},{"rt":1196.699999988079,"stimulus":"bees-with-color/bee-A1SF.svg","response":0,"trial_type":"image-button-response","trial_index":91,"time_elapsed":335642,"internal_node_id":"0.0-4.0-0.42","subject_id":"6170821d1e8ffb9c893b28a4","study_id":"60edd13110225f80f9f3709b","session_id":"6196c7005c2a084d08680404","condition":"full-information","relevant_dimensions":["wings","legs"],"bee_group":{"antennae":"X","wings":"2","pattern":"X","legs":"M"},"action":"harvest","summary":"good-harvest","bonus":1.320000000000001},{"rt":1306.300000011921,"stimulus":"\n                    <p><b>Action: <em>harvest</em></b></p>\n                    <p>This is the bee that you just saw.</p>\n                    <img src=\"bees-with-color/bee-A1SF.svg\" width=\"200\">\n                    <p><span class=\"greenText\"><b>Successful harvest!</b></span><br>Your pay has increased by $0.02. Your bonus pay is now $0.76.</p>\n            ","response":0,"trial_type":"html-button-response","trial_index":92,"time_elapsed":336951,"internal_node_id":"0.0-4.0-1.42","subject_id":"6170821d1e8ffb9c893b28a4","study_id":"60edd13110225f80f9f3709b","session_id":"6196c7005c2a084d08680404","condition":"full-information","relevant_dimensions":["wings","legs"],"bee_group":{"antennae":"X","wings":"2","pattern":"X","legs":"M"},"bonus":1.320000000000001},{"rt":1324.5999999940395,"stimulus":"bees-with-color/bee-A1DF.svg","response":0,"trial_type":"image-button-response","trial_index":93,"time_elapsed":338280,"internal_node_id":"0.0-4.0-0.43","subject_id":"6170821d1e8ffb9c893b28a4","study_id":"60edd13110225f80f9f3709b","session_id":"6196c7005c2a084d08680404","condition":"full-information","relevant_dimensions":["wings","legs"],"bee_group":{"antennae":"X","wings":"2","pattern":"X","legs":"M"},"action":"harvest","summary":"good-harvest","bonus":1.320000000000001},{"rt":1088.7000000178814,"stimulus":"\n                    <p><b>Action: <em>harvest</em></b></p>\n                    <p>This is the bee that you just saw.</p>\n                    <img src=\"bees-with-color/bee-A1DF.svg\" width=\"200\">\n                    <p><span class=\"greenText\"><b>Successful harvest!</b></span><br>Your pay has increased by $0.02. Your bonus pay is now $0.78.</p>\n            ","response":0,"trial_type":"html-button-response","trial_index":94,"time_elapsed":339373,"internal_node_id":"0.0-4.0-1.43","subject_id":"6170821d1e8ffb9c893b28a4","study_id":"60edd13110225f80f9f3709b","session_id":"6196c7005c2a084d08680404","condition":"full-information","relevant_dimensions":["wings","legs"],"bee_group":{"antennae":"X","wings":"2","pattern":"X","legs":"M"},"bonus":1.320000000000001},{"rt":2081.800000011921,"stimulus":"bees-with-color/bee-B2SM.svg","response":1,"trial_type":"image-button-response","trial_index":95,"time_elapsed":341458,"internal_node_id":"0.0-4.0-0.44","subject_id":"6170821d1e8ffb9c893b28a4","study_id":"60edd13110225f80f9f3709b","session_id":"6196c7005c2a084d08680404","condition":"full-information","relevant_dimensions":["wings","legs"],"bee_group":{"antennae":"X","wings":"2","pattern":"X","legs":"M"},"action":"avoid","summary":"good-avoid","bonus":1.320000000000001},{"rt":1133,"stimulus":"\n                    <p><b>Action: <em>avoid</em></b></p>\n                    <p>This is the bee that you just saw.</p>\n                    <img src=\"bees-with-color/bee-B2SM.svg\" width=\"200\">\n                    <p><span class=\"greenText\">Good choice!</span>  This bee would have stung you.<br>Your bonus pay is unchanged, and remains at $0.78.</p>\n            ","response":0,"trial_type":"html-button-response","trial_index":96,"time_elapsed":342595,"internal_node_id":"0.0-4.0-1.44","subject_id":"6170821d1e8ffb9c893b28a4","study_id":"60edd13110225f80f9f3709b","session_id":"6196c7005c2a084d08680404","condition":"full-information","relevant_dimensions":["wings","legs"],"bee_group":{"antennae":"X","wings":"2","pattern":"X","legs":"M"},"bonus":1.320000000000001},{"rt":1421.0999999940395,"stimulus":"bees-with-color/bee-A1SM.svg","response":1,"trial_type":"image-button-response","trial_index":97,"time_elapsed":344019,"internal_node_id":"0.0-4.0-0.45","subject_id":"6170821d1e8ffb9c893b28a4","study_id":"60edd13110225f80f9f3709b","session_id":"6196c7005c2a084d08680404","condition":"full-information","relevant_dimensions":["wings","legs"],"bee_group":{"antennae":"X","wings":"2","pattern":"X","legs":"M"},"action":"avoid","summary":"bad-avoid","bonus":1.320000000000001},{"rt":1038.2000000178814,"stimulus":"\n                    <p><b>Action: <em>avoid</em></b></p>\n                    <p>This is the bee that you just saw.</p>\n                    <img src=\"bees-with-color/bee-A1SM.svg\" width=\"200\">\n                    <p><span class=\"redText\">Bad choice,</span> the bee was friendly.<br>Your bonus pay is unchanged, and remains at $0.78.</p>\n            ","response":0,"trial_type":"html-button-response","trial_index":98,"time_elapsed":345063,"internal_node_id":"0.0-4.0-1.45","subject_id":"6170821d1e8ffb9c893b28a4","study_id":"60edd13110225f80f9f3709b","session_id":"6196c7005c2a084d08680404","condition":"full-information","relevant_dimensions":["wings","legs"],"bee_group":{"antennae":"X","wings":"2","pattern":"X","legs":"M"},"bonus":1.320000000000001},{"rt":1393.800000011921,"stimulus":"bees-with-color/bee-A2SF.svg","response":0,"trial_type":"image-button-response","trial_index":99,"time_elapsed":346460,"internal_node_id":"0.0-4.0-0.46","subject_id":"6170821d1e8ffb9c893b28a4","study_id":"60edd13110225f80f9f3709b","session_id":"6196c7005c2a084d08680404","condition":"full-information","relevant_dimensions":["wings","legs"],"bee_group":{"antennae":"X","wings":"2","pattern":"X","legs":"M"},"action":"harvest","summary":"good-harvest","bonus":1.320000000000001},{"rt":1321.5,"stimulus":"\n                    <p><b>Action: <em>harvest</em></b></p>\n                    <p>This is the bee that you just saw.</p>\n                    <img src=\"bees-with-color/bee-A2SF.svg\" width=\"200\">\n                    <p><span class=\"greenText\"><b>Successful harvest!</b></span><br>Your pay has increased by $0.02. Your bonus pay is now $0.80.</p>\n            ","response":0,"trial_type":"html-button-response","trial_index":100,"time_elapsed":347785,"internal_node_id":"0.0-4.0-1.46","subject_id":"6170821d1e8ffb9c893b28a4","study_id":"60edd13110225f80f9f3709b","session_id":"6196c7005c2a084d08680404","condition":"full-information","relevant_dimensions":["wings","legs"],"bee_group":{"antennae":"X","wings":"2","pattern":"X","legs":"M"},"bonus":1.320000000000001},{"rt":1151.5999999940395,"stimulus":"bees-with-color/bee-B2SF.svg","response":0,"trial_type":"image-button-response","trial_index":101,"time_elapsed":348940,"internal_node_id":"0.0-4.0-0.47","subject_id":"6170821d1e8ffb9c893b28a4","study_id":"60edd13110225f80f9f3709b","session_id":"6196c7005c2a084d08680404","condition":"full-information","relevant_dimensions":["wings","legs"],"bee_group":{"antennae":"X","wings":"2","pattern":"X","legs":"M"},"action":"harvest","summary":"good-harvest","bonus":1.320000000000001},{"rt":996.1999999880791,"stimulus":"\n                    <p><b>Action: <em>harvest</em></b></p>\n                    <p>This is the bee that you just saw.</p>\n                    <img src=\"bees-with-color/bee-B2SF.svg\" width=\"200\">\n                    <p><span class=\"greenText\"><b>Successful harvest!</b></span><br>Your pay has increased by $0.02. Your bonus pay is now $0.82.</p>\n            ","response":0,"trial_type":"html-button-response","trial_index":102,"time_elapsed":349940,"internal_node_id":"0.0-4.0-1.47","subject_id":"6170821d1e8ffb9c893b28a4","study_id":"60edd13110225f80f9f3709b","session_id":"6196c7005c2a084d08680404","condition":"full-information","relevant_dimensions":["wings","legs"],"bee_group":{"antennae":"X","wings":"2","pattern":"X","legs":"M"},"bonus":1.320000000000001},{"rt":1387.5999999940395,"stimulus":"bees-with-color/bee-B1DM.svg","response":1,"trial_type":"image-button-response","trial_index":103,"time_elapsed":351331,"internal_node_id":"0.0-4.0-0.48","subject_id":"6170821d1e8ffb9c893b28a4","study_id":"60edd13110225f80f9f3709b","session_id":"6196c7005c2a084d08680404","condition":"full-information","relevant_dimensions":["wings","legs"],"bee_group":{"antennae":"X","wings":"2","pattern":"X","legs":"M"},"action":"avoid","summary":"bad-avoid","bonus":1.320000000000001},{"rt":989.9000000059605,"stimulus":"\n                    <p><b>Action: <em>avoid</em></b></p>\n                    <p>This is the bee that you just saw.</p>\n                    <img src=\"bees-with-color/bee-B1DM.svg\" width=\"200\">\n                    <p><span class=\"redText\">Bad choice,</span> the bee was friendly.<br>Your bonus pay is unchanged, and remains at $0.82.</p>\n            ","response":0,"trial_type":"html-button-response","trial_index":104,"time_elapsed":352324,"internal_node_id":"0.0-4.0-1.48","subject_id":"6170821d1e8ffb9c893b28a4","study_id":"60edd13110225f80f9f3709b","session_id":"6196c7005c2a084d08680404","condition":"full-information","relevant_dimensions":["wings","legs"],"bee_group":{"antennae":"X","wings":"2","pattern":"X","legs":"M"},"bonus":1.320000000000001},{"rt":1264,"stimulus":"bees-with-color/bee-A1DF.svg","response":0,"trial_type":"image-button-response","trial_index":105,"time_elapsed":353592,"internal_node_id":"0.0-4.0-0.49","subject_id":"6170821d1e8ffb9c893b28a4","study_id":"60edd13110225f80f9f3709b","session_id":"6196c7005c2a084d08680404","condition":"full-information","relevant_dimensions":["wings","legs"],"bee_group":{"antennae":"X","wings":"2","pattern":"X","legs":"M"},"action":"harvest","summary":"good-harvest","bonus":1.320000000000001},{"rt":1365.5999999940395,"stimulus":"\n                    <p><b>Action: <em>harvest</em></b></p>\n                    <p>This is the bee that you just saw.</p>\n                    <img src=\"bees-with-color/bee-A1DF.svg\" width=\"200\">\n                    <p><span class=\"greenText\"><b>Successful harvest!</b></span><br>Your pay has increased by $0.02. Your bonus pay is now $0.84.</p>\n            ","response":0,"trial_type":"html-button-response","trial_index":106,"time_elapsed":354961,"internal_node_id":"0.0-4.0-1.49","subject_id":"6170821d1e8ffb9c893b28a4","study_id":"60edd13110225f80f9f3709b","session_id":"6196c7005c2a084d08680404","condition":"full-information","relevant_dimensions":["wings","legs"],"bee_group":{"antennae":"X","wings":"2","pattern":"X","legs":"M"},"bonus":1.320000000000001},{"rt":1349.4000000059605,"stimulus":"bees-with-color/bee-B2DM.svg","response":1,"trial_type":"image-button-response","trial_index":107,"time_elapsed":356315,"internal_node_id":"0.0-4.0-0.50","subject_id":"6170821d1e8ffb9c893b28a4","study_id":"60edd13110225f80f9f3709b","session_id":"6196c7005c2a084d08680404","condition":"full-information","relevant_dimensions":["wings","legs"],"bee_group":{"antennae":"X","wings":"2","pattern":"X","legs":"M"},"action":"avoid","summary":"good-avoid","bonus":1.320000000000001},{"rt":1011.7999999821186,"stimulus":"\n                    <p><b>Action: <em>avoid</em></b></p>\n                    <p>This is the bee that you just saw.</p>\n                    <img src=\"bees-with-color/bee-B2DM.svg\" width=\"200\">\n                    <p><span class=\"greenText\">Good choice!</span>  This bee would have stung you.<br>Your bonus pay is unchanged, and remains at $0.84.</p>\n            ","response":0,"trial_type":"html-button-response","trial_index":108,"time_elapsed":357331,"internal_node_id":"0.0-4.0-1.50","subject_id":"6170821d1e8ffb9c893b28a4","study_id":"60edd13110225f80f9f3709b","session_id":"6196c7005c2a084d08680404","condition":"full-information","relevant_dimensions":["wings","legs"],"bee_group":{"antennae":"X","wings":"2","pattern":"X","legs":"M"},"bonus":1.320000000000001},{"rt":2594.399999976158,"stimulus":"bees-with-color/bee-A2DM.svg","response":1,"trial_type":"image-button-response","trial_index":109,"time_elapsed":359930,"internal_node_id":"0.0-4.0-0.51","subject_id":"6170821d1e8ffb9c893b28a4","study_id":"60edd13110225f80f9f3709b","session_id":"6196c7005c2a084d08680404","condition":"full-information","relevant_dimensions":["wings","legs"],"bee_group":{"antennae":"X","wings":"2","pattern":"X","legs":"M"},"action":"avoid","summary":"good-avoid","bonus":1.320000000000001},{"rt":960.3000000119209,"stimulus":"\n                    <p><b>Action: <em>avoid</em></b></p>\n                    <p>This is the bee that you just saw.</p>\n                    <img src=\"bees-with-color/bee-A2DM.svg\" width=\"200\">\n                    <p><span class=\"greenText\">Good choice!</span>  This bee would have stung you.<br>Your bonus pay is unchanged, and remains at $0.84.</p>\n            ","response":0,"trial_type":"html-button-response","trial_index":110,"time_elapsed":360893,"internal_node_id":"0.0-4.0-1.51","subject_id":"6170821d1e8ffb9c893b28a4","study_id":"60edd13110225f80f9f3709b","session_id":"6196c7005c2a084d08680404","condition":"full-information","relevant_dimensions":["wings","legs"],"bee_group":{"antennae":"X","wings":"2","pattern":"X","legs":"M"},"bonus":1.320000000000001},{"rt":1385.4000000059605,"stimulus":"bees-with-color/bee-B1SF.svg","response":0,"trial_type":"image-button-response","trial_index":111,"time_elapsed":362283,"internal_node_id":"0.0-4.0-0.52","subject_id":"6170821d1e8ffb9c893b28a4","study_id":"60edd13110225f80f9f3709b","session_id":"6196c7005c2a084d08680404","condition":"full-information","relevant_dimensions":["wings","legs"],"bee_group":{"antennae":"X","wings":"2","pattern":"X","legs":"M"},"action":"harvest","summary":"good-harvest","bonus":1.320000000000001},{"rt":1080.300000011921,"stimulus":"\n                    <p><b>Action: <em>harvest</em></b></p>\n                    <p>This is the bee that you just saw.</p>\n                    <img src=\"bees-with-color/bee-B1SF.svg\" width=\"200\">\n                    <p><span class=\"greenText\"><b>Successful harvest!</b></span><br>Your pay has increased by $0.02. Your bonus pay is now $0.86.</p>\n            ","response":0,"trial_type":"html-button-response","trial_index":112,"time_elapsed":363367,"internal_node_id":"0.0-4.0-1.52","subject_id":"6170821d1e8ffb9c893b28a4","study_id":"60edd13110225f80f9f3709b","session_id":"6196c7005c2a084d08680404","condition":"full-information","relevant_dimensions":["wings","legs"],"bee_group":{"antennae":"X","wings":"2","pattern":"X","legs":"M"},"bonus":1.320000000000001},{"rt":1650,"stimulus":"bees-with-color/bee-A1SM.svg","response":0,"trial_type":"image-button-response","trial_index":113,"time_elapsed":365020,"internal_node_id":"0.0-4.0-0.53","subject_id":"6170821d1e8ffb9c893b28a4","study_id":"60edd13110225f80f9f3709b","session_id":"6196c7005c2a084d08680404","condition":"full-information","relevant_dimensions":["wings","legs"],"bee_group":{"antennae":"X","wings":"2","pattern":"X","legs":"M"},"action":"harvest","summary":"good-harvest","bonus":1.320000000000001},{"rt":1441.5999999940395,"stimulus":"\n                    <p><b>Action: <em>harvest</em></b></p>\n                    <p>This is the bee that you just saw.</p>\n                    <img src=\"bees-with-color/bee-A1SM.svg\" width=\"200\">\n                    <p><span class=\"greenText\"><b>Successful harvest!</b></span><br>Your pay has increased by $0.02. Your bonus pay is now $0.88.</p>\n            ","response":0,"trial_type":"html-button-response","trial_index":114,"time_elapsed":366468,"internal_node_id":"0.0-4.0-1.53","subject_id":"6170821d1e8ffb9c893b28a4","study_id":"60edd13110225f80f9f3709b","session_id":"6196c7005c2a084d08680404","condition":"full-information","relevant_dimensions":["wings","legs"],"bee_group":{"antennae":"X","wings":"2","pattern":"X","legs":"M"},"bonus":1.320000000000001},{"rt":1850.5,"stimulus":"bees-with-color/bee-A1DM.svg","response":0,"trial_type":"image-button-response","trial_index":115,"time_elapsed":368323,"internal_node_id":"0.0-4.0-0.54","subject_id":"6170821d1e8ffb9c893b28a4","study_id":"60edd13110225f80f9f3709b","session_id":"6196c7005c2a084d08680404","condition":"full-information","relevant_dimensions":["wings","legs"],"bee_group":{"antennae":"X","wings":"2","pattern":"X","legs":"M"},"action":"harvest","summary":"good-harvest","bonus":1.320000000000001},{"rt":898.3000000119209,"stimulus":"\n                    <p><b>Action: <em>harvest</em></b></p>\n                    <p>This is the bee that you just saw.</p>\n                    <img src=\"bees-with-color/bee-A1DM.svg\" width=\"200\">\n                    <p><span class=\"greenText\"><b>Successful harvest!</b></span><br>Your pay has increased by $0.02. Your bonus pay is now $0.90.</p>\n            ","response":0,"trial_type":"html-button-response","trial_index":116,"time_elapsed":369226,"internal_node_id":"0.0-4.0-1.54","subject_id":"6170821d1e8ffb9c893b28a4","study_id":"60edd13110225f80f9f3709b","session_id":"6196c7005c2a084d08680404","condition":"full-information","relevant_dimensions":["wings","legs"],"bee_group":{"antennae":"X","wings":"2","pattern":"X","legs":"M"},"bonus":1.320000000000001},{"rt":1528,"stimulus":"bees-with-color/bee-B2SF.svg","response":0,"trial_type":"image-button-response","trial_index":117,"time_elapsed":370759,"internal_node_id":"0.0-4.0-0.55","subject_id":"6170821d1e8ffb9c893b28a4","study_id":"60edd13110225f80f9f3709b","session_id":"6196c7005c2a084d08680404","condition":"full-information","relevant_dimensions":["wings","legs"],"bee_group":{"antennae":"X","wings":"2","pattern":"X","legs":"M"},"action":"harvest","summary":"good-harvest","bonus":1.320000000000001},{"rt":926,"stimulus":"\n                    <p><b>Action: <em>harvest</em></b></p>\n                    <p>This is the bee that you just saw.</p>\n                    <img src=\"bees-with-color/bee-B2SF.svg\" width=\"200\">\n                    <p><span class=\"greenText\"><b>Successful harvest!</b></span><br>Your pay has increased by $0.02. Your bonus pay is now $0.92.</p>\n            ","response":0,"trial_type":"html-button-response","trial_index":118,"time_elapsed":371689,"internal_node_id":"0.0-4.0-1.55","subject_id":"6170821d1e8ffb9c893b28a4","study_id":"60edd13110225f80f9f3709b","session_id":"6196c7005c2a084d08680404","condition":"full-information","relevant_dimensions":["wings","legs"],"bee_group":{"antennae":"X","wings":"2","pattern":"X","legs":"M"},"bonus":1.320000000000001},{"rt":1487.5,"stimulus":"bees-with-color/bee-A2DF.svg","response":0,"trial_type":"image-button-response","trial_index":119,"time_elapsed":373181,"internal_node_id":"0.0-4.0-0.56","subject_id":"6170821d1e8ffb9c893b28a4","study_id":"60edd13110225f80f9f3709b","session_id":"6196c7005c2a084d08680404","condition":"full-information","relevant_dimensions":["wings","legs"],"bee_group":{"antennae":"X","wings":"2","pattern":"X","legs":"M"},"action":"harvest","summary":"good-harvest","bonus":1.320000000000001},{"rt":1003.8000000119209,"stimulus":"\n                    <p><b>Action: <em>harvest</em></b></p>\n                    <p>This is the bee that you just saw.</p>\n                    <img src=\"bees-with-color/bee-A2DF.svg\" width=\"200\">\n                    <p><span class=\"greenText\"><b>Successful harvest!</b></span><br>Your pay has increased by $0.02. Your bonus pay is now $0.94.</p>\n            ","response":0,"trial_type":"html-button-response","trial_index":120,"time_elapsed":374189,"internal_node_id":"0.0-4.0-1.56","subject_id":"6170821d1e8ffb9c893b28a4","study_id":"60edd13110225f80f9f3709b","session_id":"6196c7005c2a084d08680404","condition":"full-information","relevant_dimensions":["wings","legs"],"bee_group":{"antennae":"X","wings":"2","pattern":"X","legs":"M"},"bonus":1.320000000000001},{"rt":1425,"stimulus":"bees-with-color/bee-A2SF.svg","response":0,"trial_type":"image-button-response","trial_index":121,"time_elapsed":375619,"internal_node_id":"0.0-4.0-0.57","subject_id":"6170821d1e8ffb9c893b28a4","study_id":"60edd13110225f80f9f3709b","session_id":"6196c7005c2a084d08680404","condition":"full-information","relevant_dimensions":["wings","legs"],"bee_group":{"antennae":"X","wings":"2","pattern":"X","legs":"M"},"action":"harvest","summary":"good-harvest","bonus":1.320000000000001},{"rt":1231.8999999761581,"stimulus":"\n                    <p><b>Action: <em>harvest</em></b></p>\n                    <p>This is the bee that you just saw.</p>\n                    <img src=\"bees-with-color/bee-A2SF.svg\" width=\"200\">\n                    <p><span class=\"greenText\"><b>Successful harvest!</b></span><br>Your pay has increased by $0.02. Your bonus pay is now $0.96.</p>\n            ","response":0,"trial_type":"html-button-response","trial_index":122,"time_elapsed":376858,"internal_node_id":"0.0-4.0-1.57","subject_id":"6170821d1e8ffb9c893b28a4","study_id":"60edd13110225f80f9f3709b","session_id":"6196c7005c2a084d08680404","condition":"full-information","relevant_dimensions":["wings","legs"],"bee_group":{"antennae":"X","wings":"2","pattern":"X","legs":"M"},"bonus":1.320000000000001},{"rt":1312.5999999940395,"stimulus":"bees-with-color/bee-A2SM.svg","response":0,"trial_type":"image-button-response","trial_index":123,"time_elapsed":378174,"internal_node_id":"0.0-4.0-0.58","subject_id":"6170821d1e8ffb9c893b28a4","study_id":"60edd13110225f80f9f3709b","session_id":"6196c7005c2a084d08680404","condition":"full-information","relevant_dimensions":["wings","legs"],"bee_group":{"antennae":"X","wings":"2","pattern":"X","legs":"M"},"action":"harvest","summary":"bad-harvest","bonus":1.320000000000001},{"rt":1579,"stimulus":"\n                    <p><b>Action: <em>harvest</em></b></p>\n                    <p>This is the bee that you just saw.</p>\n                    <img src=\"bees-with-color/bee-A2SM.svg\" width=\"200\">\n                    <p><span class=\"redText\">Bad choice, the bee was angry.</span><br><b>You have been stung!</b><br>Your pay has been decreased by $0.10. Your bonus pay is now $0.86.</p>\n            ","response":0,"trial_type":"html-button-response","trial_index":124,"time_elapsed":379754,"internal_node_id":"0.0-4.0-1.58","subject_id":"6170821d1e8ffb9c893b28a4","study_id":"60edd13110225f80f9f3709b","session_id":"6196c7005c2a084d08680404","condition":"full-information","relevant_dimensions":["wings","legs"],"bee_group":{"antennae":"X","wings":"2","pattern":"X","legs":"M"},"bonus":1.320000000000001},{"rt":1757.5,"stimulus":"bees-with-color/bee-B2DF.svg","response":0,"trial_type":"image-button-response","trial_index":125,"time_elapsed":381516,"internal_node_id":"0.0-4.0-0.59","subject_id":"6170821d1e8ffb9c893b28a4","study_id":"60edd13110225f80f9f3709b","session_id":"6196c7005c2a084d08680404","condition":"full-information","relevant_dimensions":["wings","legs"],"bee_group":{"antennae":"X","wings":"2","pattern":"X","legs":"M"},"action":"harvest","summary":"good-harvest","bonus":1.320000000000001},{"rt":1329.1000000238419,"stimulus":"\n                    <p><b>Action: <em>harvest</em></b></p>\n                    <p>This is the bee that you just saw.</p>\n                    <img src=\"bees-with-color/bee-B2DF.svg\" width=\"200\">\n                    <p><span class=\"greenText\"><b>Successful harvest!</b></span><br>Your pay has increased by $0.02. Your bonus pay is now $0.88.</p>\n            ","response":0,"trial_type":"html-button-response","trial_index":126,"time_elapsed":382853,"internal_node_id":"0.0-4.0-1.59","subject_id":"6170821d1e8ffb9c893b28a4","study_id":"60edd13110225f80f9f3709b","session_id":"6196c7005c2a084d08680404","condition":"full-information","relevant_dimensions":["wings","legs"],"bee_group":{"antennae":"X","wings":"2","pattern":"X","legs":"M"},"bonus":1.320000000000001},{"rt":2564.4000000059605,"stimulus":"bees-with-color/bee-B1SM.svg","response":0,"trial_type":"image-button-response","trial_index":127,"time_elapsed":385422,"internal_node_id":"0.0-4.0-0.60","subject_id":"6170821d1e8ffb9c893b28a4","study_id":"60edd13110225f80f9f3709b","session_id":"6196c7005c2a084d08680404","condition":"full-information","relevant_dimensions":["wings","legs"],"bee_group":{"antennae":"X","wings":"2","pattern":"X","legs":"M"},"action":"harvest","summary":"good-harvest","bonus":1.320000000000001},{"rt":910.0999999940395,"stimulus":"\n                    <p><b>Action: <em>harvest</em></b></p>\n                    <p>This is the bee that you just saw.</p>\n                    <img src=\"bees-with-color/bee-B1SM.svg\" width=\"200\">\n                    <p><span class=\"greenText\"><b>Successful harvest!</b></span><br>Your pay has increased by $0.02. Your bonus pay is now $0.90.</p>\n            ","response":0,"trial_type":"html-button-response","trial_index":128,"time_elapsed":386337,"internal_node_id":"0.0-4.0-1.60","subject_id":"6170821d1e8ffb9c893b28a4","study_id":"60edd13110225f80f9f3709b","session_id":"6196c7005c2a084d08680404","condition":"full-information","relevant_dimensions":["wings","legs"],"bee_group":{"antennae":"X","wings":"2","pattern":"X","legs":"M"},"bonus":1.320000000000001},{"rt":1264.300000011921,"stimulus":"bees-with-color/bee-B1DF.svg","response":0,"trial_type":"image-button-response","trial_index":129,"time_elapsed":387605,"internal_node_id":"0.0-4.0-0.61","subject_id":"6170821d1e8ffb9c893b28a4","study_id":"60edd13110225f80f9f3709b","session_id":"6196c7005c2a084d08680404","condition":"full-information","relevant_dimensions":["wings","legs"],"bee_group":{"antennae":"X","wings":"2","pattern":"X","legs":"M"},"action":"harvest","summary":"good-harvest","bonus":1.320000000000001},{"rt":1267.800000011921,"stimulus":"\n                    <p><b>Action: <em>harvest</em></b></p>\n                    <p>This is the bee that you just saw.</p>\n                    <img src=\"bees-with-color/bee-B1DF.svg\" width=\"200\">\n                    <p><span class=\"greenText\"><b>Successful harvest!</b></span><br>Your pay has increased by $0.02. Your bonus pay is now $0.92.</p>\n            ","response":0,"trial_type":"html-button-response","trial_index":130,"time_elapsed":388876,"internal_node_id":"0.0-4.0-1.61","subject_id":"6170821d1e8ffb9c893b28a4","study_id":"60edd13110225f80f9f3709b","session_id":"6196c7005c2a084d08680404","condition":"full-information","relevant_dimensions":["wings","legs"],"bee_group":{"antennae":"X","wings":"2","pattern":"X","legs":"M"},"bonus":1.320000000000001},{"rt":1302.4000000059605,"stimulus":"bees-with-color/bee-A1SF.svg","response":0,"trial_type":"image-button-response","trial_index":131,"time_elapsed":390182,"internal_node_id":"0.0-4.0-0.62","subject_id":"6170821d1e8ffb9c893b28a4","study_id":"60edd13110225f80f9f3709b","session_id":"6196c7005c2a084d08680404","condition":"full-information","relevant_dimensions":["wings","legs"],"bee_group":{"antennae":"X","wings":"2","pattern":"X","legs":"M"},"action":"harvest","summary":"good-harvest","bonus":1.320000000000001},{"rt":894.5,"stimulus":"\n                    <p><b>Action: <em>harvest</em></b></p>\n                    <p>This is the bee that you just saw.</p>\n                    <img src=\"bees-with-color/bee-A1SF.svg\" width=\"200\">\n                    <p><span class=\"greenText\"><b>Successful harvest!</b></span><br>Your pay has increased by $0.02. Your bonus pay is now $0.94.</p>\n            ","response":0,"trial_type":"html-button-response","trial_index":132,"time_elapsed":391081,"internal_node_id":"0.0-4.0-1.62","subject_id":"6170821d1e8ffb9c893b28a4","study_id":"60edd13110225f80f9f3709b","session_id":"6196c7005c2a084d08680404","condition":"full-information","relevant_dimensions":["wings","legs"],"bee_group":{"antennae":"X","wings":"2","pattern":"X","legs":"M"},"bonus":1.320000000000001},{"rt":1396.1000000238419,"stimulus":"bees-with-color/bee-B2SM.svg","response":1,"trial_type":"image-button-response","trial_index":133,"time_elapsed":392481,"internal_node_id":"0.0-4.0-0.63","subject_id":"6170821d1e8ffb9c893b28a4","study_id":"60edd13110225f80f9f3709b","session_id":"6196c7005c2a084d08680404","condition":"full-information","relevant_dimensions":["wings","legs"],"bee_group":{"antennae":"X","wings":"2","pattern":"X","legs":"M"},"action":"avoid","summary":"good-avoid","bonus":1.320000000000001},{"rt":980.8000000119209,"stimulus":"\n                    <p><b>Action: <em>avoid</em></b></p>\n                    <p>This is the bee that you just saw.</p>\n                    <img src=\"bees-with-color/bee-B2SM.svg\" width=\"200\">\n                    <p><span class=\"greenText\">Good choice!</span>  This bee would have stung you.<br>Your bonus pay is unchanged, and remains at $0.94.</p>\n            ","response":0,"trial_type":"html-button-response","trial_index":134,"time_elapsed":393465,"internal_node_id":"0.0-4.0-1.63","subject_id":"6170821d1e8ffb9c893b28a4","study_id":"60edd13110225f80f9f3709b","session_id":"6196c7005c2a084d08680404","condition":"full-information","relevant_dimensions":["wings","legs"],"bee_group":{"antennae":"X","wings":"2","pattern":"X","legs":"M"},"bonus":1.320000000000001},{"rt":11007.59999999404,"stimulus":"You have completed the first part of this experiment.<br><br>You will now begin a shorter second part, in which you will receive no feedback.<br>The same rules regarding bonus pay apply.<br><br>Press any key to begin.","response":" ","trial_type":"html-keyboard-response","trial_index":135,"time_elapsed":404476,"internal_node_id":"0.0-5.0","subject_id":"6170821d1e8ffb9c893b28a4","study_id":"60edd13110225f80f9f3709b","session_id":"6196c7005c2a084d08680404","condition":"full-information","relevant_dimensions":["wings","legs"],"bee_group":{"antennae":"X","wings":"2","pattern":"X","legs":"M"},"bonus":1.320000000000001},{"rt":9220.59999999404,"stimulus":"bees-with-color/bee-A1SF.svg","response":0,"trial_type":"image-button-response","trial_index":136,"time_elapsed":413726,"internal_node_id":"0.0-6.0-0.0","subject_id":"6170821d1e8ffb9c893b28a4","study_id":"60edd13110225f80f9f3709b","session_id":"6196c7005c2a084d08680404","condition":"full-information","relevant_dimensions":["wings","legs"],"bee_group":{"antennae":"X","wings":"2","pattern":"X","legs":"M"},"bonus":1.320000000000001},{"rt":1382.2999999821186,"stimulus":"bees-with-color/bee-A2DF.svg","response":0,"trial_type":"image-button-response","trial_index":137,"time_elapsed":415115,"internal_node_id":"0.0-6.0-0.1","subject_id":"6170821d1e8ffb9c893b28a4","study_id":"60edd13110225f80f9f3709b","session_id":"6196c7005c2a084d08680404","condition":"full-information","relevant_dimensions":["wings","legs"],"bee_group":{"antennae":"X","wings":"2","pattern":"X","legs":"M"},"bonus":1.320000000000001},{"rt":1462.2000000178814,"stimulus":"bees-with-color/bee-B2SF.svg","response":0,"trial_type":"image-button-response","trial_index":138,"time_elapsed":416584,"internal_node_id":"0.0-6.0-0.2","subject_id":"6170821d1e8ffb9c893b28a4","study_id":"60edd13110225f80f9f3709b","session_id":"6196c7005c2a084d08680404","condition":"full-information","relevant_dimensions":["wings","legs"],"bee_group":{"antennae":"X","wings":"2","pattern":"X","legs":"M"},"bonus":1.320000000000001},{"rt":1555.5999999940395,"stimulus":"bees-with-color/bee-B2SM.svg","response":1,"trial_type":"image-button-response","trial_index":139,"time_elapsed":418147,"internal_node_id":"0.0-6.0-0.3","subject_id":"6170821d1e8ffb9c893b28a4","study_id":"60edd13110225f80f9f3709b","session_id":"6196c7005c2a084d08680404","condition":"full-information","relevant_dimensions":["wings","legs"],"bee_group":{"antennae":"X","wings":"2","pattern":"X","legs":"M"},"bonus":1.320000000000001},{"rt":1535.300000011921,"stimulus":"bees-with-color/bee-B2DF.svg","response":0,"trial_type":"image-button-response","trial_index":140,"time_elapsed":419690,"internal_node_id":"0.0-6.0-0.4","subject_id":"6170821d1e8ffb9c893b28a4","study_id":"60edd13110225f80f9f3709b","session_id":"6196c7005c2a084d08680404","condition":"full-information","relevant_dimensions":["wings","legs"],"bee_group":{"antennae":"X","wings":"2","pattern":"X","legs":"M"},"bonus":1.320000000000001},{"rt":1387.0999999940395,"stimulus":"bees-with-color/bee-B1DM.svg","response":0,"trial_type":"image-button-response","trial_index":141,"time_elapsed":421083,"internal_node_id":"0.0-6.0-0.5","subject_id":"6170821d1e8ffb9c893b28a4","study_id":"60edd13110225f80f9f3709b","session_id":"6196c7005c2a084d08680404","condition":"full-information","relevant_dimensions":["wings","legs"],"bee_group":{"antennae":"X","wings":"2","pattern":"X","legs":"M"},"bonus":1.320000000000001},{"rt":1708.3999999761581,"stimulus":"bees-with-color/bee-A2DM.svg","response":1,"trial_type":"image-button-response","trial_index":142,"time_elapsed":422798,"internal_node_id":"0.0-6.0-0.6","subject_id":"6170821d1e8ffb9c893b28a4","study_id":"60edd13110225f80f9f3709b","session_id":"6196c7005c2a084d08680404","condition":"full-information","relevant_dimensions":["wings","legs"],"bee_group":{"antennae":"X","wings":"2","pattern":"X","legs":"M"},"bonus":1.320000000000001},{"rt":1262.3999999761581,"stimulus":"bees-with-color/bee-B1SF.svg","response":0,"trial_type":"image-button-response","trial_index":143,"time_elapsed":424071,"internal_node_id":"0.0-6.0-0.7","subject_id":"6170821d1e8ffb9c893b28a4","study_id":"60edd13110225f80f9f3709b","session_id":"6196c7005c2a084d08680404","condition":"full-information","relevant_dimensions":["wings","legs"],"bee_group":{"antennae":"X","wings":"2","pattern":"X","legs":"M"},"bonus":1.320000000000001},{"rt":1313.9000000059605,"stimulus":"bees-with-color/bee-A2SM.svg","response":1,"trial_type":"image-button-response","trial_index":144,"time_elapsed":425389,"internal_node_id":"0.0-6.0-0.8","subject_id":"6170821d1e8ffb9c893b28a4","study_id":"60edd13110225f80f9f3709b","session_id":"6196c7005c2a084d08680404","condition":"full-information","relevant_dimensions":["wings","legs"],"bee_group":{"antennae":"X","wings":"2","pattern":"X","legs":"M"},"bonus":1.320000000000001},{"rt":1242.5,"stimulus":"bees-with-color/bee-B2DM.svg","response":1,"trial_type":"image-button-response","trial_index":145,"time_elapsed":426637,"internal_node_id":"0.0-6.0-0.9","subject_id":"6170821d1e8ffb9c893b28a4","study_id":"60edd13110225f80f9f3709b","session_id":"6196c7005c2a084d08680404","condition":"full-information","relevant_dimensions":["wings","legs"],"bee_group":{"antennae":"X","wings":"2","pattern":"X","legs":"M"},"bonus":1.320000000000001},{"rt":1991.7999999821186,"stimulus":"bees-with-color/bee-A2SF.svg","response":0,"trial_type":"image-button-response","trial_index":146,"time_elapsed":428636,"internal_node_id":"0.0-6.0-0.10","subject_id":"6170821d1e8ffb9c893b28a4","study_id":"60edd13110225f80f9f3709b","session_id":"6196c7005c2a084d08680404","condition":"full-information","relevant_dimensions":["wings","legs"],"bee_group":{"antennae":"X","wings":"2","pattern":"X","legs":"M"},"bonus":1.320000000000001},{"rt":1199.9000000059605,"stimulus":"bees-with-color/bee-B1SM.svg","response":1,"trial_type":"image-button-response","trial_index":147,"time_elapsed":429842,"internal_node_id":"0.0-6.0-0.11","subject_id":"6170821d1e8ffb9c893b28a4","study_id":"60edd13110225f80f9f3709b","session_id":"6196c7005c2a084d08680404","condition":"full-information","relevant_dimensions":["wings","legs"],"bee_group":{"antennae":"X","wings":"2","pattern":"X","legs":"M"},"bonus":1.320000000000001},{"rt":1241.300000011921,"stimulus":"bees-with-color/bee-A1DM.svg","response":1,"trial_type":"image-button-response","trial_index":148,"time_elapsed":431088,"internal_node_id":"0.0-6.0-0.12","subject_id":"6170821d1e8ffb9c893b28a4","study_id":"60edd13110225f80f9f3709b","session_id":"6196c7005c2a084d08680404","condition":"full-information","relevant_dimensions":["wings","legs"],"bee_group":{"antennae":"X","wings":"2","pattern":"X","legs":"M"},"bonus":1.320000000000001},{"rt":1510.1000000238419,"stimulus":"bees-with-color/bee-B1DF.svg","response":0,"trial_type":"image-button-response","trial_index":149,"time_elapsed":432604,"internal_node_id":"0.0-6.0-0.13","subject_id":"6170821d1e8ffb9c893b28a4","study_id":"60edd13110225f80f9f3709b","session_id":"6196c7005c2a084d08680404","condition":"full-information","relevant_dimensions":["wings","legs"],"bee_group":{"antennae":"X","wings":"2","pattern":"X","legs":"M"},"bonus":1.320000000000001},{"rt":4477,"stimulus":"bees-with-color/bee-A1SM.svg","response":0,"trial_type":"image-button-response","trial_index":150,"time_elapsed":437087,"internal_node_id":"0.0-6.0-0.14","subject_id":"6170821d1e8ffb9c893b28a4","study_id":"60edd13110225f80f9f3709b","session_id":"6196c7005c2a084d08680404","condition":"full-information","relevant_dimensions":["wings","legs"],"bee_group":{"antennae":"X","wings":"2","pattern":"X","legs":"M"},"bonus":1.320000000000001},{"rt":1203.5999999940395,"stimulus":"bees-with-color/bee-A1DF.svg","response":0,"trial_type":"image-button-response","trial_index":151,"time_elapsed":438297,"internal_node_id":"0.0-6.0-0.15","subject_id":"6170821d1e8ffb9c893b28a4","study_id":"60edd13110225f80f9f3709b","session_id":"6196c7005c2a084d08680404","condition":"full-information","relevant_dimensions":["wings","legs"],"bee_group":{"antennae":"X","wings":"2","pattern":"X","legs":"M"},"bonus":1.320000000000001},{"rt":2296,"stimulus":"bees-with-color/bee-B2DF.svg","response":0,"trial_type":"image-button-response","trial_index":152,"time_elapsed":440604,"internal_node_id":"0.0-6.0-0.16","subject_id":"6170821d1e8ffb9c893b28a4","study_id":"60edd13110225f80f9f3709b","session_id":"6196c7005c2a084d08680404","condition":"full-information","relevant_dimensions":["wings","legs"],"bee_group":{"antennae":"X","wings":"2","pattern":"X","legs":"M"},"bonus":1.320000000000001},{"rt":1079.300000011921,"stimulus":"bees-with-color/bee-B1SF.svg","response":0,"trial_type":"image-button-response","trial_index":153,"time_elapsed":441691,"internal_node_id":"0.0-6.0-0.17","subject_id":"6170821d1e8ffb9c893b28a4","study_id":"60edd13110225f80f9f3709b","session_id":"6196c7005c2a084d08680404","condition":"full-information","relevant_dimensions":["wings","legs"],"bee_group":{"antennae":"X","wings":"2","pattern":"X","legs":"M"},"bonus":1.320000000000001},{"rt":1363.4000000059605,"stimulus":"bees-with-color/bee-A2DF.svg","response":0,"trial_type":"image-button-response","trial_index":154,"time_elapsed":443059,"internal_node_id":"0.0-6.0-0.18","subject_id":"6170821d1e8ffb9c893b28a4","study_id":"60edd13110225f80f9f3709b","session_id":"6196c7005c2a084d08680404","condition":"full-information","relevant_dimensions":["wings","legs"],"bee_group":{"antennae":"X","wings":"2","pattern":"X","legs":"M"},"bonus":1.320000000000001},{"rt":3563,"stimulus":"bees-with-color/bee-B1SM.svg","response":1,"trial_type":"image-button-response","trial_index":155,"time_elapsed":446626,"internal_node_id":"0.0-6.0-0.19","subject_id":"6170821d1e8ffb9c893b28a4","study_id":"60edd13110225f80f9f3709b","session_id":"6196c7005c2a084d08680404","condition":"full-information","relevant_dimensions":["wings","legs"],"bee_group":{"antennae":"X","wings":"2","pattern":"X","legs":"M"},"bonus":1.320000000000001},{"rt":1064.300000011921,"stimulus":"bees-with-color/bee-A2DM.svg","response":1,"trial_type":"image-button-response","trial_index":156,"time_elapsed":447696,"internal_node_id":"0.0-6.0-0.20","subject_id":"6170821d1e8ffb9c893b28a4","study_id":"60edd13110225f80f9f3709b","session_id":"6196c7005c2a084d08680404","condition":"full-information","relevant_dimensions":["wings","legs"],"bee_group":{"antennae":"X","wings":"2","pattern":"X","legs":"M"},"bonus":1.320000000000001},{"rt":1310.199999988079,"stimulus":"bees-with-color/bee-B2DM.svg","response":1,"trial_type":"image-button-response","trial_index":157,"time_elapsed":449011,"internal_node_id":"0.0-6.0-0.21","subject_id":"6170821d1e8ffb9c893b28a4","study_id":"60edd13110225f80f9f3709b","session_id":"6196c7005c2a084d08680404","condition":"full-information","relevant_dimensions":["wings","legs"],"bee_group":{"antennae":"X","wings":"2","pattern":"X","legs":"M"},"bonus":1.320000000000001},{"rt":2086.9000000059605,"stimulus":"bees-with-color/bee-B1DM.svg","response":1,"trial_type":"image-button-response","trial_index":158,"time_elapsed":451103,"internal_node_id":"0.0-6.0-0.22","subject_id":"6170821d1e8ffb9c893b28a4","study_id":"60edd13110225f80f9f3709b","session_id":"619