[{"success":true,"trial_type":"fullscreen","trial_index":0,"time_elapsed":37504,"internal_node_id":"0.0-0.0","subject_id":"5e8218bd6c3f4492c10df21b","study_id":"6197b3f67c2b5cd3b6d9596a","session_id":"6197b5d1180b2951c79aa976","condition":"full-information","relevant_dimensions":["wings","legs"],"bee_group":{"antennae":"X","wings":"2","pattern":"X","legs":"M"},"bonus":0.22000000000000075},{"success":true,"timeout":false,"failed_images":[],"failed_audio":[],"failed_video":[],"trial_type":"preload","trial_index":1,"time_elapsed":39415,"internal_node_id":"0.0-1.0","subject_id":"5e8218bd6c3f4492c10df21b","study_id":"6197b3f67c2b5cd3b6d9596a","session_id":"6197b5d1180b2951c79aa976","condition":"full-information","relevant_dimensions":["wings","legs"],"bee_group":{"antennae":"X","wings":"2","pattern":"X","legs":"M"},"bonus":0.22000000000000075},{"rt":5443.299999999988,"stimulus":"Welcome! Press any key to begin.","response":"c","trial_type":"html-keyboard-response","trial_index":2,"time_elapsed":44860,"internal_node_id":"0.0-2.0","subject_id":"5e8218bd6c3f4492c10df21b","study_id":"6197b3f67c2b5cd3b6d9596a","session_id":"6197b5d1180b2951c79aa976","condition":"full-information","relevant_dimensions":["wings","legs"],"bee_group":{"antennae":"X","wings":"2","pattern":"X","legs":"M"},"bonus":0.22000000000000075},{"view_history":[{"page_index":0,"viewing_time":10309},{"page_index":1,"viewing_time":14385.899999999994},{"page_index":2,"viewing_time":16132.399999999994},{"page_index":3,"viewing_time":21167.5},{"page_index":4,"viewing_time":11276.300000000017},{"page_index":5,"viewing_time":12633.699999999983},{"page_index":6,"viewing_time":14400.400000000023},{"page_index":7,"viewing_time":6504.399999999994},{"page_index":8,"viewing_time":3737.899999999994},{"page_index":9,"viewing_time":3831.100000000006},{"page_index":10,"viewing_time":3040.1999999999825},{"page_index":11,"viewing_time":9083.700000000012},{"page_index":12,"viewing_time":6514.5},{"page_index":13,"viewing_time":1790.7000000000116},{"page_index":14,"viewing_time":2678.5999999999767}],"rt":137486.7,"trial_type":"instructions","trial_index":3,"time_elapsed":182347,"internal_node_id":"0.0-3.0-0.0","subject_id":"5e8218bd6c3f4492c10df21b","study_id":"6197b3f67c2b5cd3b6d9596a","session_id":"6197b5d1180b2951c79aa976","condition":"full-information","relevant_dimensions":["wings","legs"],"bee_group":{"antennae":"X","wings":"2","pattern":"X","legs":"M"},"bonus":0.22000000000000075},{"rt":13430.299999999988,"response":{"Q0":["Two or six legs","Stripes or spots on body","Single or double wings","Antennae or no antennae"]},"question_order":[0],"trial_type":"survey-multi-select","trial_index":4,"time_elapsed":195784,"internal_node_id":"0.0-3.0-1.0","subject_id":"5e8218bd6c3f4492c10df21b","study_id":"6197b3f67c2b5cd3b6d9596a","session_id":"6197b5d1180b2951c79aa976","condition":"full-information","relevant_dimensions":["wings","legs"],"bee_group":{"antennae":"X","wings":"2","pattern":"X","legs":"M"},"correct":true,"bonus":0.22000000000000075},{"rt":24196.399999999965,"response":{"Q1":"No.","Q2":"Based on the four features of the bee.","Q3":"You learn if it was friendly or dangerous, but do not alter your bonus."},"question_order":[0,1,2],"trial_type":"survey-multi-choice","trial_index":5,"time_elapsed":219990,"internal_node_id":"0.0-3.0-2.0","subject_id":"5e8218bd6c3f4492c10df21b","study_id":"6197b3f67c2b5cd3b6d9596a","session_id":"6197b5d1180b2951c79aa976","condition":"full-information","relevant_dimensions":["wings","legs"],"bee_group":{"antennae":"X","wings":"2","pattern":"X","legs":"M"},"correct":true,"bonus":0.22000000000000075},{"rt":4167.600000000035,"stimulus":"<p>Congrats, you got everything right<br>When you're ready, click the button below to continue to the experiment.</p>","response":0,"trial_type":"html-button-response","trial_index":6,"time_elapsed":224171,"internal_node_id":"0.0-3.0-3.0","subject_id":"5e8218bd6c3f4492c10df21b","study_id":"6197b3f67c2b5cd3b6d9596a","session_id":"6197b5d1180b2951c79aa976","condition":"full-information","relevant_dimensions":["wings","legs"],"bee_group":{"antennae":"X","wings":"2","pattern":"X","legs":"M"},"bonus":0.22000000000000075},{"rt":3474.5999999999767,"stimulus":"bees-with-color/bee-B2SF.svg","response":0,"trial_type":"image-button-response","trial_index":7,"time_elapsed":227652,"internal_node_id":"0.0-4.0-0.0","subject_id":"5e8218bd6c3f4492c10df21b","study_id":"6197b3f67c2b5cd3b6d9596a","session_id":"6197b5d1180b2951c79aa976","condition":"full-information","relevant_dimensions":["wings","legs"],"bee_group":{"antennae":"X","wings":"2","pattern":"X","legs":"M"},"action":"harvest","summary":"good-harvest","bonus":0.22000000000000075},{"rt":6330.100000000035,"stimulus":"\n                    <p><b>Action: <em>harvest</em></b></p>\n                    <p>This is the bee that you just saw.</p>\n                    <img src=\"bees-with-color/bee-B2SF.svg\" width=\"200\">\n                    <p><span class=\"greenText\"><b>Successful harvest!</b></span><br>Your pay has increased by $0.02. Your bonus pay is now $0.56.</p>\n            ","response":0,"trial_type":"html-button-response","trial_index":8,"time_elapsed":233987,"internal_node_id":"0.0-4.0-1.0","subject_id":"5e8218bd6c3f4492c10df21b","study_id":"6197b3f67c2b5cd3b6d9596a","session_id":"6197b5d1180b2951c79aa976","condition":"full-information","relevant_dimensions":["wings","legs"],"bee_group":{"antennae":"X","wings":"2","pattern":"X","legs":"M"},"bonus":0.22000000000000075},{"rt":3073.9000000000233,"stimulus":"bees-with-color/bee-B2DF.svg","response":1,"trial_type":"image-button-response","trial_index":9,"time_elapsed":237066,"internal_node_id":"0.0-4.0-0.1","subject_id":"5e8218bd6c3f4492c10df21b","study_id":"6197b3f67c2b5cd3b6d9596a","session_id":"6197b5d1180b2951c79aa976","condition":"full-information","relevant_dimensions":["wings","legs"],"bee_group":{"antennae":"X","wings":"2","pattern":"X","legs":"M"},"action":"avoid","summary":"bad-avoid","bonus":0.22000000000000075},{"rt":5199.900000000023,"stimulus":"\n                    <p><b>Action: <em>avoid</em></b></p>\n                    <p>This is the bee that you just saw.</p>\n                    <img src=\"bees-with-color/bee-B2DF.svg\" width=\"200\">\n                    <p><span class=\"redText\">Bad choice,</span> the bee was friendly.<br>Your bonus pay is unchanged, and remains at $0.56.</p>\n            ","response":0,"trial_type":"html-button-response","trial_index":10,"time_elapsed":242270,"internal_node_id":"0.0-4.0-1.1","subject_id":"5e8218bd6c3f4492c10df21b","study_id":"6197b3f67c2b5cd3b6d9596a","session_id":"6197b5d1180b2951c79aa976","condition":"full-information","relevant_dimensions":["wings","legs"],"bee_group":{"antennae":"X","wings":"2","pattern":"X","legs":"M"},"bonus":0.22000000000000075},{"rt":2195,"stimulus":"bees-with-color/bee-B1SM.svg","response":1,"trial_type":"image-button-response","trial_index":11,"time_elapsed":244469,"internal_node_id":"0.0-4.0-0.2","subject_id":"5e8218bd6c3f4492c10df21b","study_id":"6197b3f67c2b5cd3b6d9596a","session_id":"6197b5d1180b2951c79aa976","condition":"full-information","relevant_dimensions":["wings","legs"],"bee_group":{"antennae":"X","wings":"2","pattern":"X","legs":"M"},"action":"avoid","summary":"bad-avoid","bonus":0.22000000000000075},{"rt":2430.7999999999884,"stimulus":"\n                    <p><b>Action: <em>avoid</em></b></p>\n                    <p>This is the bee that you just saw.</p>\n                    <img src=\"bees-with-color/bee-B1SM.svg\" width=\"200\">\n                    <p><span class=\"redText\">Bad choice,</span> the bee was friendly.<br>Your bonus pay is unchanged, and remains at $0.56.</p>\n            ","response":0,"trial_type":"html-button-response","trial_index":12,"time_elapsed":246907,"internal_node_id":"0.0-4.0-1.2","subject_id":"5e8218bd6c3f4492c10df21b","study_id":"6197b3f67c2b5cd3b6d9596a","session_id":"6197b5d1180b2951c79aa976","condition":"full-information","relevant_dimensions":["wings","legs"],"bee_group":{"antennae":"X","wings":"2","pattern":"X","legs":"M"},"bonus":0.22000000000000075},{"rt":2275.100000000035,"stimulus":"bees-with-color/bee-B2DM.svg","response":1,"trial_type":"image-button-response","trial_index":13,"time_elapsed":249185,"internal_node_id":"0.0-4.0-0.3","subject_id":"5e8218bd6c3f4492c10df21b","study_id":"6197b3f67c2b5cd3b6d9596a","session_id":"6197b5d1180b2951c79aa976","condition":"full-information","relevant_dimensions":["wings","legs"],"bee_group":{"antennae":"X","wings":"2","pattern":"X","legs":"M"},"action":"avoid","summary":"good-avoid","bonus":0.22000000000000075},{"rt":2742.2000000000116,"stimulus":"\n                    <p><b>Action: <em>avoid</em></b></p>\n                    <p>This is the bee that you just saw.</p>\n                    <img src=\"bees-with-color/bee-B2DM.svg\" width=\"200\">\n                    <p><span class=\"greenText\">Good choice!</span>  This bee would have stung you.<br>Your bonus pay is unchanged, and remains at $0.56.</p>\n            ","response":0,"trial_type":"html-button-response","trial_index":14,"time_elapsed":251930,"internal_node_id":"0.0-4.0-1.3","subject_id":"5e8218bd6c3f4492c10df21b","study_id":"6197b3f67c2b5cd3b6d9596a","session_id":"6197b5d1180b2951c79aa976","condition":"full-information","relevant_dimensions":["wings","legs"],"bee_group":{"antennae":"X","wings":"2","pattern":"X","legs":"M"},"bonus":0.22000000000000075},{"rt":1854.2999999999884,"stimulus":"bees-with-color/bee-A2DF.svg","response":0,"trial_type":"image-button-response","trial_index":15,"time_elapsed":253788,"internal_node_id":"0.0-4.0-0.4","subject_id":"5e8218bd6c3f4492c10df21b","study_id":"6197b3f67c2b5cd3b6d9596a","session_id":"6197b5d1180b2951c79aa976","condition":"full-information","relevant_dimensions":["wings","legs"],"bee_group":{"antennae":"X","wings":"2","pattern":"X","legs":"M"},"action":"harvest","summary":"good-harvest","bonus":0.22000000000000075},{"rt":2385.7000000000116,"stimulus":"\n                    <p><b>Action: <em>harvest</em></b></p>\n                    <p>This is the bee that you just saw.</p>\n                    <img src=\"bees-with-color/bee-A2DF.svg\" width=\"200\">\n                    <p><span class=\"greenText\"><b>Successful harvest!</b></span><br>Your pay has increased by $0.02. Your bonus pay is now $0.58.</p>\n            ","response":0,"trial_type":"html-button-response","trial_index":16,"time_elapsed":256178,"internal_node_id":"0.0-4.0-1.4","subject_id":"5e8218bd6c3f4492c10df21b","study_id":"6197b3f67c2b5cd3b6d9596a","session_id":"6197b5d1180b2951c79aa976","condition":"full-information","relevant_dimensions":["wings","legs"],"bee_group":{"antennae":"X","wings":"2","pattern":"X","legs":"M"},"bonus":0.22000000000000075},{"rt":3237.2000000000407,"stimulus":"bees-with-color/bee-B1DF.svg","response":1,"trial_type":"image-button-response","trial_index":17,"time_elapsed":259419,"internal_node_id":"0.0-4.0-0.5","subject_id":"5e8218bd6c3f4492c10df21b","study_id":"6197b3f67c2b5cd3b6d9596a","session_id":"6197b5d1180b2951c79aa976","condition":"full-information","relevant_dimensions":["wings","legs"],"bee_group":{"antennae":"X","wings":"2","pattern":"X","legs":"M"},"action":"avoid","summary":"bad-avoid","bonus":0.22000000000000075},{"rt":1616.5999999999767,"stimulus":"\n                    <p><b>Action: <em>avoid</em></b></p>\n                    <p>This is the bee that you just saw.</p>\n                    <img src=\"bees-with-color/bee-B1DF.svg\" width=\"200\">\n                    <p><span class=\"redText\">Bad choice,</span> the bee was friendly.<br>Your bonus pay is unchanged, and remains at $0.58.</p>\n            ","response":0,"trial_type":"html-button-response","trial_index":18,"time_elapsed":261041,"internal_node_id":"0.0-4.0-1.5","subject_id":"5e8218bd6c3f4492c10df21b","study_id":"6197b3f67c2b5cd3b6d9596a","session_id":"6197b5d1180b2951c79aa976","condition":"full-information","relevant_dimensions":["wings","legs"],"bee_group":{"antennae":"X","wings":"2","pattern":"X","legs":"M"},"bonus":0.22000000000000075},{"rt":2237,"stimulus":"bees-with-color/bee-A2SM.svg","response":0,"trial_type":"image-button-response","trial_index":19,"time_elapsed":263281,"internal_node_id":"0.0-4.0-0.6","subject_id":"5e8218bd6c3f4492c10df21b","study_id":"6197b3f67c2b5cd3b6d9596a","session_id":"6197b5d1180b2951c79aa976","condition":"full-information","relevant_dimensions":["wings","legs"],"bee_group":{"antennae":"X","wings":"2","pattern":"X","legs":"M"},"action":"harvest","summary":"bad-harvest","bonus":0.22000000000000075},{"rt":1638.5999999999767,"stimulus":"\n                    <p><b>Action: <em>harvest</em></b></p>\n                    <p>This is the bee that you just saw.</p>\n                    <img src=\"bees-with-color/bee-A2SM.svg\" width=\"200\">\n                    <p><span class=\"redText\">Bad choice, the bee was angry.</span><br><b>You have been stung!</b><br>Your pay has been decreased by $0.10. Your bonus pay is now $0.48.</p>\n            ","response":0,"trial_type":"html-button-response","trial_index":20,"time_elapsed":264924,"internal_node_id":"0.0-4.0-1.6","subject_id":"5e8218bd6c3f4492c10df21b","study_id":"6197b3f67c2b5cd3b6d9596a","session_id":"6197b5d1180b2951c79aa976","condition":"full-information","relevant_dimensions":["wings","legs"],"bee_group":{"antennae":"X","wings":"2","pattern":"X","legs":"M"},"bonus":0.22000000000000075},{"rt":2185.4000000000233,"stimulus":"bees-with-color/bee-A1DF.svg","response":0,"trial_type":"image-button-response","trial_index":21,"time_elapsed":267113,"internal_node_id":"0.0-4.0-0.7","subject_id":"5e8218bd6c3f4492c10df21b","study_id":"6197b3f67c2b5cd3b6d9596a","session_id":"6197b5d1180b2951c79aa976","condition":"full-information","relevant_dimensions":["wings","legs"],"bee_group":{"antennae":"X","wings":"2","pattern":"X","legs":"M"},"action":"harvest","summary":"good-harvest","bonus":0.22000000000000075},{"rt":1465.1999999999534,"stimulus":"\n                    <p><b>Action: <em>harvest</em></b></p>\n                    <p>This is the bee that you just saw.</p>\n                    <img src=\"bees-with-color/bee-A1DF.svg\" width=\"200\">\n                    <p><span class=\"greenText\"><b>Successful harvest!</b></span><br>Your pay has increased by $0.02. Your bonus pay is now $0.50.</p>\n            ","response":0,"trial_type":"html-button-response","trial_index":22,"time_elapsed":268582,"internal_node_id":"0.0-4.0-1.7","subject_id":"5e8218bd6c3f4492c10df21b","study_id":"6197b3f67c2b5cd3b6d9596a","session_id":"6197b5d1180b2951c79aa976","condition":"full-information","relevant_dimensions":["wings","legs"],"bee_group":{"antennae":"X","wings":"2","pattern":"X","legs":"M"},"bonus":0.22000000000000075},{"rt":2627.5,"stimulus":"bees-with-color/bee-A2DM.svg","response":0,"trial_type":"image-button-response","trial_index":23,"time_elapsed":271211,"internal_node_id":"0.0-4.0-0.8","subject_id":"5e8218bd6c3f4492c10df21b","study_id":"6197b3f67c2b5cd3b6d9596a","session_id":"6197b5d1180b2951c79aa976","condition":"full-information","relevant_dimensions":["wings","legs"],"bee_group":{"antennae":"X","wings":"2","pattern":"X","legs":"M"},"action":"harvest","summary":"bad-harvest","bonus":0.22000000000000075},{"rt":1359.6999999999534,"stimulus":"\n                    <p><b>Action: <em>harvest</em></b></p>\n                    <p>This is the bee that you just saw.</p>\n                    <img src=\"bees-with-color/bee-A2DM.svg\" width=\"200\">\n                    <p><span class=\"redText\">Bad choice, the bee was angry.</span><br><b>You have been stung!</b><br>Your pay has been decreased by $0.10. Your bonus pay is now $0.40.</p>\n            ","response":0,"trial_type":"html-button-response","trial_index":24,"time_elapsed":272575,"internal_node_id":"0.0-4.0-1.8","subject_id":"5e8218bd6c3f4492c10df21b","study_id":"6197b3f67c2b5cd3b6d9596a","session_id":"6197b5d1180b2951c79aa976","condition":"full-information","relevant_dimensions":["wings","legs"],"bee_group":{"antennae":"X","wings":"2","pattern":"X","legs":"M"},"bonus":0.22000000000000075},{"rt":1349.8000000000466,"stimulus":"bees-with-color/bee-A1SM.svg","response":0,"trial_type":"image-button-response","trial_index":25,"time_elapsed":273929,"internal_node_id":"0.0-4.0-0.9","subject_id":"5e8218bd6c3f4492c10df21b","study_id":"6197b3f67c2b5cd3b6d9596a","session_id":"6197b5d1180b2951c79aa976","condition":"full-information","relevant_dimensions":["wings","legs"],"bee_group":{"antennae":"X","wings":"2","pattern":"X","legs":"M"},"action":"harvest","summary":"good-harvest","bonus":0.22000000000000075},{"rt":1408.5999999999767,"stimulus":"\n                    <p><b>Action: <em>harvest</em></b></p>\n                    <p>This is the bee that you just saw.</p>\n                    <img src=\"bees-with-color/bee-A1SM.svg\" width=\"200\">\n                    <p><span class=\"greenText\"><b>Successful harvest!</b></span><br>Your pay has increased by $0.02. Your bonus pay is now $0.42.</p>\n            ","response":0,"trial_type":"html-button-response","trial_index":26,"time_elapsed":275345,"internal_node_id":"0.0-4.0-1.9","subject_id":"5e8218bd6c3f4492c10df21b","study_id":"6197b3f67c2b5cd3b6d9596a","session_id":"6197b5d1180b2951c79aa976","condition":"full-information","relevant_dimensions":["wings","legs"],"bee_group":{"antennae":"X","wings":"2","pattern":"X","legs":"M"},"bonus":0.22000000000000075},{"rt":2800.9000000000233,"stimulus":"bees-with-color/bee-A1DM.svg","response":1,"trial_type":"image-button-response","trial_index":27,"time_elapsed":278149,"internal_node_id":"0.0-4.0-0.10","subject_id":"5e8218bd6c3f4492c10df21b","study_id":"6197b3f67c2b5cd3b6d9596a","session_id":"6197b5d1180b2951c79aa976","condition":"full-information","relevant_dimensions":["wings","legs"],"bee_group":{"antennae":"X","wings":"2","pattern":"X","legs":"M"},"action":"avoid","summary":"bad-avoid","bonus":0.22000000000000075},{"rt":1433.7999999999302,"stimulus":"\n                    <p><b>Action: <em>avoid</em></b></p>\n                    <p>This is the bee that you just saw.</p>\n                    <img src=\"bees-with-color/bee-A1DM.svg\" width=\"200\">\n                    <p><span class=\"redText\">Bad choice,</span> the bee was friendly.<br>Your bonus pay is unchanged, and remains at $0.42.</p>\n            ","response":0,"trial_type":"html-button-response","trial_index":28,"time_elapsed":279587,"internal_node_id":"0.0-4.0-1.10","subject_id":"5e8218bd6c3f4492c10df21b","study_id":"6197b3f67c2b5cd3b6d9596a","session_id":"6197b5d1180b2951c79aa976","condition":"full-information","relevant_dimensions":["wings","legs"],"bee_group":{"antennae":"X","wings":"2","pattern":"X","legs":"M"},"bonus":0.22000000000000075},{"rt":1824.5,"stimulus":"bees-with-color/bee-B1SF.svg","response":0,"trial_type":"image-button-response","trial_index":29,"time_elapsed":281415,"internal_node_id":"0.0-4.0-0.11","subject_id":"5e8218bd6c3f4492c10df21b","study_id":"6197b3f67c2b5cd3b6d9596a","session_id":"6197b5d1180b2951c79aa976","condition":"full-information","relevant_dimensions":["wings","legs"],"bee_group":{"antennae":"X","wings":"2","pattern":"X","legs":"M"},"action":"harvest","summary":"good-harvest","bonus":0.22000000000000075},{"rt":1663.5,"stimulus":"\n                    <p><b>Action: <em>harvest</em></b></p>\n                    <p>This is the bee that you just saw.</p>\n                    <img src=\"bees-with-color/bee-B1SF.svg\" width=\"200\">\n                    <p><span class=\"greenText\"><b>Successful harvest!</b></span><br>Your pay has increased by $0.02. Your bonus pay is now $0.44.</p>\n            ","response":0,"trial_type":"html-button-response","trial_index":30,"time_elapsed":283084,"internal_node_id":"0.0-4.0-1.11","subject_id":"5e8218bd6c3f4492c10df21b","study_id":"6197b3f67c2b5cd3b6d9596a","session_id":"6197b5d1180b2951c79aa976","condition":"full-information","relevant_dimensions":["wings","legs"],"bee_group":{"antennae":"X","wings":"2","pattern":"X","legs":"M"},"bonus":0.22000000000000075},{"rt":2538,"stimulus":"bees-with-color/bee-A1SF.svg","response":0,"trial_type":"image-button-response","trial_index":31,"time_elapsed":285626,"internal_node_id":"0.0-4.0-0.12","subject_id":"5e8218bd6c3f4492c10df21b","study_id":"6197b3f67c2b5cd3b6d9596a","session_id":"6197b5d1180b2951c79aa976","condition":"full-information","relevant_dimensions":["wings","legs"],"bee_group":{"antennae":"X","wings":"2","pattern":"X","legs":"M"},"action":"harvest","summary":"good-harvest","bonus":0.22000000000000075},{"rt":1542,"stimulus":"\n                    <p><b>Action: <em>harvest</em></b></p>\n                    <p>This is the bee that you just saw.</p>\n                    <img src=\"bees-with-color/bee-A1SF.svg\" width=\"200\">\n                    <p><span class=\"greenText\"><b>Successful harvest!</b></span><br>Your pay has increased by $0.02. Your bonus pay is now $0.46.</p>\n            ","response":0,"trial_type":"html-button-response","trial_index":32,"time_elapsed":287173,"internal_node_id":"0.0-4.0-1.12","subject_id":"5e8218bd6c3f4492c10df21b","study_id":"6197b3f67c2b5cd3b6d9596a","session_id":"6197b5d1180b2951c79aa976","condition":"full-information","relevant_dimensions":["wings","legs"],"bee_group":{"antennae":"X","wings":"2","pattern":"X","legs":"M"},"bonus":0.22000000000000075},{"rt":2172.399999999907,"stimulus":"bees-with-color/bee-B2SM.svg","response":0,"trial_type":"image-button-response","trial_index":33,"time_elapsed":289351,"internal_node_id":"0.0-4.0-0.13","subject_id":"5e8218bd6c3f4492c10df21b","study_id":"6197b3f67c2b5cd3b6d9596a","session_id":"6197b5d1180b2951c79aa976","condition":"full-information","relevant_dimensions":["wings","legs"],"bee_group":{"antennae":"X","wings":"2","pattern":"X","legs":"M"},"action":"harvest","summary":"bad-harvest","bonus":0.22000000000000075},{"rt":1270.5999999999767,"stimulus":"\n                    <p><b>Action: <em>harvest</em></b></p>\n                    <p>This is the bee that you just saw.</p>\n                    <img src=\"bees-with-color/bee-B2SM.svg\" width=\"200\">\n                    <p><span class=\"redText\">Bad choice, the bee was angry.</span><br><b>You have been stung!</b><br>Your pay has been decreased by $0.10. Your bonus pay is now $0.36.</p>\n            ","response":0,"trial_type":"html-button-response","trial_index":34,"time_elapsed":290625,"internal_node_id":"0.0-4.0-1.13","subject_id":"5e8218bd6c3f4492c10df21b","study_id":"6197b3f67c2b5cd3b6d9596a","session_id":"6197b5d1180b2951c79aa976","condition":"full-information","relevant_dimensions":["wings","legs"],"bee_group":{"antennae":"X","wings":"2","pattern":"X","legs":"M"},"bonus":0.22000000000000075},{"rt":1344.8000000000466,"stimulus":"bees-with-color/bee-B1DM.svg","response":0,"trial_type":"image-button-response","trial_index":35,"time_elapsed":291972,"internal_node_id":"0.0-4.0-0.14","subject_id":"5e8218bd6c3f4492c10df21b","study_id":"6197b3f67c2b5cd3b6d9596a","session_id":"6197b5d1180b2951c79aa976","condition":"full-information","relevant_dimensions":["wings","legs"],"bee_group":{"antennae":"X","wings":"2","pattern":"X","legs":"M"},"action":"harvest","summary":"good-harvest","bonus":0.22000000000000075},{"rt":1256.0999999999767,"stimulus":"\n                    <p><b>Action: <em>harvest</em></b></p>\n                    <p>This is the bee that you just saw.</p>\n                    <img src=\"bees-with-color/bee-B1DM.svg\" width=\"200\">\n                    <p><span class=\"greenText\"><b>Successful harvest!</b></span><br>Your pay has increased by $0.02. Your bonus pay is now $0.38.</p>\n            ","response":0,"trial_type":"html-button-response","trial_index":36,"time_elapsed":293233,"internal_node_id":"0.0-4.0-1.14","subject_id":"5e8218bd6c3f4492c10df21b","study_id":"6197b3f67c2b5cd3b6d9596a","session_id":"6197b5d1180b2951c79aa976","condition":"full-information","relevant_dimensions":["wings","legs"],"bee_group":{"antennae":"X","wings":"2","pattern":"X","legs":"M"},"bonus":0.22000000000000075},{"rt":1222.4000000000233,"stimulus":"bees-with-color/bee-A2SF.svg","response":0,"trial_type":"image-button-response","trial_index":37,"time_elapsed":294458,"internal_node_id":"0.0-4.0-0.15","subject_id":"5e8218bd6c3f4492c10df21b","study_id":"6197b3f67c2b5cd3b6d9596a","session_id":"6197b5d1180b2951c79aa976","condition":"full-information","relevant_dimensions":["wings","legs"],"bee_group":{"antennae":"X","wings":"2","pattern":"X","legs":"M"},"action":"harvest","summary":"good-harvest","bonus":0.22000000000000075},{"rt":1240,"stimulus":"\n                    <p><b>Action: <em>harvest</em></b></p>\n                    <p>This is the bee that you just saw.</p>\n                    <img src=\"bees-with-color/bee-A2SF.svg\" width=\"200\">\n                    <p><span class=\"greenText\"><b>Successful harvest!</b></span><br>Your pay has increased by $0.02. Your bonus pay is now $0.40.</p>\n            ","response":0,"trial_type":"html-button-response","trial_index":38,"time_elapsed":295703,"internal_node_id":"0.0-4.0-1.15","subject_id":"5e8218bd6c3f4492c10df21b","study_id":"6197b3f67c2b5cd3b6d9596a","session_id":"6197b5d1180b2951c79aa976","condition":"full-information","relevant_dimensions":["wings","legs"],"bee_group":{"antennae":"X","wings":"2","pattern":"X","legs":"M"},"bonus":0.22000000000000075},{"rt":1335.8000000000466,"stimulus":"bees-with-color/bee-B2DM.svg","response":1,"trial_type":"image-button-response","trial_index":39,"time_elapsed":297042,"internal_node_id":"0.0-4.0-0.16","subject_id":"5e8218bd6c3f4492c10df21b","study_id":"6197b3f67c2b5cd3b6d9596a","session_id":"6197b5d1180b2951c79aa976","condition":"full-information","relevant_dimensions":["wings","legs"],"bee_group":{"antennae":"X","wings":"2","pattern":"X","legs":"M"},"action":"avoid","summary":"good-avoid","bonus":0.22000000000000075},{"rt":2378.899999999907,"stimulus":"\n                    <p><b>Action: <em>avoid</em></b></p>\n                    <p>This is the bee that you just saw.</p>\n                    <img src=\"bees-with-color/bee-B2DM.svg\" width=\"200\">\n                    <p><span class=\"greenText\">Good choice!</span>  This bee would have stung you.<br>Your bonus pay is unchanged, and remains at $0.40.</p>\n            ","response":0,"trial_type":"html-button-response","trial_index":40,"time_elapsed":299427,"internal_node_id":"0.0-4.0-1.16","subject_id":"5e8218bd6c3f4492c10df21b","study_id":"6197b3f67c2b5cd3b6d9596a","session_id":"6197b5d1180b2951c79aa976","condition":"full-information","relevant_dimensions":["wings","legs"],"bee_group":{"antennae":"X","wings":"2","pattern":"X","legs":"M"},"bonus":0.22000000000000075},{"rt":1711.4000000000233,"stimulus":"bees-with-color/bee-A1DF.svg","response":1,"trial_type":"image-button-response","trial_index":41,"time_elapsed":301143,"internal_node_id":"0.0-4.0-0.17","subject_id":"5e8218bd6c3f4492c10df21b","study_id":"6197b3f67c2b5cd3b6d9596a","session_id":"6197b5d1180b2951c79aa976","condition":"full-information","relevant_dimensions":["wings","legs"],"bee_group":{"antennae":"X","wings":"2","pattern":"X","legs":"M"},"action":"avoid","summary":"bad-avoid","bonus":0.22000000000000075},{"rt":1309.6999999999534,"stimulus":"\n                    <p><b>Action: <em>avoid</em></b></p>\n                    <p>This is the bee that you just saw.</p>\n                    <img src=\"bees-with-color/bee-A1DF.svg\" width=\"200\">\n                    <p><span class=\"redText\">Bad choice,</span> the bee was friendly.<br>Your bonus pay is unchanged, and remains at $0.40.</p>\n            ","response":0,"trial_type":"html-button-response","trial_index":42,"time_elapsed":302458,"internal_node_id":"0.0-4.0-1.17","subject_id":"5e8218bd6c3f4492c10df21b","study_id":"6197b3f67c2b5cd3b6d9596a","session_id":"6197b5d1180b2951c79aa976","condition":"full-information","relevant_dimensions":["wings","legs"],"bee_group":{"antennae":"X","wings":"2","pattern":"X","legs":"M"},"bonus":0.22000000000000075},{"rt":2173.20000000007,"stimulus":"bees-with-color/bee-B1SM.svg","response":1,"trial_type":"image-button-response","trial_index":43,"time_elapsed":304634,"internal_node_id":"0.0-4.0-0.18","subject_id":"5e8218bd6c3f4492c10df21b","study_id":"6197b3f67c2b5cd3b6d9596a","session_id":"6197b5d1180b2951c79aa976","condition":"full-information","relevant_dimensions":["wings","legs"],"bee_group":{"antennae":"X","wings":"2","pattern":"X","legs":"M"},"action":"avoid","summary":"bad-avoid","bonus":0.22000000000000075},{"rt":1453.5999999999767,"stimulus":"\n                    <p><b>Action: <em>avoid</em></b></p>\n                    <p>This is the bee that you just saw.</p>\n                    <img src=\"bees-with-color/bee-B1SM.svg\" width=\"200\">\n                    <p><span class=\"redText\">Bad choice,</span> the bee was friendly.<br>Your bonus pay is unchanged, and remains at $0.40.</p>\n            ","response":0,"trial_type":"html-button-response","trial_index":44,"time_elapsed":306091,"internal_node_id":"0.0-4.0-1.18","subject_id":"5e8218bd6c3f4492c10df21b","study_id":"6197b3f67c2b5cd3b6d9596a","session_id":"6197b5d1180b2951c79aa976","condition":"full-information","relevant_dimensions":["wings","legs"],"bee_group":{"antennae":"X","wings":"2","pattern":"X","legs":"M"},"bonus":0.22000000000000075},{"rt":1279.6999999999534,"stimulus":"bees-with-color/bee-B1DM.svg","response":1,"trial_type":"image-button-response","trial_index":45,"time_elapsed":307375,"internal_node_id":"0.0-4.0-0.19","subject_id":"5e8218bd6c3f4492c10df21b","study_id":"6197b3f67c2b5cd3b6d9596a","session_id":"6197b5d1180b2951c79aa976","condition":"full-information","relevant_dimensions":["wings","legs"],"bee_group":{"antennae":"X","wings":"2","pattern":"X","legs":"M"},"action":"avoid","summary":"bad-avoid","bonus":0.22000000000000075},{"rt":1201.5999999999767,"stimulus":"\n                    <p><b>Action: <em>avoid</em></b></p>\n                    <p>This is the bee that you just saw.</p>\n                    <img src=\"bees-with-color/bee-B1DM.svg\" width=\"200\">\n                    <p><span class=\"redText\">Bad choice,</span> the bee was friendly.<br>Your bonus pay is unchanged, and remains at $0.40.</p>\n            ","response":0,"trial_type":"html-button-response","trial_index":46,"time_elapsed":308582,"internal_node_id":"0.0-4.0-1.19","subject_id":"5e8218bd6c3f4492c10df21b","study_id":"6197b3f67c2b5cd3b6d9596a","session_id":"6197b5d1180b2951c79aa976","condition":"full-information","relevant_dimensions":["wings","legs"],"bee_group":{"antennae":"X","wings":"2","pattern":"X","legs":"M"},"bonus":0.22000000000000075},{"rt":926.4000000000233,"stimulus":"bees-with-color/bee-B1SF.svg","response":1,"trial_type":"image-button-response","trial_index":47,"time_elapsed":309513,"internal_node_id":"0.0-4.0-0.20","subject_id":"5e8218bd6c3f4492c10df21b","study_id":"6197b3f67c2b5cd3b6d9596a","session_id":"6197b5d1180b2951c79aa976","condition":"full-information","relevant_dimensions":["wings","legs"],"bee_group":{"antennae":"X","wings":"2","pattern":"X","legs":"M"},"action":"avoid","summary":"bad-avoid","bonus":0.22000000000000075},{"rt":1247.9000000000233,"stimulus":"\n                    <p><b>Action: <em>avoid</em></b></p>\n                    <p>This is the bee that you just saw.</p>\n                    <img src=\"bees-with-color/bee-B1SF.svg\" width=\"200\">\n                    <p><span class=\"redText\">Bad choice,</span> the bee was friendly.<br>Your bonus pay is unchanged, and remains at $0.40.</p>\n            ","response":0,"trial_type":"html-button-response","trial_index":48,"time_elapsed":310766,"internal_node_id":"0.0-4.0-1.20","subject_id":"5e8218bd6c3f4492c10df21b","study_id":"6197b3f67c2b5cd3b6d9596a","session_id":"6197b5d1180b2951c79aa976","condition":"full-information","relevant_dimensions":["wings","legs"],"bee_group":{"antennae":"X","wings":"2","pattern":"X","legs":"M"},"bonus":0.22000000000000075},{"rt":1249,"stimulus":"bees-with-color/bee-A2SM.svg","response":1,"trial_type":"image-button-response","trial_index":49,"time_elapsed":312017,"internal_node_id":"0.0-4.0-0.21","subject_id":"5e8218bd6c3f4492c10df21b","study_id":"6197b3f67c2b5cd3b6d9596a","session_id":"6197b5d1180b2951c79aa976","condition":"full-information","relevant_dimensions":["wings","legs"],"bee_group":{"antennae":"X","wings":"2","pattern":"X","legs":"M"},"action":"avoid","summary":"good-avoid","bonus":0.22000000000000075},{"rt":1232.0999999999767,"stimulus":"\n                    <p><b>Action: <em>avoid</em></b></p>\n                    <p>This is the bee that you just saw.</p>\n                    <img src=\"bees-with-color/bee-A2SM.svg\" width=\"200\">\n                    <p><span class=\"greenText\">Good choice!</span>  This bee would have stung you.<br>Your bonus pay is unchanged, and remains at $0.40.</p>\n            ","response":0,"trial_type":"html-button-response","trial_index":50,"time_elapsed":313254,"internal_node_id":"0.0-4.0-1.21","subject_id":"5e8218bd6c3f4492c10df21b","study_id":"6197b3f67c2b5cd3b6d9596a","session_id":"6197b5d1180b2951c79aa976","condition":"full-information","relevant_dimensions":["wings","legs"],"bee_group":{"antennae":"X","wings":"2","pattern":"X","legs":"M"},"bonus":0.22000000000000075},{"rt":2222.3000000000466,"stimulus":"bees-with-color/bee-B2DF.svg","response":1,"trial_type":"image-button-response","trial_index":51,"time_elapsed":315479,"internal_node_id":"0.0-4.0-0.22","subject_id":"5e8218bd6c3f4492c10df21b","study_id":"6197b3f67c2b5cd3b6d9596a","session_id":"6197b5d1180b2951c79aa976","condition":"full-information","relevant_dimensions":["wings","legs"],"bee_group":{"antennae":"X","wings":"2","pattern":"X","legs":"M"},"action":"avoid","summary":"bad-avoid","bonus":0.22000000000000075},{"rt":1257.5999999999767,"stimulus":"\n                    <p><b>Action: <em>avoid</em></b></p>\n                    <p>This is the bee that you just saw.</p>\n                    <img src=\"bees-with-color/bee-B2DF.svg\" width=\"200\">\n                    <p><span class=\"redText\">Bad choice,</span> the bee was friendly.<br>Your bonus pay is unchanged, and remains at $0.40.</p>\n            ","response":0,"trial_type":"html-button-response","trial_index":52,"time_elapsed":316742,"internal_node_id":"0.0-4.0-1.22","subject_id":"5e8218bd6c3f4492c10df21b","study_id":"6197b3f67c2b5cd3b6d9596a","session_id":"6197b5d1180b2951c79aa976","condition":"full-information","relevant_dimensions":["wings","legs"],"bee_group":{"antennae":"X","wings":"2","pattern":"X","legs":"M"},"bonus":0.22000000000000075},{"rt":1806.6999999999534,"stimulus":"bees-with-color/bee-A1DM.svg","response":1,"trial_type":"image-button-response","trial_index":53,"time_elapsed":318551,"internal_node_id":"0.0-4.0-0.23","subject_id":"5e8218bd6c3f4492c10df21b","study_id":"6197b3f67c2b5cd3b6d9596a","session_id":"6197b5d1180b2951c79aa976","condition":"full-information","relevant_dimensions":["wings","legs"],"bee_group":{"antennae":"X","wings":"2","pattern":"X","legs":"M"},"action":"avoid","summary":"bad-avoid","bonus":0.22000000000000075},{"rt":984.5999999999767,"stimulus":"\n                    <p><b>Action: <em>avoid</em></b></p>\n                    <p>This is the bee that you just saw.</p>\n                    <img src=\"bees-with-color/bee-A1DM.svg\" width=\"200\">\n                    <p><span class=\"redText\">Bad choice,</span> the bee was friendly.<br>Your bonus pay is unchanged, and remains at $0.40.</p>\n            ","response":0,"trial_type":"html-button-response","trial_index":54,"time_elapsed":319539,"internal_node_id":"0.0-4.0-1.23","subject_id":"5e8218bd6c3f4492c10df21b","study_id":"6197b3f67c2b5cd3b6d9596a","session_id":"6197b5d1180b2951c79aa976","condition":"full-information","relevant_dimensions":["wings","legs"],"bee_group":{"antennae":"X","wings":"2","pattern":"X","legs":"M"},"bonus":0.22000000000000075},{"rt":1602.5,"stimulus":"bees-with-color/bee-B1DF.svg","response":0,"trial_type":"image-button-response","trial_index":55,"time_elapsed":321144,"internal_node_id":"0.0-4.0-0.24","subject_id":"5e8218bd6c3f4492c10df21b","study_id":"6197b3f67c2b5cd3b6d9596a","session_id":"6197b5d1180b2951c79aa976","condition":"full-information","relevant_dimensions":["wings","legs"],"bee_group":{"antennae":"X","wings":"2","pattern":"X","legs":"M"},"action":"harvest","summary":"good-harvest","bonus":0.22000000000000075},{"rt":1395.0999999999767,"stimulus":"\n                    <p><b>Action: <em>harvest</em></b></p>\n                    <p>This is the bee that you just saw.</p>\n                    <img src=\"bees-with-color/bee-B1DF.svg\" width=\"200\">\n                    <p><span class=\"greenText\"><b>Successful harvest!</b></span><br>Your pay has increased by $0.02. Your bonus pay is now $0.42.</p>\n            ","response":0,"trial_type":"html-button-response","trial_index":56,"time_elapsed":322542,"internal_node_id":"0.0-4.0-1.24","subject_id":"5e8218bd6c3f4492c10df21b","study_id":"6197b3f67c2b5cd3b6d9596a","session_id":"6197b5d1180b2951c79aa976","condition":"full-information","relevant_dimensions":["wings","legs"],"bee_group":{"antennae":"X","wings":"2","pattern":"X","legs":"M"},"bonus":0.22000000000000075},{"rt":3330.4000000000233,"stimulus":"bees-with-color/bee-A2DF.svg","response":1,"trial_type":"image-button-response","trial_index":57,"time_elapsed":325875,"internal_node_id":"0.0-4.0-0.25","subject_id":"5e8218bd6c3f4492c10df21b","study_id":"6197b3f67c2b5cd3b6d9596a","session_id":"6197b5d1180b2951c79aa976","condition":"full-information","relevant_dimensions":["wings","legs"],"bee_group":{"antennae":"X","wings":"2","pattern":"X","legs":"M"},"action":"avoid","summary":"bad-avoid","bonus":0.22000000000000075},{"rt":1339.8999999999069,"stimulus":"\n                    <p><b>Action: <em>avoid</em></b></p>\n                    <p>This is the bee that you just saw.</p>\n                    <img src=\"bees-with-color/bee-A2DF.svg\" width=\"200\">\n                    <p><span class=\"redText\">Bad choice,</span> the bee was friendly.<br>Your bonus pay is unchanged, and remains at $0.42.</p>\n            ","response":0,"trial_type":"html-button-response","trial_index":58,"time_elapsed":327218,"internal_node_id":"0.0-4.0-1.25","subject_id":"5e8218bd6c3f4492c10df21b","study_id":"6197b3f67c2b5cd3b6d9596a","session_id":"6197b5d1180b2951c79aa976","condition":"full-information","relevant_dimensions":["wings","legs"],"bee_group":{"antennae":"X","wings":"2","pattern":"X","legs":"M"},"bonus":0.22000000000000075},{"rt":1532.3999999999069,"stimulus":"bees-with-color/bee-B2SF.svg","response":1,"trial_type":"image-button-response","trial_index":59,"time_elapsed":328754,"internal_node_id":"0.0-4.0-0.26","subject_id":"5e8218bd6c3f4492c10df21b","study_id":"6197b3f67c2b5cd3b6d9596a","session_id":"6197b5d1180b2951c79aa976","condition":"full-information","relevant_dimensions":["wings","legs"],"bee_group":{"antennae":"X","wings":"2","pattern":"X","legs":"M"},"action":"avoid","summary":"bad-avoid","bonus":0.22000000000000075},{"rt":2033,"stimulus":"\n                    <p><b>Action: <em>avoid</em></b></p>\n                    <p>This is the bee that you just saw.</p>\n                    <img src=\"bees-with-color/bee-B2SF.svg\" width=\"200\">\n                    <p><span class=\"redText\">Bad choice,</span> the bee was friendly.<br>Your bonus pay is unchanged, and remains at $0.42.</p>\n            ","response":0,"trial_type":"html-button-response","trial_index":60,"time_elapsed":330790,"internal_node_id":"0.0-4.0-1.26","subject_id":"5e8218bd6c3f4492c10df21b","study_id":"6197b3f67c2b5cd3b6d9596a","session_id":"6197b5d1180b2951c79aa976","condition":"full-information","relevant_dimensions":["wings","legs"],"bee_group":{"antennae":"X","wings":"2","pattern":"X","legs":"M"},"bonus":0.22000000000000075},{"rt":1749.5,"stimulus":"bees-with-color/bee-A2DM.svg","response":0,"trial_type":"image-button-response","trial_index":61,"time_elapsed":332545,"internal_node_id":"0.0-4.0-0.27","subject_id":"5e8218bd6c3f4492c10df21b","study_id":"6197b3f67c2b5cd3b6d9596a","session_id":"6197b5d1180b2951c79aa976","condition":"full-information","relevant_dimensions":["wings","legs"],"bee_group":{"antennae":"X","wings":"2","pattern":"X","legs":"M"},"action":"harvest","summary":"bad-harvest","bonus":0.22000000000000075},{"rt":1154.5999999999767,"stimulus":"\n                    <p><b>Action: <em>harvest</em></b></p>\n                    <p>This is the bee that you just saw.</p>\n                    <img src=\"bees-with-color/bee-A2DM.svg\" width=\"200\">\n                    <p><span class=\"redText\">Bad choice, the bee was angry.</span><br><b>You have been stung!</b><br>Your pay has been decreased by $0.10. Your bonus pay is now $0.32.</p>\n            ","response":0,"trial_type":"html-button-response","trial_index":62,"time_elapsed":333705,"internal_node_id":"0.0-4.0-1.27","subject_id":"5e8218bd6c3f4492c10df21b","study_id":"6197b3f67c2b5cd3b6d9596a","session_id":"6197b5d1180b2951c79aa976","condition":"full-information","relevant_dimensions":["wings","legs"],"bee_group":{"antennae":"X","wings":"2","pattern":"X","legs":"M"},"bonus":0.22000000000000075},{"rt":937.8000000000466,"stimulus":"bees-with-color/bee-A1SM.svg","response":0,"trial_type":"image-button-response","trial_index":63,"time_elapsed":334646,"internal_node_id":"0.0-4.0-0.28","subject_id":"5e8218bd6c3f4492c10df21b","study_id":"6197b3f67c2b5cd3b6d9596a","session_id":"6197b5d1180b2951c79aa976","condition":"full-information","relevant_dimensions":["wings","legs"],"bee_group":{"antennae":"X","wings":"2","pattern":"X","legs":"M"},"action":"harvest","summary":"good-harvest","bonus":0.22000000000000075},{"rt":1060.3000000000466,"stimulus":"\n                    <p><b>Action: <em>harvest</em></b></p>\n                    <p>This is the bee that you just saw.</p>\n                    <img src=\"bees-with-color/bee-A1SM.svg\" width=\"200\">\n                    <p><span class=\"greenText\"><b>Successful harvest!</b></span><br>Your pay has increased by $0.02. Your bonus pay is now $0.34.</p>\n            ","response":0,"trial_type":"html-button-response","trial_index":64,"time_elapsed":335710,"internal_node_id":"0.0-4.0-1.28","subject_id":"5e8218bd6c3f4492c10df21b","study_id":"6197b3f67c2b5cd3b6d9596a","session_id":"6197b5d1180b2951c79aa976","condition":"full-information","relevant_dimensions":["wings","legs"],"bee_group":{"antennae":"X","wings":"2","pattern":"X","legs":"M"},"bonus":0.22000000000000075},{"rt":944.8000000000466,"stimulus":"bees-with-color/bee-A2SF.svg","response":0,"trial_type":"image-button-response","trial_index":65,"time_elapsed":336659,"internal_node_id":"0.0-4.0-0.29","subject_id":"5e8218bd6c3f4492c10df21b","study_id":"6197b3f67c2b5cd3b6d9596a","session_id":"6197b5d1180b2951c79aa976","condition":"full-information","relevant_dimensions":["wings","legs"],"bee_group":{"antennae":"X","wings":"2","pattern":"X","legs":"M"},"action":"harvest","summary":"good-harvest","bonus":0.22000000000000075},{"rt":1199.0999999999767,"stimulus":"\n                    <p><b>Action: <em>harvest</em></b></p>\n                    <p>This is the bee that you just saw.</p>\n                    <img src=\"bees-with-color/bee-A2SF.svg\" width=\"200\">\n                    <p><span class=\"greenText\"><b>Successful harvest!</b></span><br>Your pay has increased by $0.02. Your bonus pay is now $0.36.</p>\n            ","response":0,"trial_type":"html-button-response","trial_index":66,"time_elapsed":337865,"internal_node_id":"0.0-4.0-1.29","subject_id":"5e8218bd6c3f4492c10df21b","study_id":"6197b3f67c2b5cd3b6d9596a","session_id":"6197b5d1180b2951c79aa976","condition":"full-information","relevant_dimensions":["wings","legs"],"bee_group":{"antennae":"X","wings":"2","pattern":"X","legs":"M"},"bonus":0.22000000000000075},{"rt":835.5,"stimulus":"bees-with-color/bee-B2SM.svg","response":0,"trial_type":"image-button-response","trial_index":67,"time_elapsed":338704,"internal_node_id":"0.0-4.0-0.30","subject_id":"5e8218bd6c3f4492c10df21b","study_id":"6197b3f67c2b5cd3b6d9596a","session_id":"6197b5d1180b2951c79aa976","condition":"full-information","relevant_dimensions":["wings","legs"],"bee_group":{"antennae":"X","wings":"2","pattern":"X","legs":"M"},"action":"harvest","summary":"bad-harvest","bonus":0.22000000000000075},{"rt":1129.7999999999302,"stimulus":"\n                    <p><b>Action: <em>harvest</em></b></p>\n                    <p>This is the bee that you just saw.</p>\n                    <img src=\"bees-with-color/bee-B2SM.svg\" width=\"200\">\n                    <p><span class=\"redText\">Bad choice, the bee was angry.</span><br><b>You have been stung!</b><br>Your pay has been decreased by $0.10. Your bonus pay is now $0.26.</p>\n            ","response":0,"trial_type":"html-button-response","trial_index":68,"time_elapsed":339838,"internal_node_id":"0.0-4.0-1.30","subject_id":"5e8218bd6c3f4492c10df21b","study_id":"6197b3f67c2b5cd3b6d9596a","session_id":"6197b5d1180b2951c79aa976","condition":"full-information","relevant_dimensions":["wings","legs"],"bee_group":{"antennae":"X","wings":"2","pattern":"X","legs":"M"},"bonus":0.22000000000000075},{"rt":945.8000000000466,"stimulus":"bees-with-color/bee-A1SF.svg","response":0,"trial_type":"image-button-response","trial_index":69,"time_elapsed":340787,"internal_node_id":"0.0-4.0-0.31","subject_id":"5e8218bd6c3f4492c10df21b","study_id":"6197b3f67c2b5cd3b6d9596a","session_id":"6197b5d1180b2951c79aa976","condition":"full-information","relevant_dimensions":["wings","legs"],"bee_group":{"antennae":"X","wings":"2","pattern":"X","legs":"M"},"action":"harvest","summary":"good-harvest","bonus":0.22000000000000075},{"rt":1182.9000000000233,"stimulus":"\n                    <p><b>Action: <em>harvest</em></b></p>\n                    <p>This is the bee that you just saw.</p>\n                    <img src=\"bees-with-color/bee-A1SF.svg\" width=\"200\">\n                    <p><span class=\"greenText\"><b>Successful harvest!</b></span><br>Your pay has increased by $0.02. Your bonus pay is now $0.28.</p>\n            ","response":0,"trial_type":"html-button-response","trial_index":70,"time_elapsed":341974,"internal_node_id":"0.0-4.0-1.31","subject_id":"5e8218bd6c3f4492c10df21b","study_id":"6197b3f67c2b5cd3b6d9596a","session_id":"6197b5d1180b2951c79aa976","condition":"full-information","relevant_dimensions":["wings","legs"],"bee_group":{"antennae":"X","wings":"2","pattern":"X","legs":"M"},"bonus":0.22000000000000075},{"rt":1270.0999999999767,"stimulus":"bees-with-color/bee-A1SM.svg","response":0,"trial_type":"image-button-response","trial_index":71,"time_elapsed":343248,"internal_node_id":"0.0-4.0-0.32","subject_id":"5e8218bd6c3f4492c10df21b","study_id":"6197b3f67c2b5cd3b6d9596a","session_id":"6197b5d1180b2951c79aa976","condition":"full-information","relevant_dimensions":["wings","legs"],"bee_group":{"antennae":"X","wings":"2","pattern":"X","legs":"M"},"action":"harvest","summary":"good-harvest","bonus":0.22000000000000075},{"rt":1200.6999999999534,"stimulus":"\n                    <p><b>Action: <em>harvest</em></b></p>\n                    <p>This is the bee that you just saw.</p>\n                    <img src=\"bees-with-color/bee-A1SM.svg\" width=\"200\">\n                    <p><span class=\"greenText\"><b>Successful harvest!</b></span><br>Your pay has increased by $0.02. Your bonus pay is now $0.30.</p>\n            ","response":0,"trial_type":"html-button-response","trial_index":72,"time_elapsed":344456,"internal_node_id":"0.0-4.0-1.32","subject_id":"5e8218bd6c3f4492c10df21b","study_id":"6197b3f67c2b5cd3b6d9596a","session_id":"6197b5d1180b2951c79aa976","condition":"full-information","relevant_dimensions":["wings","legs"],"bee_group":{"antennae":"X","wings":"2","pattern":"X","legs":"M"},"bonus":0.22000000000000075},{"rt":969.2000000000698,"stimulus":"bees-with-color/bee-B2DF.svg","response":1,"trial_type":"image-button-response","trial_index":73,"time_elapsed":345429,"internal_node_id":"0.0-4.0-0.33","subject_id":"5e8218bd6c3f4492c10df21b","study_id":"6197b3f67c2b5cd3b6d9596a","session_id":"6197b5d1180b2951c79aa976","condition":"full-information","relevant_dimensions":["wings","legs"],"bee_group":{"antennae":"X","wings":"2","pattern":"X","legs":"M"},"action":"avoid","summary":"bad-avoid","bonus":0.22000000000000075},{"rt":1283.4000000000233,"stimulus":"\n                    <p><b>Action: <em>avoid</em></b></p>\n                    <p>This is the bee that you just saw.</p>\n                    <img src=\"bees-with-color/bee-B2DF.svg\" width=\"200\">\n                    <p><span class=\"redText\">Bad choice,</span> the bee was friendly.<br>Your bonus pay is unchanged, and remains at $0.30.</p>\n            ","response":0,"trial_type":"html-button-response","trial_index":74,"time_elapsed":346717,"internal_node_id":"0.0-4.0-1.33","subject_id":"5e8218bd6c3f4492c10df21b","study_id":"6197b3f67c2b5cd3b6d9596a","session_id":"6197b5d1180b2951c79aa976","condition":"full-information","relevant_dimensions":["wings","legs"],"bee_group":{"antennae":"X","wings":"2","pattern":"X","legs":"M"},"bonus":0.22000000000000075},{"rt":963.0999999999767,"stimulus":"bees-with-color/bee-B1DF.svg","response":1,"trial_type":"image-button-response","trial_index":75,"time_elapsed":347684,"internal_node_id":"0.0-4.0-0.34","subject_id":"5e8218bd6c3f4492c10df21b","study_id":"6197b3f67c2b5cd3b6d9596a","session_id":"6197b5d1180b2951c79aa976","condition":"full-information","relevant_dimensions":["wings","legs"],"bee_group":{"antennae":"X","wings":"2","pattern":"X","legs":"M"},"action":"avoid","summary":"bad-avoid","bonus":0.22000000000000075},{"rt":4389.699999999953,"stimulus":"\n                    <p><b>Action: <em>avoid</em></b></p>\n                    <p>This is the bee that you just saw.</p>\n                    <img src=\"bees-with-color/bee-B1DF.svg\" width=\"200\">\n                    <p><span class=\"redText\">Bad choice,</span> the bee was friendly.<br>Your bonus pay is unchanged, and remains at $0.30.</p>\n            ","response":0,"trial_type":"html-button-response","trial_index":76,"time_elapsed":352079,"internal_node_id":"0.0-4.0-1.34","subject_id":"5e8218bd6c3f4492c10df21b","study_id":"6197b3f67c2b5cd3b6d9596a","session_id":"6197b5d1180b2951c79aa976","condition":"full-information","relevant_dimensions":["wings","legs"],"bee_group":{"antennae":"X","wings":"2","pattern":"X","legs":"M"},"bonus":0.22000000000000075},{"rt":1546.0999999999767,"stimulus":"bees-with-color/bee-B2SM.svg","response":1,"trial_type":"image-button-response","trial_index":77,"time_elapsed":353629,"internal_node_id":"0.0-4.0-0.35","subject_id":"5e8218bd6c3f4492c10df21b","study_id":"6197b3f67c2b5cd3b6d9596a","session_id":"6197b5d1180b2951c79aa976","condition":"full-information","relevant_dimensions":["wings","legs"],"bee_group":{"antennae":"X","wings":"2","pattern":"X","legs":"M"},"action":"avoid","summary":"good-avoid","bonus":0.22000000000000075},{"rt":1103.4000000000233,"stimulus":"\n                    <p><b>Action: <em>avoid</em></b></p>\n                    <p>This is the bee that you just saw.</p>\n                    <img src=\"bees-with-color/bee-B2SM.svg\" width=\"200\">\n                    <p><span class=\"greenText\">Good choice!</span>  This bee would have stung you.<br>Your bonus pay is unchanged, and remains at $0.30.</p>\n            ","response":0,"trial_type":"html-button-response","trial_index":78,"time_elapsed":354736,"internal_node_id":"0.0-4.0-1.35","subject_id":"5e8218bd6c3f4492c10df21b","study_id":"6197b3f67c2b5cd3b6d9596a","session_id":"6197b5d1180b2951c79aa976","condition":"full-information","relevant_dimensions":["wings","legs"],"bee_group":{"antennae":"X","wings":"2","pattern":"X","legs":"M"},"bonus":0.22000000000000075},{"rt":1448.0999999999767,"stimulus":"bees-with-color/bee-A2DF.svg","response":0,"trial_type":"image-button-response","trial_index":79,"time_elapsed":356188,"internal_node_id":"0.0-4.0-0.36","subject_id":"5e8218bd6c3f4492c10df21b","study_id":"6197b3f67c2b5cd3b6d9596a","session_id":"6197b5d1180b2951c79aa976","condition":"full-information","relevant_dimensions":["wings","legs"],"bee_group":{"antennae":"X","wings":"2","pattern":"X","legs":"M"},"action":"harvest","summary":"good-harvest","bonus":0.22000000000000075},{"rt":1365.8000000000466,"stimulus":"\n                    <p><b>Action: <em>harvest</em></b></p>\n                    <p>This is the bee that you just saw.</p>\n                    <img src=\"bees-with-color/bee-A2DF.svg\" width=\"200\">\n                    <p><span class=\"greenText\"><b>Successful harvest!</b></span><br>Your pay has increased by $0.02. Your bonus pay is now $0.32.</p>\n            ","response":0,"trial_type":"html-button-response","trial_index":80,"time_elapsed":357559,"internal_node_id":"0.0-4.0-1.36","subject_id":"5e8218bd6c3f4492c10df21b","study_id":"6197b3f67c2b5cd3b6d9596a","session_id":"6197b5d1180b2951c79aa976","condition":"full-information","relevant_dimensions":["wings","legs"],"bee_group":{"antennae":"X","wings":"2","pattern":"X","legs":"M"},"bonus":0.22000000000000075},{"rt":1241.3999999999069,"stimulus":"bees-with-color/bee-B2DM.svg","response":0,"trial_type":"image-button-response","trial_index":81,"time_elapsed":358802,"internal_node_id":"0.0-4.0-0.37","subject_id":"5e8218bd6c3f4492c10df21b","study_id":"6197b3f67c2b5cd3b6d9596a","session_id":"6197b5d1180b2951c79aa976","condition":"full-information","relevant_dimensions":["wings","legs"],"bee_group":{"antennae":"X","wings":"2","pattern":"X","legs":"M"},"action":"harvest","summary":"bad-harvest","bonus":0.22000000000000075},{"rt":1551.5999999999767,"stimulus":"\n                    <p><b>Action: <em>harvest</em></b></p>\n                    <p>This is the bee that you just saw.</p>\n                    <img src=\"bees-with-color/bee-B2DM.svg\" width=\"200\">\n                    <p><span class=\"redText\">Bad choice, the bee was angry.</span><br><b>You have been stung!</b><br>Your pay has been decreased by $0.10. Your bonus pay is now $0.22.</p>\n            ","response":0,"trial_type":"html-button-response","trial_index":82,"time_elapsed":360357,"internal_node_id":"0.0-4.0-1.37","subject_id":"5e8218bd6c3f4492c10df21b","study_id":"6197b3f67c2b5cd3b6d9596a","session_id":"6197b5d1180b2951c79aa976","condition":"full-information","relevant_dimensions":["wings","legs"],"bee_group":{"antennae":"X","wings":"2","pattern":"X","legs":"M"},"bonus":0.22000000000000075},{"rt":1490.3000000000466,"stimulus":"bees-with-color/bee-B2SF.svg","response":0,"trial_type":"image-button-response","trial_index":83,"time_elapsed":361851,"internal_node_id":"0.0-4.0-0.38","subject_id":"5e8218bd6c3f4492c10df21b","study_id":"6197b3f67c2b5cd3b6d9596a","session_id":"6197b5d1180b2951c79aa976","condition":"full-information","relevant_dimensions":["wings","legs"],"bee_group":{"antennae":"X","wings":"2","pattern":"X","legs":"M"},"action":"harvest","summary":"good-harvest","bonus":0.22000000000000075},{"rt":2997.8000000000466,"stimulus":"\n                    <p><b>Action: <em>harvest</em></b></p>\n                    <p>This is the bee that you just saw.</p>\n                    <img src=\"bees-with-color/bee-B2SF.svg\" width=\"200\">\n                    <p><span class=\"greenText\"><b>Successful harvest!</b></span><br>Your pay has increased by $0.02. Your bonus pay is now $0.24.</p>\n            ","response":0,"trial_type":"html-button-response","trial_index":84,"time_elapsed":364854,"internal_node_id":"0.0-4.0-1.38","subject_id":"5e8218bd6c3f4492c10df21b","study_id":"6197b3f67c2b5cd3b6d9596a","session_id":"6197b5d1180b2951c79aa976","condition":"full-information","relevant_dimensions":["wings","legs"],"bee_group":{"antennae":"X","wings":"2","pattern":"X","legs":"M"},"bonus":0.22000000000000075},{"rt":1512.1999999999534,"stimulus":"bees-with-color/bee-B1SM.svg","response":0,"trial_type":"image-button-response","trial_index":85,"time_elapsed":366368,"internal_node_id":"0.0-4.0-0.39","subject_id":"5e8218bd6c3f4492c10df21b","study_id":"6197b3f67c2b5cd3b6d9596a","session_id":"6197b5d1180b2951c79aa976","condition":"full-information","relevant_dimensions":["wings","legs"],"bee_group":{"antennae":"X","wings":"2","pattern":"X","legs":"M"},"action":"harvest","summary":"good-harvest","bonus":0.22000000000000075},{"rt":1428.6999999999534,"stimulus":"\n                    <p><b>Action: <em>harvest</em></b></p>\n                    <p>This is the bee that you just saw.</p>\n                    <img src=\"bees-with-color/bee-B1SM.svg\" width=\"200\">\n                    <p><span class=\"greenText\"><b>Successful harvest!</b></span><br>Your pay has increased by $0.02. Your bonus pay is now $0.26.</p>\n            ","response":0,"trial_type":"html-button-response","trial_index":86,"time_elapsed":367802,"internal_node_id":"0.0-4.0-1.39","subject_id":"5e8218bd6c3f4492c10df21b","study_id":"6197b3f67c2b5cd3b6d9596a","session_id":"6197b5d1180b2951c79aa976","condition":"full-information","relevant_dimensions":["wings","legs"],"bee_group":{"antennae":"X","wings":"2","pattern":"X","legs":"M"},"bonus":0.22000000000000075},{"rt":1096.6000000000931,"stimulus":"bees-with-color/bee-A1DM.svg","response":0,"trial_type":"image-button-response","trial_index":87,"time_elapsed":368902,"internal_node_id":"0.0-4.0-0.40","subject_id":"5e8218bd6c3f4492c10df21b","study_id":"6197b3f67c2b5cd3b6d9596a","session_id":"6197b5d1180b2951c79aa976","condition":"full-information","relevant_dimensions":["wings","legs"],"bee_group":{"antennae":"X","wings":"2","pattern":"X","legs":"M"},"action":"harvest","summary":"good-harvest","bonus":0.22000000000000075},{"rt":1204.9000000000233,"stimulus":"\n                    <p><b>Action: <em>harvest</em></b></p>\n                    <p>This is the bee that you just saw.</p>\n                    <img src=\"bees-with-color/bee-A1DM.svg\" width=\"200\">\n                    <p><span class=\"greenText\"><b>Successful harvest!</b></span><br>Your pay has increased by $0.02. Your bonus pay is now $0.28.</p>\n            ","response":0,"trial_type":"html-button-response","trial_index":88,"time_elapsed":370113,"internal_node_id":"0.0-4.0-1.40","subject_id":"5e8218bd6c3f4492c10df21b","study_id":"6197b3f67c2b5cd3b6d9596a","session_id":"6197b5d1180b2951c79aa976","condition":"full-information","relevant_dimensions":["wings","legs"],"bee_group":{"antennae":"X","wings":"2","pattern":"X","legs":"M"},"bonus":0.22000000000000075},{"rt":923.7000000000698,"stimulus":"bees-with-color/bee-A1DF.svg","response":1,"trial_type":"image-button-response","trial_index":89,"time_elapsed":371040,"internal_node_id":"0.0-4.0-0.41","subject_id":"5e8218bd6c3f4492c10df21b","study_id":"6197b3f67c2b5cd3b6d9596a","session_id":"6197b5d1180b2951c79aa976","condition":"full-information","relevant_dimensions":["wings","legs"],"bee_group":{"antennae":"X","wings":"2","pattern":"X","legs":"M"},"action":"avoid","summary":"bad-avoid","bonus":0.22000000000000075},{"rt":1288.9000000000233,"stimulus":"\n                    <p><b>Action: <em>avoid</em></b></p>\n                    <p>This is the bee that you just saw.</p>\n                    <img src=\"bees-with-color/bee-A1DF.svg\" width=\"200\">\n                    <p><span class=\"redText\">Bad choice,</span> the bee was friendly.<br>Your bonus pay is unchanged, and remains at $0.28.</p>\n            ","response":0,"trial_type":"html-button-response","trial_index":90,"time_elapsed":372331,"internal_node_id":"0.0-4.0-1.41","subject_id":"5e8218bd6c3f4492c10df21b","study_id":"6197b3f67c2b5cd3b6d9596a","session_id":"6197b5d1180b2951c79aa976","condition":"full-information","relevant_dimensions":["wings","legs"],"bee_group":{"antennae":"X","wings":"2","pattern":"X","legs":"M"},"bonus":0.22000000000000075},{"rt":1798.0999999999767,"stimulus":"bees-with-color/bee-A2DM.svg","response":1,"trial_type":"image-button-response","trial_index":91,"time_elapsed":374131,"internal_node_id":"0.0-4.0-0.42","subject_id":"5e8218bd6c3f4492c10df21b","study_id":"6197b3f67c2b5cd3b6d9596a","session_id":"6197b5d1180b2951c79aa976","condition":"full-information","relevant_dimensions":["wings","legs"],"bee_group":{"antennae":"X","wings":"2","pattern":"X","legs":"M"},"action":"avoid","summary":"good-avoid","bonus":0.22000000000000075},{"rt":1212.2999999999302,"stimulus":"\n                    <p><b>Action: <em>avoid</em></b></p>\n                    <p>This is the bee that you just saw.</p>\n                    <img src=\"bees-with-color/bee-A2DM.svg\" width=\"200\">\n                    <p><span class=\"greenText\">Good choice!</span>  This bee would have stung you.<br>Your bonus pay is unchanged, and remains at $0.28.</p>\n            ","response":0,"trial_type":"html-button-response","trial_index":92,"time_elapsed":375347,"internal_node_id":"0.0-4.0-1.42","subject_id":"5e8218bd6c3f4492c10df21b","study_id":"6197b3f67c2b5cd3b6d9596a","session_id":"6197b5d1180b2951c79aa976","condition":"full-information","relevant_dimensions":["wings","legs"],"bee_group":{"antennae":"X","wings":"2","pattern":"X","legs":"M"},"bonus":0.22000000000000075},{"rt":1334.1999999999534,"stimulus":"bees-with-color/bee-A2SF.svg","response":0,"trial_type":"image-button-response","trial_index":93,"time_elapsed":376683,"internal_node_id":"0.0-4.0-0.43","subject_id":"5e8218bd6c3f4492c10df21b","study_id":"6197b3f67c2b5cd3b6d9596a","session_id":"6197b5d1180b2951c79aa976","condition":"full-information","relevant_dimensions":["wings","legs"],"bee_group":{"antennae":"X","wings":"2","pattern":"X","legs":"M"},"action":"harvest","summary":"good-harvest","bonus":0.22000000000000075},{"rt":1306.1999999999534,"stimulus":"\n                    <p><b>Action: <em>harvest</em></b></p>\n                    <p>This is the bee that you just saw.</p>\n                    <img src=\"bees-with-color/bee-A2SF.svg\" width=\"200\">\n                    <p><span class=\"greenText\"><b>Successful harvest!</b></span><br>Your pay has increased by $0.02. Your bonus pay is now $0.30.</p>\n            ","response":0,"trial_type":"html-button-response","trial_index":94,"time_elapsed":377995,"internal_node_id":"0.0-4.0-1.43","subject_id":"5e8218bd6c3f4492c10df21b","study_id":"6197b3f67c2b5cd3b6d9596a","session_id":"6197b5d1180b2951c79aa976","condition":"full-information","relevant_dimensions":["wings","legs"],"bee_group":{"antennae":"X","wings":"2","pattern":"X","legs":"M"},"bonus":0.22000000000000075},{"rt":2200.3000000000466,"stimulus":"bees-with-color/bee-A2SM.svg","response":1,"trial_type":"image-button-response","trial_index":95,"time_elapsed":380199,"internal_node_id":"0.0-4.0-0.44","subject_id":"5e8218bd6c3f4492c10df21b","study_id":"6197b3f67c2b5cd3b6d9596a","session_id":"6197b5d1180b2951c79aa976","condition":"full-information","relevant_dimensions":["wings","legs"],"bee_group":{"antennae":"X","wings":"2","pattern":"X","legs":"M"},"action":"avoid","summary":"good-avoid","bonus":0.22000000000000075},{"rt":1146.7999999999302,"stimulus":"\n                    <p><b>Action: <em>avoid</em></b></p>\n                    <p>This is the bee that you just saw.</p>\n                    <img src=\"bees-with-color/bee-A2SM.svg\" width=\"200\">\n                    <p><span class=\"greenText\">Good choice!</span>  This bee would have stung you.<br>Your bonus pay is unchanged, and remains at $0.30.</p>\n            ","response":0,"trial_type":"html-button-response","trial_index":96,"time_elapsed":381351,"internal_node_id":"0.0-4.0-1.44","subject_id":"5e8218bd6c3f4492c10df21b","study_id":"6197b3f67c2b5cd3b6d9596a","session_id":"6197b5d1180b2951c79aa976","condition":"full-information","relevant_dimensions":["wings","legs"],"bee_group":{"antennae":"X","wings":"2","pattern":"X","legs":"M"},"bonus":0.22000000000000075},{"rt":1361.3000000000466,"stimulus":"bees-with-color/bee-A1SF.svg","response":0,"trial_type":"image-button-response","trial_index":97,"time_elapsed":382717,"internal_node_id":"0.0-4.0-0.45","subject_id":"5e8218bd6c3f4492c10df21b","study_id":"6197b3f67c2b5cd3b6d9596a","session_id":"6197b5d1180b2951c79aa976","condition":"full-information","relevant_dimensions":["wings","legs"],"bee_group":{"antennae":"X","wings":"2","pattern":"X","legs":"M"},"action":"harvest","summary":"good-harvest","bonus":0.22000000000000075},{"rt":1431.2999999999302,"stimulus":"\n                    <p><b>Action: <em>harvest</em></b></p>\n                    <p>This is the bee that you just saw.</p>\n                    <img src=\"bees-with-color/bee-A1SF.svg\" width=\"200\">\n                    <p><span class=\"greenText\"><b>Successful harvest!</b></span><br>Your pay has increased by $0.02. Your bonus pay is now $0.32.</p>\n            ","response":0,"trial_type":"html-button-response","trial_index":98,"time_elapsed":384154,"internal_node_id":"0.0-4.0-1.45","subject_id":"5e8218bd6c3f4492c10df21b","study_id":"6197b3f67c2b5cd3b6d9596a","session_id":"6197b5d1180b2951c79aa976","condition":"full-information","relevant_dimensions":["wings","legs"],"bee_group":{"antennae":"X","wings":"2","pattern":"X","legs":"M"},"bonus":0.22000000000000075},{"rt":1733.5999999999767,"stimulus":"bees-with-color/bee-B1DM.svg","response":1,"trial_type":"image-button-response","trial_index":99,"time_elapsed":385891,"internal_node_id":"0.0-4.0-0.46","subject_id":"5e8218bd6c3f4492c10df21b","study_id":"6197b3f67c2b5cd3b6d9596a","session_id":"6197b5d1180b2951c79aa976","condition":"full-information","relevant_dimensions":["wings","legs"],"bee_group":{"antennae":"X","wings":"2","pattern":"X","legs":"M"},"action":"avoid","summary":"bad-avoid","bonus":0.22000000000000075},{"rt":1294.9000000000233,"stimulus":"\n                    <p><b>Action: <em>avoid</em></b></p>\n                    <p>This is the bee that you just saw.</p>\n                    <img src=\"bees-with-color/bee-B1DM.svg\" width=\"200\">\n                    <p><span class=\"redText\">Bad choice,</span> the bee was friendly.<br>Your bonus pay is unchanged, and remains at $0.32.</p>\n            ","response":0,"trial_type":"html-button-response","trial_index":100,"time_elapsed":387191,"internal_node_id":"0.0-4.0-1.46","subject_id":"5e8218bd6c3f4492c10df21b","study_id":"6197b3f67c2b5cd3b6d9596a","session_id":"6197b5d1180b2951c79aa976","condition":"full-information","relevant_dimensions":["wings","legs"],"bee_group":{"antennae":"X","wings":"2","pattern":"X","legs":"M"},"bonus":0.22000000000000075},{"rt":1129.5,"stimulus":"bees-with-color/bee-B1SF.svg","response":0,"trial_type":"image-button-response","trial_index":101,"time_elapsed":388326,"internal_node_id":"0.0-4.0-0.47","subject_id":"5e8218bd6c3f4492c10df21b","study_id":"6197b3f67c2b5cd3b6d9596a","session_id":"6197b5d1180b2951c79aa976","condition":"full-information","relevant_dimensions":["wings","legs"],"bee_group":{"antennae":"X","wings":"2","pattern":"X","legs":"M"},"action":"harvest","summary":"good-harvest","bonus":0.22000000000000075},{"rt":1233,"stimulus":"\n                    <p><b>Action: <em>harvest</em></b></p>\n                    <p>This is the bee that you just saw.</p>\n                    <img src=\"bees-with-color/bee-B1SF.svg\" width=\"200\">\n                    <p><span class=\"greenText\"><b>Successful harvest!</b></span><br>Your pay has increased by $0.02. Your bonus pay is now $0.34.</p>\n            ","response":0,"trial_type":"html-button-response","trial_index":102,"time_elapsed":389564,"internal_node_id":"0.0-4.0-1.47","subject_id":"5e8218bd6c3f4492c10df21b","study_id":"6197b3f67c2b5cd3b6d9596a","session_id":"6197b5d1180b2951c79aa976","condition":"full-information","relevant_dimensions":["wings","legs"],"bee_group":{"antennae":"X","wings":"2","pattern":"X","legs":"M"},"bonus":0.22000000000000075},{"rt":1026.5999999999767,"stimulus":"bees-with-color/bee-B1DM.svg","response":1,"trial_type":"image-button-response","trial_index":103,"time_elapsed":390593,"internal_node_id":"0.0-4.0-0.48","subject_id":"5e8218bd6c3f4492c10df21b","study_id":"6197b3f67c2b5cd3b6d9596a","session_id":"6197b5d1180b2951c79aa976","condition":"full-information","relevant_dimensions":["wings","legs"],"bee_group":{"antennae":"X","wings":"2","pattern":"X","legs":"M"},"action":"avoid","summary":"bad-avoid","bonus":0.22000000000000075},{"rt":3807.9000000000233,"stimulus":"\n                    <p><b>Action: <em>avoid</em></b></p>\n                    <p>This is the bee that you just saw.</p>\n                    <img src=\"bees-with-color/bee-B1DM.svg\" width=\"200\">\n                    <p><span class=\"redText\">Bad choice,</span> the bee was friendly.<br>Your bonus pay is unchanged, and remains at $0.34.</p>\n            ","response":0,"trial_type":"html-button-response","trial_index":104,"time_elapsed":394407,"internal_node_id":"0.0-4.0-1.48","subject_id":"5e8218bd6c3f4492c10df21b","study_id":"6197b3f67c2b5cd3b6d9596a","session_id":"6197b5d1180b2951c79aa976","condition":"full-information","relevant_dimensions":["wings","legs"],"bee_group":{"antennae":"X","wings":"2","pattern":"X","legs":"M"},"bonus":0.22000000000000075},{"rt":1565.6999999999534,"stimulus":"bees-with-color/bee-B1DF.svg","response":1,"trial_type":"image-button-response","trial_index":105,"time_elapsed":395977,"internal_node_id":"0.0-4.0-0.49","subject_id":"5e8218bd6c3f4492c10df21b","study_id":"6197b3f67c2b5cd3b6d9596a","session_id":"6197b5d1180b2951c79aa976","condition":"full-information","relevant_dimensions":["wings","legs"],"bee_group":{"antennae":"X","wings":"2","pattern":"X","legs":"M"},"action":"avoid","summary":"bad-avoid","bonus":0.22000000000000075},{"rt":1223.5,"stimulus":"\n                    <p><b>Action: <em>avoid</em></b></p>\n                    <p>This is the bee that you just saw.</p>\n                    <img src=\"bees-with-color/bee-B1DF.svg\" width=\"200\">\n                    <p><span class=\"redText\">Bad choice,</span> the bee was friendly.<br>Your bonus pay is unchanged, and remains at $0.34.</p>\n            ","response":0,"trial_type":"html-button-response","trial_index":106,"time_elapsed":397205,"internal_node_id":"0.0-4.0-1.49","subject_id":"5e8218bd6c3f4492c10df21b","study_id":"6197b3f67c2b5cd3b6d9596a","session_id":"6197b5d1180b2951c79aa976","condition":"full-information","relevant_dimensions":["wings","legs"],"bee_group":{"antennae":"X","wings":"2","pattern":"X","legs":"M"},"bonus":0.22000000000000075},{"rt":1240.0999999999767,"stimulus":"bees-with-color/bee-B2DM.svg","response":1,"trial_type":"image-button-response","trial_index":107,"time_elapsed":398450,"internal_node_id":"0.0-4.0-0.50","subject_id":"5e8218bd6c3f4492c10df21b","study_id":"6197b3f67c2b5cd3b6d9596a","session_id":"6197b5d1180b2951c79aa976","condition":"full-information","relevant_dimensions":["wings","legs"],"bee_group":{"antennae":"X","wings":"2","pattern":"X","legs":"M"},"action":"avoid","summary":"good-avoid","bonus":0.22000000000000075},{"rt":1472.1000000000931,"stimulus":"\n                    <p><b>Action: <em>avoid</em></b></p>\n                    <p>This is the bee that you just saw.</p>\n                    <img src=\"bees-with-color/bee-B2DM.svg\" width=\"200\">\n                    <p><span class=\"greenText\">Good choice!</span>  This bee would have stung you.<br>Your bonus pay is unchanged, and remains at $0.34.</p>\n            ","response":0,"trial_type":"html-button-response","trial_index":108,"time_elapsed":399928,"internal_node_id":"0.0-4.0-1.50","subject_id":"5e8218bd6c3f4492c10df21b","study_id":"6197b3f67c2b5cd3b6d9596a","session_id":"6197b5d1180b2951c79aa976","condition":"full-information","relevant_dimensions":["wings","legs"],"bee_group":{"antennae":"X","wings":"2","pattern":"X","legs":"M"},"bonus":0.22000000000000075},{"rt":1314.4000000000233,"stimulus":"bees-with-color/bee-A1SM.svg","response":0,"trial_type":"image-button-response","trial_index":109,"time_elapsed":401246,"internal_node_id":"0.0-4.0-0.51","subject_id":"5e8218bd6c3f4492c10df21b","study_id":"6197b3f67c2b5cd3b6d9596a","session_id":"6197b5d1180b2951c79aa976","condition":"full-information","relevant_dimensions":["wings","legs"],"bee_group":{"antennae":"X","wings":"2","pattern":"X","legs":"M"},"action":"harvest","summary":"good-harvest","bonus":0.22000000000000075},{"rt":1245.5999999999767,"stimulus":"\n                    <p><b>Action: <em>harvest</em></b></p>\n                    <p>This is the bee that you just saw.</p>\n                    <img src=\"bees-with-color/bee-A1SM.svg\" width=\"200\">\n                    <p><span class=\"greenText\"><b>Successful harvest!</b></span><br>Your pay has increased by $0.02. Your bonus pay is now $0.36.</p>\n            ","response":0,"trial_type":"html-button-response","trial_index":110,"time_elapsed":402497,"internal_node_id":"0.0-4.0-1.51","subject_id":"5e8218bd6c3f4492c10df21b","study_id":"6197b3f67c2b5cd3b6d9596a","session_id":"6197b5d1180b2951c79aa976","condition":"full-information","relevant_dimensions":["wings","legs"],"bee_group":{"antennae":"X","wings":"2","pattern":"X","legs":"M"},"bonus":0.22000000000000075},{"rt":1418.4000000000233,"stimulus":"bees-with-color/bee-B1SF.svg","response":0,"trial_type":"image-button-response","trial_index":111,"time_elapsed":403921,"internal_node_id":"0.0-4.0-0.52","subject_id":"5e8218bd6c3f4492c10df21b","study_id":"6197b3f67c2b5cd3b6d9596a","session_id":"6197b5d1180b2951c79aa976","condition":"full-information","relevant_dimensions":["wings","legs"],"bee_group":{"antennae":"X","wings":"2","pattern":"X","legs":"M"},"action":"harvest","summary":"good-harvest","bonus":0.22000000000000075},{"rt":1617.8999999999069,"stimulus":"\n                    <p><b>Action: <em>harvest</em></b></p>\n                    <p>This is the bee that you just saw.</p>\n                    <img src=\"bees-with-color/bee-B1SF.svg\" width=\"200\">\n                    <p><span class=\"greenText\"><b>Successful harvest!</b></span><br>Your pay has increased by $0.02. Your bonus pay is now $0.38.</p>\n            ","response":0,"trial_type":"html-button-response","trial_index":112,"time_elapsed":405544,"internal_node_id":"0.0-4.0-1.52","subject_id":"5e8218bd6c3f4492c10df21b","study_id":"6197b3f67c2b5cd3b6d9596a","session_id":"6197b5d1180b2951c79aa976","condition":"full-information","relevant_dimensions":["wings","legs"],"bee_group":{"antennae":"X","wings":"2","pattern":"X","legs":"M"},"bonus":0.22000000000000075},{"rt":1783.8000000000466,"stimulus":"bees-with-color/bee-A2SM.svg","response":1,"trial_type":"image-button-response","trial_index":113,"time_elapsed":407331,"internal_node_id":"0.0-4.0-0.53","subject_id":"5e8218bd6c3f4492c10df21b","study_id":"6197b3f67c2b5cd3b6d9596a","session_id":"6197b5d1180b2951c79aa976","condition":"full-information","relevant_dimensions":["wings","legs"],"bee_group":{"antennae":"X","wings":"2","pattern":"X","legs":"M"},"action":"avoid","summary":"good-avoid","bonus":0.22000000000000075},{"rt":1360.1999999999534,"stimulus":"\n                    <p><b>Action: <em>avoid</em></b></p>\n                    <p>This is the bee that you just saw.</p>\n                    <img src=\"bees-with-color/bee-A2SM.svg\" width=\"200\">\n                    <p><span class=\"greenText\">Good choice!</span>  This bee would have stung you.<br>Your bonus pay is unchanged, and remains at $0.38.</p>\n            ","response":0,"trial_type":"html-button-response","trial_index":114,"time_elapsed":408697,"internal_node_id":"0.0-4.0-1.53","subject_id":"5e8218bd6c3f4492c10df21b","study_id":"6197b3f67c2b5cd3b6d9596a","session_id":"6197b5d1180b2951c79aa976","condition":"full-information","relevant_dimensions":["wings","legs"],"bee_group":{"antennae":"X","wings":"2","pattern":"X","legs":"M"},"bonus":0.22000000000000075},{"rt":1975.7000000000698,"stimulus":"bees-with-color/bee-A2DF.svg","response":0,"trial_type":"image-button-response","trial_index":115,"time_elapsed":410676,"internal_node_id":"0.0-4.0-0.54","subject_id":"5e8218bd6c3f4492c10df21b","study_id":"6197b3f67c2b5cd3b6d9596a","session_id":"6197b5d1180b2951c79aa976","condition":"full-information","relevant_dimensions":["wings","legs"],"bee_group":{"antennae":"X","wings":"2","pattern":"X","legs":"M"},"action":"harvest","summary":"good-harvest","bonus":0.22000000000000075},{"rt":1261.5,"stimulus":"\n                    <p><b>Action: <em>harvest</em></b></p>\n                    <p>This is the bee that you just saw.</p>\n                    <img src=\"bees-with-color/bee-A2DF.svg\" width=\"200\">\n                    <p><span class=\"greenText\"><b>Successful harvest!</b></span><br>Your pay has increased by $0.02. Your bonus pay is now $0.40.</p>\n            ","response":0,"trial_type":"html-button-response","trial_index":116,"time_elapsed":411941,"internal_node_id":"0.0-4.0-1.54","subject_id":"5e8218bd6c3f4492c10df21b","study_id":"6197b3f67c2b5cd3b6d9596a","session_id":"6197b5d1180b2951c79aa976","condition":"full-information","relevant_dimensions":["wings","legs"],"bee_group":{"antennae":"X","wings":"2","pattern":"X","legs":"M"},"bonus":0.22000000000000075},{"rt":2136.6999999999534,"stimulus":"bees-with-color/bee-A2SF.svg","response":0,"trial_type":"image-button-response","trial_index":117,"time_elapsed":414082,"internal_node_id":"0.0-4.0-0.55","subject_id":"5e8218bd6c3f4492c10df21b","study_id":"6197b3f67c2b5cd3b6d9596a","session_id":"6197b5d1180b2951c79aa976","condition":"full-information","relevant_dimensions":["wings","legs"],"bee_group":{"antennae":"X","wings":"2","pattern":"X","legs":"M"},"action":"harvest","summary":"good-harvest","bonus":0.22000000000000075},{"rt":1228.5,"stimulus":"\n                    <p><b>Action: <em>harvest</em></b></p>\n                    <p>This is the bee that you just saw.</p>\n                    <img src=\"bees-with-color/bee-A2SF.svg\" width=\"200\">\n                    <p><span class=\"greenText\"><b>Successful harvest!</b></span><br>Your pay has increased by $0.02. Your bonus pay is now $0.42.</p>\n            ","response":0,"trial_type":"html-button-response","trial_index":118,"time_elapsed":415315,"internal_node_id":"0.0-4.0-1.55","subject_id":"5e8218bd6c3f4492c10df21b","study_id":"6197b3f67c2b5cd3b6d9596a","session_id":"6197b5d1180b2951c79aa976","condition":"full-information","relevant_dimensions":["wings","legs"],"bee_group":{"antennae":"X","wings":"2","pattern":"X","legs":"M"},"bonus":0.22000000000000075},{"rt":1826.8999999999069,"stimulus":"bees-with-color/bee-A1DF.svg","response":1,"trial_type":"image-button-response","trial_index":119,"time_elapsed":417145,"internal_node_id":"0.0-4.0-0.56","subject_id":"5e8218bd6c3f4492c10df21b","study_id":"6197b3f67c2b5cd3b6d9596a","session_id":"6197b5d1180b2951c79aa976","condition":"full-information","relevant_dimensions":["wings","legs"],"bee_group":{"antennae":"X","wings":"2","pattern":"X","legs":"M"},"action":"avoid","summary":"bad-avoid","bonus":0.22000000000000075},{"rt":1381.5999999999767,"stimulus":"\n                    <p><b>Action: <em>avoid</em></b></p>\n                    <p>This is the bee that you just saw.</p>\n                    <img src=\"bees-with-color/bee-A1DF.svg\" width=\"200\">\n                    <p><span class=\"redText\">Bad choice,</span> the bee was friendly.<br>Your bonus pay is unchanged, and remains at $0.42.</p>\n            ","response":0,"trial_type":"html-button-response","trial_index":120,"time_elapsed":418532,"internal_node_id":"0.0-4.0-1.56","subject_id":"5e8218bd6c3f4492c10df21b","study_id":"6197b3f67c2b5cd3b6d9596a","session_id":"6197b5d1180b2951c79aa976","condition":"full-information","relevant_dimensions":["wings","legs"],"bee_group":{"antennae":"X","wings":"2","pattern":"X","legs":"M"},"bonus":0.22000000000000075},{"rt":3534,"stimulus":"bees-with-color/bee-A2DM.svg","response":1,"trial_type":"image-button-response","trial_index":121,"time_elapsed":422071,"internal_node_id":"0.0-4.0-0.57","subject_id":"5e8218bd6c3f4492c10df21b","study_id":"6197b3f67c2b5cd3b6d9596a","session_id":"6197b5d1180b2951c79aa976","condition":"full-information","relevant_dimensions":["wings","legs"],"bee_group":{"antennae":"X","wings":"2","pattern":"X","legs":"M"},"action":"avoid","summary":"good-avoid","bonus":0.22000000000000075},{"rt":2367.29999999993,"stimulus":"\n                    <p><b>Action: <em>avoid</em></b></p>\n                    <p>This is the bee that you just saw.</p>\n                    <img src=\"bees-with-color/bee-A2DM.svg\" width=\"200\">\n                    <p><span class=\"greenText\">Good choice!</span>  This bee would have stung you.<br>Your bonus pay is unchanged, and remains at $0.42.</p>\n            ","response":0,"trial_type":"html-button-response","trial_index":122,"time_elapsed":424444,"internal_node_id":"0.0-4.0-1.57","subject_id":"5e8218bd6c3f4492c10df21b","study_id":"6197b3f67c2b5cd3b6d9596a","session_id":"6197b5d1180b2951c79aa976","condition":"full-information","relevant_dimensions":["wings","legs"],"bee_group":{"antennae":"X","wings":"2","pattern":"X","legs":"M"},"bonus":0.22000000000000075},{"rt":1430.9000000000233,"stimulus":"bees-with-color/bee-A1DM.svg","response":1,"trial_type":"image-button-response","trial_index":123,"time_elapsed":425880,"internal_node_id":"0.0-4.0-0.58","subject_id":"5e8218bd6c3f4492c10df21b","study_id":"6197b3f67c2b5cd3b6d9596a","session_id":"6197b5d1180b2951c79aa976","condition":"full-information","relevant_dimensions":["wings","legs"],"bee_group":{"antennae":"X","wings":"2","pattern":"X","legs":"M"},"action":"avoid","summary":"bad-avoid","bonus":0.22000000000000075},{"rt":1059.7999999999302,"stimulus":"\n                    <p><b>Action: <em>avoid</em></b></p>\n                    <p>This is the bee that you just saw.</p>\n                    <img src=\"bees-with-color/bee-A1DM.svg\" width=\"200\">\n                    <p><span class=\"redText\">Bad choice,</span> the bee was friendly.<br>Your bonus pay is unchanged, and remains at $0.42.</p>\n            ","response":0,"trial_type":"html-button-response","trial_index":124,"time_elapsed":426946,"internal_node_id":"0.0-4.0-1.58","subject_id":"5e8218bd6c3f4492c10df21b","study_id":"6197b3f67c2b5cd3b6d9596a","session_id":"6197b5d1180b2951c79aa976","condition":"full-information","relevant_dimensions":["wings","legs"],"bee_group":{"antennae":"X","wings":"2","pattern":"X","legs":"M"},"bonus":0.22000000000000075},{"rt":1883.8999999999069,"stimulus":"bees-with-color/bee-B2SF.svg","response":1,"trial_type":"image-button-response","trial_index":125,"time_elapsed":428832,"internal_node_id":"0.0-4.0-0.59","subject_id":"5e8218bd6c3f4492c10df21b","study_id":"6197b3f67c2b5cd3b6d9596a","session_id":"6197b5d1180b2951c79aa976","condition":"full-information","relevant_dimensions":["wings","legs"],"bee_group":{"antennae":"X","wings":"2","pattern":"X","legs":"M"},"action":"avoid","summary":"bad-avoid","bonus":0.22000000000000075},{"rt":1508.6999999999534,"stimulus":"\n                    <p><b>Action: <em>avoid</em></b></p>\n                    <p>This is the bee that you just saw.</p>\n                    <img src=\"bees-with-color/bee-B2SF.svg\" width=\"200\">\n                    <p><span class=\"redText\">Bad choice,</span> the bee was friendly.<br>Your bonus pay is unchanged, and remains at $0.42.</p>\n            ","response":0,"trial_type":"html-button-response","trial_index":126,"time_elapsed":430346,"internal_node_id":"0.0-4.0-1.59","subject_id":"5e8218bd6c3f4492c10df21b","study_id":"6197b3f67c2b5cd3b6d9596a","session_id":"6197b5d1180b2951c79aa976","condition":"full-information","relevant_dimensions":["wings","legs"],"bee_group":{"antennae":"X","wings":"2","pattern":"X","legs":"M"},"bonus":0.22000000000000075},{"rt":1959.6999999999534,"stimulus":"bees-with-color/bee-A1SF.svg","response":0,"trial_type":"image-button-response","trial_index":127,"time_elapsed":432308,"internal_node_id":"0.0-4.0-0.60","subject_id":"5e8218bd6c3f4492c10df21b","study_id":"6197b3f67c2b5cd3b6d9596a","session_id":"6197b5d1180b2951c79aa976","condition":"full-information","relevant_dimensions":["wings","legs"],"bee_group":{"antennae":"X","wings":"2","pattern":"X","legs":"M"},"action":"harvest","summary":"good-harvest","bonus":0.22000000000000075},{"rt":1328.5,"stimulus":"\n                    <p><b>Action: <em>harvest</em></b></p>\n                    <p>This is the bee that you just saw.</p>\n                    <img src=\"bees-with-color/bee-A1SF.svg\" width=\"200\">\n                    <p><span class=\"greenText\"><b>Successful harvest!</b></span><br>Your pay has increased by $0.02. Your bonus pay is now $0.44.</p>\n            ","response":0,"trial_type":"html-button-response","trial_index":128,"time_elapsed":433643,"internal_node_id":"0.0-4.0-1.60","subject_id":"5e8218bd6c3f4492c10df21b","study_id":"6197b3f67c2b5cd3b6d9596a","session_id":"6197b5d1180b2951c79aa976","condition":"full-information","relevant_dimensions":["wings","legs"],"bee_group":{"antennae":"X","wings":"2","pattern":"X","legs":"M"},"bonus":0.22000000000000075},{"rt":2381.5,"stimulus":"bees-with-color/bee-B1SM.svg","response":1,"trial_type":"image-button-response","trial_index":129,"time_elapsed":436030,"internal_node_id":"0.0-4.0-0.61","subject_id":"5e8218bd6c3f4492c10df21b","study_id":"6197b3f67c2b5cd3b6d9596a","session_id":"6197b5d1180b2951c79aa976","condition":"full-information","relevant_dimensions":["wings","legs"],"bee_group":{"antennae":"X","wings":"2","pattern":"X","legs":"M"},"action":"avoid","summary":"bad-avoid","bonus":0.22000000000000075},{"rt":1191.1000000000931,"stimulus":"\n                    <p><b>Action: <em>avoid</em></b></p>\n                    <p>This is the bee that you just saw.</p>\n                    <img src=\"bees-with-color/bee-B1SM.svg\" width=\"200\">\n                    <p><span class=\"redText\">Bad choice,</span> the bee was friendly.<br>Your bonus pay is unchanged, and remains at $0.44.</p>\n            ","response":0,"trial_type":"html-button-response","trial_index":130,"time_elapsed":437226,"internal_node_id":"0.0-4.0-1.61","subject_id":"5e8218bd6c3f4492c10df21b","study_id":"6197b3f67c2b5cd3b6d9596a","session_id":"6197b5d1180b2951c79aa976","condition":"full-information","relevant_dimensions":["wings","legs"],"bee_group":{"antennae":"X","wings":"2","pattern":"X","legs":"M"},"bonus":0.22000000000000075},{"rt":3440.20000000007,"stimulus":"bees-with-color/bee-B2DF.svg","response":0,"trial_type":"image-button-response","trial_index":131,"time_elapsed":440672,"internal_node_id":"0.0-4.0-0.62","subject_id":"5e8218bd6c3f4492c10df21b","study_id":"6197b3f67c2b5cd3b6d9596a","session_id":"6197b5d1180b2951c79aa976","condition":"full-information","relevant_dimensions":["wings","legs"],"bee_group":{"antennae":"X","wings":"2","pattern":"X","legs":"M"},"action":"harvest","summary":"good-harvest","bonus":0.22000000000000075},{"rt":1131.2000000000698,"stimulus":"\n                    <p><b>Action: <em>harvest</em></b></p>\n                    <p>This is the bee that you just saw.</p>\n                    <img src=\"bees-with-color/bee-B2DF.svg\" width=\"200\">\n                    <p><span class=\"greenText\"><b>Successful harvest!</b></span><br>Your pay has increased by $0.02. Your bonus pay is now $0.46.</p>\n            ","response":0,"trial_type":"html-button-response","trial_index":132,"time_elapsed":441806,"internal_node_id":"0.0-4.0-1.62","subject_id":"5e8218bd6c3f4492c10df21b","study_id":"6197b3f67c2b5cd3b6d9596a","session_id":"6197b5d1180b2951c79aa976","condition":"full-information","relevant_dimensions":["wings","legs"],"bee_group":{"antennae":"X","wings":"2","pattern":"X","legs":"M"},"bonus":0.22000000000000075},{"rt":1497.5999999999767,"stimulus":"bees-with-color/bee-B2SM.svg","response":1,"trial_type":"image-button-response","trial_index":133,"time_elapsed":443306,"internal_node_id":"0.0-4.0-0.63","subject_id":"5e8218bd6c3f4492c10df21b","study_id":"6197b3f67c2b5cd3b6d9596a","session_id":"6197b5d1180b2951c79aa976","condition":"full-information","relevant_dimensions":["wings","legs"],"bee_group":{"antennae":"X","wings":"2","pattern":"X","legs":"M"},"action":"avoid","summary":"good-avoid","bonus":0.22000000000000075},{"rt":1329,"stimulus":"\n                    <p><b>Action: <em>avoid</em></b></p>\n                    <p>This is the bee that you just saw.</p>\n                    <img src=\"bees-with-color/bee-B2SM.svg\" width=\"200\">\n                    <p><span class=\"greenText\">Good choice!</span>  This bee would have stung you.<br>Your bonus pay is unchanged, and remains at $0.46.</p>\n            ","response":0,"trial_type":"html-button-response","trial_index":134,"time_elapsed":444638,"internal_node_id":"0.0-4.0-1.63","subject_id":"5e8218bd6c3f4492c10df21b","study_id":"6197b3f67c2b5cd3b6d9596a","session_id":"6197b5d1180b2951c79aa976","condition":"full-information","relevant_dimensions":["wings","legs"],"bee_group":{"antennae":"X","wings":"2","pattern":"X","legs":"M"},"bonus":0.22000000000000075},{"rt":8990.099999999977,"stimulus":"You have completed the first part of this experiment.<br><br>You will now begin a shorter second part, in which you will receive no feedback.<br>The same rules regarding bonus pay apply.<br><br>Press any key to begin.","response":"alt","trial_type":"html-keyboard-response","trial_index":135,"time_elapsed":453630,"internal_node_id":"0.0-5.0","subject_id":"5e8218bd6c3f4492c10df21b","study_id":"6197b3f67c2b5cd3b6d9596a","session_id":"6197b5d1180b2951c79aa976","condition":"full-information","relevant_dimensions":["wings","legs"],"bee_group":{"antennae":"X","wings":"2","pattern":"X","legs":"M"},"bonus":0.22000000000000075},{"rt":2478,"stimulus":"bees-with-color/bee-A1SF.svg","response":0,"trial_type":"image-button-response","trial_index":136,"time_elapsed":456121,"internal_node_id":"0.0-6.0-0.0","subject_id":"5e8218bd6c3f4492c10df21b","study_id":"6197b3f67c2b5cd3b6d9596a","session_id":"6197b5d1180b2951c79aa976","condition":"full-information","relevant_dimensions":["wings","legs"],"bee_group":{"antennae":"X","wings":"2","pattern":"X","legs":"M"},"bonus":0.22000000000000075},{"rt":3969.4000000000233,"stimulus":"bees-with-color/bee-B1SM.svg","response":0,"trial_type":"image-button-response","trial_index":137,"time_elapsed":460097,"internal_node_id":"0.0-6.0-0.1","subject_id":"5e8218bd6c3f4492c10df21b","study_id":"6197b3f67c2b5cd3b6d9596a","session_id":"6197b5d1180b2951c79aa976","condition":"full-information","relevant_dimensions":["wings","legs"],"bee_group":{"antennae":"X","wings":"2","pattern":"X","legs":"M"},"bonus":0.22000000000000075},{"rt":1543.3000000000466,"stimulus":"bees-with-color/bee-B2SF.svg","response":1,"trial_type":"image-button-response","trial_index":138,"time_elapsed":461646,"internal_node_id":"0.0-6.0-0.2","subject_id":"5e8218bd6c3f4492c10df21b","study_id":"6197b3f67c2b5cd3b6d9596a","session_id":"6197b5d1180b2951c79aa976","condition":"full-information","relevant_dimensions":["wings","legs"],"bee_group":{"antennae":"X","wings":"2","pattern":"X","legs":"M"},"bonus":0.22000000000000075},{"rt":2534.79999999993,"stimulus":"bees-with-color/bee-B2DM.svg","response":0,"trial_type":"image-button-response","trial_index":139,"time_elapsed":464184,"internal_node_id":"0.0-6.0-0.3","subject_id":"5e8218bd6c3f4492c10df21b","study_id":"6197b3f67c2b5cd3b6d9596a","session_id":"6197b5d1180b2951c79aa976","condition":"full-information","relevant_dimensions":["wings","legs"],"bee_group":{"antennae":"X","wings":"2","pattern":"X","legs":"M"},"bonus":0.22000000000000075},{"rt":1171.2000000000698,"stimulus":"bees-with-color/bee-B1DM.svg","response":0,"trial_type":"image-button-response","trial_index":140,"time_elapsed":465359,"internal_node_id":"0.0-6.0-0.4","subject_id":"5e8218bd6c3f4492c10df21b","study_id":"6197b3f67c2b5cd3b6d9596a","session_id":"6197b5d1180b2951c79aa976","condition":"full-information","relevant_dimensions":["wings","legs"],"bee_group":{"antennae":"X","wings":"2","pattern":"X","legs":"M"},"bonus":0.22000000000000075},{"rt":1091.6999999999534,"stimulus":"bees-with-color/bee-A1DM.svg","response":1,"trial_type":"image-button-response","trial_index":141,"time_elapsed":466454,"internal_node_id":"0.0-6.0-0.5","subject_id":"5e8218bd6c3f4492c10df21b","study_id":"6197b3f67c2b5cd3b6d9596a","session_id":"6197b5d1180b2951c79aa976","condition":"full-information","relevant_dimensions":["wings","legs"],"bee_group":{"antennae":"X","wings":"2","pattern":"X","legs":"M"},"bonus":0.22000000000000075},{"rt":1751.0999999999767,"stimulus":"bees-with-color/bee-A2SM.svg","response":1,"trial_type":"image-button-response","trial_index":142,"time_elapsed":468208,"internal_node_id":"0.0-6.0-0.6","subject_id":"5e8218bd6c3f4492c10df21b","study_id":"6197b3f67c2b5cd3b6d9596a","session_id":"6197b5d1180b2951c79aa976","condition":"full-information","relevant_dimensions":["wings","legs"],"bee_group":{"antennae":"X","wings":"2","pattern":"X","legs":"M"},"bonus":0.22000000000000075},{"rt":1653.5999999999767,"stimulus":"bees-with-color/bee-A1DF.svg","response":0,"trial_type":"image-button-response","trial_index":143,"time_elapsed":469866,"internal_node_id":"0.0-6.0-0.7","subject_id":"5e8218bd6c3f4492c10df21b","study_id":"6197b3f67c2b5cd3b6d9596a","session_id":"6197b5d1180b2951c79aa976","condition":"full-information","relevant_dimensions":["wings","legs"],"bee_group":{"antennae":"X","wings":"2","pattern":"X","legs":"M"},"bonus":0.22000000000000075},{"rt":812.9000000000233,"stimulus":"bees-with-color/bee-B1DF.svg","response":0,"trial_type":"image-button-response","trial_index":144,"time_elapsed":470684,"internal_node_id":"0.0-6.0-0.8","subject_id":"5e8218bd6c3f4492c10df21b","study_id":"6197b3f67c2b5cd3b6d9596a","session_id":"6197b5d1180b2951c79aa976","condition":"full-information","relevant_dimensions":["wings","legs"],"bee_group":{"antennae":"X","wings":"2","pattern":"X","legs":"M"},"bonus":0.22000000000000075},{"rt":2545,"stimulus":"bees-with-color/bee-A2DF.svg","response":1,"trial_type":"image-button-response","trial_index":145,"time_elapsed":473232,"internal_node_id":"0.0-6.0-0.9","subject_id":"5e8218bd6c3f4492c10df21b","study_id":"6197b3f67c2b5cd3b6d9596a","session_id":"6197b5d1180b2951c79aa976","condition":"full-information","relevant_dimensions":["wings","legs"],"bee_group":{"antennae":"X","wings":"2","pattern":"X","legs":"M"},"bonus":0.22000000000000075},{"rt":1053.2000000000698,"stimulus":"bees-with-color/bee-A2DM.svg","response":0,"trial_type":"image-button-response","trial_index":146,"time_elapsed":474288,"internal_node_id":"0.0-6.0-0.10","subject_id":"5e8218bd6c3f4492c10df21b","study_id":"6197b3f67c2b5cd3b6d9596a","session_id":"6197b5d1180b2951c79aa976","condition":"full-information","relevant_dimensions":["wings","legs"],"bee_group":{"antennae":"X","wings":"2","pattern":"X","legs":"M"},"bonus":0.22000000000000075},{"rt":860.8000000000466,"stimulus":"bees-with-color/bee-A1SM.svg","response":0,"trial_type":"image-button-response","trial_index":147,"time_elapsed":475152,"internal_node_id":"0.0-6.0-0.11","subject_id":"5e8218bd6c3f4492c10df21b","study_id":"6197b3f67c2b5cd3b6d9596a","session_id":"6197b5d1180b2951c79aa976","condition":"full-information","relevant_dimensions":["wings","legs"],"bee_group":{"antennae":"X","wings":"2","pattern":"X","legs":"M"},"bonus":0.22000000000000075},{"rt":1184.9000000000233,"stimulus":"bees-with-color/bee-B2DF.svg","response":1,"trial_type":"image-button-response","trial_index":148,"time_elapsed":476339,"internal_node_id":"0.0-6.0-0.12","subject_id":"5e8218bd6c3f4492c10df21b","study_id":"6197b3f67c2b5cd3b6d9596a","session_id":"6197b5d1180b2951c79aa976","condition":"full-information","relevant_dimensions":["wings","legs"],"bee_group":{"antennae":"X","wings":"2","pattern":"X","legs":"M"},"bonus":0.22000000000000075},{"rt":2314.9000000000233,"stimulus":"bees-with-color/bee-A2SF.svg","response":0,"trial_type":"image-button-response","trial_index":149,"time_elapsed":478656,"internal_node_id":"0.0-6.0-0.13","subject_id":"5e8218bd6c3f4492c10df21b","study_id":"6197b3f67c2b5cd3b6d9596a","session_id":"6197b5d1180b2951c79aa976","condition":"full-information","relevant_dimensions":["wings","legs"],"bee_group":{"antennae":"X","wings":"2","pattern":"X","legs":"M"},"bonus":0.22000000000000075},{"rt":772.7999999999302,"stimulus":"bees-with-color/bee-B2SM.svg","response":0,"trial_type":"image-button-response","trial_index":150,"time_elapsed":479432,"internal_node_id":"0.0-6.0-0.14","subject_id":"5e8218bd6c3f4492c10df21b","study_id":"6197b3f67c2b5cd3b6d9596a","session_id":"6197b5d1180b2951c79aa976","condition":"full-information","relevant_dimensions":["wings","legs"],"bee_group":{"antennae":"X","wings":"2","pattern":"X","legs":"M"},"bonus":0.22000000000000075},{"rt":872.5,"stimulus":"bees-with-color/bee-B1SF.svg","response":1,"trial_type":"image-button-response","trial_index":151,"time_elapsed":480307,"internal_node_id":"0.0-6.0-0.15","subject_id":"5e8218bd6c3f4492c10df21b","study_id":"6197b3f67c2b5cd3b6d9596a","session_id":"6197b5d1180b2951c79aa976","condition":"full-information","relevant_dimensions":["wings","legs"],"bee_group":{"antennae":"X","wings":"2","pattern":"X","legs":"M"},"bonus":0.22000000000000075},{"rt":819.3999999999069,"stimulus":"bees-with-color/bee-B1DM.svg","response":1,"trial_type":"image-button-response","trial_index":152,"time_elapsed":481129,"internal_node_id":"0.0-6.0-0.16","subject_id":"5e8218bd6c3f4492c10df21b","study_id":"6197b3f67c2b5cd3b6d9596a","session_id":"6197b5d1180b2951c79aa976","condition":"full-information","relevant_dimensions":["wings","legs"],"bee_group":{"antennae":"X","wings":"2","pattern":"X","legs":"M"},"bonus":0.22000000000000075},{"rt":196.20000000006985,"stimulus":"bees-with-color/bee-A2DM.svg","response":1,"trial_type":"image-button-response","trial_index":153,"time_elapsed":481328,"internal_node_id":"0.0-6.0-0.17","subject_id":"5e8218bd6c3f4492c10df21b","study_id":"6197b3f67c2b5cd3b6d9596a","session_id":"6197b5d1180b2951c79aa976","condition":"full-information","relevant_dimensions":["wings","legs"],"bee_group":{"antennae":"X","wings":"2","pattern":"X","legs":"M"},"bonus":0.22000000000000075},{"rt":188.09999999997672,"stimulus":"bees-with-color/bee-B2DM.svg","response":1,"trial_type":"image-button-response","trial_index":154,"time_elapsed":481519,"internal_node_id":"0.0-6.0-0.18","subject_id":"5e8218bd6c3f4492c10df21b","study_id":"6197b3f67c2b5cd3b6d9596a","session_id":"6197b5d1180b2951c79aa976","condition":"full-information","relevant_dimensions":["wings","legs"],"bee_group":{"antennae":"X","wings":"2","pattern":"X","legs":"M"},"bonus":0.22000000000000075},{"rt":173.40000000002328,"stimulus":"bees-with-color/bee-A1DM.svg","response":1,"trial_type":"image-button-response","trial_index":155,"time_elapsed":481695,"internal_node_id":"0.0-6.0-0.19","subject_id":"5e8218bd6c3f4492c10df21b","study_id":"6197b3f67c2b5cd3b6d9596a","session_id":"6197b5d1180b2951c79aa976","condition":"full-information","relevant_dimensions":["wings","legs"],"bee_group":{"antennae":"X","wings":"2","pattern":"X","legs":"M"},"bonus":0.22000000000000075},{"rt":175.09999999997672,"stimulus":"bees-with-color/bee-B1SM.svg","response":1,"trial_type":"image-button-response","trial_index":156,"time_elapsed":481873,"internal_node_id":"0.0-6.0-0.20","subject_id":"5e8218bd6c3f4492c10df21b","study_id":"6197b3f67c2b5cd3b6d9596a","session_id":"6197b5d1180b2951c79aa976","condition":"full-information","relevant_dimensions":["wings","legs"],"bee_group":{"antennae":"X","wings":"2","pattern":"X","legs":"M"},"bonus":0.22000000000000075},{"rt":164.59999999997672,"stimulus":"bees-with-color/bee-A2DF.svg","response":1,"trial_type":"image-button-response","trial_index":157,"time_elapsed":482043,"internal_node_id":"0.0-6.0-0.21","subject_id":"5e8218bd6c3f4492c10df21b","study_id":"6197b3f67c2b5cd3b6d9596a","session_id":"6197b5d1180b2951c79aa976","condition":"full-information","relevant_dimensions":["wings","legs"],"bee_group":{"antennae":"X","wings":"2","pattern":"X","legs":"M"},"bonus":0.22000000000000075},{"rt":209.5,"stimulus":"bees-with-color/bee-A1DF.svg","response"