[{"success":true,"trial_type":"fullscreen","trial_index":0,"time_elapsed":29391,"internal_node_id":"0.0-0.0","subject_id":"6047f8c69fa4a010d97013ac","study_id":"6197b3f67c2b5cd3b6d9596a","session_id":"6197b88ae0ad06605c0dc7aa","condition":"full-information","relevant_dimensions":["antennae","pattern"],"bee_group":{"antennae":"B","wings":"X","pattern":"D","legs":"X"},"bonus":0.5400000000000005},{"success":true,"timeout":false,"failed_images":[],"failed_audio":[],"failed_video":[],"trial_type":"preload","trial_index":1,"time_elapsed":31818,"internal_node_id":"0.0-1.0","subject_id":"6047f8c69fa4a010d97013ac","study_id":"6197b3f67c2b5cd3b6d9596a","session_id":"6197b88ae0ad06605c0dc7aa","condition":"full-information","relevant_dimensions":["antennae","pattern"],"bee_group":{"antennae":"B","wings":"X","pattern":"D","legs":"X"},"bonus":0.5400000000000005},{"rt":29297.600000023842,"stimulus":"Welcome! Press any key to begin.","response":"control","trial_type":"html-keyboard-response","trial_index":2,"time_elapsed":61106,"internal_node_id":"0.0-2.0","subject_id":"6047f8c69fa4a010d97013ac","study_id":"6197b3f67c2b5cd3b6d9596a","session_id":"6197b88ae0ad06605c0dc7aa","condition":"full-information","relevant_dimensions":["antennae","pattern"],"bee_group":{"antennae":"B","wings":"X","pattern":"D","legs":"X"},"bonus":0.5400000000000005},{"view_history":[{"page_index":0,"viewing_time":4022.2000000476837},{"page_index":1,"viewing_time":9387.299999952316},{"page_index":2,"viewing_time":9101.299999952316},{"page_index":3,"viewing_time":11692.100000023842},{"page_index":4,"viewing_time":5649.5},{"page_index":5,"viewing_time":6750.100000023842},{"page_index":6,"viewing_time":8947},{"page_index":7,"viewing_time":5894},{"page_index":8,"viewing_time":3997},{"page_index":9,"viewing_time":2967.7000000476837},{"page_index":10,"viewing_time":3579.2999999523163},{"page_index":11,"viewing_time":6025.799999952316},{"page_index":12,"viewing_time":59192.200000047684},{"page_index":13,"viewing_time":1652},{"page_index":14,"viewing_time":1958.5}],"rt":140816.5,"trial_type":"instructions","trial_index":3,"time_elapsed":201937,"internal_node_id":"0.0-3.0-0.0","subject_id":"6047f8c69fa4a010d97013ac","study_id":"6197b3f67c2b5cd3b6d9596a","session_id":"6197b88ae0ad06605c0dc7aa","condition":"full-information","relevant_dimensions":["antennae","pattern"],"bee_group":{"antennae":"B","wings":"X","pattern":"D","legs":"X"},"bonus":0.5400000000000005},{"rt":11794.700000047684,"response":{"Q0":["Two or six legs","Stripes or spots on body","Single or double wings","Antennae or no antennae"]},"question_order":[0],"trial_type":"survey-multi-select","trial_index":4,"time_elapsed":213737,"internal_node_id":"0.0-3.0-1.0","subject_id":"6047f8c69fa4a010d97013ac","study_id":"6197b3f67c2b5cd3b6d9596a","session_id":"6197b88ae0ad06605c0dc7aa","condition":"full-information","relevant_dimensions":["antennae","pattern"],"bee_group":{"antennae":"B","wings":"X","pattern":"D","legs":"X"},"correct":true,"bonus":0.5400000000000005},{"rt":18246.199999928474,"response":{"Q1":"No.","Q2":"Based on the four features of the bee.","Q3":"You learn if it was friendly or dangerous, but do not alter your bonus."},"question_order":[0,1,2],"trial_type":"survey-multi-choice","trial_index":5,"time_elapsed":231988,"internal_node_id":"0.0-3.0-2.0","subject_id":"6047f8c69fa4a010d97013ac","study_id":"6197b3f67c2b5cd3b6d9596a","session_id":"6197b88ae0ad06605c0dc7aa","condition":"full-information","relevant_dimensions":["antennae","pattern"],"bee_group":{"antennae":"B","wings":"X","pattern":"D","legs":"X"},"correct":true,"bonus":0.5400000000000005},{"rt":4572.100000023842,"stimulus":"<p>Congrats, you got everything right<br>When you're ready, click the button below to continue to the experiment.</p>","response":0,"trial_type":"html-button-response","trial_index":6,"time_elapsed":236566,"internal_node_id":"0.0-3.0-3.0","subject_id":"6047f8c69fa4a010d97013ac","study_id":"6197b3f67c2b5cd3b6d9596a","session_id":"6197b88ae0ad06605c0dc7aa","condition":"full-information","relevant_dimensions":["antennae","pattern"],"bee_group":{"antennae":"B","wings":"X","pattern":"D","legs":"X"},"bonus":0.5400000000000005},{"rt":4614.799999952316,"stimulus":"bees-with-color/bee-B2SF.svg","response":1,"trial_type":"image-button-response","trial_index":7,"time_elapsed":241185,"internal_node_id":"0.0-4.0-0.0","subject_id":"6047f8c69fa4a010d97013ac","study_id":"6197b3f67c2b5cd3b6d9596a","session_id":"6197b88ae0ad06605c0dc7aa","condition":"full-information","relevant_dimensions":["antennae","pattern"],"bee_group":{"antennae":"B","wings":"X","pattern":"D","legs":"X"},"action":"avoid","summary":"bad-avoid","bonus":0.5400000000000005},{"rt":10003.099999904633,"stimulus":"\n                    <p><b>Action: <em>avoid</em></b></p>\n                    <p>This is the bee that you just saw.</p>\n                    <img src=\"bees-with-color/bee-B2SF.svg\" width=\"200\">\n                    <p><span class=\"redText\">Bad choice,</span> the bee was friendly.<br>Your bonus pay is unchanged, and remains at $0.54.</p>\n            ","response":0,"trial_type":"html-button-response","trial_index":8,"time_elapsed":251209,"internal_node_id":"0.0-4.0-1.0","subject_id":"6047f8c69fa4a010d97013ac","study_id":"6197b3f67c2b5cd3b6d9596a","session_id":"6197b88ae0ad06605c0dc7aa","condition":"full-information","relevant_dimensions":["antennae","pattern"],"bee_group":{"antennae":"B","wings":"X","pattern":"D","legs":"X"},"bonus":0.5400000000000005},{"rt":2526.399999976158,"stimulus":"bees-with-color/bee-A2DM.svg","response":1,"trial_type":"image-button-response","trial_index":9,"time_elapsed":253737,"internal_node_id":"0.0-4.0-0.1","subject_id":"6047f8c69fa4a010d97013ac","study_id":"6197b3f67c2b5cd3b6d9596a","session_id":"6197b88ae0ad06605c0dc7aa","condition":"full-information","relevant_dimensions":["antennae","pattern"],"bee_group":{"antennae":"B","wings":"X","pattern":"D","legs":"X"},"action":"avoid","summary":"bad-avoid","bonus":0.5400000000000005},{"rt":6493.100000023842,"stimulus":"\n                    <p><b>Action: <em>avoid</em></b></p>\n                    <p>This is the bee that you just saw.</p>\n                    <img src=\"bees-with-color/bee-A2DM.svg\" width=\"200\">\n                    <p><span class=\"redText\">Bad choice,</span> the bee was friendly.<br>Your bonus pay is unchanged, and remains at $0.54.</p>\n            ","response":0,"trial_type":"html-button-response","trial_index":10,"time_elapsed":260233,"internal_node_id":"0.0-4.0-1.1","subject_id":"6047f8c69fa4a010d97013ac","study_id":"6197b3f67c2b5cd3b6d9596a","session_id":"6197b88ae0ad06605c0dc7aa","condition":"full-information","relevant_dimensions":["antennae","pattern"],"bee_group":{"antennae":"B","wings":"X","pattern":"D","legs":"X"},"bonus":0.5400000000000005},{"rt":2923.6999999284744,"stimulus":"bees-with-color/bee-B2DM.svg","response":1,"trial_type":"image-button-response","trial_index":11,"time_elapsed":263158,"internal_node_id":"0.0-4.0-0.2","subject_id":"6047f8c69fa4a010d97013ac","study_id":"6197b3f67c2b5cd3b6d9596a","session_id":"6197b88ae0ad06605c0dc7aa","condition":"full-information","relevant_dimensions":["antennae","pattern"],"bee_group":{"antennae":"B","wings":"X","pattern":"D","legs":"X"},"action":"avoid","summary":"good-avoid","bonus":0.5400000000000005},{"rt":5249.100000023842,"stimulus":"\n                    <p><b>Action: <em>avoid</em></b></p>\n                    <p>This is the bee that you just saw.</p>\n                    <img src=\"bees-with-color/bee-B2DM.svg\" width=\"200\">\n                    <p><span class=\"greenText\">Good choice!</span>  This bee would have stung you.<br>Your bonus pay is unchanged, and remains at $0.54.</p>\n            ","response":0,"trial_type":"html-button-response","trial_index":12,"time_elapsed":268409,"internal_node_id":"0.0-4.0-1.2","subject_id":"6047f8c69fa4a010d97013ac","study_id":"6197b3f67c2b5cd3b6d9596a","session_id":"6197b88ae0ad06605c0dc7aa","condition":"full-information","relevant_dimensions":["antennae","pattern"],"bee_group":{"antennae":"B","wings":"X","pattern":"D","legs":"X"},"bonus":0.5400000000000005},{"rt":2536.5,"stimulus":"bees-with-color/bee-B1SF.svg","response":1,"trial_type":"image-button-response","trial_index":13,"time_elapsed":270948,"internal_node_id":"0.0-4.0-0.3","subject_id":"6047f8c69fa4a010d97013ac","study_id":"6197b3f67c2b5cd3b6d9596a","session_id":"6197b88ae0ad06605c0dc7aa","condition":"full-information","relevant_dimensions":["antennae","pattern"],"bee_group":{"antennae":"B","wings":"X","pattern":"D","legs":"X"},"action":"avoid","summary":"bad-avoid","bonus":0.5400000000000005},{"rt":3362.7999999523163,"stimulus":"\n                    <p><b>Action: <em>avoid</em></b></p>\n                    <p>This is the bee that you just saw.</p>\n                    <img src=\"bees-with-color/bee-B1SF.svg\" width=\"200\">\n                    <p><span class=\"redText\">Bad choice,</span> the bee was friendly.<br>Your bonus pay is unchanged, and remains at $0.54.</p>\n            ","response":0,"trial_type":"html-button-response","trial_index":14,"time_elapsed":274312,"internal_node_id":"0.0-4.0-1.3","subject_id":"6047f8c69fa4a010d97013ac","study_id":"6197b3f67c2b5cd3b6d9596a","session_id":"6197b88ae0ad06605c0dc7aa","condition":"full-information","relevant_dimensions":["antennae","pattern"],"bee_group":{"antennae":"B","wings":"X","pattern":"D","legs":"X"},"bonus":0.5400000000000005},{"rt":3474.7000000476837,"stimulus":"bees-with-color/bee-A2DF.svg","response":1,"trial_type":"image-button-response","trial_index":15,"time_elapsed":277790,"internal_node_id":"0.0-4.0-0.4","subject_id":"6047f8c69fa4a010d97013ac","study_id":"6197b3f67c2b5cd3b6d9596a","session_id":"6197b88ae0ad06605c0dc7aa","condition":"full-information","relevant_dimensions":["antennae","pattern"],"bee_group":{"antennae":"B","wings":"X","pattern":"D","legs":"X"},"action":"avoid","summary":"bad-avoid","bonus":0.5400000000000005},{"rt":2720.399999976158,"stimulus":"\n                    <p><b>Action: <em>avoid</em></b></p>\n                    <p>This is the bee that you just saw.</p>\n                    <img src=\"bees-with-color/bee-A2DF.svg\" width=\"200\">\n                    <p><span class=\"redText\">Bad choice,</span> the bee was friendly.<br>Your bonus pay is unchanged, and remains at $0.54.</p>\n            ","response":0,"trial_type":"html-button-response","trial_index":16,"time_elapsed":280512,"internal_node_id":"0.0-4.0-1.4","subject_id":"6047f8c69fa4a010d97013ac","study_id":"6197b3f67c2b5cd3b6d9596a","session_id":"6197b88ae0ad06605c0dc7aa","condition":"full-information","relevant_dimensions":["antennae","pattern"],"bee_group":{"antennae":"B","wings":"X","pattern":"D","legs":"X"},"bonus":0.5400000000000005},{"rt":5197.700000047684,"stimulus":"bees-with-color/bee-B2SM.svg","response":0,"trial_type":"image-button-response","trial_index":17,"time_elapsed":285711,"internal_node_id":"0.0-4.0-0.5","subject_id":"6047f8c69fa4a010d97013ac","study_id":"6197b3f67c2b5cd3b6d9596a","session_id":"6197b88ae0ad06605c0dc7aa","condition":"full-information","relevant_dimensions":["antennae","pattern"],"bee_group":{"antennae":"B","wings":"X","pattern":"D","legs":"X"},"action":"harvest","summary":"good-harvest","bonus":0.5400000000000005},{"rt":3475,"stimulus":"\n                    <p><b>Action: <em>harvest</em></b></p>\n                    <p>This is the bee that you just saw.</p>\n                    <img src=\"bees-with-color/bee-B2SM.svg\" width=\"200\">\n                    <p><span class=\"greenText\"><b>Successful harvest!</b></span><br>Your pay has increased by $0.02. Your bonus pay is now $0.56.</p>\n            ","response":0,"trial_type":"html-button-response","trial_index":18,"time_elapsed":289188,"internal_node_id":"0.0-4.0-1.5","subject_id":"6047f8c69fa4a010d97013ac","study_id":"6197b3f67c2b5cd3b6d9596a","session_id":"6197b88ae0ad06605c0dc7aa","condition":"full-information","relevant_dimensions":["antennae","pattern"],"bee_group":{"antennae":"B","wings":"X","pattern":"D","legs":"X"},"bonus":0.5400000000000005},{"rt":3371.6999999284744,"stimulus":"bees-with-color/bee-A1SM.svg","response":1,"trial_type":"image-button-response","trial_index":19,"time_elapsed":292562,"internal_node_id":"0.0-4.0-0.6","subject_id":"6047f8c69fa4a010d97013ac","study_id":"6197b3f67c2b5cd3b6d9596a","session_id":"6197b88ae0ad06605c0dc7aa","condition":"full-information","relevant_dimensions":["antennae","pattern"],"bee_group":{"antennae":"B","wings":"X","pattern":"D","legs":"X"},"action":"avoid","summary":"bad-avoid","bonus":0.5400000000000005},{"rt":1690.1000000238419,"stimulus":"\n                    <p><b>Action: <em>avoid</em></b></p>\n                    <p>This is the bee that you just saw.</p>\n                    <img src=\"bees-with-color/bee-A1SM.svg\" width=\"200\">\n                    <p><span class=\"redText\">Bad choice,</span> the bee was friendly.<br>Your bonus pay is unchanged, and remains at $0.56.</p>\n            ","response":0,"trial_type":"html-button-response","trial_index":20,"time_elapsed":294255,"internal_node_id":"0.0-4.0-1.6","subject_id":"6047f8c69fa4a010d97013ac","study_id":"6197b3f67c2b5cd3b6d9596a","session_id":"6197b88ae0ad06605c0dc7aa","condition":"full-information","relevant_dimensions":["antennae","pattern"],"bee_group":{"antennae":"B","wings":"X","pattern":"D","legs":"X"},"bonus":0.5400000000000005},{"rt":3799.1999999284744,"stimulus":"bees-with-color/bee-B1DM.svg","response":1,"trial_type":"image-button-response","trial_index":21,"time_elapsed":298057,"internal_node_id":"0.0-4.0-0.7","subject_id":"6047f8c69fa4a010d97013ac","study_id":"6197b3f67c2b5cd3b6d9596a","session_id":"6197b88ae0ad06605c0dc7aa","condition":"full-information","relevant_dimensions":["antennae","pattern"],"bee_group":{"antennae":"B","wings":"X","pattern":"D","legs":"X"},"action":"avoid","summary":"good-avoid","bonus":0.5400000000000005},{"rt":4209.399999976158,"stimulus":"\n                    <p><b>Action: <em>avoid</em></b></p>\n                    <p>This is the bee that you just saw.</p>\n                    <img src=\"bees-with-color/bee-B1DM.svg\" width=\"200\">\n                    <p><span class=\"greenText\">Good choice!</span>  This bee would have stung you.<br>Your bonus pay is unchanged, and remains at $0.56.</p>\n            ","response":0,"trial_type":"html-button-response","trial_index":22,"time_elapsed":302268,"internal_node_id":"0.0-4.0-1.7","subject_id":"6047f8c69fa4a010d97013ac","study_id":"6197b3f67c2b5cd3b6d9596a","session_id":"6197b88ae0ad06605c0dc7aa","condition":"full-information","relevant_dimensions":["antennae","pattern"],"bee_group":{"antennae":"B","wings":"X","pattern":"D","legs":"X"},"bonus":0.5400000000000005},{"rt":3402,"stimulus":"bees-with-color/bee-A1SF.svg","response":1,"trial_type":"image-button-response","trial_index":23,"time_elapsed":305673,"internal_node_id":"0.0-4.0-0.8","subject_id":"6047f8c69fa4a010d97013ac","study_id":"6197b3f67c2b5cd3b6d9596a","session_id":"6197b88ae0ad06605c0dc7aa","condition":"full-information","relevant_dimensions":["antennae","pattern"],"bee_group":{"antennae":"B","wings":"X","pattern":"D","legs":"X"},"action":"avoid","summary":"bad-avoid","bonus":0.5400000000000005},{"rt":2077.899999976158,"stimulus":"\n                    <p><b>Action: <em>avoid</em></b></p>\n                    <p>This is the bee that you just saw.</p>\n                    <img src=\"bees-with-color/bee-A1SF.svg\" width=\"200\">\n                    <p><span class=\"redText\">Bad choice,</span> the bee was friendly.<br>Your bonus pay is unchanged, and remains at $0.56.</p>\n            ","response":0,"trial_type":"html-button-response","trial_index":24,"time_elapsed":307753,"internal_node_id":"0.0-4.0-1.8","subject_id":"6047f8c69fa4a010d97013ac","study_id":"6197b3f67c2b5cd3b6d9596a","session_id":"6197b88ae0ad06605c0dc7aa","condition":"full-information","relevant_dimensions":["antennae","pattern"],"bee_group":{"antennae":"B","wings":"X","pattern":"D","legs":"X"},"bonus":0.5400000000000005},{"rt":2454.2000000476837,"stimulus":"bees-with-color/bee-B1SM.svg","response":1,"trial_type":"image-button-response","trial_index":25,"time_elapsed":310210,"internal_node_id":"0.0-4.0-0.9","subject_id":"6047f8c69fa4a010d97013ac","study_id":"6197b3f67c2b5cd3b6d9596a","session_id":"6197b88ae0ad06605c0dc7aa","condition":"full-information","relevant_dimensions":["antennae","pattern"],"bee_group":{"antennae":"B","wings":"X","pattern":"D","legs":"X"},"action":"avoid","summary":"bad-avoid","bonus":0.5400000000000005},{"rt":1536.7999999523163,"stimulus":"\n                    <p><b>Action: <em>avoid</em></b></p>\n                    <p>This is the bee that you just saw.</p>\n                    <img src=\"bees-with-color/bee-B1SM.svg\" width=\"200\">\n                    <p><span class=\"redText\">Bad choice,</span> the bee was friendly.<br>Your bonus pay is unchanged, and remains at $0.56.</p>\n            ","response":0,"trial_type":"html-button-response","trial_index":26,"time_elapsed":311749,"internal_node_id":"0.0-4.0-1.9","subject_id":"6047f8c69fa4a010d97013ac","study_id":"6197b3f67c2b5cd3b6d9596a","session_id":"6197b88ae0ad06605c0dc7aa","condition":"full-information","relevant_dimensions":["antennae","pattern"],"bee_group":{"antennae":"B","wings":"X","pattern":"D","legs":"X"},"bonus":0.5400000000000005},{"rt":2638.5,"stimulus":"bees-with-color/bee-A1DM.svg","response":0,"trial_type":"image-button-response","trial_index":27,"time_elapsed":314390,"internal_node_id":"0.0-4.0-0.10","subject_id":"6047f8c69fa4a010d97013ac","study_id":"6197b3f67c2b5cd3b6d9596a","session_id":"6197b88ae0ad06605c0dc7aa","condition":"full-information","relevant_dimensions":["antennae","pattern"],"bee_group":{"antennae":"B","wings":"X","pattern":"D","legs":"X"},"action":"harvest","summary":"good-harvest","bonus":0.5400000000000005},{"rt":1660,"stimulus":"\n                    <p><b>Action: <em>harvest</em></b></p>\n                    <p>This is the bee that you just saw.</p>\n                    <img src=\"bees-with-color/bee-A1DM.svg\" width=\"200\">\n                    <p><span class=\"greenText\"><b>Successful harvest!</b></span><br>Your pay has increased by $0.02. Your bonus pay is now $0.58.</p>\n            ","response":0,"trial_type":"html-button-response","trial_index":28,"time_elapsed":316052,"internal_node_id":"0.0-4.0-1.10","subject_id":"6047f8c69fa4a010d97013ac","study_id":"6197b3f67c2b5cd3b6d9596a","session_id":"6197b88ae0ad06605c0dc7aa","condition":"full-information","relevant_dimensions":["antennae","pattern"],"bee_group":{"antennae":"B","wings":"X","pattern":"D","legs":"X"},"bonus":0.5400000000000005},{"rt":1955.0999999046326,"stimulus":"bees-with-color/bee-A1DF.svg","response":1,"trial_type":"image-button-response","trial_index":29,"time_elapsed":318009,"internal_node_id":"0.0-4.0-0.11","subject_id":"6047f8c69fa4a010d97013ac","study_id":"6197b3f67c2b5cd3b6d9596a","session_id":"6197b88ae0ad06605c0dc7aa","condition":"full-information","relevant_dimensions":["antennae","pattern"],"bee_group":{"antennae":"B","wings":"X","pattern":"D","legs":"X"},"action":"avoid","summary":"bad-avoid","bonus":0.5400000000000005},{"rt":1833.7000000476837,"stimulus":"\n                    <p><b>Action: <em>avoid</em></b></p>\n                    <p>This is the bee that you just saw.</p>\n                    <img src=\"bees-with-color/bee-A1DF.svg\" width=\"200\">\n                    <p><span class=\"redText\">Bad choice,</span> the bee was friendly.<br>Your bonus pay is unchanged, and remains at $0.58.</p>\n            ","response":0,"trial_type":"html-button-response","trial_index":30,"time_elapsed":319844,"internal_node_id":"0.0-4.0-1.11","subject_id":"6047f8c69fa4a010d97013ac","study_id":"6197b3f67c2b5cd3b6d9596a","session_id":"6197b88ae0ad06605c0dc7aa","condition":"full-information","relevant_dimensions":["antennae","pattern"],"bee_group":{"antennae":"B","wings":"X","pattern":"D","legs":"X"},"bonus":0.5400000000000005},{"rt":2536.1999999284744,"stimulus":"bees-with-color/bee-B1DF.svg","response":1,"trial_type":"image-button-response","trial_index":31,"time_elapsed":322383,"internal_node_id":"0.0-4.0-0.12","subject_id":"6047f8c69fa4a010d97013ac","study_id":"6197b3f67c2b5cd3b6d9596a","session_id":"6197b88ae0ad06605c0dc7aa","condition":"full-information","relevant_dimensions":["antennae","pattern"],"bee_group":{"antennae":"B","wings":"X","pattern":"D","legs":"X"},"action":"avoid","summary":"good-avoid","bonus":0.5400000000000005},{"rt":1965.8000000715256,"stimulus":"\n                    <p><b>Action: <em>avoid</em></b></p>\n                    <p>This is the bee that you just saw.</p>\n                    <img src=\"bees-with-color/bee-B1DF.svg\" width=\"200\">\n                    <p><span class=\"greenText\">Good choice!</span>  This bee would have stung you.<br>Your bonus pay is unchanged, and remains at $0.58.</p>\n            ","response":0,"trial_type":"html-button-response","trial_index":32,"time_elapsed":324351,"internal_node_id":"0.0-4.0-1.12","subject_id":"6047f8c69fa4a010d97013ac","study_id":"6197b3f67c2b5cd3b6d9596a","session_id":"6197b88ae0ad06605c0dc7aa","condition":"full-information","relevant_dimensions":["antennae","pattern"],"bee_group":{"antennae":"B","wings":"X","pattern":"D","legs":"X"},"bonus":0.5400000000000005},{"rt":2842.600000023842,"stimulus":"bees-with-color/bee-A2SF.svg","response":0,"trial_type":"image-button-response","trial_index":33,"time_elapsed":327195,"internal_node_id":"0.0-4.0-0.13","subject_id":"6047f8c69fa4a010d97013ac","study_id":"6197b3f67c2b5cd3b6d9596a","session_id":"6197b88ae0ad06605c0dc7aa","condition":"full-information","relevant_dimensions":["antennae","pattern"],"bee_group":{"antennae":"B","wings":"X","pattern":"D","legs":"X"},"action":"harvest","summary":"good-harvest","bonus":0.5400000000000005},{"rt":2302.399999976158,"stimulus":"\n                    <p><b>Action: <em>harvest</em></b></p>\n                    <p>This is the bee that you just saw.</p>\n                    <img src=\"bees-with-color/bee-A2SF.svg\" width=\"200\">\n                    <p><span class=\"greenText\"><b>Successful harvest!</b></span><br>Your pay has increased by $0.02. Your bonus pay is now $0.60.</p>\n            ","response":0,"trial_type":"html-button-response","trial_index":34,"time_elapsed":329499,"internal_node_id":"0.0-4.0-1.13","subject_id":"6047f8c69fa4a010d97013ac","study_id":"6197b3f67c2b5cd3b6d9596a","session_id":"6197b88ae0ad06605c0dc7aa","condition":"full-information","relevant_dimensions":["antennae","pattern"],"bee_group":{"antennae":"B","wings":"X","pattern":"D","legs":"X"},"bonus":0.5400000000000005},{"rt":3341.7000000476837,"stimulus":"bees-with-color/bee-B2DF.svg","response":1,"trial_type":"image-button-response","trial_index":35,"time_elapsed":332842,"internal_node_id":"0.0-4.0-0.14","subject_id":"6047f8c69fa4a010d97013ac","study_id":"6197b3f67c2b5cd3b6d9596a","session_id":"6197b88ae0ad06605c0dc7aa","condition":"full-information","relevant_dimensions":["antennae","pattern"],"bee_group":{"antennae":"B","wings":"X","pattern":"D","legs":"X"},"action":"avoid","summary":"good-avoid","bonus":0.5400000000000005},{"rt":2628.100000023842,"stimulus":"\n                    <p><b>Action: <em>avoid</em></b></p>\n                    <p>This is the bee that you just saw.</p>\n                    <img src=\"bees-with-color/bee-B2DF.svg\" width=\"200\">\n                    <p><span class=\"greenText\">Good choice!</span>  This bee would have stung you.<br>Your bonus pay is unchanged, and remains at $0.60.</p>\n            ","response":0,"trial_type":"html-button-response","trial_index":36,"time_elapsed":335472,"internal_node_id":"0.0-4.0-1.14","subject_id":"6047f8c69fa4a010d97013ac","study_id":"6197b3f67c2b5cd3b6d9596a","session_id":"6197b88ae0ad06605c0dc7aa","condition":"full-information","relevant_dimensions":["antennae","pattern"],"bee_group":{"antennae":"B","wings":"X","pattern":"D","legs":"X"},"bonus":0.5400000000000005},{"rt":5165.899999976158,"stimulus":"bees-with-color/bee-A2SM.svg","response":1,"trial_type":"image-button-response","trial_index":37,"time_elapsed":340641,"internal_node_id":"0.0-4.0-0.15","subject_id":"6047f8c69fa4a010d97013ac","study_id":"6197b3f67c2b5cd3b6d9596a","session_id":"6197b88ae0ad06605c0dc7aa","condition":"full-information","relevant_dimensions":["antennae","pattern"],"bee_group":{"antennae":"B","wings":"X","pattern":"D","legs":"X"},"action":"avoid","summary":"bad-avoid","bonus":0.5400000000000005},{"rt":1516.8000000715256,"stimulus":"\n                    <p><b>Action: <em>avoid</em></b></p>\n                    <p>This is the bee that you just saw.</p>\n                    <img src=\"bees-with-color/bee-A2SM.svg\" width=\"200\">\n                    <p><span class=\"redText\">Bad choice,</span> the bee was friendly.<br>Your bonus pay is unchanged, and remains at $0.60.</p>\n            ","response":0,"trial_type":"html-button-response","trial_index":38,"time_elapsed":342160,"internal_node_id":"0.0-4.0-1.15","subject_id":"6047f8c69fa4a010d97013ac","study_id":"6197b3f67c2b5cd3b6d9596a","session_id":"6197b88ae0ad06605c0dc7aa","condition":"full-information","relevant_dimensions":["antennae","pattern"],"bee_group":{"antennae":"B","wings":"X","pattern":"D","legs":"X"},"bonus":0.5400000000000005},{"rt":1965.7999999523163,"stimulus":"bees-with-color/bee-A2DF.svg","response":1,"trial_type":"image-button-response","trial_index":39,"time_elapsed":344128,"internal_node_id":"0.0-4.0-0.16","subject_id":"6047f8c69fa4a010d97013ac","study_id":"6197b3f67c2b5cd3b6d9596a","session_id":"6197b88ae0ad06605c0dc7aa","condition":"full-information","relevant_dimensions":["antennae","pattern"],"bee_group":{"antennae":"B","wings":"X","pattern":"D","legs":"X"},"action":"avoid","summary":"bad-avoid","bonus":0.5400000000000005},{"rt":1160.5,"stimulus":"\n                    <p><b>Action: <em>avoid</em></b></p>\n                    <p>This is the bee that you just saw.</p>\n                    <img src=\"bees-with-color/bee-A2DF.svg\" width=\"200\">\n                    <p><span class=\"redText\">Bad choice,</span> the bee was friendly.<br>Your bonus pay is unchanged, and remains at $0.60.</p>\n            ","response":0,"trial_type":"html-button-response","trial_index":40,"time_elapsed":345290,"internal_node_id":"0.0-4.0-1.16","subject_id":"6047f8c69fa4a010d97013ac","study_id":"6197b3f67c2b5cd3b6d9596a","session_id":"6197b88ae0ad06605c0dc7aa","condition":"full-information","relevant_dimensions":["antennae","pattern"],"bee_group":{"antennae":"B","wings":"X","pattern":"D","legs":"X"},"bonus":0.5400000000000005},{"rt":3270.3000000715256,"stimulus":"bees-with-color/bee-A1SM.svg","response":1,"trial_type":"image-button-response","trial_index":41,"time_elapsed":348562,"internal_node_id":"0.0-4.0-0.17","subject_id":"6047f8c69fa4a010d97013ac","study_id":"6197b3f67c2b5cd3b6d9596a","session_id":"6197b88ae0ad06605c0dc7aa","condition":"full-information","relevant_dimensions":["antennae","pattern"],"bee_group":{"antennae":"B","wings":"X","pattern":"D","legs":"X"},"action":"avoid","summary":"bad-avoid","bonus":0.5400000000000005},{"rt":1363.3999999761581,"stimulus":"\n                    <p><b>Action: <em>avoid</em></b></p>\n                    <p>This is the bee that you just saw.</p>\n                    <img src=\"bees-with-color/bee-A1SM.svg\" width=\"200\">\n                    <p><span class=\"redText\">Bad choice,</span> the bee was friendly.<br>Your bonus pay is unchanged, and remains at $0.60.</p>\n            ","response":0,"trial_type":"html-button-response","trial_index":42,"time_elapsed":349929,"internal_node_id":"0.0-4.0-1.17","subject_id":"6047f8c69fa4a010d97013ac","study_id":"6197b3f67c2b5cd3b6d9596a","session_id":"6197b88ae0ad06605c0dc7aa","condition":"full-information","relevant_dimensions":["antennae","pattern"],"bee_group":{"antennae":"B","wings":"X","pattern":"D","legs":"X"},"bonus":0.5400000000000005},{"rt":5093.5,"stimulus":"bees-with-color/bee-A2SF.svg","response":1,"trial_type":"image-button-response","trial_index":43,"time_elapsed":355025,"internal_node_id":"0.0-4.0-0.18","subject_id":"6047f8c69fa4a010d97013ac","study_id":"6197b3f67c2b5cd3b6d9596a","session_id":"6197b88ae0ad06605c0dc7aa","condition":"full-information","relevant_dimensions":["antennae","pattern"],"bee_group":{"antennae":"B","wings":"X","pattern":"D","legs":"X"},"action":"avoid","summary":"bad-avoid","bonus":0.5400000000000005},{"rt":1171.2000000476837,"stimulus":"\n                    <p><b>Action: <em>avoid</em></b></p>\n                    <p>This is the bee that you just saw.</p>\n                    <img src=\"bees-with-color/bee-A2SF.svg\" width=\"200\">\n                    <p><span class=\"redText\">Bad choice,</span> the bee was friendly.<br>Your bonus pay is unchanged, and remains at $0.60.</p>\n            ","response":0,"trial_type":"html-button-response","trial_index":44,"time_elapsed":356198,"internal_node_id":"0.0-4.0-1.18","subject_id":"6047f8c69fa4a010d97013ac","study_id":"6197b3f67c2b5cd3b6d9596a","session_id":"6197b88ae0ad06605c0dc7aa","condition":"full-information","relevant_dimensions":["antennae","pattern"],"bee_group":{"antennae":"B","wings":"X","pattern":"D","legs":"X"},"bonus":0.5400000000000005},{"rt":5085.200000047684,"stimulus":"bees-with-color/bee-A1SF.svg","response":1,"trial_type":"image-button-response","trial_index":45,"time_elapsed":361285,"internal_node_id":"0.0-4.0-0.19","subject_id":"6047f8c69fa4a010d97013ac","study_id":"6197b3f67c2b5cd3b6d9596a","session_id":"6197b88ae0ad06605c0dc7aa","condition":"full-information","relevant_dimensions":["antennae","pattern"],"bee_group":{"antennae":"B","wings":"X","pattern":"D","legs":"X"},"action":"avoid","summary":"bad-avoid","bonus":0.5400000000000005},{"rt":1028.3000000715256,"stimulus":"\n                    <p><b>Action: <em>avoid</em></b></p>\n                    <p>This is the bee that you just saw.</p>\n                    <img src=\"bees-with-color/bee-A1SF.svg\" width=\"200\">\n                    <p><span class=\"redText\">Bad choice,</span> the bee was friendly.<br>Your bonus pay is unchanged, and remains at $0.60.</p>\n            ","response":0,"trial_type":"html-button-response","trial_index":46,"time_elapsed":362315,"internal_node_id":"0.0-4.0-1.19","subject_id":"6047f8c69fa4a010d97013ac","study_id":"6197b3f67c2b5cd3b6d9596a","session_id":"6197b88ae0ad06605c0dc7aa","condition":"full-information","relevant_dimensions":["antennae","pattern"],"bee_group":{"antennae":"B","wings":"X","pattern":"D","legs":"X"},"bonus":0.5400000000000005},{"rt":1925.3000000715256,"stimulus":"bees-with-color/bee-A2DM.svg","response":0,"trial_type":"image-button-response","trial_index":47,"time_elapsed":364241,"internal_node_id":"0.0-4.0-0.20","subject_id":"6047f8c69fa4a010d97013ac","study_id":"6197b3f67c2b5cd3b6d9596a","session_id":"6197b88ae0ad06605c0dc7aa","condition":"full-information","relevant_dimensions":["antennae","pattern"],"bee_group":{"antennae":"B","wings":"X","pattern":"D","legs":"X"},"action":"harvest","summary":"good-harvest","bonus":0.5400000000000005},{"rt":1323.7000000476837,"stimulus":"\n                    <p><b>Action: <em>harvest</em></b></p>\n                    <p>This is the bee that you just saw.</p>\n                    <img src=\"bees-with-color/bee-A2DM.svg\" width=\"200\">\n                    <p><span class=\"greenText\"><b>Successful harvest!</b></span><br>Your pay has increased by $0.02. Your bonus pay is now $0.62.</p>\n            ","response":0,"trial_type":"html-button-response","trial_index":48,"time_elapsed":365566,"internal_node_id":"0.0-4.0-1.20","subject_id":"6047f8c69fa4a010d97013ac","study_id":"6197b3f67c2b5cd3b6d9596a","session_id":"6197b88ae0ad06605c0dc7aa","condition":"full-information","relevant_dimensions":["antennae","pattern"],"bee_group":{"antennae":"B","wings":"X","pattern":"D","legs":"X"},"bonus":0.5400000000000005},{"rt":3423.7999999523163,"stimulus":"bees-with-color/bee-B2SM.svg","response":1,"trial_type":"image-button-response","trial_index":49,"time_elapsed":368992,"internal_node_id":"0.0-4.0-0.21","subject_id":"6047f8c69fa4a010d97013ac","study_id":"6197b3f67c2b5cd3b6d9596a","session_id":"6197b88ae0ad06605c0dc7aa","condition":"full-information","relevant_dimensions":["antennae","pattern"],"bee_group":{"antennae":"B","wings":"X","pattern":"D","legs":"X"},"action":"avoid","summary":"bad-avoid","bonus":0.5400000000000005},{"rt":1567.8999999761581,"stimulus":"\n                    <p><b>Action: <em>avoid</em></b></p>\n                    <p>This is the bee that you just saw.</p>\n                    <img src=\"bees-with-color/bee-B2SM.svg\" width=\"200\">\n                    <p><span class=\"redText\">Bad choice,</span> the bee was friendly.<br>Your bonus pay is unchanged, and remains at $0.62.</p>\n            ","response":0,"trial_type":"html-button-response","trial_index":50,"time_elapsed":370562,"internal_node_id":"0.0-4.0-1.21","subject_id":"6047f8c69fa4a010d97013ac","study_id":"6197b3f67c2b5cd3b6d9596a","session_id":"6197b88ae0ad06605c0dc7aa","condition":"full-information","relevant_dimensions":["antennae","pattern"],"bee_group":{"antennae":"B","wings":"X","pattern":"D","legs":"X"},"bonus":0.5400000000000005},{"rt":4208.599999904633,"stimulus":"bees-with-color/bee-B2DF.svg","response":1,"trial_type":"image-button-response","trial_index":51,"time_elapsed":374772,"internal_node_id":"0.0-4.0-0.22","subject_id":"6047f8c69fa4a010d97013ac","study_id":"6197b3f67c2b5cd3b6d9596a","session_id":"6197b88ae0ad06605c0dc7aa","condition":"full-information","relevant_dimensions":["antennae","pattern"],"bee_group":{"antennae":"B","wings":"X","pattern":"D","legs":"X"},"action":"avoid","summary":"good-avoid","bonus":0.5400000000000005},{"rt":1221.7999999523163,"stimulus":"\n                    <p><b>Action: <em>avoid</em></b></p>\n                    <p>This is the bee that you just saw.</p>\n                    <img src=\"bees-with-color/bee-B2DF.svg\" width=\"200\">\n                    <p><span class=\"greenText\">Good choice!</span>  This bee would have stung you.<br>Your bonus pay is unchanged, and remains at $0.62.</p>\n            ","response":0,"trial_type":"html-button-response","trial_index":52,"time_elapsed":375995,"internal_node_id":"0.0-4.0-1.22","subject_id":"6047f8c69fa4a010d97013ac","study_id":"6197b3f67c2b5cd3b6d9596a","session_id":"6197b88ae0ad06605c0dc7aa","condition":"full-information","relevant_dimensions":["antennae","pattern"],"bee_group":{"antennae":"B","wings":"X","pattern":"D","legs":"X"},"bonus":0.5400000000000005},{"rt":2658.7999999523163,"stimulus":"bees-with-color/bee-B1DM.svg","response":1,"trial_type":"image-button-response","trial_index":53,"time_elapsed":378656,"internal_node_id":"0.0-4.0-0.23","subject_id":"6047f8c69fa4a010d97013ac","study_id":"6197b3f67c2b5cd3b6d9596a","session_id":"6197b88ae0ad06605c0dc7aa","condition":"full-information","relevant_dimensions":["antennae","pattern"],"bee_group":{"antennae":"B","wings":"X","pattern":"D","legs":"X"},"action":"avoid","summary":"good-avoid","bonus":0.5400000000000005},{"rt":1052.9000000953674,"stimulus":"\n                    <p><b>Action: <em>avoid</em></b></p>\n                    <p>This is the bee that you just saw.</p>\n                    <img src=\"bees-with-color/bee-B1DM.svg\" width=\"200\">\n                    <p><span class=\"greenText\">Good choice!</span>  This bee would have stung you.<br>Your bonus pay is unchanged, and remains at $0.62.</p>\n            ","response":0,"trial_type":"html-button-response","trial_index":54,"time_elapsed":379710,"internal_node_id":"0.0-4.0-1.23","subject_id":"6047f8c69fa4a010d97013ac","study_id":"6197b3f67c2b5cd3b6d9596a","session_id":"6197b88ae0ad06605c0dc7aa","condition":"full-information","relevant_dimensions":["antennae","pattern"],"bee_group":{"antennae":"B","wings":"X","pattern":"D","legs":"X"},"bonus":0.5400000000000005},{"rt":5672.100000023842,"stimulus":"bees-with-color/bee-B1SF.svg","response":0,"trial_type":"image-button-response","trial_index":55,"time_elapsed":385384,"internal_node_id":"0.0-4.0-0.24","subject_id":"6047f8c69fa4a010d97013ac","study_id":"6197b3f67c2b5cd3b6d9596a","session_id":"6197b88ae0ad06605c0dc7aa","condition":"full-information","relevant_dimensions":["antennae","pattern"],"bee_group":{"antennae":"B","wings":"X","pattern":"D","legs":"X"},"action":"harvest","summary":"good-harvest","bonus":0.5400000000000005},{"rt":1343.2000000476837,"stimulus":"\n                    <p><b>Action: <em>harvest</em></b></p>\n                    <p>This is the bee that you just saw.</p>\n                    <img src=\"bees-with-color/bee-B1SF.svg\" width=\"200\">\n                    <p><span class=\"greenText\"><b>Successful harvest!</b></span><br>Your pay has increased by $0.02. Your bonus pay is now $0.64.</p>\n            ","response":0,"trial_type":"html-button-response","trial_index":56,"time_elapsed":386730,"internal_node_id":"0.0-4.0-1.24","subject_id":"6047f8c69fa4a010d97013ac","study_id":"6197b3f67c2b5cd3b6d9596a","session_id":"6197b88ae0ad06605c0dc7aa","condition":"full-information","relevant_dimensions":["antennae","pattern"],"bee_group":{"antennae":"B","wings":"X","pattern":"D","legs":"X"},"bonus":0.5400000000000005},{"rt":2658.100000023842,"stimulus":"bees-with-color/bee-A2SM.svg","response":1,"trial_type":"image-button-response","trial_index":57,"time_elapsed":389390,"internal_node_id":"0.0-4.0-0.25","subject_id":"6047f8c69fa4a010d97013ac","study_id":"6197b3f67c2b5cd3b6d9596a","session_id":"6197b88ae0ad06605c0dc7aa","condition":"full-information","relevant_dimensions":["antennae","pattern"],"bee_group":{"antennae":"B","wings":"X","pattern":"D","legs":"X"},"action":"avoid","summary":"bad-avoid","bonus":0.5400000000000005},{"rt":1252.8999999761581,"stimulus":"\n                    <p><b>Action: <em>avoid</em></b></p>\n                    <p>This is the bee that you just saw.</p>\n                    <img src=\"bees-with-color/bee-A2SM.svg\" width=\"200\">\n                    <p><span class=\"redText\">Bad choice,</span> the bee was friendly.<br>Your bonus pay is unchanged, and remains at $0.64.</p>\n            ","response":0,"trial_type":"html-button-response","trial_index":58,"time_elapsed":390644,"internal_node_id":"0.0-4.0-1.25","subject_id":"6047f8c69fa4a010d97013ac","study_id":"6197b3f67c2b5cd3b6d9596a","session_id":"6197b88ae0ad06605c0dc7aa","condition":"full-information","relevant_dimensions":["antennae","pattern"],"bee_group":{"antennae":"B","wings":"X","pattern":"D","legs":"X"},"bonus":0.5400000000000005},{"rt":3800.5,"stimulus":"bees-with-color/bee-B2DM.svg","response":0,"trial_type":"image-button-response","trial_index":59,"time_elapsed":394446,"internal_node_id":"0.0-4.0-0.26","subject_id":"6047f8c69fa4a010d97013ac","study_id":"6197b3f67c2b5cd3b6d9596a","session_id":"6197b88ae0ad06605c0dc7aa","condition":"full-information","relevant_dimensions":["antennae","pattern"],"bee_group":{"antennae":"B","wings":"X","pattern":"D","legs":"X"},"action":"harvest","summary":"bad-harvest","bonus":0.5400000000000005},{"rt":2394.2999999523163,"stimulus":"\n                    <p><b>Action: <em>harvest</em></b></p>\n                    <p>This is the bee that you just saw.</p>\n                    <img src=\"bees-with-color/bee-B2DM.svg\" width=\"200\">\n                    <p><span class=\"redText\">Bad choice, the bee was angry.</span><br><b>You have been stung!</b><br>Your pay has been decreased by $0.10. Your bonus pay is now $0.54.</p>\n            ","response":0,"trial_type":"html-button-response","trial_index":60,"time_elapsed":396842,"internal_node_id":"0.0-4.0-1.26","subject_id":"6047f8c69fa4a010d97013ac","study_id":"6197b3f67c2b5cd3b6d9596a","session_id":"6197b88ae0ad06605c0dc7aa","condition":"full-information","relevant_dimensions":["antennae","pattern"],"bee_group":{"antennae":"B","wings":"X","pattern":"D","legs":"X"},"bonus":0.5400000000000005},{"rt":2974.899999976158,"stimulus":"bees-with-color/bee-A1DM.svg","response":1,"trial_type":"image-button-response","trial_index":61,"time_elapsed":399819,"internal_node_id":"0.0-4.0-0.27","subject_id":"6047f8c69fa4a010d97013ac","study_id":"6197b3f67c2b5cd3b6d9596a","session_id":"6197b88ae0ad06605c0dc7aa","condition":"full-information","relevant_dimensions":["antennae","pattern"],"bee_group":{"antennae":"B","wings":"X","pattern":"D","legs":"X"},"action":"avoid","summary":"bad-avoid","bonus":0.5400000000000005},{"rt":2280.899999976158,"stimulus":"\n                    <p><b>Action: <em>avoid</em></b></p>\n                    <p>This is the bee that you just saw.</p>\n                    <img src=\"bees-with-color/bee-A1DM.svg\" width=\"200\">\n                    <p><span class=\"redText\">Bad choice,</span> the bee was friendly.<br>Your bonus pay is unchanged, and remains at $0.54.</p>\n            ","response":0,"trial_type":"html-button-response","trial_index":62,"time_elapsed":402102,"internal_node_id":"0.0-4.0-1.27","subject_id":"6047f8c69fa4a010d97013ac","study_id":"6197b3f67c2b5cd3b6d9596a","session_id":"6197b88ae0ad06605c0dc7aa","condition":"full-information","relevant_dimensions":["antennae","pattern"],"bee_group":{"antennae":"B","wings":"X","pattern":"D","legs":"X"},"bonus":0.5400000000000005},{"rt":2413.2000000476837,"stimulus":"bees-with-color/bee-B1SM.svg","response":1,"trial_type":"image-button-response","trial_index":63,"time_elapsed":404517,"internal_node_id":"0.0-4.0-0.28","subject_id":"6047f8c69fa4a010d97013ac","study_id":"6197b3f67c2b5cd3b6d9596a","session_id":"6197b88ae0ad06605c0dc7aa","condition":"full-information","relevant_dimensions":["antennae","pattern"],"bee_group":{"antennae":"B","wings":"X","pattern":"D","legs":"X"},"action":"avoid","summary":"bad-avoid","bonus":0.5400000000000005},{"rt":977,"stimulus":"\n                    <p><b>Action: <em>avoid</em></b></p>\n                    <p>This is the bee that you just saw.</p>\n                    <img src=\"bees-with-color/bee-B1SM.svg\" width=\"200\">\n                    <p><span class=\"redText\">Bad choice,</span> the bee was friendly.<br>Your bonus pay is unchanged, and remains at $0.54.</p>\n            ","response":0,"trial_type":"html-button-response","trial_index":64,"time_elapsed":405496,"internal_node_id":"0.0-4.0-1.28","subject_id":"6047f8c69fa4a010d97013ac","study_id":"6197b3f67c2b5cd3b6d9596a","session_id":"6197b88ae0ad06605c0dc7aa","condition":"full-information","relevant_dimensions":["antennae","pattern"],"bee_group":{"antennae":"B","wings":"X","pattern":"D","legs":"X"},"bonus":0.5400000000000005},{"rt":3474.2999999523163,"stimulus":"bees-with-color/bee-A1DF.svg","response":1,"trial_type":"image-button-response","trial_index":65,"time_elapsed":408972,"internal_node_id":"0.0-4.0-0.29","subject_id":"6047f8c69fa4a010d97013ac","study_id":"6197b3f67c2b5cd3b6d9596a","session_id":"6197b88ae0ad06605c0dc7aa","condition":"full-information","relevant_dimensions":["antennae","pattern"],"bee_group":{"antennae":"B","wings":"X","pattern":"D","legs":"X"},"action":"avoid","summary":"bad-avoid","bonus":0.5400000000000005},{"rt":977,"stimulus":"\n                    <p><b>Action: <em>avoid</em></b></p>\n                    <p>This is the bee that you just saw.</p>\n                    <img src=\"bees-with-color/bee-A1DF.svg\" width=\"200\">\n                    <p><span class=\"redText\">Bad choice,</span> the bee was friendly.<br>Your bonus pay is unchanged, and remains at $0.54.</p>\n            ","response":0,"trial_type":"html-button-response","trial_index":66,"time_elapsed":409951,"internal_node_id":"0.0-4.0-1.29","subject_id":"6047f8c69fa4a010d97013ac","study_id":"6197b3f67c2b5cd3b6d9596a","session_id":"6197b88ae0ad06605c0dc7aa","condition":"full-information","relevant_dimensions":["antennae","pattern"],"bee_group":{"antennae":"B","wings":"X","pattern":"D","legs":"X"},"bonus":0.5400000000000005},{"rt":4350.700000047684,"stimulus":"bees-with-color/bee-B2SF.svg","response":0,"trial_type":"image-button-response","trial_index":67,"time_elapsed":414303,"internal_node_id":"0.0-4.0-0.30","subject_id":"6047f8c69fa4a010d97013ac","study_id":"6197b3f67c2b5cd3b6d9596a","session_id":"6197b88ae0ad06605c0dc7aa","condition":"full-information","relevant_dimensions":["antennae","pattern"],"bee_group":{"antennae":"B","wings":"X","pattern":"D","legs":"X"},"action":"harvest","summary":"good-harvest","bonus":0.5400000000000005},{"rt":1466.2999999523163,"stimulus":"\n                    <p><b>Action: <em>harvest</em></b></p>\n                    <p>This is the bee that you just saw.</p>\n                    <img src=\"bees-with-color/bee-B2SF.svg\" width=\"200\">\n                    <p><span class=\"greenText\"><b>Successful harvest!</b></span><br>Your pay has increased by $0.02. Your bonus pay is now $0.56.</p>\n            ","response":0,"trial_type":"html-button-response","trial_index":68,"time_elapsed":415771,"internal_node_id":"0.0-4.0-1.30","subject_id":"6047f8c69fa4a010d97013ac","study_id":"6197b3f67c2b5cd3b6d9596a","session_id":"6197b88ae0ad06605c0dc7aa","condition":"full-information","relevant_dimensions":["antennae","pattern"],"bee_group":{"antennae":"B","wings":"X","pattern":"D","legs":"X"},"bonus":0.5400000000000005},{"rt":4493.5,"stimulus":"bees-with-color/bee-B1DF.svg","response":1,"trial_type":"image-button-response","trial_index":69,"time_elapsed":420267,"internal_node_id":"0.0-4.0-0.31","subject_id":"6047f8c69fa4a010d97013ac","study_id":"6197b3f67c2b5cd3b6d9596a","session_id":"6197b88ae0ad06605c0dc7aa","condition":"full-information","relevant_dimensions":["antennae","pattern"],"bee_group":{"antennae":"B","wings":"X","pattern":"D","legs":"X"},"action":"avoid","summary":"good-avoid","bonus":0.5400000000000005},{"rt":2526.5,"stimulus":"\n                    <p><b>Action: <em>avoid</em></b></p>\n                    <p>This is the bee that you just saw.</p>\n                    <img src=\"bees-with-color/bee-B1DF.svg\" width=\"200\">\n                    <p><span class=\"greenText\">Good choice!</span>  This bee would have stung you.<br>Your bonus pay is unchanged, and remains at $0.56.</p>\n            ","response":0,"trial_type":"html-button-response","trial_index":70,"time_elapsed":422795,"internal_node_id":"0.0-4.0-1.31","subject_id":"6047f8c69fa4a010d97013ac","study_id":"6197b3f67c2b5cd3b6d9596a","session_id":"6197b88ae0ad06605c0dc7aa","condition":"full-information","relevant_dimensions":["antennae","pattern"],"bee_group":{"antennae":"B","wings":"X","pattern":"D","legs":"X"},"bonus":0.5400000000000005},{"rt":2923.899999976158,"stimulus":"bees-with-color/bee-A2DF.svg","response":1,"trial_type":"image-button-response","trial_index":71,"time_elapsed":425721,"internal_node_id":"0.0-4.0-0.32","subject_id":"6047f8c69fa4a010d97013ac","study_id":"6197b3f67c2b5cd3b6d9596a","session_id":"6197b88ae0ad06605c0dc7aa","condition":"full-information","relevant_dimensions":["antennae","pattern"],"bee_group":{"antennae":"B","wings":"X","pattern":"D","legs":"X"},"action":"avoid","summary":"bad-avoid","bonus":0.5400000000000005},{"rt":1170.6999999284744,"stimulus":"\n                    <p><b>Action: <em>avoid</em></b></p>\n                    <p>This is the bee that you just saw.</p>\n                    <img src=\"bees-with-color/bee-A2DF.svg\" width=\"200\">\n                    <p><span class=\"redText\">Bad choice,</span> the bee was friendly.<br>Your bonus pay is unchanged, and remains at $0.56.</p>\n            ","response":0,"trial_type":"html-button-response","trial_index":72,"time_elapsed":426893,"internal_node_id":"0.0-4.0-1.32","subject_id":"6047f8c69fa4a010d97013ac","study_id":"6197b3f67c2b5cd3b6d9596a","session_id":"6197b88ae0ad06605c0dc7aa","condition":"full-information","relevant_dimensions":["antennae","pattern"],"bee_group":{"antennae":"B","wings":"X","pattern":"D","legs":"X"},"bonus":0.5400000000000005},{"rt":2087.899999976158,"stimulus":"bees-with-color/bee-A2DM.svg","response":0,"trial_type":"image-button-response","trial_index":73,"time_elapsed":428982,"internal_node_id":"0.0-4.0-0.33","subject_id":"6047f8c69fa4a010d97013ac","study_id":"6197b3f67c2b5cd3b6d9596a","session_id":"6197b88ae0ad06605c0dc7aa","condition":"full-information","relevant_dimensions":["antennae","pattern"],"bee_group":{"antennae":"B","wings":"X","pattern":"D","legs":"X"},"action":"harvest","summary":"good-harvest","bonus":0.5400000000000005},{"rt":1242,"stimulus":"\n                    <p><b>Action: <em>harvest</em></b></p>\n                    <p>This is the bee that you just saw.</p>\n                    <img src=\"bees-with-color/bee-A2DM.svg\" width=\"200\">\n                    <p><span class=\"greenText\"><b>Successful harvest!</b></span><br>Your pay has increased by $0.02. Your bonus pay is now $0.58.</p>\n            ","response":0,"trial_type":"html-button-response","trial_index":74,"time_elapsed":430226,"internal_node_id":"0.0-4.0-1.33","subject_id":"6047f8c69fa4a010d97013ac","study_id":"6197b3f67c2b5cd3b6d9596a","session_id":"6197b88ae0ad06605c0dc7aa","condition":"full-information","relevant_dimensions":["antennae","pattern"],"bee_group":{"antennae":"B","wings":"X","pattern":"D","legs":"X"},"bonus":0.5400000000000005},{"rt":1404.5,"stimulus":"bees-with-color/bee-B1DF.svg","response":1,"trial_type":"image-button-response","trial_index":75,"time_elapsed":431632,"internal_node_id":"0.0-4.0-0.34","subject_id":"6047f8c69fa4a010d97013ac","study_id":"6197b3f67c2b5cd3b6d9596a","session_id":"6197b88ae0ad06605c0dc7aa","condition":"full-information","relevant_dimensions":["antennae","pattern"],"bee_group":{"antennae":"B","wings":"X","pattern":"D","legs":"X"},"action":"avoid","summary":"good-avoid","bonus":0.5400000000000005},{"rt":2444.6999999284744,"stimulus":"\n                    <p><b>Action: <em>avoid</em></b></p>\n                    <p>This is the bee that you just saw.</p>\n                    <img src=\"bees-with-color/bee-B1DF.svg\" width=\"200\">\n                    <p><span class=\"greenText\">Good choice!</span>  This bee would have stung you.<br>Your bonus pay is unchanged, and remains at $0.58.</p>\n            ","response":0,"trial_type":"html-button-response","trial_index":76,"time_elapsed":434079,"internal_node_id":"0.0-4.0-1.34","subject_id":"6047f8c69fa4a010d97013ac","study_id":"6197b3f67c2b5cd3b6d9596a","session_id":"6197b88ae0ad06605c0dc7aa","condition":"full-information","relevant_dimensions":["antennae","pattern"],"bee_group":{"antennae":"B","wings":"X","pattern":"D","legs":"X"},"bonus":0.5400000000000005},{"rt":1782.1000000238419,"stimulus":"bees-with-color/bee-A1DM.svg","response":1,"trial_type":"image-button-response","trial_index":77,"time_elapsed":435863,"internal_node_id":"0.0-4.0-0.35","subject_id":"6047f8c69fa4a010d97013ac","study_id":"6197b3f67c2b5cd3b6d9596a","session_id":"6197b88ae0ad06605c0dc7aa","condition":"full-information","relevant_dimensions":["antennae","pattern"],"bee_group":{"antennae":"B","wings":"X","pattern":"D","legs":"X"},"action":"avoid","summary":"bad-avoid","bonus":0.5400000000000005},{"rt":2719.899999976158,"stimulus":"\n                    <p><b>Action: <em>avoid</em></b></p>\n                    <p>This is the bee that you just saw.</p>\n                    <img src=\"bees-with-color/bee-A1DM.svg\" width=\"200\">\n                    <p><span class=\"redText\">Bad choice,</span> the bee was friendly.<br>Your bonus pay is unchanged, and remains at $0.58.</p>\n            ","response":0,"trial_type":"html-button-response","trial_index":78,"time_elapsed":438584,"internal_node_id":"0.0-4.0-1.35","subject_id":"6047f8c69fa4a010d97013ac","study_id":"6197b3f67c2b5cd3b6d9596a","session_id":"6197b88ae0ad06605c0dc7aa","condition":"full-information","relevant_dimensions":["antennae","pattern"],"bee_group":{"antennae":"B","wings":"X","pattern":"D","legs":"X"},"bonus":0.5400000000000005},{"rt":16449,"stimulus":"bees-with-color/bee-B2SM.svg","response":1,"trial_type":"image-button-response","trial_index":79,"time_elapsed":455035,"internal_node_id":"0.0-4.0-0.36","subject_id":"6047f8c69fa4a010d97013ac","study_id":"6197b3f67c2b5cd3b6d9596a","session_id":"6197b88ae0ad06605c0dc7aa","condition":"full-information","relevant_dimensions":["antennae","pattern"],"bee_group":{"antennae":"B","wings":"X","pattern":"D","legs":"X"},"action":"avoid","summary":"bad-avoid","bonus":0.5400000000000005},{"rt":1058.7000000476837,"stimulus":"\n                    <p><b>Action: <em>avoid</em></b></p>\n                    <p>This is the bee that you just saw.</p>\n                    <img src=\"bees-with-color/bee-B2SM.svg\" width=\"200\">\n                    <p><span class=\"redText\">Bad choice,</span> the bee was friendly.<br>Your bonus pay is unchanged, and remains at $0.58.</p>\n            ","response":0,"trial_type":"html-button-response","trial_index":80,"time_elapsed":456095,"internal_node_id":"0.0-4.0-1.36","subject_id":"6047f8c69fa4a010d97013ac","study_id":"6197b3f67c2b5cd3b6d9596a","session_id":"6197b88ae0ad06605c0dc7aa","condition":"full-information","relevant_dimensions":["antennae","pattern"],"bee_group":{"antennae":"B","wings":"X","pattern":"D","legs":"X"},"bonus":0.5400000000000005},{"rt":1912.3999999761581,"stimulus":"bees-with-color/bee-B1DM.svg","response":1,"trial_type":"image-button-response","trial_index":81,"time_elapsed":458012,"internal_node_id":"0.0-4.0-0.37","subject_id":"6047f8c69fa4a010d97013ac","study_id":"6197b3f67c2b5cd3b6d9596a","session_id":"6197b88ae0ad06605c0dc7aa","condition":"full-information","relevant_dimensions":["antennae","pattern"],"bee_group":{"antennae":"B","wings":"X","pattern":"D","legs":"X"},"action":"avoid","summary":"good-avoid","bonus":0.5400000000000005},{"rt":1027,"stimulus":"\n                    <p><b>Action: <em>avoid</em></b></p>\n                    <p>This is the bee that you just saw.</p>\n                    <img src=\"bees-with-color/bee-B1DM.svg\" width=\"200\">\n                    <p><span class=\"greenText\">Good choice!</span>  This bee would have stung you.<br>Your bonus pay is unchanged, and remains at $0.58.</p>\n            ","response":0,"trial_type":"html-button-response","trial_index":82,"time_elapsed":459040,"internal_node_id":"0.0-4.0-1.37","subject_id":"6047f8c69fa4a010d97013ac","study_id":"6197b3f67c2b5cd3b6d9596a","session_id":"6197b88ae0ad06605c0dc7aa","condition":"full-information","relevant_dimensions":["antennae","pattern"],"bee_group":{"antennae":"B","wings":"X","pattern":"D","legs":"X"},"bonus":0.5400000000000005},{"rt":2312.899999976158,"stimulus":"bees-with-color/bee-A2SM.svg","response":1,"trial_type":"image-button-response","trial_index":83,"time_elapsed":461355,"internal_node_id":"0.0-4.0-0.38","subject_id":"6047f8c69fa4a010d97013ac","study_id":"6197b3f67c2b5cd3b6d9596a","session_id":"6197b88ae0ad06605c0dc7aa","condition":"full-information","relevant_dimensions":["antennae","pattern"],"bee_group":{"antennae":"B","wings":"X","pattern":"D","legs":"X"},"action":"avoid","summary":"bad-avoid","bonus":0.5400000000000005},{"rt":1048.2000000476837,"stimulus":"\n                    <p><b>Action: <em>avoid</em></b></p>\n                    <p>This is the bee that you just saw.</p>\n                    <img src=\"bees-with-color/bee-A2SM.svg\" width=\"200\">\n                    <p><span class=\"redText\">Bad choice,</span> the bee was friendly.<br>Your bonus pay is unchanged, and remains at $0.58.</p>\n            ","response":0,"trial_type":"html-button-response","trial_index":84,"time_elapsed":462405,"internal_node_id":"0.0-4.0-1.38","subject_id":"6047f8c69fa4a010d97013ac","study_id":"6197b3f67c2b5cd3b6d9596a","session_id":"6197b88ae0ad06605c0dc7aa","condition":"full-information","relevant_dimensions":["antennae","pattern"],"bee_group":{"antennae":"B","wings":"X","pattern":"D","legs":"X"},"bonus":0.5400000000000005},{"rt":1322.6999999284744,"stimulus":"bees-with-color/bee-A1DF.svg","response":1,"trial_type":"image-button-response","trial_index":85,"time_elapsed":463729,"internal_node_id":"0.0-4.0-0.39","subject_id":"6047f8c69fa4a010d97013ac","study_id":"6197b3f67c2b5cd3b6d9596a","session_id":"6197b88ae0ad06605c0dc7aa","condition":"full-information","relevant_dimensions":["antennae","pattern"],"bee_group":{"antennae":"B","wings":"X","pattern":"D","legs":"X"},"action":"avoid","summary":"bad-avoid","bonus":0.5400000000000005},{"rt":2280.3000000715256,"stimulus":"\n                    <p><b>Action: <em>avoid</em></b></p>\n                    <p>This is the bee that you just saw.</p>\n                    <img src=\"bees-with-color/bee-A1DF.svg\" width=\"200\">\n                    <p><span class=\"redText\">Bad choice,</span> the bee was friendly.<br>Your bonus pay is unchanged, and remains at $0.58.</p>\n            ","response":0,"trial_type":"html-button-response","trial_index":86,"time_elapsed":466013,"internal_node_id":"0.0-4.0-1.39","subject_id":"6047f8c69fa4a010d97013ac","study_id":"6197b3f67c2b5cd3b6d9596a","session_id":"6197b88ae0ad06605c0dc7aa","condition":"full-information","relevant_dimensions":["antennae","pattern"],"bee_group":{"antennae":"B","wings":"X","pattern":"D","legs":"X"},"bonus":0.5400000000000005},{"rt":1558.1000000238419,"stimulus":"bees-with-color/bee-B1SM.svg","response":1,"trial_type":"image-button-response","trial_index":87,"time_elapsed":467573,"internal_node_id":"0.0-4.0-0.40","subject_id":"6047f8c69fa4a010d97013ac","study_id":"6197b3f67c2b5cd3b6d9596a","session_id":"6197b88ae0ad06605c0dc7aa","condition":"full-information","relevant_dimensions":["antennae","pattern"],"bee_group":{"antennae":"B","wings":"X","pattern":"D","legs":"X"},"action":"avoid","summary":"bad-avoid","bonus":0.5400000000000005},{"rt":1109.2999999523163,"stimulus":"\n                    <p><b>Action: <em>avoid</em></b></p>\n                    <p>This is the bee that you just saw.</p>\n                    <img src=\"bees-with-color/bee-B1SM.svg\" width=\"200\">\n                    <p><span class=\"redText\">Bad choice,</span> the bee was friendly.<br>Your bonus pay is unchanged, and remains at $0.58.</p>\n            ","response":0,"trial_type":"html-button-response","trial_index":88,"time_elapsed":468684,"internal_node_id":"0.0-4.0-1.40","subject_id":"6047f8c69fa4a010d97013ac","study_id":"6197b3f67c2b5cd3b6d9596a","session_id":"6197b88ae0ad06605c0dc7aa","condition":"full-information","relevant_dimensions":["antennae","pattern"],"bee_group":{"antennae":"B","wings":"X","pattern":"D","legs":"X"},"bonus":0.5400000000000005},{"rt":1587.8999999761581,"stimulus":"bees-with-color/bee-B2SF.svg","response":1,"trial_type":"image-button-response","trial_index":89,"time_elapsed":470273,"internal_node_id":"0.0-4.0-0.41","subject_id":"6047f8c69fa4a010d97013ac","study_id":"6197b3f67c2b5cd3b6d9596a","session_id":"6197b88ae0ad06605c0dc7aa","condition":"full-information","relevant_dimensions":["antennae","pattern"],"bee_group":{"antennae":"B","wings":"X","pattern":"D","legs":"X"},"action":"avoid","summary":"bad-avoid","bonus":0.5400000000000005},{"rt":1334,"stimulus":"\n                    <p><b>Action: <em>avoid</em></b></p>\n                    <p>This is the bee that you just saw.</p>\n                    <img src=\"bees-with-color/bee-B2SF.svg\" width=\"200\">\n                    <p><span class=\"redText\">Bad choice,</span> the bee was friendly.<br>Your bonus pay is unchanged, and remains at $0.58.</p>\n            ","response":0,"trial_type":"html-button-response","trial_index":90,"time_elapsed":471609,"internal_node_id":"0.0-4.0-1.41","subject_id":"6047f8c69fa4a010d97013ac","study_id":"6197b3f67c2b5cd3b6d9596a","session_id":"6197b88ae0ad06605c0dc7aa","condition":"full-information","relevant_dimensions":["antennae","pattern"],"bee_group":{"antennae":"B","wings":"X","pattern":"D","legs":"X"},"bonus":0.5400000000000005},{"rt":2078,"stimulus":"bees-with-color/bee-B1SF.svg","response":0,"trial_type":"image-button-response","trial_index":91,"time_elapsed":473688,"internal_node_id":"0.0-4.0-0.42","subject_id":"6047f8c69fa4a010d97013ac","study_id":"6197b3f67c2b5cd3b6d9596a","session_id":"6197b88ae0ad06605c0dc7aa","condition":"full-information","relevant_dimensions":["antennae","pattern"],"bee_group":{"antennae":"B","wings":"X","pattern":"D","legs":"X"},"action":"harvest","summary":"good-harvest","bonus":0.5400000000000005},{"rt":1069.2000000476837,"stimulus":"\n                    <p><b>Action: <em>harvest</em></b></p>\n                    <p>This is the bee that you just saw.</p>\n                    <img src=\"bees-with-color/bee-B1SF.svg\" width=\"200\">\n                    <p><span class=\"greenText\"><b>Successful harvest!</b></span><br>Your pay has increased by $0.02. Your bonus pay is now $0.60.</p>\n            ","response":0,"trial_type":"html-button-response","trial_index":92,"time_elapsed":474759,"internal_node_id":"0.0-4.0-1.42","subject_id":"6047f8c69fa4a010d97013ac","study_id":"6197b3f67c2b5cd3b6d9596a","session_id":"6197b88ae0ad06605c0dc7aa","condition":"full-information","relevant_dimensions":["antennae","pattern"],"bee_group":{"antennae":"B","wings":"X","pattern":"D","legs":"X"},"bonus":0.5400000000000005},{"rt":3320.600000023842,"stimulus":"bees-with-color/bee-A2SF.svg","response":0,"trial_type":"image-button-response","trial_index":93,"time_elapsed":478081,"internal_node_id":"0.0-4.0-0.43","subject_id":"6047f8c69fa4a010d97013ac","study_id":"6197b3f67c2b5cd3b6d9596a","session_id":"6197b88ae0ad06605c0dc7aa","condition":"full-information","relevant_dimensions":["antennae","pattern"],"bee_group":{"antennae":"B","wings":"X","pattern":"D","legs":"X"},"action":"harvest","summary":"good-harvest","bonus":0.5400000000000005},{"rt":1232.7999999523163,"stimulus":"\n                    <p><b>Action: <em>harvest</em></b></p>\n                    <p>This is the bee that you just saw.</p>\n                    <img src=\"bees-with-color/bee-A2SF.svg\" width=\"200\">\n                    <p><span class=\"greenText\"><b>Successful harvest!</b></span><br>Your pay has increased by $0.02. Your bonus pay is now $0.62.</p>\n            ","response":0,"trial_type":"html-button-response","trial_index":94,"time_elapsed":479315,"internal_node_id":"0.0-4.0-1.43","subject_id":"6047f8c69fa4a010d97013ac","study_id":"6197b3f67c2b5cd3b6d9596a","session_id":"6197b88ae0ad06605c0dc7aa","condition":"full-information","relevant_dimensions":["antennae","pattern"],"bee_group":{"antennae":"B","wings":"X","pattern":"D","legs":"X"},"bonus":0.5400000000000005},{"rt":1975.7000000476837,"stimulus":"bees-with-color/bee-A1SM.svg","response":1,"trial_type":"image-button-response","trial_index":95,"time_elapsed":481293,"internal_node_id":"0.0-4.0-0.44","subject_id":"6047f8c69fa4a010d97013ac","study_id":"6197b3f67c2b5cd3b6d9596a","session_id":"6197b88ae0ad06605c0dc7aa","condition":"full-information","relevant_dimensions":["antennae","pattern"],"bee_group":{"antennae":"B","wings":"X","pattern":"D","legs":"X"},"action":"avoid","summary":"bad-avoid","bonus":0.5400000000000005},{"rt":956.8999999761581,"stimulus":"\n                    <p><b>Action: <em>avoid</em></b></p>\n                    <p>This is the bee that you just saw.</p>\n                    <img src=\"bees-with-color/bee-A1SM.svg\" width=\"200\">\n                    <p><span class=\"redText\">Bad choice,</span> the bee was friendly.<br>Your bonus pay is unchanged, and remains at $0.62.</p>\n            ","response":0,"trial_type":"html-button-response","trial_index":96,"time_elapsed":482251,"internal_node_id":"0.0-4.0-1.44","subject_id":"6047f8c69fa4a010d97013ac","study_id":"6197b3f67c2b5cd3b6d9596a","session_id":"6197b88ae0ad06605c0dc7aa","condition":"full-information","relevant_dimensions":["antennae","pattern"],"bee_group":{"antennae":"B","wings":"X","pattern":"D","legs":"X"},"bonus":0.5400000000000005},{"rt":2963.7999999523163,"stimulus":"bees-with-color/bee-B2DM.svg","response":0,"trial_type":"image-button-response","trial_index":97,"time_elapsed":485216,"internal_node_id":"0.0-4.0-0.45","subject_id":"6047f8c69fa4a010d97013ac","study_id":"6197b3f67c2b5cd3b6d9596a","session_id":"6197b88ae0ad06605c0dc7aa","condition":"full-information","relevant_dimensions":["antennae","pattern"],"bee_group":{"antennae":"B","wings":"X","pattern":"D","legs":"X"},"action":"harvest","summary":"bad-harvest","bonus":0.5400000000000005},{"rt":1914.3999999761581,"stimulus":"\n                    <p><b>Action: <em>harvest</em></b></p>\n                    <p>This is the bee that you just saw.</p>\n                    <img src=\"bees-with-color/bee-B2DM.svg\" width=\"200\">\n                    <p><span class=\"redText\">Bad choice, the bee was angry.</span><br><b>You have been stung!</b><br>Your pay has been decreased by $0.10. Your bonus pay is now $0.52.</p>\n            ","response":0,"trial_type":"html-button-response","trial_index":98,"time_elapsed":487132,"internal_node_id":"0.0-4.0-1.45","subject_id":"6047f8c69fa4a010d97013ac","study_id":"6197b3f67c2b5cd3b6d9596a","session_id":"6197b88ae0ad06605c0dc7aa","condition":"full-information","relevant_dimensions":["antennae","pattern"],"bee_group":{"antennae":"B","wings":"X","pattern":"D","legs":"X"},"bonus":0.5400000000000005},{"rt":2536,"stimulus":"bees-with-color/bee-A1SF.svg","response":1,"trial_type":"image-button-response","trial_index":99,"time_elapsed":489670,"internal_node_id":"0.0-4.0-0.46","subject_id":"6047f8c69fa4a010d97013ac","study_id":"6197b3f67c2b5cd3b6d9596a","session_id":"6197b88ae0ad06605c0dc7aa","condition":"full-information","relevant_dimensions":["antennae","pattern"],"bee_group":{"antennae":"B","wings":"X","pattern":"D","legs":"X"},"action":"avoid","summary":"bad-avoid","bonus":0.5400000000000005},{"rt":1038,"stimulus":"\n                    <p><b>Action: <em>avoid</em></b></p>\n                    <p>This is the bee that you just saw.</p>\n                    <img src=\"bees-with-color/bee-A1SF.svg\" width=\"200\">\n                    <p><span class=\"redText\">Bad choice,</span> the bee was friendly.<br>Your bonus pay is unchanged, and remains at $0.52.</p>\n            ","response":0,"trial_type":"html-button-response","trial_index":100,"time_elapsed":490710,"internal_node_id":"0.0-4.0-1.46","subject_id":"6047f8c69fa4a010d97013ac","study_id":"6197b3f67c2b5cd3b6d9596a","session_id":"6197b88ae0ad06605c0dc7aa","condition":"full-information","relevant_dimensions":["antennae","pattern"],"bee_group":{"antennae":"B","wings":"X","pattern":"D","legs":"X"},"bonus":0.5400000000000005},{"rt":2791.7000000476837,"stimulus":"bees-with-color/bee-B2DF.svg","response":1,"trial_type":"image-button-response","trial_index":101,"time_elapsed":493503,"internal_node_id":"0.0-4.0-0.47","subject_id":"6047f8c69fa4a010d97013ac","study_id":"6197b3f67c2b5cd3b6d9596a","session_id":"6197b88ae0ad06605c0dc7aa","condition":"full-information","relevant_dimensions":["antennae","pattern"],"bee_group":{"antennae":"B","wings":"X","pattern":"D","legs":"X"},"action":"avoid","summary":"good-avoid","bonus":0.5400000000000005},{"rt":1006.7000000476837,"stimulus":"\n                    <p><b>Action: <em>avoid</em></b></p>\n                    <p>This is the bee that you just saw.</p>\n                    <img src=\"bees-with-color/bee-B2DF.svg\" width=\"200\">\n                    <p><span class=\"greenText\">Good choice!</span>  This bee would have stung you.<br>Your bonus pay is unchanged, and remains at $0.52.</p>\n            ","response":0,"trial_type":"html-button-response","trial_index":102,"time_elapsed":494511,"internal_node_id":"0.0-4.0-1.47","subject_id":"6047f8c69fa4a010d97013ac","study_id":"6197b3f67c2b5cd3b6d9596a","session_id":"6197b88ae0ad06605c0dc7aa","condition":"full-information","relevant_dimensions":["antennae","pattern"],"bee_group":{"antennae":"B","wings":"X","pattern":"D","legs":"X"},"bonus":0.5400000000000005},{"rt":2750.600000023842,"stimulus":"bees-with-color/bee-B1SF.svg","response":0,"trial_type":"image-button-response","trial_index":103,"time_elapsed":497264,"internal_node_id":"0.0-4.0-0.48","subject_id":"6047f8c69fa4a010d97013ac","study_id":"6197b3f67c2b5cd3b6d9596a","session_id":"6197b88ae0ad06605c0dc7aa","condition":"full-information","relevant_dimensions":["antennae","pattern"],"bee_group":{"antennae":"B","wings":"X","pattern":"D","legs":"X"},"action":"harvest","summary":"good-harvest","bonus":0.5400000000000005},{"rt":1129.5999999046326,"stimulus":"\n                    <p><b>Action: <em>harvest</em></b></p>\n                    <p>This is the bee that you just saw.</p>\n                    <img src=\"bees-with-color/bee-B1SF.svg\" width=\"200\">\n                    <p><span class=\"greenText\"><b>Successful harvest!</b></span><br>Your pay has increased by $0.02. Your bonus pay is now $0.54.</p>\n            ","response":0,"trial_type":"html-button-response","trial_index":104,"time_elapsed":498395,"internal_node_id":"0.0-4.0-1.48","subject_id":"6047f8c69fa4a010d97013ac","study_id":"6197b3f67c2b5cd3b6d9596a","session_id":"6197b88ae0ad06605c0dc7aa","condition":"full-information","relevant_dimensions":["antennae","pattern"],"bee_group":{"antennae":"B","wings":"X","pattern":"D","legs":"X"},"bonus":0.5400000000000005},{"rt":2220.3000000715256,"stimulus":"bees-with-color/bee-A1SF.svg","response":1,"trial_type":"image-button-response","trial_index":105,"time_elapsed":500617,"internal_node_id":"0.0-4.0-0.49","subject_id":"6047f8c69fa4a010d97013ac","study_id":"6197b3f67c2b5cd3b6d9596a","session_id":"6197b88ae0ad06605c0dc7aa","condition":"full-information","relevant_dimensions":["antennae","pattern"],"bee_group":{"antennae":"B","wings":"X","pattern":"D","legs":"X"},"action":"avoid","summary":"bad-avoid","bonus":0.5400000000000005},{"rt":997.1000000238419,"stimulus":"\n                    <p><b>Action: <em>avoid</em></b></p>\n                    <p>This is the bee that you just saw.</p>\n                    <img src=\"bees-with-color/bee-A1SF.svg\" width=\"200\">\n                    <p><span class=\"redText\">Bad choice,</span> the bee was friendly.<br>Your bonus pay is unchanged, and remains at $0.54.</p>\n            ","response":0,"trial_type":"html-button-response","trial_index":106,"time_elapsed":501616,"internal_node_id":"0.0-4.0-1.49","subject_id":"6047f8c69fa4a010d97013ac","study_id":"6197b3f67c2b5cd3b6d9596a","session_id":"6197b88ae0ad06605c0dc7aa","condition":"full-information","relevant_dimensions":["antennae","pattern"],"bee_group":{"antennae":"B","wings":"X","pattern":"D","legs":"X"},"bonus":0.5400000000000005},{"rt":4014.6999999284744,"stimulus":"bees-with-color/bee-A1SM.svg","response":1,"trial_type":"image-button-response","trial_index":107,"time_elapsed":505632,"internal_node_id":"0.0-4.0-0.50","subject_id":"6047f8c69fa4a010d97013ac","study_id":"6197b3f67c2b5cd3b6d9596a","session_id":"6197b88ae0ad06605c0dc7aa","condition":"full-information","relevant_dimensions":["antennae","pattern"],"bee_group":{"antennae":"B","wings":"X","pattern":"D","legs":"X"},"action":"avoid","summary":"bad-avoid","bonus":0.5400000000000005},{"rt":1272.3999999761581,"stimulus":"\n                    <p><b>Action: <em>avoid</em></b></p>\n                    <p>This is the bee that you just saw.</p>\n                    <img src=\"bees-with-color/bee-A1SM.svg\" width=\"200\">\n                    <p><span class=\"redText\">Bad choice,</span> the bee was friendly.<br>Your bonus pay is unchanged, and remains at $0.54.</p>\n            ","response":0,"trial_type":"html-button-response","trial_index":108,"time_elapsed":506906,"internal_node_id":"0.0-4.0-1.50","subject_id":"6047f8c69fa4a010d97013ac","study_id":"6197b3f67c2b5cd3b6d9596a","session_id":"6197b88ae0ad06605c0dc7aa","condition":"full-information","relevant_dimensions":["antennae","pattern"],"bee_group":{"antennae":"B","wings":"X","pattern":"D","legs":"X"},"bonus":0.5400000000000005},{"rt":5205.699999928474,"stimulus":"bees-with-color/bee-B2SM.svg","response":1,"trial_type":"image-button-response","trial_index":109,"time_elapsed":512113,"internal_node_id":"0.0-4.0-0.51","subject_id":"6047f8c69fa4a010d97013ac","study_id":"6197b3f67c2b5cd3b6d9596a","session_id":"6197b88ae0ad06605c0dc7aa","condition":"full-information","relevant_dimensions":["antennae","pattern"],"bee_group":{"antennae":"B","wings":"X","pattern":"D","legs":"X"},"action":"avoid","summary":"bad-avoid","bonus":0.5400000000000005},{"rt":936.5,"stimulus":"\n                    <p><b>Action: <em>avoid</em></b></p>\n                    <p>This is the bee that you just saw.</p>\n                    <img src=\"bees-with-color/bee-B2SM.svg\" width=\"200\">\n                    <p><span class=\"redText\">Bad choice,</span> the bee was friendly.<br>Your bonus pay is unchanged, and remains at $0.54.</p>\n            ","response":0,"trial_type":"html-button-response","trial_index":110,"time_elapsed":513051,"internal_node_id":"0.0-4.0-1.51","subject_id":"6047f8c69fa4a010d97013ac","study_id":"6197b3f67c2b5cd3b6d9596a","session_id":"6197b88ae0ad06605c0dc7aa","condition":"full-information","relevant_dimensions":["antennae","pattern"],"bee_group":{"antennae":"B","wings":"X","pattern":"D","legs":"X"},"bonus":0.5400000000000005},{"rt":1690.3999999761581,"stimulus":"bees-with-color/bee-A1DM.svg","response":1,"trial_type":"image-button-response","trial_index":111,"time_elapsed":514743,"internal_node_id":"0.0-4.0-0.52","subject_id":"6047f8c69fa4a010d97013ac","study_id":"6197b3f67c2b5cd3b6d9596a","session_id":"6197b88ae0ad06605c0dc7aa","condition":"full-information","relevant_dimensions":["antennae","pattern"],"bee_group":{"antennae":"B","wings":"X","pattern":"D","legs":"X"},"action":"avoid","summary":"bad-avoid","bonus":0.5400000000000005},{"rt":1608.3999999761581,"stimulus":"\n                    <p><b>Action: <em>avoid</em></b></p>\n                    <p>This is the bee that you just saw.</p>\n                    <img src=\"bees-with-color/bee-A1DM.svg\" width=\"200\">\n                    <p><span class=\"redText\">Bad choice,</span> the bee was friendly.<br>Your bonus pay is unchanged, and remains at $0.54.</p>\n            ","response":0,"trial_type":"html-button-response","trial_index":112,"time_elapsed":516353,"internal_node_id":"0.0-4.0-1.52","subject_id":"6047f8c69fa4a010d97013ac","study_id":"6197b3f67c2b5cd3b6d9596a","session_id":"6197b88ae0ad06605c0dc7aa","condition":"full-information","relevant_dimensions":["antennae","pattern"],"bee_group":{"antennae":"B","wings":"X","pattern":"D","legs":"X"},"bonus":0.5400000000000005},{"rt":2352.5,"stimulus":"bees-with-color/bee-A2SM.svg","response":1,"trial_type":"image-button-response","trial_index":113,"time_elapsed":518708,"internal_node_id":"0.0-4.0-0.53","subject_id":"6047f8c69fa4a010d97013ac","study_id":"6197b3f67c2b5cd3b6d9596a","session_id":"6197b88ae0ad06605c0dc7aa","condition":"full-information","relevant_dimensions":["antennae","pattern"],"bee_group":{"antennae":"B","wings":"X","pattern":"D","legs":"X"},"action":"avoid","summary":"bad-avoid","bonus":0.5400000000000005},{"rt":1842.7999999523163,"stimulus":"\n                    <p><b>Action: <em>avoid</em></b></p>\n                    <p>This is the bee that you just saw.</p>\n                    <img src=\"bees-with-color/bee-A2SM.svg\" width=\"200\">\n                    <p><span class=\"redText\">Bad choice,</span> the bee was friendly.<br>Your bonus pay is unchanged, and remains at $0.54.</p>\n            ","response":0,"trial_type":"html-button-response","trial_index":114,"time_elapsed":520552,"internal_node_id":"0.0-4.0-1.53","subject_id":"6047f8c69fa4a010d97013ac","study_id":"6197b3f67c2b5cd3b6d9596a","session_id":"6197b88ae0ad06605c0dc7aa","condition":"full-information","relevant_dimensions":["antennae","pattern"],"bee_group":{"antennae":"B","wings":"X","pattern":"D","legs":"X"},"bonus":0.5400000000000005},{"rt":1985.7000000476837,"stimulus":"bees-with-color/bee-B1DM.svg","response":1,"trial_type":"image-button-response","trial_index":115,"time_elapsed":522540,"internal_node_id":"0.0-4.0-0.54","subject_id":"6047f8c69fa4a010d97013ac","study_id":"6197b3f67c2b5cd3b6d9596a","session_id":"6197b88ae0ad06605c0dc7aa","condition":"full-information","relevant_dimensions":["antennae","pattern"],"bee_group":{"antennae":"B","wings":"X","pattern":"D","legs":"X"},"action":"avoid","summary":"good-avoid","bonus":0.5400000000000005},{"rt":1680.0999999046326,"stimulus":"\n                    <p><b>Action: <em>avoid</em></b></p>\n                    <p>This is the bee that you just saw.</p>\n                    <img src=\"bees-with-color/bee-B1DM.svg\" width=\"200\">\n                    <p><span class=\"greenText\">Good choice!</span>  This bee would have stung you.<br>Your bonus pay is unchanged, and remains at $0.54.</p>\n            ","response":0,"trial_type":"html-button-response","trial_index":116,"time_elapsed":524222,"internal_node_id":"0.0-4.0-1.54","subject_id":"6047f8c69fa4a010d97013ac","study_id":"6197b3f67c2b5cd3b6d9596a","session_id":"6197b88ae0ad06605c0dc7aa","condition":"full-information","relevant_dimensions":["antennae","pattern"],"bee_group":{"antennae":"B","wings":"X","pattern":"D","legs":"X"},"bonus":0.5400000000000005},{"rt":2760.6999999284744,"stimulus":"bees-with-color/bee-B2DF.svg","response":1,"trial_type":"image-button-response","trial_index":117,"time_elapsed":526984,"internal_node_id":"0.0-4.0-0.55","subject_id":"6047f8c69fa4a010d97013ac","study_id":"6197b3f67c2b5cd3b6d9596a","session_id":"6197b88ae0ad06605c0dc7aa","condition":"full-information","relevant_dimensions":["antennae","pattern"],"bee_group":{"antennae":"B","wings":"X","pattern":"D","legs":"X"},"action":"avoid","summary":"good-avoid","bonus":0.5400000000000005},{"rt":1740.6000000238419,"stimulus":"\n                    <p><b>Action: <em>avoid</em></b></p>\n                    <p>This is the bee that you just saw.</p>\n                    <img src=\"bees-with-color/bee-B2DF.svg\" width=\"200\">\n                    <p><span class=\"greenText\">Good choice!</span>  This bee would have stung you.<br>Your bonus pay is unchanged, and remains at $0.54.</p>\n            ","response":0,"trial_type":"html-button-response","trial_index":118,"time_elapsed":528726,"internal_node_id":"0.0-4.0-1.55","subject_id":"6047f8c69fa4a010d97013ac","study_id":"6197b3f67c2b5cd3b6d9596a","session_id":"6197b88ae0ad06605c0dc7aa","condition":"full-information","relevant_dimensions":["antennae","pattern"],"bee_group":{"antennae":"B","wings":"X","pattern":"D","legs":"X"},"bonus":0.5400000000000005},{"rt":3932.399999976158,"stimulus":"bees-with-color/bee-A2DM.svg","response":0,"trial_type":"image-button-response","trial_index":119,"time_elapsed":532660,"internal_node_id":"0.0-4.0-0.56","subject_id":"6047f8c69fa4a010d97013ac","study_id":"6197b3f67c2b5cd3b6d9596a","session_id":"6197b88ae0ad06605c0dc7aa","condition":"full-information","relevant_dimensions":["antennae","pattern"],"bee_group":{"antennae":"B","wings":"X","pattern":"D","legs":"X"},"action":"harvest","summary":"good-harvest","bonus":0.5400000000000005},{"rt":1160.4000000953674,"stimulus":"\n                    <p><b>Action: <em>harvest</em></b></p>\n                    <p>This is the bee that you just saw.</p>\n                    <img src=\"bees-with-color/bee-A2DM.svg\" width=\"200\">\n                    <p><span class=\"greenText\"><b>Successful harvest!</b></span><br>Your pay has increased by $0.02. Your bonus pay is now $0.56.</p>\n            ","response":0,"trial_type":"html-button-response","trial_index":120,"time_elapsed":533822,"internal_node_id":"0.0-4.0-1.56","subject_id":"6047f8c69fa4a010d97013ac","study_id":"6197b3f67c2b5cd3b6d9596a","session_id":"6197b88ae0ad06605c0dc7aa","condition":"full-information","relevant_dimensions":["antennae","pattern"],"bee_group":{"antennae":"B","wings":"X","pattern":"D","legs":"X"},"bonus":0.5400000000000005},{"rt":1526.2999999523163,"stimulus":"bees-with-color/bee-B2SF.svg","response":1,"trial_type":"image-button-response","trial_index":121,"time_elapsed":535350,"internal_node_id":"0.0-4.0-0.57","subject_id":"6047f8c69fa4a010d97013ac","study_id":"6197b3f67c2b5cd3b6d9596a","session_id":"6197b88ae0ad06605c0dc7aa","condition":"full-information","relevant_dimensions":["antennae","pattern"],"bee_group":{"antennae":"B","wings":"X","pattern":"D","legs":"X"},"action":"avoid","summary":"bad-avoid","bonus":0.5400000000000005},{"rt":1302.6000000238419,"stimulus":"\n                    <p><b>Action: <em>avoid</em></b></p>\n                    <p>This is the bee that you just saw.</p>\n                    <img src=\"bees-with-color/bee-B2SF.svg\" width=\"200\">\n                    <p><span class=\"redText\">Bad choice,</span> the bee was friendly.<br>Your bonus pay is unchanged, and remains at $0.56.</p>\n            ","response":0,"trial_type":"html-button-response","trial_index":122,"time_elapsed":536655,"internal_node_id":"0.0-4.0-1.57","subject_id":"6047f8c69fa4a010d97013ac","study_id":"6197b3f67c2b5cd3b6d9596a","session_id":"6197b88ae0ad06605c0dc7aa","condition":"full-information","relevant_dimensions":["antennae","pattern"],"bee_group":{"antennae":"B","wings":"X","pattern":"D","legs":"X"},"bonus":0.5400000000000005},{"rt":3789.399999976158,"stimulus":"bees-with-color/bee-B2DM.svg","response":1,"trial_type":"image-button-response","trial_index":123,"time_elapsed":540447,"internal_node_id":"0.0-4.0-0.58","subject_id":"6047f8c69fa4a010d97013ac","study_id":"6197b3f67c2b5cd3b6d9596a","session_id":"6197b88ae0ad06605c0dc7aa","condition":"full-information","relevant_dimensions":["antennae","pattern"],"bee_group":{"antennae":"B","wings":"X","pattern":"D","legs":"X"},"action":"avoid","summary":"good-avoid","bonus":0.5400000000000005},{"rt":1485.6000000238419,"stimulus":"\n                    <p><b>Action: <em>avoid</em></b></p>\n                    <p>This is the bee that you just saw.</p>\n                    <img src=\"bees-with-color/bee-B2DM.svg\" width=\"200\">\n                    <p><span class=\"greenText\">Good choice!</span>  This bee would have stung you.<br>Your bonus pay is unchanged, and remains at $0.56.</p>\n            ","response":0,"trial_type":"html-button-response","trial_index":124,"time_elapsed":541934,"internal_node_id":"0.0-4.0-1.58","subject_id":"6047f8c69fa4a010d97013ac","study_id":"6197b3f67c2b5cd3b6d9596a","session_id":"6197b88ae0ad06605c0dc7aa","condition":"full-information","relevant_dimensions":["antennae","pattern"],"bee_group":{"antennae":"B","wings":"X","pattern":"D","legs":"X"},"bonus":0.5400000000000005},{"rt":3657.100000023842,"stimulus":"bees-with-color/bee-B1DF.svg","response":1,"trial_type":"image-button-response","trial_index":125,"time_elapsed":545593,"internal_node_id":"0.0-4.0-0.59","subject_id":"6047f8c69fa4a010d97013ac","study_id":"6197b3f67c2b5cd3b6d9596a","session_id":"6197b88ae0ad06605c0dc7aa","condition":"full-information","relevant_dimensions":["antennae","pattern"],"bee_group":{"antennae":"B","wings":"X","pattern":"D","legs":"X"},"action":"avoid","summary":"good-avoid","bonus":0.5400000000000005},{"rt":1272.6999999284744,"stimulus":"\n                    <p><b>Action: <em>avoid</em></b></p>\n                    <p>This is the bee that you just saw.</p>\n                    <img src=\"bees-with-color/bee-B1DF.svg\" width=\"200\">\n                    <p><span class=\"greenText\">Good choice!</span>  This bee would have stung you.<br>Your bonus pay is unchanged, and remains at $0.56.</p>\n            ","response":0,"trial_type":"html-button-response","trial_index":126,"time_elapsed":546867,"internal_node_id":"0.0-4.0-1.59","subject_id":"6047f8c69fa4a010d97013ac","study_id":"6197b3f67c2b5cd3b6d9596a","session_id":"6197b88ae0ad06605c0dc7aa","condition":"full-information","relevant_dimensions":["antennae","pattern"],"bee_group":{"antennae":"B","wings":"X","pattern":"D","legs":"X"},"bonus":0.5400000000000005},{"rt":2097.3000000715256,"stimulus":"bees-with-color/bee-A2SF.svg","response":1,"trial_type":"image-button-response","trial_index":127,"time_elapsed":548967,"internal_node_id":"0.0-4.0-0.60","subject_id":"6047f8c69fa4a010d97013ac","study_id":"6197b3f67c2b5cd3b6d9596a","session_id":"6197b88ae0ad06605c0dc7aa","condition":"full-information","relevant_dimensions":["antennae","pattern"],"bee_group":{"antennae":"B","wings":"X","pattern":"D","legs":"X"},"action":"avoid","summary":"bad-avoid","bonus":0.5400000000000005},{"rt":1342.8999999761581,"stimulus":"\n                    <p><b>Action: <em>avoid</em></b></p>\n                    <p>This is the bee that you just saw.</p>\n                    <img src=\"bees-with-color/bee-A2SF.svg\" width=\"200\">\n                    <p><span class=\"redText\">Bad choice,</span> the bee was friendly.<br>Your bonus pay is unchanged, and remains at $0.56.</p>\n            ","response":0,"trial_type":"html-button-response","trial_index":128,"time_elapsed":550312,"internal_node_id":"0.0-4.0-1.60","subject_id":"6047f8c69fa4a010d97013ac","study_id":"6197b3f67c2b5cd3b6d9596a","session_id":"6197b88ae0ad06605c0dc7aa","condition":"full-information","relevant_dimensions":["antennae","pattern"],"bee_group":{"antennae":"B","wings":"X","pattern":"D","legs":"X"},"bonus":0.5400000000000005},{"rt":2811.2999999523163,"stimulus":"bees-with-color/bee-B1SM.svg","response":1,"trial_type":"image-button-response","trial_index":129,"time_elapsed":553125,"internal_node_id":"0.0-4.0-0.61","subject_id":"6047f8c69fa4a010d97013ac","study_id":"6197b3f67c2b5cd3b6d9596a","session_id":"6197b88ae0ad06605c0dc7aa","condition":"full-information","relevant_dimensions":["antennae","pattern"],"bee_group":{"antennae":"B","wings":"X","pattern":"D","legs":"X"},"action":"avoid","summary":"bad-avoid","bonus":0.5400000000000005},{"rt":1221,"stimulus":"\n                    <p><b>Action: <em>avoid</em></b></p>\n                    <p>This is the bee that you just saw.</p>\n                    <img src=\"bees-with-color/bee-B1SM.svg\" width=\"200\">\n                    <p><span class=\"redText\">Bad choice,</span> the bee was friendly.<br>Your bonus pay is unchanged, and remains at $0.56.</p>\n            ","response":0,"trial_type":"html-button-response","trial_index":130,"time_elapsed":554347,"internal_node_id":"0.0-4.0-1.61","subject_id":"6047f8c69fa4a010d97013ac","study_id":"6197b3f67c2b5cd3b6d9596a","session_id":"6197b88ae0ad06605c0dc7aa","condition":"full-information","relevant_dimensions":["antennae","pattern"],"bee_group":{"antennae":"B","wings":"X","pattern":"D","legs":"X"},"bonus":0.5400000000000005},{"rt":2148.600000023842,"stimulus":"bees-with-color/bee-A2DF.svg","response":1,"trial_type":"image-button-response","trial_index":131,"time_elapsed":556498,"internal_node_id":"0.0-4.0-0.62","subject_id":"6047f8c69fa4a010d97013ac","study_id":"6197b3f67c2b5cd3b6d9596a","session_id":"6197b88ae0ad06605c0dc7aa","condition":"full-information","relevant_dimensions":["antennae","pattern"],"bee_group":{"antennae":"B","wings":"X","pattern":"D","legs":"X"},"action":"avoid","summary":"bad-avoid","bonus":0.5400000000000005},{"rt":1037.2000000476837,"stimulus":"\n                    <p><b>Action: <em>avoid</em></b></p>\n                    <p>This is the bee that you just saw.</p>\n                    <img src=\"bees-with-color/bee-A2DF.svg\" width=\"200\">\n                    <p><span class=\"redText\">Bad choice,</span> the bee was friendly.<br>Your bonus pay is unchanged, and remains at $0.56.</p>\n            ","response":0,"trial_type":"html-button-response","trial_index":132,"time_elapsed":557537,"internal_node_id":"0.0-4.0-1.62","subject_id":"6047f8c69fa4a010d97013ac","study_id":"6197b3f67c2b5cd3b6d9596a","session_id":"6197b88ae0ad06605c0dc7aa","condition":"full-information","relevant_dimensions":["antennae","pattern"],"bee_group":{"antennae":"B","wings":"X","pattern":"D","legs":"X"},"bonus":0.5400000000000005},{"rt":2087.8000000715256,"stimulus":"bees-with-color/bee-A1DF.svg","response":0,"trial_type":"image-button-response","trial_index":133,"time_elapsed":559627,"internal_node_id":"0.0-4.0-0.63","subject_id":"6047f8c69fa4a010d97013ac","study_id":"6197b3f67c2b5cd3b6d9596a","session_id":"6197b88ae0ad06605c0dc7aa","condition":"full-information","relevant_dimensions":["antennae","pattern"],"bee_group":{"antennae":"B","wings":"X","pattern":"D","legs":"X"},"action":"harvest","summary":"good-harvest","bonus":0.5400000000000005},{"rt":966.5,"stimulus":"\n                    <p><b>Action: <em>harvest</em></b></p>\n                    <p>This is the bee that you just saw.</p>\n                    <img src=\"bees-with-color/bee-A1DF.svg\" width=\"200\">\n                    <p><span class=\"greenText\"><b>Successful harvest!</b></span><br>Your pay has increased by $0.02. Your bonus pay is now $0.58.</p>\n            ","response":0,"trial_type":"html-button-response","trial_index":134,"time_elapsed":560595,"internal_node_id":"0.0-4.0-1.63","subject_id":"6047f8c69fa4a010d97013ac","study_id":"6197b3f67c2b5cd3b6d9596a","session_id":"6197b88ae0ad06605c0dc7aa","condition":"full-information","relevant_dimensions":["antennae","pattern"],"bee_group":{"antennae":"B","wings":"X","pattern":"D","legs":"X"},"bonus":0.5400000000000005},{"rt":5067.5,"stimulus":"You have completed the first part of this experiment.<br><br>You will now begin a shorter second part, in which you will receive no feedback.<br>The same rules regarding bonus pay apply.<br><br>Press any key to begin.","response":" ","trial_type":"html-keyboard-response","trial_index":135,"time_elapsed":565665,"internal_node_id":"0.0-5.0","subject_id":"6047f8c69fa4a010d97013ac","study_id":"6197b3f67c2b5cd3b6d9596a","session_id":"6197b88ae0ad06605c0dc7aa","condition":"full-information","relevant_dimensions":["antennae","pattern"],"bee_group":{"antennae":"B","wings":"X","pattern":"D","legs":"X"},"bonus":0.5400000000000005},{"rt":7879.899999976158,"stimulus":"bees-with-color/bee-B1SF.svg","response":1,"trial_type":"image-button-response","trial_index":136,"time_elapsed":573572,"internal_node_id":"0.0-6.0-0.0","subject_id":"6047f8c69fa4a010d97013ac","study_id":"6197b3f67c2b5cd3b6d9596a","session_id":"6197b88ae0ad06605c0dc7aa","condition":"full-information","relevant_dimensions":["antennae","pattern"],"bee_group":{"antennae":"B","wings":"X","pattern":"D","legs":"X"},"bonus":0.5400000000000005},{"rt":1627.2000000476837,"stimulus":"bees-with-color/bee-A2DM.svg","response":0,"trial_type":"image-button-response","trial_index":137,"time_elapsed":575203,"internal_node_id":"0.0-6.0-0.1","subject_id":"6047f8c69fa4a010d97013ac","study_id":"6197b3f67c2b5cd3b6d9596a","session_id":"6197b88ae0ad06605c0dc7aa","condition":"full-information","relevant_dimensions":["antennae","pattern"],"bee_group":{"antennae":"B","wings":"X","pattern":"D","legs":"X"},"bonus":0.5400000000000005},{"rt":1454.3999999761581,"stimulus":"bees-with-color/bee-A1DF.svg","response":0,"trial_type":"image-button-response","trial_index":138,"time_elapsed":576660,"internal_node_id":"0.0-6.0-0.2","subject_id":"6047f8c69fa4a010d97013ac","study_id":"6197b3f67c2b5cd3b6d9596a","session_id":"6197b88ae0ad06605c0dc7aa","condition":"full-information","relevant_dimensions":["antennae","pattern"],"bee_group":{"antennae":"B","wings":"X","pattern":"D","legs":"X"},"bonus":0.5400000000000005},{"rt":4124.600000023842,"stimulus":"bees-with-color/bee-A1SM.svg","response":1,"trial_type":"image-button-response","trial_index":139,"time_elapsed":580787,"internal_node_id":"0.0-6.0-0.3","subject_id":"6047f8c69fa4a010d97013ac","study_id":"6197b3f67c2b5cd3b6d9596a","session_id":"6197b88ae0ad06605c0dc7aa","condition":"full-information","relevant_dimensions":["antennae","pattern"],"bee_group":{"antennae":"B","wings":"X","pattern":"D","legs":"X"},"bonus":0.5400000000000005},{"rt":1454.1000000238419,"stimulus":"bees-with-color/bee-B1DM.svg","response":1,"trial_type":"image-button-response","trial_index":140,"time_elapsed":582245,"internal_node_id":"0.0-6.0-0.4","subject_id":"6047f8c69fa4a010d97013ac","study_id":"6197b3f67c2b5cd3b6d9596a","session_id":"6197b88ae0ad06605c0dc7aa","condition":"full-information","relevant_dimensions":["antennae","pattern"],"bee_group":{"antennae":"B","wings":"X","pattern":"D","legs":"X"},"bonus":0.5400000000000005},{"rt":1953.6999999284744,"stimulus":"bees-with-color/bee-B2SM.svg","response":0,"trial_type":"image-button-response","trial_index":141,"time_elapsed":584202,"internal_node_id":"0.0-6.0-0.5","subject_id":"6047f8c69fa4a010d97013ac","study_id":"6197b3f67c2b5cd3b6d9596a","session_id":"6197b88ae0ad06605c0dc7aa","condition":"full-information","relevant_dimensions":["antennae","pattern"],"bee_group":{"antennae":"B","wings":"X","pattern":"D","legs":"X"},"bonus":0.5400000000000005},{"rt":2006.0999999046326,"stimulus":"bees-with-color/bee-A2DF.svg","response":1,"trial_type":"image-button-response","trial_index":142,"time_elapsed":586210,"internal_node_id":"0.0-6.0-0.6","subject_id":"6047f8c69fa4a010d97013ac","study_id":"6197b3f67c2b5cd3b6d9596a","session_id":"6197b88ae0ad06605c0dc7aa","condition":"full-information","relevant_dimensions":["antennae","pattern"],"bee_group":{"antennae":"B","wings":"X","pattern":"D","legs":"X"},"bonus":0.5400000000000005},{"rt":1302.6000000238419,"stimulus":"bees-with-color/bee-B1DF.svg","response":1,"trial_type":"image-button-response","trial_index":143,"time_elapsed":587514,"internal_node_id":"0.0-6.0-0.7","subject_id":"6047f8c69fa4a010d97013ac","study_id":"6197b3f67c2b5cd3b6d9596a","session_id":"6197b88ae0ad06605c0dc7aa","condition":"full-information","relevant_dimensions":["antennae","pattern"],"bee_group":{"antennae":"B","wings":"X","pattern":"D","legs":"X"},"bonus":0.5400000000000005},{"rt":2188.4000000953674,"stimulus":"bees-with-color/bee-B2SF.svg","response":0,"trial_type":"image-button-response","trial_index":144,"time_elapsed":589705,"internal_node_id":"0.0-6.0-0.8","subject_id":"6047f8c69fa4a010d97013ac","study_id":"6197b3f67c2b5cd3b6d9596a","session_id":"6197b88ae0ad06605c0dc7aa","condition":"full-information","relevant_dimensions":["antennae","pattern"],"bee_group":{"antennae":"B","wings":"X","pattern":"D","legs":"X"},"bonus":0.5400000000000005},{"rt":1761.0999999046326,"stimulus":"bees-with-color/bee-B2DF.svg","response":1,"trial_type":"image-button-response","trial_index":145,"time_elapsed":591468,"internal_node_id":"0.0-6.0-0.9","subject_id":"6047f8c69fa4a010d97013ac","study_id":"6197b3f67c2b5cd3b6d9596a","session_id":"6197b88ae0ad06605c0dc7aa","condition":"full-information","relevant_dimensions":["antennae","pattern"],"bee_group":{"antennae":"B","wings":"X","pattern":"D","legs":"X"},"bonus":0.5400000000000005},{"rt":1719.4000000953674,"stimulus":"bees-with-color/bee-A1SF.svg","response":0,"trial_type":"image-button-response","trial_index":146,"time_elapsed":593190,"internal_node_id":"0.0-6.0-0.10","subject_id":"6047f8c69fa4a010d97013ac","study_id":"6197b3f67c2b5cd3b6d9596a","session_id":"6197b88ae0ad06605c0dc7aa","condition":"full-information","relevant_dimensions":["antennae","pattern"],"bee_group":{"antennae":"B","wings":"X","pattern":"D","legs":"X"},"bonus":0.5400000000000005},{"rt":1292.5,"stimulus":"bees-with-color/bee-B1SM.svg","response":1,"trial_type":"image-button-response","trial_index":147,"time_elapsed":594485,"internal_node_id":"0.0-6.0-0.11","subject_id":"6047f8c69fa4a010d97013ac","study_id":"6197b3f67c2b5cd3b6d9596a","session_id":"6197b88ae0ad06605c0dc7aa","condition":"full-information","relevant_dimensions":["antennae","pattern"],"bee_group":{"antennae":"B","wings":"X","pattern":"D","legs":"X"},"bonus":0.5400000000000005},{"rt":2127.100000023842,"stimulus":"bees-with-color/bee-B2DM.svg","response":0,"trial_type":"image-button-response","trial_index":148,"time_elapsed":596614,"internal_node_id":"0.0-6.0-0.12","subject_id":"6047f8c69fa4a010d97013ac","study_id":"6197b3f67c2b5cd3b6d9596a","session_id":"6197b88ae0ad06605c0dc7aa","condition":"full-information","relevant_dimensions":["antennae","pattern"],"bee_group":{"antennae":"B","wings":"X","pattern":"D","legs":"X"},"bonus":0.5400000000000005},{"rt":1169.0999999046326,"stimulus":"bees-with-color/bee-A2SF.svg","response":1,"trial_type":"image-button-response","trial_index":149,"time_elapsed":597786,"internal_node_id":"0.0-6.0-0.13","subject_id":"6047f8c69fa4a010d97013ac","study_id":"6197b3f67c2b5cd3b6d9596a","session_id":"6197b88ae0ad06605c0dc7aa","condition":"full-information","relevant_dimensions":["antennae","pattern"],"bee_group":{"antennae":"B","wings":"X","pattern":"D","legs":"X"},"bonus":0.5400000000000005},{"rt":1292.3000000715256,"stimulus":"bees-with-color/bee-A1DM.svg","response":1,"trial_type":"image-button-response","trial_index":150,"time_elapsed":599081,"internal_node_id":"0.0-6.0-0.14","subject_id":"6047f8c69fa4a010d97013ac","study_id":"6197b3f67c2b5cd3b6d9596a","session_id":"6197b88ae0ad06605c0dc7aa","condition":"full-information","relevant_dimensions":["antennae","pattern"],"bee_group":{"antennae":"B","wings":"X","pattern":"D","legs":"X"},"bonus":0.5400000000000005},{"rt":1873.1000000238419,"stimulus":"bees-with-color/bee-A2SM.svg","response":1,"trial_type":"image-button-response","trial_index":151,"time_elapsed":600956,"internal_node_id":"0.0-6.0-0.15","subject_id":"6047f8c69fa4a010d97013ac","study_id":"6197b3f67c2b5cd3b6d9596a","session_id":"6197b88ae0ad06605c0dc7aa","condition":"full-information","relevant_dimensions":["antennae","pattern"],"bee_group":{"antennae":"B","wings":"X","pattern":"D","legs":"X"},"bonus":0.5400000000000005},{"rt":1791.6000000238419,"stimulus":"bees-with-color/bee-A1DM.svg","response":1,"trial_type":"image-button-response","trial_index":152,"time_elapsed":602749,"internal_node_id":"0.0-6.0-0.16","subject_id":"6047f8c69fa4a010d97013ac","study_id":"6197b3f67c2b5cd3b6d9596a","session_id":"6197b88ae0ad06605c0dc7aa","condition":"full-information","relevant_dimensions":["antennae","pattern"],"bee_group":{"antennae":"B","wings":"X","pattern":"D","legs":"X"},"bonus":0.5400000000000005},{"rt":1812.6000000238419,"stimulus":"bees-with-color/bee-A2SM.svg","response":1,"trial_type":"image-button-response","trial_index":153,"time_elapsed":604563,"internal_node_id":"0.0-6.0-0.17","subject_id":"6047f8c69fa4a010d97013ac","study_id":"6197b3f67c2b5cd3b6d9596a","session_id":"6197b88ae0ad06605c0dc7aa","condition":"full-information","relevant_dimensions":["antennae","pattern"],"bee_group":{"antennae":"B","wings":"X","pattern":"D","legs":"X"},"bonus":0.5400000000000005},{"rt":1200.3999999761581,"stimulus":"bees-with-color/bee-B2SM.svg","response":1,"trial_type":"image-button-response","trial_index":154,"time_elapsed":605765,"internal_node_id":"0.0-6.0-0.18","subject_id":"6047f8c69fa4a010d97013ac","study_id":"6197b3f67c2b5cd3b6d9596a","session_id":"6197b88ae0ad06605c0dc7aa","condition":"full-information","relevant_dimensions":["antennae","pattern"],"bee_group":{"antennae":"B","wings":"X","pattern":"D","legs":"X"},"bonus":0.5400000000000005},{"rt":2607.7000000476837,"stimulus":"bees-with-color/bee-B2DM.svg","response":1,"trial_type":"image-button-response","trial_index":155,"time_elapsed":608375,"internal_node_id":"0.0-6.0-0.19","subject_id":"6047f8c69fa4a010d97013ac","study_id":"6197b3f67c2b5cd3b6d9596a","session_id":"6197b88ae0ad06605c0dc7aa","condition":"full-information","relevant_dimensions":["antennae","pattern"],"bee_group":{"antennae":"B","wings":"X","pattern":"D","legs":"X"},"bonus":0.5400000000000005},{"rt":1884,"stimulus":"bees-with-color/bee-A1SF.svg","response":0,"trial_type":"image-button-response","trial_index":156,"time_elapsed":610260,"internal_node_id":"0.0-6.0-0.20","subject_id":"6047f8c69fa4a010d97013ac","study_id":"6197b3f67c2b5cd3b6d9596a","session_id":"6197b88ae0ad06605c0dc7aa","condition":"full-information","relevant_dimensions":["antennae","pattern"],"bee_group":{"antennae":"B","wings":"X","pattern":"D","legs":"X"},"bonus":0.5400000000000005},{"rt":2331.7999999523163,"stimulus":"bees-with-color/bee-A2DM.svg","response":0,"trial_type":"image-button-response","trial_index":157,"time_elapsed":61259