[{"success":true,"trial_type":"fullscreen","trial_index":0,"time_elapsed":1409656,"internal_node_id":"0.0-0.0","subject_id":"614f1bfbd26e5d154e2da46e","study_id":"6197b3f67c2b5cd3b6d9596a","session_id":"6197b88b3f7fd8d270fb55fc","condition":"full-information","relevant_dimensions":["pattern","legs"],"bee_group":{"antennae":"X","wings":"X","pattern":"D","legs":"F"},"bonus":0.06},{"success":true,"timeout":false,"failed_images":[],"failed_audio":[],"failed_video":[],"trial_type":"preload","trial_index":1,"time_elapsed":1411249,"internal_node_id":"0.0-1.0","subject_id":"614f1bfbd26e5d154e2da46e","study_id":"6197b3f67c2b5cd3b6d9596a","session_id":"6197b88b3f7fd8d270fb55fc","condition":"full-information","relevant_dimensions":["pattern","legs"],"bee_group":{"antennae":"X","wings":"X","pattern":"D","legs":"F"},"bonus":0.06},{"rt":2024,"stimulus":"Welcome! Press any key to begin.","response":" ","trial_type":"html-keyboard-response","trial_index":2,"time_elapsed":1413273,"internal_node_id":"0.0-2.0","subject_id":"614f1bfbd26e5d154e2da46e","study_id":"6197b3f67c2b5cd3b6d9596a","session_id":"6197b88b3f7fd8d270fb55fc","condition":"full-information","relevant_dimensions":["pattern","legs"],"bee_group":{"antennae":"X","wings":"X","pattern":"D","legs":"F"},"bonus":0.06},{"view_history":[{"page_index":0,"viewing_time":6988.400000002235},{"page_index":1,"viewing_time":20663.800000000745},{"page_index":2,"viewing_time":9136.199999999255},{"page_index":3,"viewing_time":8001.89999999851},{"page_index":4,"viewing_time":6472.300000000745},{"page_index":5,"viewing_time":5247.699999999255},{"page_index":6,"viewing_time":8883.900000002235},{"page_index":7,"viewing_time":5042.199999999255},{"page_index":8,"viewing_time":3396.800000000745},{"page_index":9,"viewing_time":2262.7999999970198},{"page_index":10,"viewing_time":1340.1000000014901},{"page_index":11,"viewing_time":6906.300000000745},{"page_index":12,"viewing_time":8335.800000000745},{"page_index":13,"viewing_time":1093.8999999985099},{"page_index":14,"viewing_time":1670}],"rt":95442.20000000298,"trial_type":"instructions","trial_index":3,"time_elapsed":1508716,"internal_node_id":"0.0-3.0-0.0","subject_id":"614f1bfbd26e5d154e2da46e","study_id":"6197b3f67c2b5cd3b6d9596a","session_id":"6197b88b3f7fd8d270fb55fc","condition":"full-information","relevant_dimensions":["pattern","legs"],"bee_group":{"antennae":"X","wings":"X","pattern":"D","legs":"F"},"bonus":0.06},{"rt":14522.5,"response":{"Q0":["Two or six legs","Stripes or spots on body","Single or double wings","Antennae or no antennae"]},"question_order":[0],"trial_type":"survey-multi-select","trial_index":4,"time_elapsed":1523241,"internal_node_id":"0.0-3.0-1.0","subject_id":"614f1bfbd26e5d154e2da46e","study_id":"6197b3f67c2b5cd3b6d9596a","session_id":"6197b88b3f7fd8d270fb55fc","condition":"full-information","relevant_dimensions":["pattern","legs"],"bee_group":{"antennae":"X","wings":"X","pattern":"D","legs":"F"},"correct":true,"bonus":0.06},{"rt":19942.5,"response":{"Q1":"No.","Q2":"Based on the four features of the bee.","Q3":"You learn if it was friendly or dangerous, but do not alter your bonus."},"question_order":[0,1,2],"trial_type":"survey-multi-choice","trial_index":5,"time_elapsed":1543187,"internal_node_id":"0.0-3.0-2.0","subject_id":"614f1bfbd26e5d154e2da46e","study_id":"6197b3f67c2b5cd3b6d9596a","session_id":"6197b88b3f7fd8d270fb55fc","condition":"full-information","relevant_dimensions":["pattern","legs"],"bee_group":{"antennae":"X","wings":"X","pattern":"D","legs":"F"},"correct":true,"bonus":0.06},{"rt":2154.699999999255,"stimulus":"<p>Congrats, you got everything right<br>When you're ready, click the button below to continue to the experiment.</p>","response":0,"trial_type":"html-button-response","trial_index":6,"time_elapsed":1545344,"internal_node_id":"0.0-3.0-3.0","subject_id":"614f1bfbd26e5d154e2da46e","study_id":"6197b3f67c2b5cd3b6d9596a","session_id":"6197b88b3f7fd8d270fb55fc","condition":"full-information","relevant_dimensions":["pattern","legs"],"bee_group":{"antennae":"X","wings":"X","pattern":"D","legs":"F"},"bonus":0.06},{"rt":6819.70000000298,"stimulus":"bees-with-color/bee-A2SM.svg","response":0,"trial_type":"image-button-response","trial_index":7,"time_elapsed":1552166,"internal_node_id":"0.0-4.0-0.0","subject_id":"614f1bfbd26e5d154e2da46e","study_id":"6197b3f67c2b5cd3b6d9596a","session_id":"6197b88b3f7fd8d270fb55fc","condition":"full-information","relevant_dimensions":["pattern","legs"],"bee_group":{"antennae":"X","wings":"X","pattern":"D","legs":"F"},"action":"harvest","summary":"good-harvest","bonus":0.06},{"rt":7783.699999999255,"stimulus":"\n                    <p><b>Action: <em>harvest</em></b></p>\n                    <p>This is the bee that you just saw.</p>\n                    <img src=\"bees-with-color/bee-A2SM.svg\" width=\"200\">\n                    <p><span class=\"greenText\"><b>Successful harvest!</b></span><br>Your pay has increased by $0.02. Your bonus pay is now $0.56.</p>\n            ","response":0,"trial_type":"html-button-response","trial_index":8,"time_elapsed":1559952,"internal_node_id":"0.0-4.0-1.0","subject_id":"614f1bfbd26e5d154e2da46e","study_id":"6197b3f67c2b5cd3b6d9596a","session_id":"6197b88b3f7fd8d270fb55fc","condition":"full-information","relevant_dimensions":["pattern","legs"],"bee_group":{"antennae":"X","wings":"X","pattern":"D","legs":"F"},"bonus":0.06},{"rt":6432.5,"stimulus":"bees-with-color/bee-A2DM.svg","response":1,"trial_type":"image-button-response","trial_index":9,"time_elapsed":1566386,"internal_node_id":"0.0-4.0-0.1","subject_id":"614f1bfbd26e5d154e2da46e","study_id":"6197b3f67c2b5cd3b6d9596a","session_id":"6197b88b3f7fd8d270fb55fc","condition":"full-information","relevant_dimensions":["pattern","legs"],"bee_group":{"antennae":"X","wings":"X","pattern":"D","legs":"F"},"action":"avoid","summary":"bad-avoid","bonus":0.06},{"rt":5102.800000000745,"stimulus":"\n                    <p><b>Action: <em>avoid</em></b></p>\n                    <p>This is the bee that you just saw.</p>\n                    <img src=\"bees-with-color/bee-A2DM.svg\" width=\"200\">\n                    <p><span class=\"redText\">Bad choice,</span> the bee was friendly.<br>Your bonus pay is unchanged, and remains at $0.56.</p>\n            ","response":0,"trial_type":"html-button-response","trial_index":10,"time_elapsed":1571490,"internal_node_id":"0.0-4.0-1.1","subject_id":"614f1bfbd26e5d154e2da46e","study_id":"6197b3f67c2b5cd3b6d9596a","session_id":"6197b88b3f7fd8d270fb55fc","condition":"full-information","relevant_dimensions":["pattern","legs"],"bee_group":{"antennae":"X","wings":"X","pattern":"D","legs":"F"},"bonus":0.06},{"rt":8894.599999997765,"stimulus":"bees-with-color/bee-A1DM.svg","response":1,"trial_type":"image-button-response","trial_index":11,"time_elapsed":1580386,"internal_node_id":"0.0-4.0-0.2","subject_id":"614f1bfbd26e5d154e2da46e","study_id":"6197b3f67c2b5cd3b6d9596a","session_id":"6197b88b3f7fd8d270fb55fc","condition":"full-information","relevant_dimensions":["pattern","legs"],"bee_group":{"antennae":"X","wings":"X","pattern":"D","legs":"F"},"action":"avoid","summary":"bad-avoid","bonus":0.06},{"rt":7758.800000000745,"stimulus":"\n                    <p><b>Action: <em>avoid</em></b></p>\n                    <p>This is the bee that you just saw.</p>\n                    <img src=\"bees-with-color/bee-A1DM.svg\" width=\"200\">\n                    <p><span class=\"redText\">Bad choice,</span> the bee was friendly.<br>Your bonus pay is unchanged, and remains at $0.56.</p>\n            ","response":0,"trial_type":"html-button-response","trial_index":12,"time_elapsed":1588146,"internal_node_id":"0.0-4.0-1.2","subject_id":"614f1bfbd26e5d154e2da46e","study_id":"6197b3f67c2b5cd3b6d9596a","session_id":"6197b88b3f7fd8d270fb55fc","condition":"full-information","relevant_dimensions":["pattern","legs"],"bee_group":{"antennae":"X","wings":"X","pattern":"D","legs":"F"},"bonus":0.06},{"rt":1193,"stimulus":"bees-with-color/bee-B1SF.svg","response":1,"trial_type":"image-button-response","trial_index":13,"time_elapsed":1589340,"internal_node_id":"0.0-4.0-0.3","subject_id":"614f1bfbd26e5d154e2da46e","study_id":"6197b3f67c2b5cd3b6d9596a","session_id":"6197b88b3f7fd8d270fb55fc","condition":"full-information","relevant_dimensions":["pattern","legs"],"bee_group":{"antennae":"X","wings":"X","pattern":"D","legs":"F"},"action":"avoid","summary":"bad-avoid","bonus":0.06},{"rt":2695,"stimulus":"\n                    <p><b>Action: <em>avoid</em></b></p>\n                    <p>This is the bee that you just saw.</p>\n                    <img src=\"bees-with-color/bee-B1SF.svg\" width=\"200\">\n                    <p><span class=\"redText\">Bad choice,</span> the bee was friendly.<br>Your bonus pay is unchanged, and remains at $0.56.</p>\n            ","response":0,"trial_type":"html-button-response","trial_index":14,"time_elapsed":1592036,"internal_node_id":"0.0-4.0-1.3","subject_id":"614f1bfbd26e5d154e2da46e","study_id":"6197b3f67c2b5cd3b6d9596a","session_id":"6197b88b3f7fd8d270fb55fc","condition":"full-information","relevant_dimensions":["pattern","legs"],"bee_group":{"antennae":"X","wings":"X","pattern":"D","legs":"F"},"bonus":0.06},{"rt":2934.699999999255,"stimulus":"bees-with-color/bee-B2DF.svg","response":1,"trial_type":"image-button-response","trial_index":15,"time_elapsed":1594972,"internal_node_id":"0.0-4.0-0.4","subject_id":"614f1bfbd26e5d154e2da46e","study_id":"6197b3f67c2b5cd3b6d9596a","session_id":"6197b88b3f7fd8d270fb55fc","condition":"full-information","relevant_dimensions":["pattern","legs"],"bee_group":{"antennae":"X","wings":"X","pattern":"D","legs":"F"},"action":"avoid","summary":"good-avoid","bonus":0.06},{"rt":12039.199999999255,"stimulus":"\n                    <p><b>Action: <em>avoid</em></b></p>\n                    <p>This is the bee that you just saw.</p>\n                    <img src=\"bees-with-color/bee-B2DF.svg\" width=\"200\">\n                    <p><span class=\"greenText\">Good choice!</span>  This bee would have stung you.<br>Your bonus pay is unchanged, and remains at $0.56.</p>\n            ","response":0,"trial_type":"html-button-response","trial_index":16,"time_elapsed":1607012,"internal_node_id":"0.0-4.0-1.4","subject_id":"614f1bfbd26e5d154e2da46e","study_id":"6197b3f67c2b5cd3b6d9596a","session_id":"6197b88b3f7fd8d270fb55fc","condition":"full-information","relevant_dimensions":["pattern","legs"],"bee_group":{"antennae":"X","wings":"X","pattern":"D","legs":"F"},"bonus":0.06},{"rt":6552.199999999255,"stimulus":"bees-with-color/bee-B1DM.svg","response":1,"trial_type":"image-button-response","trial_index":17,"time_elapsed":1613566,"internal_node_id":"0.0-4.0-0.5","subject_id":"614f1bfbd26e5d154e2da46e","study_id":"6197b3f67c2b5cd3b6d9596a","session_id":"6197b88b3f7fd8d270fb55fc","condition":"full-information","relevant_dimensions":["pattern","legs"],"bee_group":{"antennae":"X","wings":"X","pattern":"D","legs":"F"},"action":"avoid","summary":"bad-avoid","bonus":0.06},{"rt":2238.900000002235,"stimulus":"\n                    <p><b>Action: <em>avoid</em></b></p>\n                    <p>This is the bee that you just saw.</p>\n                    <img src=\"bees-with-color/bee-B1DM.svg\" width=\"200\">\n                    <p><span class=\"redText\">Bad choice,</span> the bee was friendly.<br>Your bonus pay is unchanged, and remains at $0.56.</p>\n            ","response":0,"trial_type":"html-button-response","trial_index":18,"time_elapsed":1615806,"internal_node_id":"0.0-4.0-1.5","subject_id":"614f1bfbd26e5d154e2da46e","study_id":"6197b3f67c2b5cd3b6d9596a","session_id":"6197b88b3f7fd8d270fb55fc","condition":"full-information","relevant_dimensions":["pattern","legs"],"bee_group":{"antennae":"X","wings":"X","pattern":"D","legs":"F"},"bonus":0.06},{"rt":3670.60000000149,"stimulus":"bees-with-color/bee-B2SF.svg","response":1,"trial_type":"image-button-response","trial_index":19,"time_elapsed":1619478,"internal_node_id":"0.0-4.0-0.6","subject_id":"614f1bfbd26e5d154e2da46e","study_id":"6197b3f67c2b5cd3b6d9596a","session_id":"6197b88b3f7fd8d270fb55fc","condition":"full-information","relevant_dimensions":["pattern","legs"],"bee_group":{"antennae":"X","wings":"X","pattern":"D","legs":"F"},"action":"avoid","summary":"bad-avoid","bonus":0.06},{"rt":3243.10000000149,"stimulus":"\n                    <p><b>Action: <em>avoid</em></b></p>\n                    <p>This is the bee that you just saw.</p>\n                    <img src=\"bees-with-color/bee-B2SF.svg\" width=\"200\">\n                    <p><span class=\"redText\">Bad choice,</span> the bee was friendly.<br>Your bonus pay is unchanged, and remains at $0.56.</p>\n            ","response":0,"trial_type":"html-button-response","trial_index":20,"time_elapsed":1622722,"internal_node_id":"0.0-4.0-1.6","subject_id":"614f1bfbd26e5d154e2da46e","study_id":"6197b3f67c2b5cd3b6d9596a","session_id":"6197b88b3f7fd8d270fb55fc","condition":"full-information","relevant_dimensions":["pattern","legs"],"bee_group":{"antennae":"X","wings":"X","pattern":"D","legs":"F"},"bonus":0.06},{"rt":8063.900000002235,"stimulus":"bees-with-color/bee-A2DF.svg","response":0,"trial_type":"image-button-response","trial_index":21,"time_elapsed":1630787,"internal_node_id":"0.0-4.0-0.7","subject_id":"614f1bfbd26e5d154e2da46e","study_id":"6197b3f67c2b5cd3b6d9596a","session_id":"6197b88b3f7fd8d270fb55fc","condition":"full-information","relevant_dimensions":["pattern","legs"],"bee_group":{"antennae":"X","wings":"X","pattern":"D","legs":"F"},"action":"harvest","summary":"bad-harvest","bonus":0.06},{"rt":2620.800000000745,"stimulus":"\n                    <p><b>Action: <em>harvest</em></b></p>\n                    <p>This is the bee that you just saw.</p>\n                    <img src=\"bees-with-color/bee-A2DF.svg\" width=\"200\">\n                    <p><span class=\"redText\">Bad choice, the bee was angry.</span><br><b>You have been stung!</b><br>Your pay has been decreased by $0.10. Your bonus pay is now $0.46.</p>\n            ","response":0,"trial_type":"html-button-response","trial_index":22,"time_elapsed":1633409,"internal_node_id":"0.0-4.0-1.7","subject_id":"614f1bfbd26e5d154e2da46e","study_id":"6197b3f67c2b5cd3b6d9596a","session_id":"6197b88b3f7fd8d270fb55fc","condition":"full-information","relevant_dimensions":["pattern","legs"],"bee_group":{"antennae":"X","wings":"X","pattern":"D","legs":"F"},"bonus":0.06},{"rt":1756.800000000745,"stimulus":"bees-with-color/bee-B2DM.svg","response":0,"trial_type":"image-button-response","trial_index":23,"time_elapsed":1635167,"internal_node_id":"0.0-4.0-0.8","subject_id":"614f1bfbd26e5d154e2da46e","study_id":"6197b3f67c2b5cd3b6d9596a","session_id":"6197b88b3f7fd8d270fb55fc","condition":"full-information","relevant_dimensions":["pattern","legs"],"bee_group":{"antennae":"X","wings":"X","pattern":"D","legs":"F"},"action":"harvest","summary":"good-harvest","bonus":0.06},{"rt":2611.2000000029802,"stimulus":"\n                    <p><b>Action: <em>harvest</em></b></p>\n                    <p>This is the bee that you just saw.</p>\n                    <img src=\"bees-with-color/bee-B2DM.svg\" width=\"200\">\n                    <p><span class=\"greenText\"><b>Successful harvest!</b></span><br>Your pay has increased by $0.02. Your bonus pay is now $0.48.</p>\n            ","response":0,"trial_type":"html-button-response","trial_index":24,"time_elapsed":1637780,"internal_node_id":"0.0-4.0-1.8","subject_id":"614f1bfbd26e5d154e2da46e","study_id":"6197b3f67c2b5cd3b6d9596a","session_id":"6197b88b3f7fd8d270fb55fc","condition":"full-information","relevant_dimensions":["pattern","legs"],"bee_group":{"antennae":"X","wings":"X","pattern":"D","legs":"F"},"bonus":0.06},{"rt":1612.5999999977648,"stimulus":"bees-with-color/bee-A1DF.svg","response":0,"trial_type":"image-button-response","trial_index":25,"time_elapsed":1639393,"internal_node_id":"0.0-4.0-0.9","subject_id":"614f1bfbd26e5d154e2da46e","study_id":"6197b3f67c2b5cd3b6d9596a","session_id":"6197b88b3f7fd8d270fb55fc","condition":"full-information","relevant_dimensions":["pattern","legs"],"bee_group":{"antennae":"X","wings":"X","pattern":"D","legs":"F"},"action":"harvest","summary":"bad-harvest","bonus":0.06},{"rt":1263.4000000022352,"stimulus":"\n                    <p><b>Action: <em>harvest</em></b></p>\n                    <p>This is the bee that you just saw.</p>\n                    <img src=\"bees-with-color/bee-A1DF.svg\" width=\"200\">\n                    <p><span class=\"redText\">Bad choice, the bee was angry.</span><br><b>You have been stung!</b><br>Your pay has been decreased by $0.10. Your bonus pay is now $0.38.</p>\n            ","response":0,"trial_type":"html-button-response","trial_index":26,"time_elapsed":1640658,"internal_node_id":"0.0-4.0-1.9","subject_id":"614f1bfbd26e5d154e2da46e","study_id":"6197b3f67c2b5cd3b6d9596a","session_id":"6197b88b3f7fd8d270fb55fc","condition":"full-information","relevant_dimensions":["pattern","legs"],"bee_group":{"antennae":"X","wings":"X","pattern":"D","legs":"F"},"bonus":0.06},{"rt":1507,"stimulus":"bees-with-color/bee-A2SF.svg","response":1,"trial_type":"image-button-response","trial_index":27,"time_elapsed":1642166,"internal_node_id":"0.0-4.0-0.10","subject_id":"614f1bfbd26e5d154e2da46e","study_id":"6197b3f67c2b5cd3b6d9596a","session_id":"6197b88b3f7fd8d270fb55fc","condition":"full-information","relevant_dimensions":["pattern","legs"],"bee_group":{"antennae":"X","wings":"X","pattern":"D","legs":"F"},"action":"avoid","summary":"bad-avoid","bonus":0.06},{"rt":1408.800000000745,"stimulus":"\n                    <p><b>Action: <em>avoid</em></b></p>\n                    <p>This is the bee that you just saw.</p>\n                    <img src=\"bees-with-color/bee-A2SF.svg\" width=\"200\">\n                    <p><span class=\"redText\">Bad choice,</span> the bee was friendly.<br>Your bonus pay is unchanged, and remains at $0.38.</p>\n            ","response":0,"trial_type":"html-button-response","trial_index":28,"time_elapsed":1643575,"internal_node_id":"0.0-4.0-1.10","subject_id":"614f1bfbd26e5d154e2da46e","study_id":"6197b3f67c2b5cd3b6d9596a","session_id":"6197b88b3f7fd8d270fb55fc","condition":"full-information","relevant_dimensions":["pattern","legs"],"bee_group":{"antennae":"X","wings":"X","pattern":"D","legs":"F"},"bonus":0.06},{"rt":3908.800000000745,"stimulus":"bees-with-color/bee-B1SM.svg","response":1,"trial_type":"image-button-response","trial_index":29,"time_elapsed":1647485,"internal_node_id":"0.0-4.0-0.11","subject_id":"614f1bfbd26e5d154e2da46e","study_id":"6197b3f67c2b5cd3b6d9596a","session_id":"6197b88b3f7fd8d270fb55fc","condition":"full-information","relevant_dimensions":["pattern","legs"],"bee_group":{"antennae":"X","wings":"X","pattern":"D","legs":"F"},"action":"avoid","summary":"bad-avoid","bonus":0.06},{"rt":1390.9000000022352,"stimulus":"\n                    <p><b>Action: <em>avoid</em></b></p>\n                    <p>This is the bee that you just saw.</p>\n                    <img src=\"bees-with-color/bee-B1SM.svg\" width=\"200\">\n                    <p><span class=\"redText\">Bad choice,</span> the bee was friendly.<br>Your bonus pay is unchanged, and remains at $0.38.</p>\n            ","response":0,"trial_type":"html-button-response","trial_index":30,"time_elapsed":1648877,"internal_node_id":"0.0-4.0-1.11","subject_id":"614f1bfbd26e5d154e2da46e","study_id":"6197b3f67c2b5cd3b6d9596a","session_id":"6197b88b3f7fd8d270fb55fc","condition":"full-information","relevant_dimensions":["pattern","legs"],"bee_group":{"antennae":"X","wings":"X","pattern":"D","legs":"F"},"bonus":0.06},{"rt":5051.39999999851,"stimulus":"bees-with-color/bee-A1SM.svg","response":0,"trial_type":"image-button-response","trial_index":31,"time_elapsed":1653930,"internal_node_id":"0.0-4.0-0.12","subject_id":"614f1bfbd26e5d154e2da46e","study_id":"6197b3f67c2b5cd3b6d9596a","session_id":"6197b88b3f7fd8d270fb55fc","condition":"full-information","relevant_dimensions":["pattern","legs"],"bee_group":{"antennae":"X","wings":"X","pattern":"D","legs":"F"},"action":"harvest","summary":"good-harvest","bonus":0.06},{"rt":1527.800000000745,"stimulus":"\n                    <p><b>Action: <em>harvest</em></b></p>\n                    <p>This is the bee that you just saw.</p>\n                    <img src=\"bees-with-color/bee-A1SM.svg\" width=\"200\">\n                    <p><span class=\"greenText\"><b>Successful harvest!</b></span><br>Your pay has increased by $0.02. Your bonus pay is now $0.40.</p>\n            ","response":0,"trial_type":"html-button-response","trial_index":32,"time_elapsed":1655459,"internal_node_id":"0.0-4.0-1.12","subject_id":"614f1bfbd26e5d154e2da46e","study_id":"6197b3f67c2b5cd3b6d9596a","session_id":"6197b88b3f7fd8d270fb55fc","condition":"full-information","relevant_dimensions":["pattern","legs"],"bee_group":{"antennae":"X","wings":"X","pattern":"D","legs":"F"},"bonus":0.06},{"rt":1592.9000000022352,"stimulus":"bees-with-color/bee-B2SM.svg","response":1,"trial_type":"image-button-response","trial_index":33,"time_elapsed":1657053,"internal_node_id":"0.0-4.0-0.13","subject_id":"614f1bfbd26e5d154e2da46e","study_id":"6197b3f67c2b5cd3b6d9596a","session_id":"6197b88b3f7fd8d270fb55fc","condition":"full-information","relevant_dimensions":["pattern","legs"],"bee_group":{"antennae":"X","wings":"X","pattern":"D","legs":"F"},"action":"avoid","summary":"bad-avoid","bonus":0.06},{"rt":507.1000000014901,"stimulus":"\n                    <p><b>Action: <em>avoid</em></b></p>\n                    <p>This is the bee that you just saw.</p>\n                    <img src=\"bees-with-color/bee-B2SM.svg\" width=\"200\">\n                    <p><span class=\"redText\">Bad choice,</span> the bee was friendly.<br>Your bonus pay is unchanged, and remains at $0.40.</p>\n            ","response":0,"trial_type":"html-button-response","trial_index":34,"time_elapsed":1657561,"internal_node_id":"0.0-4.0-1.13","subject_id":"614f1bfbd26e5d154e2da46e","study_id":"6197b3f67c2b5cd3b6d9596a","session_id":"6197b88b3f7fd8d270fb55fc","condition":"full-information","relevant_dimensions":["pattern","legs"],"bee_group":{"antennae":"X","wings":"X","pattern":"D","legs":"F"},"bonus":0.06},{"rt":2667.300000000745,"stimulus":"bees-with-color/bee-B1DF.svg","response":0,"trial_type":"image-button-response","trial_index":35,"time_elapsed":1660229,"internal_node_id":"0.0-4.0-0.14","subject_id":"614f1bfbd26e5d154e2da46e","study_id":"6197b3f67c2b5cd3b6d9596a","session_id":"6197b88b3f7fd8d270fb55fc","condition":"full-information","relevant_dimensions":["pattern","legs"],"bee_group":{"antennae":"X","wings":"X","pattern":"D","legs":"F"},"action":"harvest","summary":"bad-harvest","bonus":0.06},{"rt":1019.1999999992549,"stimulus":"\n                    <p><b>Action: <em>harvest</em></b></p>\n                    <p>This is the bee that you just saw.</p>\n                    <img src=\"bees-with-color/bee-B1DF.svg\" width=\"200\">\n                    <p><span class=\"redText\">Bad choice, the bee was angry.</span><br><b>You have been stung!</b><br>Your pay has been decreased by $0.10. Your bonus pay is now $0.30.</p>\n            ","response":0,"trial_type":"html-button-response","trial_index":36,"time_elapsed":1661249,"internal_node_id":"0.0-4.0-1.14","subject_id":"614f1bfbd26e5d154e2da46e","study_id":"6197b3f67c2b5cd3b6d9596a","session_id":"6197b88b3f7fd8d270fb55fc","condition":"full-information","relevant_dimensions":["pattern","legs"],"bee_group":{"antennae":"X","wings":"X","pattern":"D","legs":"F"},"bonus":0.06},{"rt":2183.199999999255,"stimulus":"bees-with-color/bee-A1SF.svg","response":1,"trial_type":"image-button-response","trial_index":37,"time_elapsed":1663433,"internal_node_id":"0.0-4.0-0.15","subject_id":"614f1bfbd26e5d154e2da46e","study_id":"6197b3f67c2b5cd3b6d9596a","session_id":"6197b88b3f7fd8d270fb55fc","condition":"full-information","relevant_dimensions":["pattern","legs"],"bee_group":{"antennae":"X","wings":"X","pattern":"D","legs":"F"},"action":"avoid","summary":"bad-avoid","bonus":0.06},{"rt":1385.300000000745,"stimulus":"\n                    <p><b>Action: <em>avoid</em></b></p>\n                    <p>This is the bee that you just saw.</p>\n                    <img src=\"bees-with-color/bee-A1SF.svg\" width=\"200\">\n                    <p><span class=\"redText\">Bad choice,</span> the bee was friendly.<br>Your bonus pay is unchanged, and remains at $0.30.</p>\n            ","response":0,"trial_type":"html-button-response","trial_index":38,"time_elapsed":1664820,"internal_node_id":"0.0-4.0-1.15","subject_id":"614f1bfbd26e5d154e2da46e","study_id":"6197b3f67c2b5cd3b6d9596a","session_id":"6197b88b3f7fd8d270fb55fc","condition":"full-information","relevant_dimensions":["pattern","legs"],"bee_group":{"antennae":"X","wings":"X","pattern":"D","legs":"F"},"bonus":0.06},{"rt":3354.2000000029802,"stimulus":"bees-with-color/bee-A2SM.svg","response":0,"trial_type":"image-button-response","trial_index":39,"time_elapsed":1668175,"internal_node_id":"0.0-4.0-0.16","subject_id":"614f1bfbd26e5d154e2da46e","study_id":"6197b3f67c2b5cd3b6d9596a","session_id":"6197b88b3f7fd8d270fb55fc","condition":"full-information","relevant_dimensions":["pattern","legs"],"bee_group":{"antennae":"X","wings":"X","pattern":"D","legs":"F"},"action":"harvest","summary":"good-harvest","bonus":0.06},{"rt":988.8999999985099,"stimulus":"\n                    <p><b>Action: <em>harvest</em></b></p>\n                    <p>This is the bee that you just saw.</p>\n                    <img src=\"bees-with-color/bee-A2SM.svg\" width=\"200\">\n                    <p><span class=\"greenText\"><b>Successful harvest!</b></span><br>Your pay has increased by $0.02. Your bonus pay is now $0.32.</p>\n            ","response":0,"trial_type":"html-button-response","trial_index":40,"time_elapsed":1669165,"internal_node_id":"0.0-4.0-1.16","subject_id":"614f1bfbd26e5d154e2da46e","study_id":"6197b3f67c2b5cd3b6d9596a","session_id":"6197b88b3f7fd8d270fb55fc","condition":"full-information","relevant_dimensions":["pattern","legs"],"bee_group":{"antennae":"X","wings":"X","pattern":"D","legs":"F"},"bonus":0.06},{"rt":4621,"stimulus":"bees-with-color/bee-A1SM.svg","response":0,"trial_type":"image-button-response","trial_index":41,"time_elapsed":1673787,"internal_node_id":"0.0-4.0-0.17","subject_id":"614f1bfbd26e5d154e2da46e","study_id":"6197b3f67c2b5cd3b6d9596a","session_id":"6197b88b3f7fd8d270fb55fc","condition":"full-information","relevant_dimensions":["pattern","legs"],"bee_group":{"antennae":"X","wings":"X","pattern":"D","legs":"F"},"action":"harvest","summary":"good-harvest","bonus":0.06},{"rt":1009,"stimulus":"\n                    <p><b>Action: <em>harvest</em></b></p>\n                    <p>This is the bee that you just saw.</p>\n                    <img src=\"bees-with-color/bee-A1SM.svg\" width=\"200\">\n                    <p><span class=\"greenText\"><b>Successful harvest!</b></span><br>Your pay has increased by $0.02. Your bonus pay is now $0.34.</p>\n            ","response":0,"trial_type":"html-button-response","trial_index":42,"time_elapsed":1674797,"internal_node_id":"0.0-4.0-1.17","subject_id":"614f1bfbd26e5d154e2da46e","study_id":"6197b3f67c2b5cd3b6d9596a","session_id":"6197b88b3f7fd8d270fb55fc","condition":"full-information","relevant_dimensions":["pattern","legs"],"bee_group":{"antennae":"X","wings":"X","pattern":"D","legs":"F"},"bonus":0.06},{"rt":2621.39999999851,"stimulus":"bees-with-color/bee-A2DF.svg","response":1,"trial_type":"image-button-response","trial_index":43,"time_elapsed":1677420,"internal_node_id":"0.0-4.0-0.18","subject_id":"614f1bfbd26e5d154e2da46e","study_id":"6197b3f67c2b5cd3b6d9596a","session_id":"6197b88b3f7fd8d270fb55fc","condition":"full-information","relevant_dimensions":["pattern","legs"],"bee_group":{"antennae":"X","wings":"X","pattern":"D","legs":"F"},"action":"avoid","summary":"good-avoid","bonus":0.06},{"rt":1634.1000000014901,"stimulus":"\n                    <p><b>Action: <em>avoid</em></b></p>\n                    <p>This is the bee that you just saw.</p>\n                    <img src=\"bees-with-color/bee-A2DF.svg\" width=\"200\">\n                    <p><span class=\"greenText\">Good choice!</span>  This bee would have stung you.<br>Your bonus pay is unchanged, and remains at $0.34.</p>\n            ","response":0,"trial_type":"html-button-response","trial_index":44,"time_elapsed":1679055,"internal_node_id":"0.0-4.0-1.18","subject_id":"614f1bfbd26e5d154e2da46e","study_id":"6197b3f67c2b5cd3b6d9596a","session_id":"6197b88b3f7fd8d270fb55fc","condition":"full-information","relevant_dimensions":["pattern","legs"],"bee_group":{"antennae":"X","wings":"X","pattern":"D","legs":"F"},"bonus":0.06},{"rt":2070.599999997765,"stimulus":"bees-with-color/bee-B1DF.svg","response":0,"trial_type":"image-button-response","trial_index":45,"time_elapsed":1681127,"internal_node_id":"0.0-4.0-0.19","subject_id":"614f1bfbd26e5d154e2da46e","study_id":"6197b3f67c2b5cd3b6d9596a","session_id":"6197b88b3f7fd8d270fb55fc","condition":"full-information","relevant_dimensions":["pattern","legs"],"bee_group":{"antennae":"X","wings":"X","pattern":"D","legs":"F"},"action":"harvest","summary":"bad-harvest","bonus":0.06},{"rt":1131.1000000014901,"stimulus":"\n                    <p><b>Action: <em>harvest</em></b></p>\n                    <p>This is the bee that you just saw.</p>\n                    <img src=\"bees-with-color/bee-B1DF.svg\" width=\"200\">\n                    <p><span class=\"redText\">Bad choice, the bee was angry.</span><br><b>You have been stung!</b><br>Your pay has been decreased by $0.10. Your bonus pay is now $0.24.</p>\n            ","response":0,"trial_type":"html-button-response","trial_index":46,"time_elapsed":1682259,"internal_node_id":"0.0-4.0-1.19","subject_id":"614f1bfbd26e5d154e2da46e","study_id":"6197b3f67c2b5cd3b6d9596a","session_id":"6197b88b3f7fd8d270fb55fc","condition":"full-information","relevant_dimensions":["pattern","legs"],"bee_group":{"antennae":"X","wings":"X","pattern":"D","legs":"F"},"bonus":0.06},{"rt":5460.5,"stimulus":"bees-with-color/bee-B1DM.svg","response":0,"trial_type":"image-button-response","trial_index":47,"time_elapsed":1687721,"internal_node_id":"0.0-4.0-0.20","subject_id":"614f1bfbd26e5d154e2da46e","study_id":"6197b3f67c2b5cd3b6d9596a","session_id":"6197b88b3f7fd8d270fb55fc","condition":"full-information","relevant_dimensions":["pattern","legs"],"bee_group":{"antennae":"X","wings":"X","pattern":"D","legs":"F"},"action":"harvest","summary":"good-harvest","bonus":0.06},{"rt":965,"stimulus":"\n                    <p><b>Action: <em>harvest</em></b></p>\n                    <p>This is the bee that you just saw.</p>\n                    <img src=\"bees-with-color/bee-B1DM.svg\" width=\"200\">\n                    <p><span class=\"greenText\"><b>Successful harvest!</b></span><br>Your pay has increased by $0.02. Your bonus pay is now $0.26.</p>\n            ","response":0,"trial_type":"html-button-response","trial_index":48,"time_elapsed":1688688,"internal_node_id":"0.0-4.0-1.20","subject_id":"614f1bfbd26e5d154e2da46e","study_id":"6197b3f67c2b5cd3b6d9596a","session_id":"6197b88b3f7fd8d270fb55fc","condition":"full-information","relevant_dimensions":["pattern","legs"],"bee_group":{"antennae":"X","wings":"X","pattern":"D","legs":"F"},"bonus":0.06},{"rt":1473.5999999977648,"stimulus":"bees-with-color/bee-B1SM.svg","response":1,"trial_type":"image-button-response","trial_index":49,"time_elapsed":1690162,"internal_node_id":"0.0-4.0-0.21","subject_id":"614f1bfbd26e5d154e2da46e","study_id":"6197b3f67c2b5cd3b6d9596a","session_id":"6197b88b3f7fd8d270fb55fc","condition":"full-information","relevant_dimensions":["pattern","legs"],"bee_group":{"antennae":"X","wings":"X","pattern":"D","legs":"F"},"action":"avoid","summary":"bad-avoid","bonus":0.06},{"rt":648.5999999977648,"stimulus":"\n                    <p><b>Action: <em>avoid</em></b></p>\n                    <p>This is the bee that you just saw.</p>\n                    <img src=\"bees-with-color/bee-B1SM.svg\" width=\"200\">\n                    <p><span class=\"redText\">Bad choice,</span> the bee was friendly.<br>Your bonus pay is unchanged, and remains at $0.26.</p>\n            ","response":0,"trial_type":"html-button-response","trial_index":50,"time_elapsed":1690812,"internal_node_id":"0.0-4.0-1.21","subject_id":"614f1bfbd26e5d154e2da46e","study_id":"6197b3f67c2b5cd3b6d9596a","session_id":"6197b88b3f7fd8d270fb55fc","condition":"full-information","relevant_dimensions":["pattern","legs"],"bee_group":{"antennae":"X","wings":"X","pattern":"D","legs":"F"},"bonus":0.06},{"rt":2051.10000000149,"stimulus":"bees-with-color/bee-B2SM.svg","response":1,"trial_type":"image-button-response","trial_index":51,"time_elapsed":1692864,"internal_node_id":"0.0-4.0-0.22","subject_id":"614f1bfbd26e5d154e2da46e","study_id":"6197b3f67c2b5cd3b6d9596a","session_id":"6197b88b3f7fd8d270fb55fc","condition":"full-information","relevant_dimensions":["pattern","legs"],"bee_group":{"antennae":"X","wings":"X","pattern":"D","legs":"F"},"action":"avoid","summary":"bad-avoid","bonus":0.06},{"rt":561,"stimulus":"\n                    <p><b>Action: <em>avoid</em></b></p>\n                    <p>This is the bee that you just saw.</p>\n                    <img src=\"bees-with-color/bee-B2SM.svg\" width=\"200\">\n                    <p><span class=\"redText\">Bad choice,</span> the bee was friendly.<br>Your bonus pay is unchanged, and remains at $0.26.</p>\n            ","response":0,"trial_type":"html-button-response","trial_index":52,"time_elapsed":1693426,"internal_node_id":"0.0-4.0-1.22","subject_id":"614f1bfbd26e5d154e2da46e","study_id":"6197b3f67c2b5cd3b6d9596a","session_id":"6197b88b3f7fd8d270fb55fc","condition":"full-information","relevant_dimensions":["pattern","legs"],"bee_group":{"antennae":"X","wings":"X","pattern":"D","legs":"F"},"bonus":0.06},{"rt":1069.2000000029802,"stimulus":"bees-with-color/bee-B1SF.svg","response":1,"trial_type":"image-button-response","trial_index":53,"time_elapsed":1694496,"internal_node_id":"0.0-4.0-0.23","subject_id":"614f1bfbd26e5d154e2da46e","study_id":"6197b3f67c2b5cd3b6d9596a","session_id":"6197b88b3f7fd8d270fb55fc","condition":"full-information","relevant_dimensions":["pattern","legs"],"bee_group":{"antennae":"X","wings":"X","pattern":"D","legs":"F"},"action":"avoid","summary":"bad-avoid","bonus":0.06},{"rt":472.80000000074506,"stimulus":"\n                    <p><b>Action: <em>avoid</em></b></p>\n                    <p>This is the bee that you just saw.</p>\n                    <img src=\"bees-with-color/bee-B1SF.svg\" width=\"200\">\n                    <p><span class=\"redText\">Bad choice,</span> the bee was friendly.<br>Your bonus pay is unchanged, and remains at $0.26.</p>\n            ","response":0,"trial_type":"html-button-response","trial_index":54,"time_elapsed":1694970,"internal_node_id":"0.0-4.0-1.23","subject_id":"614f1bfbd26e5d154e2da46e","study_id":"6197b3f67c2b5cd3b6d9596a","session_id":"6197b88b3f7fd8d270fb55fc","condition":"full-information","relevant_dimensions":["pattern","legs"],"bee_group":{"antennae":"X","wings":"X","pattern":"D","legs":"F"},"bonus":0.06},{"rt":3967.199999999255,"stimulus":"bees-with-color/bee-B2DM.svg","response":0,"trial_type":"image-button-response","trial_index":55,"time_elapsed":1698938,"internal_node_id":"0.0-4.0-0.24","subject_id":"614f1bfbd26e5d154e2da46e","study_id":"6197b3f67c2b5cd3b6d9596a","session_id":"6197b88b3f7fd8d270fb55fc","condition":"full-information","relevant_dimensions":["pattern","legs"],"bee_group":{"antennae":"X","wings":"X","pattern":"D","legs":"F"},"action":"harvest","summary":"good-harvest","bonus":0.06},{"rt":774.8999999985099,"stimulus":"\n                    <p><b>Action: <em>harvest</em></b></p>\n                    <p>This is the bee that you just saw.</p>\n                    <img src=\"bees-with-color/bee-B2DM.svg\" width=\"200\">\n                    <p><span class=\"greenText\"><b>Successful harvest!</b></span><br>Your pay has increased by $0.02. Your bonus pay is now $0.28.</p>\n            ","response":0,"trial_type":"html-button-response","trial_index":56,"time_elapsed":1699714,"internal_node_id":"0.0-4.0-1.24","subject_id":"614f1bfbd26e5d154e2da46e","study_id":"6197b3f67c2b5cd3b6d9596a","session_id":"6197b88b3f7fd8d270fb55fc","condition":"full-information","relevant_dimensions":["pattern","legs"],"bee_group":{"antennae":"X","wings":"X","pattern":"D","legs":"F"},"bonus":0.06},{"rt":4735.39999999851,"stimulus":"bees-with-color/bee-A1SF.svg","response":0,"trial_type":"image-button-response","trial_index":57,"time_elapsed":1704451,"internal_node_id":"0.0-4.0-0.25","subject_id":"614f1bfbd26e5d154e2da46e","study_id":"6197b3f67c2b5cd3b6d9596a","session_id":"6197b88b3f7fd8d270fb55fc","condition":"full-information","relevant_dimensions":["pattern","legs"],"bee_group":{"antennae":"X","wings":"X","pattern":"D","legs":"F"},"action":"harvest","summary":"good-harvest","bonus":0.06},{"rt":856.4000000022352,"stimulus":"\n                    <p><b>Action: <em>harvest</em></b></p>\n                    <p>This is the bee that you just saw.</p>\n                    <img src=\"bees-with-color/bee-A1SF.svg\" width=\"200\">\n                    <p><span class=\"greenText\"><b>Successful harvest!</b></span><br>Your pay has increased by $0.02. Your bonus pay is now $0.30.</p>\n            ","response":0,"trial_type":"html-button-response","trial_index":58,"time_elapsed":1705308,"internal_node_id":"0.0-4.0-1.25","subject_id":"614f1bfbd26e5d154e2da46e","study_id":"6197b3f67c2b5cd3b6d9596a","session_id":"6197b88b3f7fd8d270fb55fc","condition":"full-information","relevant_dimensions":["pattern","legs"],"bee_group":{"antennae":"X","wings":"X","pattern":"D","legs":"F"},"bonus":0.06},{"rt":3317,"stimulus":"bees-with-color/bee-A1DM.svg","response":0,"trial_type":"image-button-response","trial_index":59,"time_elapsed":1708626,"internal_node_id":"0.0-4.0-0.26","subject_id":"614f1bfbd26e5d154e2da46e","study_id":"6197b3f67c2b5cd3b6d9596a","session_id":"6197b88b3f7fd8d270fb55fc","condition":"full-information","relevant_dimensions":["pattern","legs"],"bee_group":{"antennae":"X","wings":"X","pattern":"D","legs":"F"},"action":"harvest","summary":"good-harvest","bonus":0.06},{"rt":765,"stimulus":"\n                    <p><b>Action: <em>harvest</em></b></p>\n                    <p>This is the bee that you just saw.</p>\n                    <img src=\"bees-with-color/bee-A1DM.svg\" width=\"200\">\n                    <p><span class=\"greenText\"><b>Successful harvest!</b></span><br>Your pay has increased by $0.02. Your bonus pay is now $0.32.</p>\n            ","response":0,"trial_type":"html-button-response","trial_index":60,"time_elapsed":1709392,"internal_node_id":"0.0-4.0-1.26","subject_id":"614f1bfbd26e5d154e2da46e","study_id":"6197b3f67c2b5cd3b6d9596a","session_id":"6197b88b3f7fd8d270fb55fc","condition":"full-information","relevant_dimensions":["pattern","legs"],"bee_group":{"antennae":"X","wings":"X","pattern":"D","legs":"F"},"bonus":0.06},{"rt":3399.10000000149,"stimulus":"bees-with-color/bee-A1DF.svg","response":1,"trial_type":"image-button-response","trial_index":61,"time_elapsed":1712792,"internal_node_id":"0.0-4.0-0.27","subject_id":"614f1bfbd26e5d154e2da46e","study_id":"6197b3f67c2b5cd3b6d9596a","session_id":"6197b88b3f7fd8d270fb55fc","condition":"full-information","relevant_dimensions":["pattern","legs"],"bee_group":{"antennae":"X","wings":"X","pattern":"D","legs":"F"},"action":"avoid","summary":"good-avoid","bonus":0.06},{"rt":939.4000000022352,"stimulus":"\n                    <p><b>Action: <em>avoid</em></b></p>\n                    <p>This is the bee that you just saw.</p>\n                    <img src=\"bees-with-color/bee-A1DF.svg\" width=\"200\">\n                    <p><span class=\"greenText\">Good choice!</span>  This bee would have stung you.<br>Your bonus pay is unchanged, and remains at $0.32.</p>\n            ","response":0,"trial_type":"html-button-response","trial_index":62,"time_elapsed":1713733,"internal_node_id":"0.0-4.0-1.27","subject_id":"614f1bfbd26e5d154e2da46e","study_id":"6197b3f67c2b5cd3b6d9596a","session_id":"6197b88b3f7fd8d270fb55fc","condition":"full-information","relevant_dimensions":["pattern","legs"],"bee_group":{"antennae":"X","wings":"X","pattern":"D","legs":"F"},"bonus":0.06},{"rt":5175.60000000149,"stimulus":"bees-with-color/bee-A2SF.svg","response":1,"trial_type":"image-button-response","trial_index":63,"time_elapsed":1718910,"internal_node_id":"0.0-4.0-0.28","subject_id":"614f1bfbd26e5d154e2da46e","study_id":"6197b3f67c2b5cd3b6d9596a","session_id":"6197b88b3f7fd8d270fb55fc","condition":"full-information","relevant_dimensions":["pattern","legs"],"bee_group":{"antennae":"X","wings":"X","pattern":"D","legs":"F"},"action":"avoid","summary":"bad-avoid","bonus":0.06},{"rt":685.3000000007451,"stimulus":"\n                    <p><b>Action: <em>avoid</em></b></p>\n                    <p>This is the bee that you just saw.</p>\n                    <img src=\"bees-with-color/bee-A2SF.svg\" width=\"200\">\n                    <p><span class=\"redText\">Bad choice,</span> the bee was friendly.<br>Your bonus pay is unchanged, and remains at $0.32.</p>\n            ","response":0,"trial_type":"html-button-response","trial_index":64,"time_elapsed":1719597,"internal_node_id":"0.0-4.0-1.28","subject_id":"614f1bfbd26e5d154e2da46e","study_id":"6197b3f67c2b5cd3b6d9596a","session_id":"6197b88b3f7fd8d270fb55fc","condition":"full-information","relevant_dimensions":["pattern","legs"],"bee_group":{"antennae":"X","wings":"X","pattern":"D","legs":"F"},"bonus":0.06},{"rt":1972.300000000745,"stimulus":"bees-with-color/bee-B2SF.svg","response":1,"trial_type":"image-button-response","trial_index":65,"time_elapsed":1721570,"internal_node_id":"0.0-4.0-0.29","subject_id":"614f1bfbd26e5d154e2da46e","study_id":"6197b3f67c2b5cd3b6d9596a","session_id":"6197b88b3f7fd8d270fb55fc","condition":"full-information","relevant_dimensions":["pattern","legs"],"bee_group":{"antennae":"X","wings":"X","pattern":"D","legs":"F"},"action":"avoid","summary":"bad-avoid","bonus":0.06},{"rt":516.8000000007451,"stimulus":"\n                    <p><b>Action: <em>avoid</em></b></p>\n                    <p>This is the bee that you just saw.</p>\n                    <img src=\"bees-with-color/bee-B2SF.svg\" width=\"200\">\n                    <p><span class=\"redText\">Bad choice,</span> the bee was friendly.<br>Your bonus pay is unchanged, and remains at $0.32.</p>\n            ","response":0,"trial_type":"html-button-response","trial_index":66,"time_elapsed":1722088,"internal_node_id":"0.0-4.0-1.29","subject_id":"614f1bfbd26e5d154e2da46e","study_id":"6197b3f67c2b5cd3b6d9596a","session_id":"6197b88b3f7fd8d270fb55fc","condition":"full-information","relevant_dimensions":["pattern","legs"],"bee_group":{"antennae":"X","wings":"X","pattern":"D","legs":"F"},"bonus":0.06},{"rt":6239,"stimulus":"bees-with-color/bee-A2DM.svg","response":0,"trial_type":"image-button-response","trial_index":67,"time_elapsed":1728328,"internal_node_id":"0.0-4.0-0.30","subject_id":"614f1bfbd26e5d154e2da46e","study_id":"6197b3f67c2b5cd3b6d9596a","session_id":"6197b88b3f7fd8d270fb55fc","condition":"full-information","relevant_dimensions":["pattern","legs"],"bee_group":{"antennae":"X","wings":"X","pattern":"D","legs":"F"},"action":"harvest","summary":"good-harvest","bonus":0.06},{"rt":831,"stimulus":"\n                    <p><b>Action: <em>harvest</em></b></p>\n                    <p>This is the bee that you just saw.</p>\n                    <img src=\"bees-with-color/bee-A2DM.svg\" width=\"200\">\n                    <p><span class=\"greenText\"><b>Successful harvest!</b></span><br>Your pay has increased by $0.02. Your bonus pay is now $0.34.</p>\n            ","response":0,"trial_type":"html-button-response","trial_index":68,"time_elapsed":1729160,"internal_node_id":"0.0-4.0-1.30","subject_id":"614f1bfbd26e5d154e2da46e","study_id":"6197b3f67c2b5cd3b6d9596a","session_id":"6197b88b3f7fd8d270fb55fc","condition":"full-information","relevant_dimensions":["pattern","legs"],"bee_group":{"antennae":"X","wings":"X","pattern":"D","legs":"F"},"bonus":0.06},{"rt":1170.699999999255,"stimulus":"bees-with-color/bee-B2DF.svg","response":1,"trial_type":"image-button-response","trial_index":69,"time_elapsed":1730332,"internal_node_id":"0.0-4.0-0.31","subject_id":"614f1bfbd26e5d154e2da46e","study_id":"6197b3f67c2b5cd3b6d9596a","session_id":"6197b88b3f7fd8d270fb55fc","condition":"full-information","relevant_dimensions":["pattern","legs"],"bee_group":{"antennae":"X","wings":"X","pattern":"D","legs":"F"},"action":"avoid","summary":"good-avoid","bonus":0.06},{"rt":739,"stimulus":"\n                    <p><b>Action: <em>avoid</em></b></p>\n                    <p>This is the bee that you just saw.</p>\n                    <img src=\"bees-with-color/bee-B2DF.svg\" width=\"200\">\n                    <p><span class=\"greenText\">Good choice!</span>  This bee would have stung you.<br>Your bonus pay is unchanged, and remains at $0.34.</p>\n            ","response":0,"trial_type":"html-button-response","trial_index":70,"time_elapsed":1731072,"internal_node_id":"0.0-4.0-1.31","subject_id":"614f1bfbd26e5d154e2da46e","study_id":"6197b3f67c2b5cd3b6d9596a","session_id":"6197b88b3f7fd8d270fb55fc","condition":"full-information","relevant_dimensions":["pattern","legs"],"bee_group":{"antennae":"X","wings":"X","pattern":"D","legs":"F"},"bonus":0.06},{"rt":2433.10000000149,"stimulus":"bees-with-color/bee-A2SF.svg","response":1,"trial_type":"image-button-response","trial_index":71,"time_elapsed":1733506,"internal_node_id":"0.0-4.0-0.32","subject_id":"614f1bfbd26e5d154e2da46e","study_id":"6197b3f67c2b5cd3b6d9596a","session_id":"6197b88b3f7fd8d270fb55fc","condition":"full-information","relevant_dimensions":["pattern","legs"],"bee_group":{"antennae":"X","wings":"X","pattern":"D","legs":"F"},"action":"avoid","summary":"bad-avoid","bonus":0.06},{"rt":510.5,"stimulus":"\n                    <p><b>Action: <em>avoid</em></b></p>\n                    <p>This is the bee that you just saw.</p>\n                    <img src=\"bees-with-color/bee-A2SF.svg\" width=\"200\">\n                    <p><span class=\"redText\">Bad choice,</span> the bee was friendly.<br>Your bonus pay is unchanged, and remains at $0.34.</p>\n            ","response":0,"trial_type":"html-button-response","trial_index":72,"time_elapsed":1734018,"internal_node_id":"0.0-4.0-1.32","subject_id":"614f1bfbd26e5d154e2da46e","study_id":"6197b3f67c2b5cd3b6d9596a","session_id":"6197b88b3f7fd8d270fb55fc","condition":"full-information","relevant_dimensions":["pattern","legs"],"bee_group":{"antennae":"X","wings":"X","pattern":"D","legs":"F"},"bonus":0.06},{"rt":1623.2999999970198,"stimulus":"bees-with-color/bee-B2DF.svg","response":0,"trial_type":"image-button-response","trial_index":73,"time_elapsed":1735642,"internal_node_id":"0.0-4.0-0.33","subject_id":"614f1bfbd26e5d154e2da46e","study_id":"6197b3f67c2b5cd3b6d9596a","session_id":"6197b88b3f7fd8d270fb55fc","condition":"full-information","relevant_dimensions":["pattern","legs"],"bee_group":{"antennae":"X","wings":"X","pattern":"D","legs":"F"},"action":"harvest","summary":"bad-harvest","bonus":0.06},{"rt":1180.5,"stimulus":"\n                    <p><b>Action: <em>harvest</em></b></p>\n                    <p>This is the bee that you just saw.</p>\n                    <img src=\"bees-with-color/bee-B2DF.svg\" width=\"200\">\n                    <p><span class=\"redText\">Bad choice, the bee was angry.</span><br><b>You have been stung!</b><br>Your pay has been decreased by $0.10. Your bonus pay is now $0.24.</p>\n            ","response":0,"trial_type":"html-button-response","trial_index":74,"time_elapsed":1736825,"internal_node_id":"0.0-4.0-1.33","subject_id":"614f1bfbd26e5d154e2da46e","study_id":"6197b3f67c2b5cd3b6d9596a","session_id":"6197b88b3f7fd8d270fb55fc","condition":"full-information","relevant_dimensions":["pattern","legs"],"bee_group":{"antennae":"X","wings":"X","pattern":"D","legs":"F"},"bonus":0.06},{"rt":3012.300000000745,"stimulus":"bees-with-color/bee-A1DM.svg","response":0,"trial_type":"image-button-response","trial_index":75,"time_elapsed":1739838,"internal_node_id":"0.0-4.0-0.34","subject_id":"614f1bfbd26e5d154e2da46e","study_id":"6197b3f67c2b5cd3b6d9596a","session_id":"6197b88b3f7fd8d270fb55fc","condition":"full-information","relevant_dimensions":["pattern","legs"],"bee_group":{"antennae":"X","wings":"X","pattern":"D","legs":"F"},"action":"harvest","summary":"good-harvest","bonus":0.06},{"rt":598.6000000014901,"stimulus":"\n                    <p><b>Action: <em>harvest</em></b></p>\n                    <p>This is the bee that you just saw.</p>\n                    <img src=\"bees-with-color/bee-A1DM.svg\" width=\"200\">\n                    <p><span class=\"greenText\"><b>Successful harvest!</b></span><br>Your pay has increased by $0.02. Your bonus pay is now $0.26.</p>\n            ","response":0,"trial_type":"html-button-response","trial_index":76,"time_elapsed":1740438,"internal_node_id":"0.0-4.0-1.34","subject_id":"614f1bfbd26e5d154e2da46e","study_id":"6197b3f67c2b5cd3b6d9596a","session_id":"6197b88b3f7fd8d270fb55fc","condition":"full-information","relevant_dimensions":["pattern","legs"],"bee_group":{"antennae":"X","wings":"X","pattern":"D","legs":"F"},"bonus":0.06},{"rt":1385.199999999255,"stimulus":"bees-with-color/bee-B1SM.svg","response":0,"trial_type":"image-button-response","trial_index":77,"time_elapsed":1741824,"internal_node_id":"0.0-4.0-0.35","subject_id":"614f1bfbd26e5d154e2da46e","study_id":"6197b3f67c2b5cd3b6d9596a","session_id":"6197b88b3f7fd8d270fb55fc","condition":"full-information","relevant_dimensions":["pattern","legs"],"bee_group":{"antennae":"X","wings":"X","pattern":"D","legs":"F"},"action":"harvest","summary":"good-harvest","bonus":0.06},{"rt":710.8000000007451,"stimulus":"\n                    <p><b>Action: <em>harvest</em></b></p>\n                    <p>This is the bee that you just saw.</p>\n                    <img src=\"bees-with-color/bee-B1SM.svg\" width=\"200\">\n                    <p><span class=\"greenText\"><b>Successful harvest!</b></span><br>Your pay has increased by $0.02. Your bonus pay is now $0.28.</p>\n            ","response":0,"trial_type":"html-button-response","trial_index":78,"time_elapsed":1742536,"internal_node_id":"0.0-4.0-1.35","subject_id":"614f1bfbd26e5d154e2da46e","study_id":"6197b3f67c2b5cd3b6d9596a","session_id":"6197b88b3f7fd8d270fb55fc","condition":"full-information","relevant_dimensions":["pattern","legs"],"bee_group":{"antennae":"X","wings":"X","pattern":"D","legs":"F"},"bonus":0.06},{"rt":2647.300000000745,"stimulus":"bees-with-color/bee-B1SF.svg","response":1,"trial_type":"image-button-response","trial_index":79,"time_elapsed":1745184,"internal_node_id":"0.0-4.0-0.36","subject_id":"614f1bfbd26e5d154e2da46e","study_id":"6197b3f67c2b5cd3b6d9596a","session_id":"6197b88b3f7fd8d270fb55fc","condition":"full-information","relevant_dimensions":["pattern","legs"],"bee_group":{"antennae":"X","wings":"X","pattern":"D","legs":"F"},"action":"avoid","summary":"bad-avoid","bonus":0.06},{"rt":612.6999999992549,"stimulus":"\n                    <p><b>Action: <em>avoid</em></b></p>\n                    <p>This is the bee that you just saw.</p>\n                    <img src=\"bees-with-color/bee-B1SF.svg\" width=\"200\">\n                    <p><span class=\"redText\">Bad choice,</span> the bee was friendly.<br>Your bonus pay is unchanged, and remains at $0.28.</p>\n            ","response":0,"trial_type":"html-button-response","trial_index":80,"time_elapsed":1745798,"internal_node_id":"0.0-4.0-1.36","subject_id":"614f1bfbd26e5d154e2da46e","study_id":"6197b3f67c2b5cd3b6d9596a","session_id":"6197b88b3f7fd8d270fb55fc","condition":"full-information","relevant_dimensions":["pattern","legs"],"bee_group":{"antennae":"X","wings":"X","pattern":"D","legs":"F"},"bonus":0.06},{"rt":2661.800000000745,"stimulus":"bees-with-color/bee-A1SM.svg","response":0,"trial_type":"image-button-response","trial_index":81,"time_elapsed":1748460,"internal_node_id":"0.0-4.0-0.37","subject_id":"614f1bfbd26e5d154e2da46e","study_id":"6197b3f67c2b5cd3b6d9596a","session_id":"6197b88b3f7fd8d270fb55fc","condition":"full-information","relevant_dimensions":["pattern","legs"],"bee_group":{"antennae":"X","wings":"X","pattern":"D","legs":"F"},"action":"harvest","summary":"good-harvest","bonus":0.06},{"rt":910.5,"stimulus":"\n                    <p><b>Action: <em>harvest</em></b></p>\n                    <p>This is the bee that you just saw.</p>\n                    <img src=\"bees-with-color/bee-A1SM.svg\" width=\"200\">\n                    <p><span class=\"greenText\"><b>Successful harvest!</b></span><br>Your pay has increased by $0.02. Your bonus pay is now $0.30.</p>\n            ","response":0,"trial_type":"html-button-response","trial_index":82,"time_elapsed":1749372,"internal_node_id":"0.0-4.0-1.37","subject_id":"614f1bfbd26e5d154e2da46e","study_id":"6197b3f67c2b5cd3b6d9596a","session_id":"6197b88b3f7fd8d270fb55fc","condition":"full-information","relevant_dimensions":["pattern","legs"],"bee_group":{"antennae":"X","wings":"X","pattern":"D","legs":"F"},"bonus":0.06},{"rt":2189.10000000149,"stimulus":"bees-with-color/bee-A2SM.svg","response":0,"trial_type":"image-button-response","trial_index":83,"time_elapsed":1751562,"internal_node_id":"0.0-4.0-0.38","subject_id":"614f1bfbd26e5d154e2da46e","study_id":"6197b3f67c2b5cd3b6d9596a","session_id":"6197b88b3f7fd8d270fb55fc","condition":"full-information","relevant_dimensions":["pattern","legs"],"bee_group":{"antennae":"X","wings":"X","pattern":"D","legs":"F"},"action":"harvest","summary":"good-harvest","bonus":0.06},{"rt":750.8000000007451,"stimulus":"\n                    <p><b>Action: <em>harvest</em></b></p>\n                    <p>This is the bee that you just saw.</p>\n                    <img src=\"bees-with-color/bee-A2SM.svg\" width=\"200\">\n                    <p><span class=\"greenText\"><b>Successful harvest!</b></span><br>Your pay has increased by $0.02. Your bonus pay is now $0.32.</p>\n            ","response":0,"trial_type":"html-button-response","trial_index":84,"time_elapsed":1752314,"internal_node_id":"0.0-4.0-1.38","subject_id":"614f1bfbd26e5d154e2da46e","study_id":"6197b3f67c2b5cd3b6d9596a","session_id":"6197b88b3f7fd8d270fb55fc","condition":"full-information","relevant_dimensions":["pattern","legs"],"bee_group":{"antennae":"X","wings":"X","pattern":"D","legs":"F"},"bonus":0.06},{"rt":2293,"stimulus":"bees-with-color/bee-B1DF.svg","response":0,"trial_type":"image-button-response","trial_index":85,"time_elapsed":1754608,"internal_node_id":"0.0-4.0-0.39","subject_id":"614f1bfbd26e5d154e2da46e","study_id":"6197b3f67c2b5cd3b6d9596a","session_id":"6197b88b3f7fd8d270fb55fc","condition":"full-information","relevant_dimensions":["pattern","legs"],"bee_group":{"antennae":"X","wings":"X","pattern":"D","legs":"F"},"action":"harvest","summary":"bad-harvest","bonus":0.06},{"rt":992.9000000022352,"stimulus":"\n                    <p><b>Action: <em>harvest</em></b></p>\n                    <p>This is the bee that you just saw.</p>\n                    <img src=\"bees-with-color/bee-B1DF.svg\" width=\"200\">\n                    <p><span class=\"redText\">Bad choice, the bee was angry.</span><br><b>You have been stung!</b><br>Your pay has been decreased by $0.10. Your bonus pay is now $0.22.</p>\n            ","response":0,"trial_type":"html-button-response","trial_index":86,"time_elapsed":1755602,"internal_node_id":"0.0-4.0-1.39","subject_id":"614f1bfbd26e5d154e2da46e","study_id":"6197b3f67c2b5cd3b6d9596a","session_id":"6197b88b3f7fd8d270fb55fc","condition":"full-information","relevant_dimensions":["pattern","legs"],"bee_group":{"antennae":"X","wings":"X","pattern":"D","legs":"F"},"bonus":0.06},{"rt":9309,"stimulus":"bees-with-color/bee-A2DF.svg","response":0,"trial_type":"image-button-response","trial_index":87,"time_elapsed":1764912,"internal_node_id":"0.0-4.0-0.40","subject_id":"614f1bfbd26e5d154e2da46e","study_id":"6197b3f67c2b5cd3b6d9596a","session_id":"6197b88b3f7fd8d270fb55fc","condition":"full-information","relevant_dimensions":["pattern","legs"],"bee_group":{"antennae":"X","wings":"X","pattern":"D","legs":"F"},"action":"harvest","summary":"bad-harvest","bonus":0.06},{"rt":560.6999999992549,"stimulus":"\n                    <p><b>Action: <em>harvest</em></b></p>\n                    <p>This is the bee that you just saw.</p>\n                    <img src=\"bees-with-color/bee-A2DF.svg\" width=\"200\">\n                    <p><span class=\"redText\">Bad choice, the bee was angry.</span><br><b>You have been stung!</b><br>Your pay has been decreased by $0.10. Your bonus pay is now $0.12.</p>\n            ","response":0,"trial_type":"html-button-response","trial_index":88,"time_elapsed":1765474,"internal_node_id":"0.0-4.0-1.40","subject_id":"614f1bfbd26e5d154e2da46e","study_id":"6197b3f67c2b5cd3b6d9596a","session_id":"6197b88b3f7fd8d270fb55fc","condition":"full-information","relevant_dimensions":["pattern","legs"],"bee_group":{"antennae":"X","wings":"X","pattern":"D","legs":"F"},"bonus":0.06},{"rt":1242.8999999985099,"stimulus":"bees-with-color/bee-A2DM.svg","response":0,"trial_type":"image-button-response","trial_index":89,"time_elapsed":1766718,"internal_node_id":"0.0-4.0-0.41","subject_id":"614f1bfbd26e5d154e2da46e","study_id":"6197b3f67c2b5cd3b6d9596a","session_id":"6197b88b3f7fd8d270fb55fc","condition":"full-information","relevant_dimensions":["pattern","legs"],"bee_group":{"antennae":"X","wings":"X","pattern":"D","legs":"F"},"action":"harvest","summary":"good-harvest","bonus":0.06},{"rt":609.1000000014901,"stimulus":"\n                    <p><b>Action: <em>harvest</em></b></p>\n                    <p>This is the bee that you just saw.</p>\n                    <img src=\"bees-with-color/bee-A2DM.svg\" width=\"200\">\n                    <p><span class=\"greenText\"><b>Successful harvest!</b></span><br>Your pay has increased by $0.02. Your bonus pay is now $0.14.</p>\n            ","response":0,"trial_type":"html-button-response","trial_index":90,"time_elapsed":1767328,"internal_node_id":"0.0-4.0-1.41","subject_id":"614f1bfbd26e5d154e2da46e","study_id":"6197b3f67c2b5cd3b6d9596a","session_id":"6197b88b3f7fd8d270fb55fc","condition":"full-information","relevant_dimensions":["pattern","legs"],"bee_group":{"antennae":"X","wings":"X","pattern":"D","legs":"F"},"bonus":0.06},{"rt":1858.5,"stimulus":"bees-with-color/bee-B2SM.svg","response":1,"trial_type":"image-button-response","trial_index":91,"time_elapsed":1769188,"internal_node_id":"0.0-4.0-0.42","subject_id":"614f1bfbd26e5d154e2da46e","study_id":"6197b3f67c2b5cd3b6d9596a","session_id":"6197b88b3f7fd8d270fb55fc","condition":"full-information","relevant_dimensions":["pattern","legs"],"bee_group":{"antennae":"X","wings":"X","pattern":"D","legs":"F"},"action":"avoid","summary":"bad-avoid","bonus":0.06},{"rt":454.80000000074506,"stimulus":"\n                    <p><b>Action: <em>avoid</em></b></p>\n                    <p>This is the bee that you just saw.</p>\n                    <img src=\"bees-with-color/bee-B2SM.svg\" width=\"200\">\n                    <p><span class=\"redText\">Bad choice,</span> the bee was friendly.<br>Your bonus pay is unchanged, and remains at $0.14.</p>\n            ","response":0,"trial_type":"html-button-response","trial_index":92,"time_elapsed":1769644,"internal_node_id":"0.0-4.0-1.42","subject_id":"614f1bfbd26e5d154e2da46e","study_id":"6197b3f67c2b5cd3b6d9596a","session_id":"6197b88b3f7fd8d270fb55fc","condition":"full-information","relevant_dimensions":["pattern","legs"],"bee_group":{"antennae":"X","wings":"X","pattern":"D","legs":"F"},"bonus":0.06},{"rt":4591,"stimulus":"bees-with-color/bee-B2DM.svg","response":0,"trial_type":"image-button-response","trial_index":93,"time_elapsed":1774236,"internal_node_id":"0.0-4.0-0.43","subject_id":"614f1bfbd26e5d154e2da46e","study_id":"6197b3f67c2b5cd3b6d9596a","session_id":"6197b88b3f7fd8d270fb55fc","condition":"full-information","relevant_dimensions":["pattern","legs"],"bee_group":{"antennae":"X","wings":"X","pattern":"D","legs":"F"},"action":"harvest","summary":"good-harvest","bonus":0.06},{"rt":550.7999999970198,"stimulus":"\n                    <p><b>Action: <em>harvest</em></b></p>\n                    <p>This is the bee that you just saw.</p>\n                    <img src=\"bees-with-color/bee-B2DM.svg\" width=\"200\">\n                    <p><span class=\"greenText\"><b>Successful harvest!</b></span><br>Your pay has increased by $0.02. Your bonus pay is now $0.16.</p>\n            ","response":0,"trial_type":"html-button-response","trial_index":94,"time_elapsed":1774788,"internal_node_id":"0.0-4.0-1.43","subject_id":"614f1bfbd26e5d154e2da46e","study_id":"6197b3f67c2b5cd3b6d9596a","session_id":"6197b88b3f7fd8d270fb55fc","condition":"full-information","relevant_dimensions":["pattern","legs"],"bee_group":{"antennae":"X","wings":"X","pattern":"D","legs":"F"},"bonus":0.06},{"rt":1175.1000000014901,"stimulus":"bees-with-color/bee-B1DM.svg","response":1,"trial_type":"image-button-response","trial_index":95,"time_elapsed":1775964,"internal_node_id":"0.0-4.0-0.44","subject_id":"614f1bfbd26e5d154e2da46e","study_id":"6197b3f67c2b5cd3b6d9596a","session_id":"6197b88b3f7fd8d270fb55fc","condition":"full-information","relevant_dimensions":["pattern","legs"],"bee_group":{"antennae":"X","wings":"X","pattern":"D","legs":"F"},"action":"avoid","summary":"bad-avoid","bonus":0.06},{"rt":525,"stimulus":"\n                    <p><b>Action: <em>avoid</em></b></p>\n                    <p>This is the bee that you just saw.</p>\n                    <img src=\"bees-with-color/bee-B1DM.svg\" width=\"200\">\n                    <p><span class=\"redText\">Bad choice,</span> the bee was friendly.<br>Your bonus pay is unchanged, and remains at $0.16.</p>\n            ","response":0,"trial_type":"html-button-response","trial_index":96,"time_elapsed":1776490,"internal_node_id":"0.0-4.0-1.44","subject_id":"614f1bfbd26e5d154e2da46e","study_id":"6197b3f67c2b5cd3b6d9596a","session_id":"6197b88b3f7fd8d270fb55fc","condition":"full-information","relevant_dimensions":["pattern","legs"],"bee_group":{"antennae":"X","wings":"X","pattern":"D","legs":"F"},"bonus":0.06},{"rt":1387,"stimulus":"bees-with-color/bee-B2SF.svg","response":1,"trial_type":"image-button-response","trial_index":97,"time_elapsed":1777877,"internal_node_id":"0.0-4.0-0.45","subject_id":"614f1bfbd26e5d154e2da46e","study_id":"6197b3f67c2b5cd3b6d9596a","session_id":"6197b88b3f7fd8d270fb55fc","condition":"full-information","relevant_dimensions":["pattern","legs"],"bee_group":{"antennae":"X","wings":"X","pattern":"D","legs":"F"},"action":"avoid","summary":"bad-avoid","bonus":0.06},{"rt":741.8000000007451,"stimulus":"\n                    <p><b>Action: <em>avoid</em></b></p>\n                    <p>This is the bee that you just saw.</p>\n                    <img src=\"bees-with-color/bee-B2SF.svg\" width=\"200\">\n                    <p><span class=\"redText\">Bad choice,</span> the bee was friendly.<br>Your bonus pay is unchanged, and remains at $0.16.</p>\n            ","response":0,"trial_type":"html-button-response","trial_index":98,"time_elapsed":1778620,"internal_node_id":"0.0-4.0-1.45","subject_id":"614f1bfbd26e5d154e2da46e","study_id":"6197b3f67c2b5cd3b6d9596a","session_id":"6197b88b3f7fd8d270fb55fc","condition":"full-information","relevant_dimensions":["pattern","legs"],"bee_group":{"antennae":"X","wings":"X","pattern":"D","legs":"F"},"bonus":0.06},{"rt":1479.1000000014901,"stimulus":"bees-with-color/bee-A1DF.svg","response":1,"trial_type":"image-button-response","trial_index":99,"time_elapsed":1780100,"internal_node_id":"0.0-4.0-0.46","subject_id":"614f1bfbd26e5d154e2da46e","study_id":"6197b3f67c2b5cd3b6d9596a","session_id":"6197b88b3f7fd8d270fb55fc","condition":"full-information","relevant_dimensions":["pattern","legs"],"bee_group":{"antennae":"X","wings":"X","pattern":"D","legs":"F"},"action":"avoid","summary":"good-avoid","bonus":0.06},{"rt":626.5,"stimulus":"\n                    <p><b>Action: <em>avoid</em></b></p>\n                    <p>This is the bee that you just saw.</p>\n                    <img src=\"bees-with-color/bee-A1DF.svg\" width=\"200\">\n                    <p><span class=\"greenText\">Good choice!</span>  This bee would have stung you.<br>Your bonus pay is unchanged, and remains at $0.16.</p>\n            ","response":0,"trial_type":"html-button-response","trial_index":100,"time_elapsed":1780728,"internal_node_id":"0.0-4.0-1.46","subject_id":"614f1bfbd26e5d154e2da46e","study_id":"6197b3f67c2b5cd3b6d9596a","session_id":"6197b88b3f7fd8d270fb55fc","condition":"full-information","relevant_dimensions":["pattern","legs"],"bee_group":{"antennae":"X","wings":"X","pattern":"D","legs":"F"},"bonus":0.06},{"rt":1284.3999999985099,"stimulus":"bees-with-color/bee-A1SF.svg","response":1,"trial_type":"image-button-response","trial_index":101,"time_elapsed":1782014,"internal_node_id":"0.0-4.0-0.47","subject_id":"614f1bfbd26e5d154e2da46e","study_id":"6197b3f67c2b5cd3b6d9596a","session_id":"6197b88b3f7fd8d270fb55fc","condition":"full-information","relevant_dimensions":["pattern","legs"],"bee_group":{"antennae":"X","wings":"X","pattern":"D","legs":"F"},"action":"avoid","summary":"bad-avoid","bonus":0.06},{"rt":500.8999999985099,"stimulus":"\n                    <p><b>Action: <em>avoid</em></b></p>\n                    <p>This is the bee that you just saw.</p>\n                    <img src=\"bees-with-color/bee-A1SF.svg\" width=\"200\">\n                    <p><span class=\"redText\">Bad choice,</span> the bee was friendly.<br>Your bonus pay is unchanged, and remains at $0.16.</p>\n            ","response":0,"trial_type":"html-button-response","trial_index":102,"time_elapsed":1782516,"internal_node_id":"0.0-4.0-1.47","subject_id":"614f1bfbd26e5d154e2da46e","study_id":"6197b3f67c2b5cd3b6d9596a","session_id":"6197b88b3f7fd8d270fb55fc","condition":"full-information","relevant_dimensions":["pattern","legs"],"bee_group":{"antennae":"X","wings":"X","pattern":"D","legs":"F"},"bonus":0.06},{"rt":1245.1000000014901,"stimulus":"bees-with-color/bee-B1DF.svg","response":1,"trial_type":"image-button-response","trial_index":103,"time_elapsed":1783762,"internal_node_id":"0.0-4.0-0.48","subject_id":"614f1bfbd26e5d154e2da46e","study_id":"6197b3f67c2b5cd3b6d9596a","session_id":"6197b88b3f7fd8d270fb55fc","condition":"full-information","relevant_dimensions":["pattern","legs"],"bee_group":{"antennae":"X","wings":"X","pattern":"D","legs":"F"},"action":"avoid","summary":"good-avoid","bonus":0.06},{"rt":4206.900000002235,"stimulus":"\n                    <p><b>Action: <em>avoid</em></b></p>\n                    <p>This is the bee that you just saw.</p>\n                    <img src=\"bees-with-color/bee-B1DF.svg\" width=\"200\">\n                    <p><span class=\"greenText\">Good choice!</span>  This bee would have stung you.<br>Your bonus pay is unchanged, and remains at $0.16.</p>\n            ","response":0,"trial_type":"html-button-response","trial_index":104,"time_elapsed":1787970,"internal_node_id":"0.0-4.0-1.48","subject_id":"614f1bfbd26e5d154e2da46e","study_id":"6197b3f67c2b5cd3b6d9596a","session_id":"6197b88b3f7fd8d270fb55fc","condition":"full-information","relevant_dimensions":["pattern","legs"],"bee_group":{"antennae":"X","wings":"X","pattern":"D","legs":"F"},"bonus":0.06},{"rt":1472.5,"stimulus":"bees-with-color/bee-B2SM.svg","response":0,"trial_type":"image-button-response","trial_index":105,"time_elapsed":1789444,"internal_node_id":"0.0-4.0-0.49","subject_id":"614f1bfbd26e5d154e2da46e","study_id":"6197b3f67c2b5cd3b6d9596a","session_id":"6197b88b3f7fd8d270fb55fc","condition":"full-information","relevant_dimensions":["pattern","legs"],"bee_group":{"antennae":"X","wings":"X","pattern":"D","legs":"F"},"action":"harvest","summary":"good-harvest","bonus":0.06},{"rt":618.8999999985099,"stimulus":"\n                    <p><b>Action: <em>harvest</em></b></p>\n                    <p>This is the bee that you just saw.</p>\n                    <img src=\"bees-with-color/bee-B2SM.svg\" width=\"200\">\n                    <p><span class=\"greenText\"><b>Successful harvest!</b></span><br>Your pay has increased by $0.02. Your bonus pay is now $0.18.</p>\n            ","response":0,"trial_type":"html-button-response","trial_index":106,"time_elapsed":1790064,"internal_node_id":"0.0-4.0-1.49","subject_id":"614f1bfbd26e5d154e2da46e","study_id":"6197b3f67c2b5cd3b6d9596a","session_id":"6197b88b3f7fd8d270fb55fc","condition":"full-information","relevant_dimensions":["pattern","legs"],"bee_group":{"antennae":"X","wings":"X","pattern":"D","legs":"F"},"bonus":0.06},{"rt":1127.1000000014901,"stimulus":"bees-with-color/bee-B1SF.svg","response":1,"trial_type":"image-button-response","trial_index":107,"time_elapsed":1791192,"internal_node_id":"0.0-4.0-0.50","subject_id":"614f1bfbd26e5d154e2da46e","study_id":"6197b3f67c2b5cd3b6d9596a","session_id":"6197b88b3f7fd8d270fb55fc","condition":"full-information","relevant_dimensions":["pattern","legs"],"bee_group":{"antennae":"X","wings":"X","pattern":"D","legs":"F"},"action":"avoid","summary":"bad-avoid","bonus":0.06},{"rt":404.69999999925494,"stimulus":"\n                    <p><b>Action: <em>avoid</em></b></p>\n                    <p>This is the bee that you just saw.</p>\n                    <img src=\"bees-with-color/bee-B1SF.svg\" width=\"200\">\n                    <p><span class=\"redText\">Bad choice,</span> the bee was friendly.<br>Your bonus pay is unchanged, and remains at $0.18.</p>\n            ","response":0,"trial_type":"html-button-response","trial_index":108,"time_elapsed":1791597,"internal_node_id":"0.0-4.0-1.50","subject_id":"614f1bfbd26e5d154e2da46e","study_id":"6197b3f67c2b5cd3b6d9596a","session_id":"6197b88b3f7fd8d270fb55fc","condition":"full-information","relevant_dimensions":["pattern","legs"],"bee_group":{"antennae":"X","wings":"X","pattern":"D","legs":"F"},"bonus":0.06},{"rt":3967.10000000149,"stimulus":"bees-with-color/bee-A1SF.svg","response":1,"trial_type":"image-button-response","trial_index":109,"time_elapsed":1795565,"internal_node_id":"0.0-4.0-0.51","subject_id":"614f1bfbd26e5d154e2da46e","study_id":"6197b3f67c2b5cd3b6d9596a","session_id":"6197b88b3f7fd8d270fb55fc","condition":"full-information","relevant_dimensions":["pattern","legs"],"bee_group":{"antennae":"X","wings":"X","pattern":"D","legs":"F"},"action":"avoid","summary":"bad-avoid","bonus":0.06},{"rt":374.8999999985099,"stimulus":"\n                    <p><b>Action: <em>avoid</em></b></p>\n                    <p>This is the bee that you just saw.</p>\n                    <img src=\"bees-with-color/bee-A1SF.svg\" width=\"200\">\n                    <p><span class=\"redText\">Bad choice,</span> the bee was friendly.<br>Your bonus pay is unchanged, and remains at $0.18.</p>\n            ","response":0,"trial_type":"html-button-response","trial_index":110,"time_elapsed":1795942,"internal_node_id":"0.0-4.0-1.51","subject_id":"614f1bfbd26e5d154e2da46e","study_id":"6197b3f67c2b5cd3b6d9596a","session_id":"6197b88b3f7fd8d270fb55fc","condition":"full-information","relevant_dimensions":["pattern","legs"],"bee_group":{"antennae":"X","wings":"X","pattern":"D","legs":"F"},"bonus":0.06},{"rt":929,"stimulus":"bees-with-color/bee-A1DF.svg","response":1,"trial_type":"image-button-response","trial_index":111,"time_elapsed":1796872,"internal_node_id":"0.0-4.0-0.52","subject_id":"614f1bfbd26e5d154e2da46e","study_id":"6197b3f67c2b5cd3b6d9596a","session_id":"6197b88b3f7fd8d270fb55fc","condition":"full-information","relevant_dimensions":["pattern","legs"],"bee_group":{"antennae":"X","wings":"X","pattern":"D","legs":"F"},"action":"avoid","summary":"good-avoid","bonus":0.06},{"rt":542.8999999985099,"stimulus":"\n                    <p><b>Action: <em>avoid</em></b></p>\n                    <p>This is the bee that you just saw.</p>\n                    <img src=\"bees-with-color/bee-A1DF.svg\" width=\"200\">\n                    <p><span class=\"greenText\">Good choice!</span>  This bee would have stung you.<br>Your bonus pay is unchanged, and remains at $0.18.</p>\n            ","response":0,"trial_type":"html-button-response","trial_index":112,"time_elapsed":1797416,"internal_node_id":"0.0-4.0-1.52","subject_id":"614f1bfbd26e5d154e2da46e","study_id":"6197b3f67c2b5cd3b6d9596a","session_id":"6197b88b3f7fd8d270fb55fc","condition":"full-information","relevant_dimensions":["pattern","legs"],"bee_group":{"antennae":"X","wings":"X","pattern":"D","legs":"F"},"bonus":0.06},{"rt":1313,"stimulus":"bees-with-color/bee-B1SM.svg","response":0,"trial_type":"image-button-response","trial_index":113,"time_elapsed":1798730,"internal_node_id":"0.0-4.0-0.53","subject_id":"614f1bfbd26e5d154e2da46e","study_id":"6197b3f67c2b5cd3b6d9596a","session_id":"6197b88b3f7fd8d270fb55fc","condition":"full-information","relevant_dimensions":["pattern","legs"],"bee_group":{"antennae":"X","wings":"X","pattern":"D","legs":"F"},"action":"harvest","summary":"good-harvest","bonus":0.06},{"rt":742.7999999970198,"stimulus":"\n                    <p><b>Action: <em>harvest</em></b></p>\n                    <p>This is the bee that you just saw.</p>\n                    <img src=\"bees-with-color/bee-B1SM.svg\" width=\"200\">\n                    <p><span class=\"greenText\"><b>Successful harvest!</b></span><br>Your pay has increased by $0.02. Your bonus pay is now $0.20.</p>\n            ","response":0,"trial_type":"html-button-response","trial_index":114,"time_elapsed":1799473,"internal_node_id":"0.0-4.0-1.53","subject_id":"614f1bfbd26e5d154e2da46e","study_id":"6197b3f67c2b5cd3b6d9596a","session_id":"6197b88b3f7fd8d270fb55fc","condition":"full-information","relevant_dimensions":["pattern","legs"],"bee_group":{"antennae":"X","wings":"X","pattern":"D","legs":"F"},"bonus":0.06},{"rt":1765.199999999255,"stimulus":"bees-with-color/bee-B1DM.svg","response":1,"trial_type":"image-button-response","trial_index":115,"time_elapsed":1801240,"internal_node_id":"0.0-4.0-0.54","subject_id":"614f1bfbd26e5d154e2da46e","study_id":"6197b3f67c2b5cd3b6d9596a","session_id":"6197b88b3f7fd8d270fb55fc","condition":"full-information","relevant_dimensions":["pattern","legs"],"bee_group":{"antennae":"X","wings":"X","pattern":"D","legs":"F"},"action":"avoid","summary":"bad-avoid","bonus":0.06},{"rt":550.8999999985099,"stimulus":"\n                    <p><b>Action: <em>avoid</em></b></p>\n                    <p>This is the bee that you just saw.</p>\n                    <img src=\"bees-with-color/bee-B1DM.svg\" width=\"200\">\n                    <p><span class=\"redText\">Bad choice,</span> the bee was friendly.<br>Your bonus pay is unchanged, and remains at $0.20.</p>\n            ","response":0,"trial_type":"html-button-response","trial_index":116,"time_elapsed":1801792,"internal_node_id":"0.0-4.0-1.54","subject_id":"614f1bfbd26e5d154e2da46e","study_id":"6197b3f67c2b5cd3b6d9596a","session_id":"6197b88b3f7fd8d270fb55fc","condition":"full-information","relevant_dimensions":["pattern","legs"],"bee_group":{"antennae":"X","wings":"X","pattern":"D","legs":"F"},"bonus":0.06},{"rt":1315.2000000029802,"stimulus":"bees-with-color/bee-A2SF.svg","response":1,"trial_type":"image-button-response","trial_index":117,"time_elapsed":1803108,"internal_node_id":"0.0-4.0-0.55","subject_id":"614f1bfbd26e5d154e2da46e","study_id":"6197b3f67c2b5cd3b6d9596a","session_id":"6197b88b3f7fd8d270fb55fc","condition":"full-information","relevant_dimensions":["pattern","legs"],"bee_group":{"antennae":"X","wings":"X","pattern":"D","legs":"F"},"action":"avoid","summary":"bad-avoid","bonus":0.06},{"rt":513,"stimulus":"\n                    <p><b>Action: <em>avoid</em></b></p>\n                    <p>This is the bee that you just saw.</p>\n                    <img src=\"bees-with-color/bee-A2SF.svg\" width=\"200\">\n                    <p><span class=\"redText\">Bad choice,</span> the bee was friendly.<br>Your bonus pay is unchanged, and remains at $0.20.</p>\n            ","response":0,"trial_type":"html-button-response","trial_index":118,"time_elapsed":1803622,"internal_node_id":"0.0-4.0-1.55","subject_id":"614f1bfbd26e5d154e2da46e","study_id":"6197b3f67c2b5cd3b6d9596a","session_id":"6197b88b3f7fd8d270fb55fc","condition":"full-information","relevant_dimensions":["pattern","legs"],"bee_group":{"antennae":"X","wings":"X","pattern":"D","legs":"F"},"bonus":0.06},{"rt":6003.10000000149,"stimulus":"bees-with-color/bee-A2DM.svg","response":0,"trial_type":"image-button-response","trial_index":119,"time_elapsed":1809625,"internal_node_id":"0.0-4.0-0.56","subject_id":"614f1bfbd26e5d154e2da46e","study_id":"6197b3f67c2b5cd3b6d9596a","session_id":"6197b88b3f7fd8d270fb55fc","condition":"full-information","relevant_dimensions":["pattern","legs"],"bee_group":{"antennae":"X","wings":"X","pattern":"D","legs":"F"},"action":"harvest","summary":"good-harvest","bonus":0.06},{"rt":498.80000000074506,"stimulus":"\n                    <p><b>Action: <em>harvest</em></b></p>\n                    <p>This is the bee that you just saw.</p>\n                    <img src=\"bees-with-color/bee-A2DM.svg\" width=\"200\">\n                    <p><span class=\"greenText\"><b>Successful harvest!</b></span><br>Your pay has increased by $0.02. Your bonus pay is now $0.22.</p>\n            ","response":0,"trial_type":"html-button-response","trial_index":120,"time_elapsed":1810125,"internal_node_id":"0.0-4.0-1.56","subject_id":"614f1bfbd26e5d154e2da46e","study_id":"6197b3f67c2b5cd3b6d9596a","session_id":"6197b88b3f7fd8d270fb55fc","condition":"full-information","relevant_dimensions":["pattern","legs"],"bee_group":{"antennae":"X","wings":"X","pattern":"D","legs":"F"},"bonus":0.06},{"rt":1349.1000000014901,"stimulus":"bees-with-color/bee-B2DM.svg","response":1,"trial_type":"image-button-response","trial_index":121,"time_elapsed":1811475,"internal_node_id":"0.0-4.0-0.57","subject_id":"614f1bfbd26e5d154e2da46e","study_id":"6197b3f67c2b5cd3b6d9596a","session_id":"6197b88b3f7fd8d270fb55fc","condition":"full-information","relevant_dimensions":["pattern","legs"],"bee_group":{"antennae":"X","wings":"X","pattern":"D","legs":"F"},"action":"avoid","summary":"bad-avoid","bonus":0.06},{"rt":430.69999999925494,"stimulus":"\n                    <p><b>Action: <em>avoid</em></b></p>\n                    <p>This is the bee that you just saw.</p>\n                    <img src=\"bees-with-color/bee-B2DM.svg\" width=\"200\">\n                    <p><span class=\"redText\">Bad choice,</span> the bee was friendly.<br>Your bonus pay is unchanged, and remains at $0.22.</p>\n            ","response":0,"trial_type":"html-button-response","trial_index":122,"time_elapsed":1811907,"internal_node_id":"0.0-4.0-1.57","subject_id":"614f1bfbd26e5d154e2da46e","study_id":"6197b3f67c2b5cd3b6d9596a","session_id":"6197b88b3f7fd8d270fb55fc","condition":"full-information","relevant_dimensions":["pattern","legs"],"bee_group":{"antennae":"X","wings":"X","pattern":"D","legs":"F"},"bonus":0.06},{"rt":1333.199999999255,"stimulus":"bees-with-color/bee-A1DM.svg","response":0,"trial_type":"image-button-response","trial_index":123,"time_elapsed":1813241,"internal_node_id":"0.0-4.0-0.58","subject_id":"614f1bfbd26e5d154e2da46e","study_id":"6197b3f67c2b5cd3b6d9596a","session_id":"6197b88b3f7fd8d270fb55fc","condition":"full-information","relevant_dimensions":["pattern","legs"],"bee_group":{"antennae":"X","wings":"X","pattern":"D","legs":"F"},"action":"harvest","summary":"good-harvest","bonus":0.06},{"rt":592.8000000007451,"stimulus":"\n                    <p><b>Action: <em>harvest</em></b></p>\n                    <p>This is the bee that you just saw.</p>\n                    <img src=\"bees-with-color/bee-A1DM.svg\" width=\"200\">\n                    <p><span class=\"greenText\"><b>Successful harvest!</b></span><br>Your pay has increased by $0.02. Your bonus pay is now $0.24.</p>\n            ","response":0,"trial_type":"html-button-response","trial_index":124,"time_elapsed":1813835,"internal_node_id":"0.0-4.0-1.58","subject_id":"614f1bfbd26e5d154e2da46e","study_id":"6197b3f67c2b5cd3b6d9596a","session_id":"6197b88b3f7fd8d270fb55fc","condition":"full-information","relevant_dimensions":["pattern","legs"],"bee_group":{"antennae":"X","wings":"X","pattern":"D","legs":"F"},"bonus":0.06},{"rt":2337.199999999255,"stimulus":"bees-with-color/bee-A2DF.svg","response":0,"trial_type":"image-button-response","trial_index":125,"time_elapsed":1816173,"internal_node_id":"0.0-4.0-0.59","subject_id":"614f1bfbd26e5d154e2da46e","study_id":"6197b3f67c2b5cd3b6d9596a","session_id":"6197b88b3f7fd8d270fb55fc","condition":"full-information","relevant_dimensions":["pattern","legs"],"bee_group":{"antennae":"X","wings":"X","pattern":"D","legs":"F"},"action":"harvest","summary":"bad-harvest","bonus":0.06},{"rt":1369.1000000014901,"stimulus":"\n                    <p><b>Action: <em>harvest</em></b></p>\n                    <p>This is the bee that you just saw.</p>\n                    <img src=\"bees-with-color/bee-A2DF.svg\" width=\"200\">\n                    <p><span class=\"redText\">Bad choice, the bee was angry.</span><br><b>You have been stung!</b><br>Your pay has been decreased by $0.10. Your bonus pay is now $0.14.</p>\n            ","response":0,"trial_type":"html-button-response","trial_index":126,"time_elapsed":1817544,"internal_node_id":"0.0-4.0-1.59","subject_id":"614f1bfbd26e5d154e2da46e","study_id":"6197b3f67c2b5cd3b6d9596a","session_id":"6197b88b3f7fd8d270fb55fc","condition":"full-information","relevant_dimensions":["pattern","legs"],"bee_group":{"antennae":"X","wings":"X","pattern":"D","legs":"F"},"bonus":0.06},{"rt":2844,"stimulus":"bees-with-color/bee-B2SF.svg","response":1,"trial_type":"image-button-response","trial_index":127,"time_elapsed":1820389,"internal_node_id":"0.0-4.0-0.60","subject_id":"614f1bfbd26e5d154e2da46e","study_id":"6197b3f67c2b5cd3b6d9596a","session_id":"6197b88b3f7fd8d270fb55fc","condition":"full-information","relevant_dimensions":["pattern","legs"],"bee_group":{"antennae":"X","wings":"X","pattern":"D","legs":"F"},"action":"avoid","summary":"bad-avoid","bonus":0.06},{"rt":822.8000000007451,"stimulus":"\n                    <p><b>Action: <em>avoid</em></b></p>\n                    <p>This is the bee that you just saw.</p>\n                    <img src=\"bees-with-color/bee-B2SF.svg\" width=\"200\">\n                    <p><span class=\"redText\">Bad choice,</span> the bee was friendly.<br>Your bonus pay is unchanged, and remains at $0.14.</p>\n            ","response":0,"trial_type":"html-button-response","trial_index":128,"time_elapsed":1821213,"internal_node_id":"0.0-4.0-1.60","subject_id":"614f1bfbd26e5d154e2da46e","study_id":"6197b3f67c2b5cd3b6d9596a","session_id":"6197b88b3f7fd8d270fb55fc","condition":"full-information","relevant_dimensions":["pattern","legs"],"bee_group":{"antennae":"X","wings":"X","pattern":"D","legs":"F"},"bonus":0.06},{"rt":1157.0999999977648,"stimulus":"bees-with-color/bee-B2DF.svg","response":0,"trial_type":"image-button-response","trial_index":129,"time_elapsed":1822371,"internal_node_id":"0.0-4.0-0.61","subject_id":"614f1bfbd26e5d154e2da46e","study_id":"6197b3f67c2b5cd3b6d9596a","session_id":"6197b88b3f7fd8d270fb55fc","condition":"full-information","relevant_dimensions":["pattern","legs"],"bee_group":{"antennae":"X","wings":"X","pattern":"D","legs":"F"},"action":"harvest","summary":"bad-harvest","bonus":0.06},{"rt":832.6000000014901,"stimulus":"\n                    <p><b>Action: <em>harvest</em></b></p>\n                    <p>This is the bee that you just saw.</p>\n                    <img src=\"bees-with-color/bee-B2DF.svg\" width=\"200\">\n                    <p><span class=\"redText\">Bad choice, the bee was angry.</span><br><b>You have been stung!</b><br>Your pay has been decreased by $0.10. Your bonus pay is now $0.04.</p>\n            ","response":0,"trial_type":"html-button-response","trial_index":130,"time_elapsed":1823205,"internal_node_id":"0.0-4.0-1.61","subject_id":"614f1bfbd26e5d154e2da46e","study_id":"6197b3f67c2b5cd3b6d9596a","session_id":"6197b88b3f7fd8d270fb55fc","condition":"full-information","relevant_dimensions":["pattern","legs"],"bee_group":{"antennae":"X","wings":"X","pattern":"D","legs":"F"},"bonus":0.06},{"rt":1279.1000000014901,"stimulus":"bees-with-color/bee-A1SM.svg","response":0,"trial_type":"image-button-response","trial_index":131,"time_elapsed":1824485,"internal_node_id":"0.0-4.0-0.62","subject_id":"614f1bfbd26e5d154e2da46e","study_id":"6197b3f67c2b5cd3b6d9596a","session_id":"6197b88b3f7fd8d270fb55fc","condition":"full-information","relevant_dimensions":["pattern","legs"],"bee_group":{"antennae":"X","wings":"X","pattern":"D","legs":"F"},"action":"harvest","summary":"good-harvest","bonus":0.06},{"rt":467.30000000074506,"stimulus":"\n                    <p><b>Action: <em>harvest</em></b></p>\n                    <p>This is the bee that you just saw.</p>\n                    <img src=\"bees-with-color/bee-A1SM.svg\" width=\"200\">\n                    <p><span class=\"greenText\"><b>Successful harvest!</b></span><br>Your pay has increased by $0.02. Your bonus pay is now $0.06.</p>\n            ","response":0,"trial_type":"html-button-response","trial_index":132,"time_elapsed":1824953,"internal_node_id":"0.0-4.0-1.62","subject_id":"614f1bfbd26e5d154e2da46e","study_id":"6197b3f67c2b5cd3b6d9596a","session_id":"6197b88b3f7fd8d270fb55fc","condition":"full-information","relevant_dimensions":["pattern","legs"],"bee_group":{"antennae":"X","wings":"X","pattern":"D","legs":"F"},"bonus":0.06},{"rt":4831,"stimulus":"bees-with-color/bee-A2SM.svg","response":0,"trial_type":"image-button-response","trial_index":133,"time_elapsed":1829785,"internal_node_id":"0.0-4.0-0.63","subject_id":"614f1bfbd26e5d154e2da46e","study_id":"6197b3f67c2b5cd3b6d9596a","session_id":"6197b88b3f7fd8d270fb55fc","condition":"full-information","relevant_dimensions":["pattern","legs"],"bee_group":{"antennae":"X","wings":"X","pattern":"D","legs":"F"},"action":"harvest","summary":"good-harvest","bonus":0.06},{"rt":507.0999999977648,"stimulus":"\n                    <p><b>Action: <em>harvest</em></b></p>\n                    <p>This is the bee that you just saw.</p>\n                    <img src=\"bees-with-color/bee-A2SM.svg\" width=\"200\">\n                    <p><span class=\"greenText\"><b>Successful harvest!</b></span><br>Your pay has increased by $0.02. Your bonus pay is now $0.08.</p>\n            ","response":0,"trial_type":"html-button-response","trial_index":134,"time_elapsed":1830293,"internal_node_id":"0.0-4.0-1.63","subject_id":"614f1bfbd26e5d154e2da46e","study_id":"6197b3f67c2b5cd3b6d9596a","session_id":"6197b88b3f7fd8d270fb55fc","condition":"full-information","relevant_dimensions":["pattern","legs"],"bee_group":{"antennae":"X","wings":"X","pattern":"D","legs":"F"},"bonus":0.06},{"rt":8360.099999997765,"stimulus":"You have completed the first part of this experiment.<br><br>You will now begin a shorter second part, in which you will receive no feedback.<br>The same rules regarding bonus pay apply.<br><br>Press any key to begin.","response":"enter","trial_type":"html-keyboard-response","trial_index":135,"time_elapsed":1838655,"internal_node_id":"0.0-5.0","subject_id":"614f1bfbd26e5d154e2da46e","study_id":"6197b3f67c2b5cd3b6d9596a","session_id":"6197b88b3f7fd8d270fb55fc","condition":"full-information","relevant_dimensions":["pattern","legs"],"bee_group":{"antennae":"X","wings":"X","pattern":"D","legs":"F"},"bonus":0.06},{"rt":8503.29999999702,"stimulus":"bees-with-color/bee-B1DF.svg","response":0,"trial_type":"image-button-response","trial_index":136,"time_elapsed":1847159,"internal_node_id":"0.0-6.0-0.0","subject_id":"614f1bfbd26e5d154e2da46e","study_id":"6197b3f67c2b5cd3b6d9596a","session_id":"6197b88b3f7fd8d270fb55fc","condition":"full-information","relevant_dimensions":["pattern","legs"],"bee_group":{"antennae":"X","wings":"X","pattern":"D","legs":"F"},"bonus":0.06},{"rt":4806.29999999702,"stimulus":"bees-with-color/bee-A1SF.svg","response":0,"trial_type":"image-button-response","trial_index":137,"time_elapsed":1851967,"internal_node_id":"0.0-6.0-0.1","subject_id":"614f1bfbd26e5d154e2da46e","study_id":"6197b3f67c2b5cd3b6d9596a","session_id":"6197b88b3f7fd8d270fb55fc","condition":"full-information","relevant_dimensions":["pattern","legs"],"bee_group":{"antennae":"X","wings":"X","pattern":"D","legs":"F"},"bonus":0.06},{"rt":2094.39999999851,"stimulus":"bees-with-color/bee-A2DM.svg","response":1,"trial_type":"image-button-response","trial_index":138,"time_elapsed":1854063,"internal_node_id":"0.0-6.0-0.2","subject_id":"614f1bfbd26e5d154e2da46e","study_id":"6197b3f67c2b5cd3b6d9596a","session_id":"6197b88b3f7fd8d270fb55fc","condition":"full-information","relevant_dimensions":["pattern","legs"],"bee_group":{"antennae":"X","wings":"X","pattern":"D","legs":"F"},"bonus":0.06},{"rt":8157.60000000149,"stimulus":"bees-with-color/bee-A1DM.svg","response":0,"trial_type":"image-button-response","trial_index":139,"time_elapsed":1862222,"internal_node_id":"0.0-6.0-0.3","subject_id":"614f1bfbd26e5d154e2da46e","study_id":"6197b3f67c2b5cd3b6d9596a","session_id":"6197b88b3f7fd8d270fb55fc","condition":"full-information","relevant_dimensions":["pattern","legs"],"bee_group":{"antennae":"X","wings":"X","pattern":"D","legs":"F"},"bonus":0.06},{"rt":1843.3999999985099,"stimulus":"bees-with-color/bee-B2SM.svg","response":0,"trial_type":"image-button-response","trial_index":140,"time_elapsed":1864067,"internal_node_id":"0.0-6.0-0.4","subject_id":"614f1bfbd26e5d154e2da46e","study_id":"6197b3f67c2b5cd3b6d9596a","session_id":"6197b88b3f7fd8d270fb55fc","condition":"full-information","relevant_dimensions":["pattern","legs"],"bee_group":{"antennae":"X","wings":"X","pattern":"D","legs":"F"},"bonus":0.06},{"rt":1262.800000000745,"stimulus":"bees-with-color/bee-B2DF.svg","response":1,"trial_type":"image-button-response","trial_index":141,"time_elapsed":1865332,"internal_node_id":"0.0-6.0-0.5","subject_id":"614f1bfbd26e5d154e2da46e","study_id":"6197b3f67c2b5cd3b6d9596a","session_id":"6197b88b3f7fd8d270fb55fc","condition":"full-information","relevant_dimensions":["pattern","legs"],"bee_group":{"antennae":"X","wings":"X","pattern":"D","legs":"F"},"bonus":0.06},{"rt":1560.4000000022352,"stimulus":"bees-with-color/bee-B1SM.svg","response":1,"trial_type":"image-button-response","trial_index":142,"time_elapsed":1866893,"internal_node_id":"0.0-6.0-0.6","subject_id":"614f1bfbd26e5d154e2da46e","study_id":"6197b3f67c2b5cd3b6d9596a","session_id":"6197b88b3f7fd8d270fb55fc","condition":"full-information","relevant_dimensions":["pattern","legs"],"bee_group":{"antennae":"X","wings":"X","pattern":"D","legs":"F"},"bonus":0.06},{"rt":1092.5999999977648,"stimulus":"bees-with-color/bee-A2SM.svg","response":0,"trial_type":"image-button-response","trial_index":143,"time_elapsed":1867987,"internal_node_id":"0.0-6.0-0.7","subject_id":"614f1bfbd26e5d154e2da46e","study_id":"6197b3f67c2b5cd3b6d9596a","session_id":"6197b88b3f7fd8d270fb55fc","condition":"full-information","relevant_dimensions":["pattern","legs"],"bee_group":{"antennae":"X","wings":"X","pattern":"D","legs":"F"},"bonus":0.06},{"rt":1098.4000000022352,"stimulus":"bees-with-color/bee-B2SF.svg","response":1,"trial_type":"image-button-response","trial_index":144,"time_elapsed":1869088,"internal_node_id":"0.0-6.0-0.8","subject_id":"614f1bfbd26e5d154e2da46e","study_id":"6197b3f67c2b5cd3b6d9596a","session_id":"6197b88b3f7fd8d270fb55fc","condition":"full-information","relevant_dimensions":["pattern","legs"],"bee_group":{"antennae":"X","wings":"X","pattern":"D","legs":"F"},"bonus":0.06},{"rt":1906.699999999255,"stimulus":"bees-with-color/bee-A1DF.svg","response":0,"trial_type":"image-button-response","trial_index":145,"time_elapsed":1870996,"internal_node_id":"0.0-6.0-0.9","subject_id":"614f1bfbd26e5d154e2da46e","study_id":"6197b3f67c2b5cd3b6d9596a","session_id":"6197b88b3f7fd8d270fb55fc","condition":"full-information","relevant_dimensions":["pattern","legs"],"bee_group":{"antennae":"X","wings":"X","pattern":"D","legs":"F"},"bonus":0.06},{"rt":6528.39999999851,"stimulus":"bees-with-color/bee-A2DF.svg","response":0,"trial_type":"image-button-response","trial_index":146,"time_elapsed":1877526,"internal_node_id":"0.0-6.0-0.10","subject_id":"614f1bfbd26e5d154e2da46e","study_id":"6197b3f67c2b5cd3b6d9596a","session_id":"6197b88b3f7fd8d270fb55fc","condition":"full-information","relevant_dimensions":["pattern","legs"],"bee_group":{"antennae":"X","wings":"X","pattern":"D","legs":"F"},"bonus":0.06},{"rt":1444.5,"stimulus":"bees-with-color/bee-A2SF.svg","response":0,"trial_type":"image-button-response","trial_index":147,"time_elapsed":1878972,"internal_node_id":"0.0-6.0-0.11","subject_id":"614f1bfbd26e5d154e2da46e","study_id":"6197b3f67c2b5cd3b6d9596a","session_id":"6197b88b3f7fd8d270fb55fc","condition":"full-information","relevant_dimensions":["pattern","legs"],"bee_group":{"antennae":"X","wings":"X","pattern":"D","legs":"F"},"bonus":0.06},{"rt":1212.4000000022352,"stimulus":"bees-with-color/bee-B2DM.svg","response":0,"trial_type":"image-button-response","trial_index":148,"time_elapsed":1880186,"internal_node_id":"0.0-6.0-0.12","subject_id":"614f1bfbd26e5d154e2da46e","study_id":"6197b3f67c2b5cd3b6d9596a","session_id":"6197b88b3f7fd8d270fb55fc","condition":"full-information","relevant_dimensions":["pattern","legs"],"bee_group":{"antennae":"X","wings":"X","pattern":"D","legs":"F"},"bonus":0.06},{"rt":974.6999999992549,"stimulus":"bees-with-color/bee-B1DM.svg","response":1,"trial_type":"image-button-response","trial_index":149,"time_elapsed":1881162,"internal_node_id":"0.0-6.0-0.13","subject_id":"614f1bfbd26e5d154e2da46e","study_id":"6197b3f67c2b5cd3b6d9596a","session_id":"6197b88b3f7fd8d270fb55fc","condition":"full-information","relevant_dimensions":["pattern","legs"],"bee_group":{"antennae":"X","wings":"X","pattern":"D","legs":"F"},"bonus":0.06},{"rt":2026.0999999977648,"stimulus":"bees-with-color/bee-A1SM.svg","response":0,"trial_type":"image-button-response","trial_index":150,"time_elapsed":1883190,"internal_node_id":"0.0-6.0-0.14","subject_id":"614f1bfbd26e5d154e2da46e","study_id":"6197b3f67c2b5cd3b6d9596a","session_id":"6197b88b3f7fd8d270fb55fc","condition":"full-information","relevant_dimensions":["pattern","legs"],"bee_group":{"antennae":"X","wings":"X","pattern":"D","legs":"F"},"bonus":0.06},{"rt":981.1000000014901,"stimulus":"bees-with-color/bee-B1SF.svg","response":1,"trial_type":"image-button-response","trial_index":151,"time_elapsed":1884172,"internal_node_id":"0.0-6.0-0.15","subject_id":"614f1bfbd26e5d154e2da46e","study_id":"6197b3f67c2b5cd3b6d9596a","session_id":"6197b88b3f7fd8d270fb55fc","condition":"full-information","relevant_dimensions":["pattern","legs"],"bee_group":{"antennae":"X","wings":"X","pattern":"D","legs":"F"},"bonus":0.06},{"rt":4486.79999999702,"stimulus":"bees-with-color/bee-B1DM.svg","response":1,"trial_type":"image-button-response","trial_index":152,"time_elapsed":1888660,"internal_node_id":"0.0-6.0-0.16","subject_id":"614f1bfbd26e5d154e2da46e","study_id":"6197b3f67c2b5cd3b6d9596a","session_id":"6197b88b3f7fd8d270fb55fc","condition":"full-information","relevant_dimensions":["pattern","legs"],"bee_group":{"antennae":"X","wings":"X","pattern":"D","legs":"F"},"bonus":0.06},{"rt":987.1999999992549,"stimulus":"bees-with-color/bee-B2SM.svg","response":1,"trial_type":"image-button-response","trial_index":153,"time_elapsed":1889648,"internal_node_id":"0.0-6.0-0.17","subject_id":"614f1bfbd26e5d154e2da46e","study_id":"6197b3f67c2b5cd3b6d9596a","session_id":"6197b88b3f7fd8d270fb55fc","condition":"full-information","relevant_dimensions":["pattern","legs"],"bee_group":{"antennae":"X","wings":"X","pattern":"D","legs":"F"},"bonus":0.06},{"rt":672.0999999977648,"stimulus":"bees-with-color/bee-B1SF.svg","response":1,"trial_type":"image-button-response","trial_index":154,"time_elapsed":1890322,"internal_node_id":"0.0-6.0-0.18","subject_id":"614f1bfbd26e5d154e2da46e","study_id":"6197b3f67c2b5cd3b6d9596a","session_id":"6197b88b3f7fd8d270fb55fc","condition":"full-information","relevant_dimensions":["pattern","legs"],"bee_group":{"antennae":"X","wings":"X","pattern":"D","legs":"F"},"bonus":0.06},{"rt":1857.8999999985099,"stimulus":"bees-with-color/bee-B1SM.svg","response":0,"trial_type":"image-button-response","trial_index":155,"time_elapsed":1892182,"internal_node_id":"0.0-6.0-0.19","subject_id":"614f1bfbd26e5d154e2da46e","study_id":"6197b3f67c2b5cd3b6d9596a","session_id":"6197b88b3f7fd8d270fb55fc","condition":"full-information","relevant_dimensions":["pattern","legs"],"bee_group":{"antennae":"X","wings":"X","pattern":"D","legs":"F"},"bonus":0.06},{"rt":1258.5,"stimulus":"bees-with-color/bee-A2DF.svg","response":0,"trial_type":"image-button-response","trial_index":156,"time_elapsed":1893442,"internal_node_id":"0.0-6.0-0.20","subject_id":"614f1bfbd26e5d154e2da46e","study_id":"6197b3f67c2b5cd3b6d9596a","session_id":"6197b88b3f7fd8d270fb55fc","condition":"full-information","relevant_dimensions":["pattern","legs"],"bee_group":{"antennae":"X","wings":"X","pattern":"D","legs":"F"},"bonus":0.06},{"rt":693,"stimulus":"bees-with-color/bee-B2DF.svg","response":1,"trial_type":"image-button-response","trial_index":157,"time_elapsed":1894136,"internal_node_id":"0.0-6.0-0.21","subject_id":"614f1bfbd26e5d154e2da46e","study_id":"6197b3f67c2b5cd3b6d9596a","session_id":"6197b88b3f7fd8d270fb55fc","condition":"full-information","relevant_dimensions":["pattern","legs"],"bee_group":{"antennae":"X","wings":"X","pattern":"D","legs":"F"},"bonus":0.06},{"rt":935,"stimulus":"bees-with-color/bee-A2SM.svg","response":0,"trial_type":"image-button-response","trial_index":158,"time_elapsed":1895072,"internal_node_id":"0.0-6.0-0.22","subject_id":"614f1bfbd26e5d154e2da46e","study_id":"6197b3f67c2b5cd3b6d9596a","session_id":"6197b88b3f7fd8d270fb55fc","condition":"full-information","relevant_dimensions":["pattern","legs"],"bee_group":{"antennae":"X","wings":"X","pattern":"D","legs":"F"},"bonus":0.06},{"rt":1787.6000000014901,"stimulus":"bees-with-color/bee-A1SM.svg","response":0,"trial_type":"image-button-response","trial_index":159,"time_elapsed":1896860,"internal_node_id":"0.0-6.0-0.23","subject_id":"614f1bfbd26e5d154e2da46e","study_id":"6197b3f67c2b5cd3b6d9596a","session_id":"6197b88b3f7fd8d270fb55fc","condition":"full-information","relevant_dimensions":["pattern","legs"],"bee_group":{"antennae":"X","wings":"X","pattern":"D","legs":"F"},"bonus":0.06},{"rt":4622.199999999255,"stimulus":"bees-with-color/bee-B2DM.svg","response":1,"trial_type":"image-button-response","trial_index":160,"time_elapsed":1901483,"internal_node_id":"0.0-6.0-0.24","subject_id":"614f1bfbd26e5d154e2da46e","study_id":"6197b3f67c2b5cd3b6d9596a","session_id":"6197b88b3f7fd8d270fb55fc","condition":"full-information","relevant_dimensions":["pattern","legs"],"bee_group":{"antennae":"X","wings":"X","pattern":"D","legs":"F"},"bonus":0.06},{"rt":3443.300000000745,"stimulus":"bees-with-color/bee-A1SF.svg","response":1,"trial_type":"image-button-response","trial_index":161,"time_elapsed":1904928,"internal_node_id":"0.0-6.0-0.25","subject_id":"614f1bfbd26e5d154e2da46e","study_id":"6197b3f67c2b5cd3b6d9596a","session_id":"6197b88b3f7fd8d270fb55fc","condition":"full-information","relevant_dimensions":["pattern","legs"],"bee_group":{"antennae":"X","wings":"X","pattern":"D","legs":"F"},"bonus":0.06},{"rt":4432.199999999255,"stimulus":"bees-with-color/bee-A2SF.svg","response":1,"trial_type":"image-button-response","trial_index":162,"time_elapsed":1909362,"internal_node_id":"0.0-6.0-0.26","subject_id":"614f1bfbd26e5d154e2da46e","study_id":"6197b3f67c2b5cd3b6d9596a","session_id