[{"success":true,"trial_type":"fullscreen","trial_index":0,"time_elapsed":4547,"internal_node_id":"0.0-0.0","subject_id":"6143bbc4daab169ed298722c","study_id":"6197b3f67c2b5cd3b6d9596a","session_id":"619be58e9898148432a4f1bb","condition":"contingent","relevant_dimensions":["antennae","pattern"],"bee_group":{"antennae":"A","wings":"X","pattern":"D","legs":"X"},"bonus":1.0000000000000007},{"success":true,"timeout":false,"failed_images":[],"failed_audio":[],"failed_video":[],"trial_type":"preload","trial_index":1,"time_elapsed":13320,"internal_node_id":"0.0-1.0","subject_id":"6143bbc4daab169ed298722c","study_id":"6197b3f67c2b5cd3b6d9596a","session_id":"619be58e9898148432a4f1bb","condition":"contingent","relevant_dimensions":["antennae","pattern"],"bee_group":{"antennae":"A","wings":"X","pattern":"D","legs":"X"},"bonus":1.0000000000000007},{"rt":3395,"stimulus":"Welcome! Press any key to begin.","response":"a","trial_type":"html-keyboard-response","trial_index":2,"time_elapsed":16717,"internal_node_id":"0.0-2.0","subject_id":"6143bbc4daab169ed298722c","study_id":"6197b3f67c2b5cd3b6d9596a","session_id":"619be58e9898148432a4f1bb","condition":"contingent","relevant_dimensions":["antennae","pattern"],"bee_group":{"antennae":"A","wings":"X","pattern":"D","legs":"X"},"bonus":1.0000000000000007},{"view_history":[{"page_index":0,"viewing_time":4495.700000047684},{"page_index":1,"viewing_time":10513.899999976158},{"page_index":2,"viewing_time":20648},{"page_index":3,"viewing_time":29385.600000023842},{"page_index":4,"viewing_time":6846},{"page_index":5,"viewing_time":9342.399999976158},{"page_index":6,"viewing_time":9081.899999976158},{"page_index":7,"viewing_time":8813.5},{"page_index":8,"viewing_time":6200.100000023842},{"page_index":9,"viewing_time":5158.5},{"page_index":10,"viewing_time":6373.799999952316},{"page_index":11,"viewing_time":8269.900000095367},{"page_index":12,"viewing_time":9868.099999904633},{"page_index":13,"viewing_time":1844},{"page_index":14,"viewing_time":1968.6000000238419}],"rt":138810.60000002384,"trial_type":"instructions","trial_index":3,"time_elapsed":155530,"internal_node_id":"0.0-3.0-0.0","subject_id":"6143bbc4daab169ed298722c","study_id":"6197b3f67c2b5cd3b6d9596a","session_id":"619be58e9898148432a4f1bb","condition":"contingent","relevant_dimensions":["antennae","pattern"],"bee_group":{"antennae":"A","wings":"X","pattern":"D","legs":"X"},"bonus":1.0000000000000007},{"rt":31624.100000023842,"response":{"Q0":["Two or six legs","Stripes or spots on body","Single or double wings","Antennae or no antennae"]},"question_order":[0],"trial_type":"survey-multi-select","trial_index":4,"time_elapsed":187161,"internal_node_id":"0.0-3.0-1.0","subject_id":"6143bbc4daab169ed298722c","study_id":"6197b3f67c2b5cd3b6d9596a","session_id":"619be58e9898148432a4f1bb","condition":"contingent","relevant_dimensions":["antennae","pattern"],"bee_group":{"antennae":"A","wings":"X","pattern":"D","legs":"X"},"correct":true,"bonus":1.0000000000000007},{"rt":25995,"response":{"Q1":"No.","Q2":"Based on the four features of the bee.","Q3":"You do not learn if it was friendly or dangerous, and do not alter your bonus."},"question_order":[0,1,2],"trial_type":"survey-multi-choice","trial_index":5,"time_elapsed":213160,"internal_node_id":"0.0-3.0-2.0","subject_id":"6143bbc4daab169ed298722c","study_id":"6197b3f67c2b5cd3b6d9596a","session_id":"619be58e9898148432a4f1bb","condition":"contingent","relevant_dimensions":["antennae","pattern"],"bee_group":{"antennae":"A","wings":"X","pattern":"D","legs":"X"},"correct":true,"bonus":1.0000000000000007},{"rt":4836.799999952316,"stimulus":"<p>Congrats, you got everything right<br>When you're ready, click the button below to continue to the experiment.</p>","response":0,"trial_type":"html-button-response","trial_index":6,"time_elapsed":218001,"internal_node_id":"0.0-3.0-3.0","subject_id":"6143bbc4daab169ed298722c","study_id":"6197b3f67c2b5cd3b6d9596a","session_id":"619be58e9898148432a4f1bb","condition":"contingent","relevant_dimensions":["antennae","pattern"],"bee_group":{"antennae":"A","wings":"X","pattern":"D","legs":"X"},"bonus":1.0000000000000007},{"rt":13920,"stimulus":"bees-with-color/bee-A1DF.svg","response":0,"trial_type":"image-button-response","trial_index":7,"time_elapsed":231925,"internal_node_id":"0.0-4.0-0.0","subject_id":"6143bbc4daab169ed298722c","study_id":"6197b3f67c2b5cd3b6d9596a","session_id":"619be58e9898148432a4f1bb","condition":"contingent","relevant_dimensions":["antennae","pattern"],"bee_group":{"antennae":"A","wings":"X","pattern":"D","legs":"X"},"action":"harvest","summary":"bad-harvest","bonus":1.0000000000000007},{"rt":4527.299999952316,"stimulus":"\n                    <p><b>Action: <em>harvest</em></b></p>\n                    <p>This is the bee that you just saw.</p>\n                    <img src=\"bees-with-color/bee-A1DF.svg\" width=\"200\">\n                    <p><span class=\"redText\">Bad choice, the bee was angry.</span><br><b>You have been stung!</b><br>Your pay has been decreased by $0.10. Your bonus pay is now $0.44.</p>\n            ","response":0,"trial_type":"html-button-response","trial_index":8,"time_elapsed":236460,"internal_node_id":"0.0-4.0-1.0","subject_id":"6143bbc4daab169ed298722c","study_id":"6197b3f67c2b5cd3b6d9596a","session_id":"619be58e9898148432a4f1bb","condition":"contingent","relevant_dimensions":["antennae","pattern"],"bee_group":{"antennae":"A","wings":"X","pattern":"D","legs":"X"},"bonus":1.0000000000000007},{"rt":5667.100000023842,"stimulus":"bees-with-color/bee-A2DM.svg","response":0,"trial_type":"image-button-response","trial_index":9,"time_elapsed":242131,"internal_node_id":"0.0-4.0-0.1","subject_id":"6143bbc4daab169ed298722c","study_id":"6197b3f67c2b5cd3b6d9596a","session_id":"619be58e9898148432a4f1bb","condition":"contingent","relevant_dimensions":["antennae","pattern"],"bee_group":{"antennae":"A","wings":"X","pattern":"D","legs":"X"},"action":"harvest","summary":"bad-harvest","bonus":1.0000000000000007},{"rt":1908.3000000715256,"stimulus":"\n                    <p><b>Action: <em>harvest</em></b></p>\n                    <p>This is the bee that you just saw.</p>\n                    <img src=\"bees-with-color/bee-A2DM.svg\" width=\"200\">\n                    <p><span class=\"redText\">Bad choice, the bee was angry.</span><br><b>You have been stung!</b><br>Your pay has been decreased by $0.10. Your bonus pay is now $0.34.</p>\n            ","response":0,"trial_type":"html-button-response","trial_index":10,"time_elapsed":244044,"internal_node_id":"0.0-4.0-1.1","subject_id":"6143bbc4daab169ed298722c","study_id":"6197b3f67c2b5cd3b6d9596a","session_id":"619be58e9898148432a4f1bb","condition":"contingent","relevant_dimensions":["antennae","pattern"],"bee_group":{"antennae":"A","wings":"X","pattern":"D","legs":"X"},"bonus":1.0000000000000007},{"rt":2170.399999976158,"stimulus":"bees-with-color/bee-B1DF.svg","response":1,"trial_type":"image-button-response","trial_index":11,"time_elapsed":246219,"internal_node_id":"0.0-4.0-0.2","subject_id":"6143bbc4daab169ed298722c","study_id":"6197b3f67c2b5cd3b6d9596a","session_id":"619be58e9898148432a4f1bb","condition":"contingent","relevant_dimensions":["antennae","pattern"],"bee_group":{"antennae":"A","wings":"X","pattern":"D","legs":"X"},"action":"avoid","summary":"bad-avoid","bonus":1.0000000000000007},{"rt":3666.7000000476837,"stimulus":"\n                    <p><b>Action: <em>avoid</em></b></p>\n                    <p>This is the bee that you just saw.</p>\n                    <img src=\"bees-with-color/bee-B1DF.svg\" width=\"200\">\n                    <p><br>Your bonus pay is unchanged, and remains at $0.34.</p>\n            ","response":0,"trial_type":"html-button-response","trial_index":12,"time_elapsed":249889,"internal_node_id":"0.0-4.0-1.2","subject_id":"6143bbc4daab169ed298722c","study_id":"6197b3f67c2b5cd3b6d9596a","session_id":"619be58e9898148432a4f1bb","condition":"contingent","relevant_dimensions":["antennae","pattern"],"bee_group":{"antennae":"A","wings":"X","pattern":"D","legs":"X"},"bonus":1.0000000000000007},{"rt":6234.299999952316,"stimulus":"bees-with-color/bee-B2SF.svg","response":0,"trial_type":"image-button-response","trial_index":13,"time_elapsed":256126,"internal_node_id":"0.0-4.0-0.3","subject_id":"6143bbc4daab169ed298722c","study_id":"6197b3f67c2b5cd3b6d9596a","session_id":"619be58e9898148432a4f1bb","condition":"contingent","relevant_dimensions":["antennae","pattern"],"bee_group":{"antennae":"A","wings":"X","pattern":"D","legs":"X"},"action":"harvest","summary":"good-harvest","bonus":1.0000000000000007},{"rt":8117.399999976158,"stimulus":"\n                    <p><b>Action: <em>harvest</em></b></p>\n                    <p>This is the bee that you just saw.</p>\n                    <img src=\"bees-with-color/bee-B2SF.svg\" width=\"200\">\n                    <p><span class=\"greenText\"><b>Successful harvest!</b></span><br>Your pay has increased by $0.02. Your bonus pay is now $0.36.</p>\n            ","response":0,"trial_type":"html-button-response","trial_index":14,"time_elapsed":264247,"internal_node_id":"0.0-4.0-1.3","subject_id":"6143bbc4daab169ed298722c","study_id":"6197b3f67c2b5cd3b6d9596a","session_id":"619be58e9898148432a4f1bb","condition":"contingent","relevant_dimensions":["antennae","pattern"],"bee_group":{"antennae":"A","wings":"X","pattern":"D","legs":"X"},"bonus":1.0000000000000007},{"rt":12988.5,"stimulus":"bees-with-color/bee-B1SF.svg","response":0,"trial_type":"image-button-response","trial_index":15,"time_elapsed":277239,"internal_node_id":"0.0-4.0-0.4","subject_id":"6143bbc4daab169ed298722c","study_id":"6197b3f67c2b5cd3b6d9596a","session_id":"619be58e9898148432a4f1bb","condition":"contingent","relevant_dimensions":["antennae","pattern"],"bee_group":{"antennae":"A","wings":"X","pattern":"D","legs":"X"},"action":"harvest","summary":"good-harvest","bonus":1.0000000000000007},{"rt":5359.5,"stimulus":"\n                    <p><b>Action: <em>harvest</em></b></p>\n                    <p>This is the bee that you just saw.</p>\n                    <img src=\"bees-with-color/bee-B1SF.svg\" width=\"200\">\n                    <p><span class=\"greenText\"><b>Successful harvest!</b></span><br>Your pay has increased by $0.02. Your bonus pay is now $0.38.</p>\n            ","response":0,"trial_type":"html-button-response","trial_index":16,"time_elapsed":282601,"internal_node_id":"0.0-4.0-1.4","subject_id":"6143bbc4daab169ed298722c","study_id":"6197b3f67c2b5cd3b6d9596a","session_id":"619be58e9898148432a4f1bb","condition":"contingent","relevant_dimensions":["antennae","pattern"],"bee_group":{"antennae":"A","wings":"X","pattern":"D","legs":"X"},"bonus":1.0000000000000007},{"rt":7896.200000047684,"stimulus":"bees-with-color/bee-B1SM.svg","response":1,"trial_type":"image-button-response","trial_index":17,"time_elapsed":290501,"internal_node_id":"0.0-4.0-0.5","subject_id":"6143bbc4daab169ed298722c","study_id":"6197b3f67c2b5cd3b6d9596a","session_id":"619be58e9898148432a4f1bb","condition":"contingent","relevant_dimensions":["antennae","pattern"],"bee_group":{"antennae":"A","wings":"X","pattern":"D","legs":"X"},"action":"avoid","summary":"bad-avoid","bonus":1.0000000000000007},{"rt":3942.7000000476837,"stimulus":"\n                    <p><b>Action: <em>avoid</em></b></p>\n                    <p>This is the bee that you just saw.</p>\n                    <img src=\"bees-with-color/bee-B1SM.svg\" width=\"200\">\n                    <p><br>Your bonus pay is unchanged, and remains at $0.38.</p>\n            ","response":0,"trial_type":"html-button-response","trial_index":18,"time_elapsed":294447,"internal_node_id":"0.0-4.0-1.5","subject_id":"6143bbc4daab169ed298722c","study_id":"6197b3f67c2b5cd3b6d9596a","session_id":"619be58e9898148432a4f1bb","condition":"contingent","relevant_dimensions":["antennae","pattern"],"bee_group":{"antennae":"A","wings":"X","pattern":"D","legs":"X"},"bonus":1.0000000000000007},{"rt":10910.900000095367,"stimulus":"bees-with-color/bee-A2SM.svg","response":1,"trial_type":"image-button-response","trial_index":19,"time_elapsed":305361,"internal_node_id":"0.0-4.0-0.6","subject_id":"6143bbc4daab169ed298722c","study_id":"6197b3f67c2b5cd3b6d9596a","session_id":"619be58e9898148432a4f1bb","condition":"contingent","relevant_dimensions":["antennae","pattern"],"bee_group":{"antennae":"A","wings":"X","pattern":"D","legs":"X"},"action":"avoid","summary":"bad-avoid","bonus":1.0000000000000007},{"rt":2477,"stimulus":"\n                    <p><b>Action: <em>avoid</em></b></p>\n                    <p>This is the bee that you just saw.</p>\n                    <img src=\"bees-with-color/bee-A2SM.svg\" width=\"200\">\n                    <p><br>Your bonus pay is unchanged, and remains at $0.38.</p>\n            ","response":0,"trial_type":"html-button-response","trial_index":20,"time_elapsed":307841,"internal_node_id":"0.0-4.0-1.6","subject_id":"6143bbc4daab169ed298722c","study_id":"6197b3f67c2b5cd3b6d9596a","session_id":"619be58e9898148432a4f1bb","condition":"contingent","relevant_dimensions":["antennae","pattern"],"bee_group":{"antennae":"A","wings":"X","pattern":"D","legs":"X"},"bonus":1.0000000000000007},{"rt":14643.300000071526,"stimulus":"bees-with-color/bee-A2SF.svg","response":1,"trial_type":"image-button-response","trial_index":21,"time_elapsed":322488,"internal_node_id":"0.0-4.0-0.7","subject_id":"6143bbc4daab169ed298722c","study_id":"6197b3f67c2b5cd3b6d9596a","session_id":"619be58e9898148432a4f1bb","condition":"contingent","relevant_dimensions":["antennae","pattern"],"bee_group":{"antennae":"A","wings":"X","pattern":"D","legs":"X"},"action":"avoid","summary":"bad-avoid","bonus":1.0000000000000007},{"rt":1752.8999999761581,"stimulus":"\n                    <p><b>Action: <em>avoid</em></b></p>\n                    <p>This is the bee that you just saw.</p>\n                    <img src=\"bees-with-color/bee-A2SF.svg\" width=\"200\">\n                    <p><br>Your bonus pay is unchanged, and remains at $0.38.</p>\n            ","response":0,"trial_type":"html-button-response","trial_index":22,"time_elapsed":324244,"internal_node_id":"0.0-4.0-1.7","subject_id":"6143bbc4daab169ed298722c","study_id":"6197b3f67c2b5cd3b6d9596a","session_id":"619be58e9898148432a4f1bb","condition":"contingent","relevant_dimensions":["antennae","pattern"],"bee_group":{"antennae":"A","wings":"X","pattern":"D","legs":"X"},"bonus":1.0000000000000007},{"rt":3855.899999976158,"stimulus":"bees-with-color/bee-B1DM.svg","response":0,"trial_type":"image-button-response","trial_index":23,"time_elapsed":328103,"internal_node_id":"0.0-4.0-0.8","subject_id":"6143bbc4daab169ed298722c","study_id":"6197b3f67c2b5cd3b6d9596a","session_id":"619be58e9898148432a4f1bb","condition":"contingent","relevant_dimensions":["antennae","pattern"],"bee_group":{"antennae":"A","wings":"X","pattern":"D","legs":"X"},"action":"harvest","summary":"good-harvest","bonus":1.0000000000000007},{"rt":5211.299999952316,"stimulus":"\n                    <p><b>Action: <em>harvest</em></b></p>\n                    <p>This is the bee that you just saw.</p>\n                    <img src=\"bees-with-color/bee-B1DM.svg\" width=\"200\">\n                    <p><span class=\"greenText\"><b>Successful harvest!</b></span><br>Your pay has increased by $0.02. Your bonus pay is now $0.40.</p>\n            ","response":0,"trial_type":"html-button-response","trial_index":24,"time_elapsed":333318,"internal_node_id":"0.0-4.0-1.8","subject_id":"6143bbc4daab169ed298722c","study_id":"6197b3f67c2b5cd3b6d9596a","session_id":"619be58e9898148432a4f1bb","condition":"contingent","relevant_dimensions":["antennae","pattern"],"bee_group":{"antennae":"A","wings":"X","pattern":"D","legs":"X"},"bonus":1.0000000000000007},{"rt":14331.5,"stimulus":"bees-with-color/bee-B2DF.svg","response":0,"trial_type":"image-button-response","trial_index":25,"time_elapsed":347652,"internal_node_id":"0.0-4.0-0.9","subject_id":"6143bbc4daab169ed298722c","study_id":"6197b3f67c2b5cd3b6d9596a","session_id":"619be58e9898148432a4f1bb","condition":"contingent","relevant_dimensions":["antennae","pattern"],"bee_group":{"antennae":"A","wings":"X","pattern":"D","legs":"X"},"action":"harvest","summary":"good-harvest","bonus":1.0000000000000007},{"rt":6327.200000047684,"stimulus":"\n                    <p><b>Action: <em>harvest</em></b></p>\n                    <p>This is the bee that you just saw.</p>\n                    <img src=\"bees-with-color/bee-B2DF.svg\" width=\"200\">\n                    <p><span class=\"greenText\"><b>Successful harvest!</b></span><br>Your pay has increased by $0.02. Your bonus pay is now $0.42.</p>\n            ","response":0,"trial_type":"html-button-response","trial_index":26,"time_elapsed":353982,"internal_node_id":"0.0-4.0-1.9","subject_id":"6143bbc4daab169ed298722c","study_id":"6197b3f67c2b5cd3b6d9596a","session_id":"619be58e9898148432a4f1bb","condition":"contingent","relevant_dimensions":["antennae","pattern"],"bee_group":{"antennae":"A","wings":"X","pattern":"D","legs":"X"},"bonus":1.0000000000000007},{"rt":3924.899999976158,"stimulus":"bees-with-color/bee-A1DM.svg","response":1,"trial_type":"image-button-response","trial_index":27,"time_elapsed":357912,"internal_node_id":"0.0-4.0-0.10","subject_id":"6143bbc4daab169ed298722c","study_id":"6197b3f67c2b5cd3b6d9596a","session_id":"619be58e9898148432a4f1bb","condition":"contingent","relevant_dimensions":["antennae","pattern"],"bee_group":{"antennae":"A","wings":"X","pattern":"D","legs":"X"},"action":"avoid","summary":"good-avoid","bonus":1.0000000000000007},{"rt":2337.2000000476837,"stimulus":"\n                    <p><b>Action: <em>avoid</em></b></p>\n                    <p>This is the bee that you just saw.</p>\n                    <img src=\"bees-with-color/bee-A1DM.svg\" width=\"200\">\n                    <p><br>Your bonus pay is unchanged, and remains at $0.42.</p>\n            ","response":0,"trial_type":"html-button-response","trial_index":28,"time_elapsed":360252,"internal_node_id":"0.0-4.0-1.10","subject_id":"6143bbc4daab169ed298722c","study_id":"6197b3f67c2b5cd3b6d9596a","session_id":"619be58e9898148432a4f1bb","condition":"contingent","relevant_dimensions":["antennae","pattern"],"bee_group":{"antennae":"A","wings":"X","pattern":"D","legs":"X"},"bonus":1.0000000000000007},{"rt":3122,"stimulus":"bees-with-color/bee-A2DF.svg","response":1,"trial_type":"image-button-response","trial_index":29,"time_elapsed":363378,"internal_node_id":"0.0-4.0-0.11","subject_id":"6143bbc4daab169ed298722c","study_id":"6197b3f67c2b5cd3b6d9596a","session_id":"619be58e9898148432a4f1bb","condition":"contingent","relevant_dimensions":["antennae","pattern"],"bee_group":{"antennae":"A","wings":"X","pattern":"D","legs":"X"},"action":"avoid","summary":"good-avoid","bonus":1.0000000000000007},{"rt":1035.2999999523163,"stimulus":"\n                    <p><b>Action: <em>avoid</em></b></p>\n                    <p>This is the bee that you just saw.</p>\n                    <img src=\"bees-with-color/bee-A2DF.svg\" width=\"200\">\n                    <p><br>Your bonus pay is unchanged, and remains at $0.42.</p>\n            ","response":0,"trial_type":"html-button-response","trial_index":30,"time_elapsed":364418,"internal_node_id":"0.0-4.0-1.11","subject_id":"6143bbc4daab169ed298722c","study_id":"6197b3f67c2b5cd3b6d9596a","session_id":"619be58e9898148432a4f1bb","condition":"contingent","relevant_dimensions":["antennae","pattern"],"bee_group":{"antennae":"A","wings":"X","pattern":"D","legs":"X"},"bonus":1.0000000000000007},{"rt":12148.700000047684,"stimulus":"bees-with-color/bee-B2DM.svg","response":0,"trial_type":"image-button-response","trial_index":31,"time_elapsed":376570,"internal_node_id":"0.0-4.0-0.12","subject_id":"6143bbc4daab169ed298722c","study_id":"6197b3f67c2b5cd3b6d9596a","session_id":"619be58e9898148432a4f1bb","condition":"contingent","relevant_dimensions":["antennae","pattern"],"bee_group":{"antennae":"A","wings":"X","pattern":"D","legs":"X"},"action":"harvest","summary":"good-harvest","bonus":1.0000000000000007},{"rt":1997.3999999761581,"stimulus":"\n                    <p><b>Action: <em>harvest</em></b></p>\n                    <p>This is the bee that you just saw.</p>\n                    <img src=\"bees-with-color/bee-B2DM.svg\" width=\"200\">\n                    <p><span class=\"greenText\"><b>Successful harvest!</b></span><br>Your pay has increased by $0.02. Your bonus pay is now $0.44.</p>\n            ","response":0,"trial_type":"html-button-response","trial_index":32,"time_elapsed":378570,"internal_node_id":"0.0-4.0-1.12","subject_id":"6143bbc4daab169ed298722c","study_id":"6197b3f67c2b5cd3b6d9596a","session_id":"619be58e9898148432a4f1bb","condition":"contingent","relevant_dimensions":["antennae","pattern"],"bee_group":{"antennae":"A","wings":"X","pattern":"D","legs":"X"},"bonus":1.0000000000000007},{"rt":7255.199999928474,"stimulus":"bees-with-color/bee-A1SF.svg","response":1,"trial_type":"image-button-response","trial_index":33,"time_elapsed":385830,"internal_node_id":"0.0-4.0-0.13","subject_id":"6143bbc4daab169ed298722c","study_id":"6197b3f67c2b5cd3b6d9596a","session_id":"619be58e9898148432a4f1bb","condition":"contingent","relevant_dimensions":["antennae","pattern"],"bee_group":{"antennae":"A","wings":"X","pattern":"D","legs":"X"},"action":"avoid","summary":"bad-avoid","bonus":1.0000000000000007},{"rt":1799.4000000953674,"stimulus":"\n                    <p><b>Action: <em>avoid</em></b></p>\n                    <p>This is the bee that you just saw.</p>\n                    <img src=\"bees-with-color/bee-A1SF.svg\" width=\"200\">\n                    <p><br>Your bonus pay is unchanged, and remains at $0.44.</p>\n            ","response":0,"trial_type":"html-button-response","trial_index":34,"time_elapsed":387635,"internal_node_id":"0.0-4.0-1.13","subject_id":"6143bbc4daab169ed298722c","study_id":"6197b3f67c2b5cd3b6d9596a","session_id":"619be58e9898148432a4f1bb","condition":"contingent","relevant_dimensions":["antennae","pattern"],"bee_group":{"antennae":"A","wings":"X","pattern":"D","legs":"X"},"bonus":1.0000000000000007},{"rt":2052.600000023842,"stimulus":"bees-with-color/bee-A1SM.svg","response":1,"trial_type":"image-button-response","trial_index":35,"time_elapsed":389691,"internal_node_id":"0.0-4.0-0.14","subject_id":"6143bbc4daab169ed298722c","study_id":"6197b3f67c2b5cd3b6d9596a","session_id":"619be58e9898148432a4f1bb","condition":"contingent","relevant_dimensions":["antennae","pattern"],"bee_group":{"antennae":"A","wings":"X","pattern":"D","legs":"X"},"action":"avoid","summary":"bad-avoid","bonus":1.0000000000000007},{"rt":863.3999999761581,"stimulus":"\n                    <p><b>Action: <em>avoid</em></b></p>\n                    <p>This is the bee that you just saw.</p>\n                    <img src=\"bees-with-color/bee-A1SM.svg\" width=\"200\">\n                    <p><br>Your bonus pay is unchanged, and remains at $0.44.</p>\n            ","response":0,"trial_type":"html-button-response","trial_index":36,"time_elapsed":390556,"internal_node_id":"0.0-4.0-1.14","subject_id":"6143bbc4daab169ed298722c","study_id":"6197b3f67c2b5cd3b6d9596a","session_id":"619be58e9898148432a4f1bb","condition":"contingent","relevant_dimensions":["antennae","pattern"],"bee_group":{"antennae":"A","wings":"X","pattern":"D","legs":"X"},"bonus":1.0000000000000007},{"rt":12093.299999952316,"stimulus":"bees-with-color/bee-B2SM.svg","response":1,"trial_type":"image-button-response","trial_index":37,"time_elapsed":402653,"internal_node_id":"0.0-4.0-0.15","subject_id":"6143bbc4daab169ed298722c","study_id":"6197b3f67c2b5cd3b6d9596a","session_id":"619be58e9898148432a4f1bb","condition":"contingent","relevant_dimensions":["antennae","pattern"],"bee_group":{"antennae":"A","wings":"X","pattern":"D","legs":"X"},"action":"avoid","summary":"bad-avoid","bonus":1.0000000000000007},{"rt":1202.9000000953674,"stimulus":"\n                    <p><b>Action: <em>avoid</em></b></p>\n                    <p>This is the bee that you just saw.</p>\n                    <img src=\"bees-with-color/bee-B2SM.svg\" width=\"200\">\n                    <p><br>Your bonus pay is unchanged, and remains at $0.44.</p>\n            ","response":0,"trial_type":"html-button-response","trial_index":38,"time_elapsed":403859,"internal_node_id":"0.0-4.0-1.15","subject_id":"6143bbc4daab169ed298722c","study_id":"6197b3f67c2b5cd3b6d9596a","session_id":"619be58e9898148432a4f1bb","condition":"contingent","relevant_dimensions":["antennae","pattern"],"bee_group":{"antennae":"A","wings":"X","pattern":"D","legs":"X"},"bonus":1.0000000000000007},{"rt":7633.699999928474,"stimulus":"bees-with-color/bee-A2DF.svg","response":1,"trial_type":"image-button-response","trial_index":39,"time_elapsed":411496,"internal_node_id":"0.0-4.0-0.16","subject_id":"6143bbc4daab169ed298722c","study_id":"6197b3f67c2b5cd3b6d9596a","session_id":"619be58e9898148432a4f1bb","condition":"contingent","relevant_dimensions":["antennae","pattern"],"bee_group":{"antennae":"A","wings":"X","pattern":"D","legs":"X"},"action":"avoid","summary":"good-avoid","bonus":1.0000000000000007},{"rt":1209.1999999284744,"stimulus":"\n                    <p><b>Action: <em>avoid</em></b></p>\n                    <p>This is the bee that you just saw.</p>\n                    <img src=\"bees-with-color/bee-A2DF.svg\" width=\"200\">\n                    <p><br>Your bonus pay is unchanged, and remains at $0.44.</p>\n            ","response":0,"trial_type":"html-button-response","trial_index":40,"time_elapsed":412708,"internal_node_id":"0.0-4.0-1.16","subject_id":"6143bbc4daab169ed298722c","study_id":"6197b3f67c2b5cd3b6d9596a","session_id":"619be58e9898148432a4f1bb","condition":"contingent","relevant_dimensions":["antennae","pattern"],"bee_group":{"antennae":"A","wings":"X","pattern":"D","legs":"X"},"bonus":1.0000000000000007},{"rt":6239,"stimulus":"bees-with-color/bee-B2DF.svg","response":0,"trial_type":"image-button-response","trial_index":41,"time_elapsed":418953,"internal_node_id":"0.0-4.0-0.17","subject_id":"6143bbc4daab169ed298722c","study_id":"6197b3f67c2b5cd3b6d9596a","session_id":"619be58e9898148432a4f1bb","condition":"contingent","relevant_dimensions":["antennae","pattern"],"bee_group":{"antennae":"A","wings":"X","pattern":"D","legs":"X"},"action":"harvest","summary":"good-harvest","bonus":1.0000000000000007},{"rt":1226.2999999523163,"stimulus":"\n                    <p><b>Action: <em>harvest</em></b></p>\n                    <p>This is the bee that you just saw.</p>\n                    <img src=\"bees-with-color/bee-B2DF.svg\" width=\"200\">\n                    <p><span class=\"greenText\"><b>Successful harvest!</b></span><br>Your pay has increased by $0.02. Your bonus pay is now $0.46.</p>\n            ","response":0,"trial_type":"html-button-response","trial_index":42,"time_elapsed":420183,"internal_node_id":"0.0-4.0-1.17","subject_id":"6143bbc4daab169ed298722c","study_id":"6197b3f67c2b5cd3b6d9596a","session_id":"619be58e9898148432a4f1bb","condition":"contingent","relevant_dimensions":["antennae","pattern"],"bee_group":{"antennae":"A","wings":"X","pattern":"D","legs":"X"},"bonus":1.0000000000000007},{"rt":2498.600000023842,"stimulus":"bees-with-color/bee-A2SF.svg","response":1,"trial_type":"image-button-response","trial_index":43,"time_elapsed":422686,"internal_node_id":"0.0-4.0-0.18","subject_id":"6143bbc4daab169ed298722c","study_id":"6197b3f67c2b5cd3b6d9596a","session_id":"619be58e9898148432a4f1bb","condition":"contingent","relevant_dimensions":["antennae","pattern"],"bee_group":{"antennae":"A","wings":"X","pattern":"D","legs":"X"},"action":"avoid","summary":"bad-avoid","bonus":1.0000000000000007},{"rt":940.6999999284744,"stimulus":"\n                    <p><b>Action: <em>avoid</em></b></p>\n                    <p>This is the bee that you just saw.</p>\n                    <img src=\"bees-with-color/bee-A2SF.svg\" width=\"200\">\n                    <p><br>Your bonus pay is unchanged, and remains at $0.46.</p>\n            ","response":0,"trial_type":"html-button-response","trial_index":44,"time_elapsed":423630,"internal_node_id":"0.0-4.0-1.18","subject_id":"6143bbc4daab169ed298722c","study_id":"6197b3f67c2b5cd3b6d9596a","session_id":"619be58e9898148432a4f1bb","condition":"contingent","relevant_dimensions":["antennae","pattern"],"bee_group":{"antennae":"A","wings":"X","pattern":"D","legs":"X"},"bonus":1.0000000000000007},{"rt":1446.5,"stimulus":"bees-with-color/bee-A2SM.svg","response":1,"trial_type":"image-button-response","trial_index":45,"time_elapsed":425081,"internal_node_id":"0.0-4.0-0.19","subject_id":"6143bbc4daab169ed298722c","study_id":"6197b3f67c2b5cd3b6d9596a","session_id":"619be58e9898148432a4f1bb","condition":"contingent","relevant_dimensions":["antennae","pattern"],"bee_group":{"antennae":"A","wings":"X","pattern":"D","legs":"X"},"action":"avoid","summary":"bad-avoid","bonus":1.0000000000000007},{"rt":749,"stimulus":"\n                    <p><b>Action: <em>avoid</em></b></p>\n                    <p>This is the bee that you just saw.</p>\n                    <img src=\"bees-with-color/bee-A2SM.svg\" width=\"200\">\n                    <p><br>Your bonus pay is unchanged, and remains at $0.46.</p>\n            ","response":0,"trial_type":"html-button-response","trial_index":46,"time_elapsed":425837,"internal_node_id":"0.0-4.0-1.19","subject_id":"6143bbc4daab169ed298722c","study_id":"6197b3f67c2b5cd3b6d9596a","session_id":"619be58e9898148432a4f1bb","condition":"contingent","relevant_dimensions":["antennae","pattern"],"bee_group":{"antennae":"A","wings":"X","pattern":"D","legs":"X"},"bonus":1.0000000000000007},{"rt":3658,"stimulus":"bees-with-color/bee-B1SM.svg","response":0,"trial_type":"image-button-response","trial_index":47,"time_elapsed":429498,"internal_node_id":"0.0-4.0-0.20","subject_id":"6143bbc4daab169ed298722c","study_id":"6197b3f67c2b5cd3b6d9596a","session_id":"619be58e9898148432a4f1bb","condition":"contingent","relevant_dimensions":["antennae","pattern"],"bee_group":{"antennae":"A","wings":"X","pattern":"D","legs":"X"},"action":"harvest","summary":"good-harvest","bonus":1.0000000000000007},{"rt":1240.6000000238419,"stimulus":"\n                    <p><b>Action: <em>harvest</em></b></p>\n                    <p>This is the bee that you just saw.</p>\n                    <img src=\"bees-with-color/bee-B1SM.svg\" width=\"200\">\n                    <p><span class=\"greenText\"><b>Successful harvest!</b></span><br>Your pay has increased by $0.02. Your bonus pay is now $0.48.</p>\n            ","response":0,"trial_type":"html-button-response","trial_index":48,"time_elapsed":430741,"internal_node_id":"0.0-4.0-1.20","subject_id":"6143bbc4daab169ed298722c","study_id":"6197b3f67c2b5cd3b6d9596a","session_id":"619be58e9898148432a4f1bb","condition":"contingent","relevant_dimensions":["antennae","pattern"],"bee_group":{"antennae":"A","wings":"X","pattern":"D","legs":"X"},"bonus":1.0000000000000007},{"rt":3564.5,"stimulus":"bees-with-color/bee-B2SF.svg","response":0,"trial_type":"image-button-response","trial_index":49,"time_elapsed":434308,"internal_node_id":"0.0-4.0-0.21","subject_id":"6143bbc4daab169ed298722c","study_id":"6197b3f67c2b5cd3b6d9596a","session_id":"619be58e9898148432a4f1bb","condition":"contingent","relevant_dimensions":["antennae","pattern"],"bee_group":{"antennae":"A","wings":"X","pattern":"D","legs":"X"},"action":"harvest","summary":"good-harvest","bonus":1.0000000000000007},{"rt":1391,"stimulus":"\n                    <p><b>Action: <em>harvest</em></b></p>\n                    <p>This is the bee that you just saw.</p>\n                    <img src=\"bees-with-color/bee-B2SF.svg\" width=\"200\">\n                    <p><span class=\"greenText\"><b>Successful harvest!</b></span><br>Your pay has increased by $0.02. Your bonus pay is now $0.50.</p>\n            ","response":0,"trial_type":"html-button-response","trial_index":50,"time_elapsed":435702,"internal_node_id":"0.0-4.0-1.21","subject_id":"6143bbc4daab169ed298722c","study_id":"6197b3f67c2b5cd3b6d9596a","session_id":"619be58e9898148432a4f1bb","condition":"contingent","relevant_dimensions":["antennae","pattern"],"bee_group":{"antennae":"A","wings":"X","pattern":"D","legs":"X"},"bonus":1.0000000000000007},{"rt":7690.899999976158,"stimulus":"bees-with-color/bee-B1DF.svg","response":1,"trial_type":"image-button-response","trial_index":51,"time_elapsed":443396,"internal_node_id":"0.0-4.0-0.22","subject_id":"6143bbc4daab169ed298722c","study_id":"6197b3f67c2b5cd3b6d9596a","session_id":"619be58e9898148432a4f1bb","condition":"contingent","relevant_dimensions":["antennae","pattern"],"bee_group":{"antennae":"A","wings":"X","pattern":"D","legs":"X"},"action":"avoid","summary":"bad-avoid","bonus":1.0000000000000007},{"rt":817.5,"stimulus":"\n                    <p><b>Action: <em>avoid</em></b></p>\n                    <p>This is the bee that you just saw.</p>\n                    <img src=\"bees-with-color/bee-B1DF.svg\" width=\"200\">\n                    <p><br>Your bonus pay is unchanged, and remains at $0.50.</p>\n            ","response":0,"trial_type":"html-button-response","trial_index":52,"time_elapsed":444216,"internal_node_id":"0.0-4.0-1.22","subject_id":"6143bbc4daab169ed298722c","study_id":"6197b3f67c2b5cd3b6d9596a","session_id":"619be58e9898148432a4f1bb","condition":"contingent","relevant_dimensions":["antennae","pattern"],"bee_group":{"antennae":"A","wings":"X","pattern":"D","legs":"X"},"bonus":1.0000000000000007},{"rt":3208.6999999284744,"stimulus":"bees-with-color/bee-A1DM.svg","response":1,"trial_type":"image-button-response","trial_index":53,"time_elapsed":447428,"internal_node_id":"0.0-4.0-0.23","subject_id":"6143bbc4daab169ed298722c","study_id":"6197b3f67c2b5cd3b6d9596a","session_id":"619be58e9898148432a4f1bb","condition":"contingent","relevant_dimensions":["antennae","pattern"],"bee_group":{"antennae":"A","wings":"X","pattern":"D","legs":"X"},"action":"avoid","summary":"good-avoid","bonus":1.0000000000000007},{"rt":1635.5999999046326,"stimulus":"\n                    <p><b>Action: <em>avoid</em></b></p>\n                    <p>This is the bee that you just saw.</p>\n                    <img src=\"bees-with-color/bee-A1DM.svg\" width=\"200\">\n                    <p><br>Your bonus pay is unchanged, and remains at $0.50.</p>\n            ","response":0,"trial_type":"html-button-response","trial_index":54,"time_elapsed":449066,"internal_node_id":"0.0-4.0-1.23","subject_id":"6143bbc4daab169ed298722c","study_id":"6197b3f67c2b5cd3b6d9596a","session_id":"619be58e9898148432a4f1bb","condition":"contingent","relevant_dimensions":["antennae","pattern"],"bee_group":{"antennae":"A","wings":"X","pattern":"D","legs":"X"},"bonus":1.0000000000000007},{"rt":2070.1999999284744,"stimulus":"bees-with-color/bee-A1SF.svg","response":1,"trial_type":"image-button-response","trial_index":55,"time_elapsed":451139,"internal_node_id":"0.0-4.0-0.24","subject_id":"6143bbc4daab169ed298722c","study_id":"6197b3f67c2b5cd3b6d9596a","session_id":"619be58e9898148432a4f1bb","condition":"contingent","relevant_dimensions":["antennae","pattern"],"bee_group":{"antennae":"A","wings":"X","pattern":"D","legs":"X"},"action":"avoid","summary":"bad-avoid","bonus":1.0000000000000007},{"rt":917.6000000238419,"stimulus":"\n                    <p><b>Action: <em>avoid</em></b></p>\n                    <p>This is the bee that you just saw.</p>\n                    <img src=\"bees-with-color/bee-A1SF.svg\" width=\"200\">\n                    <p><br>Your bonus pay is unchanged, and remains at $0.50.</p>\n            ","response":0,"trial_type":"html-button-response","trial_index":56,"time_elapsed":452058,"internal_node_id":"0.0-4.0-1.24","subject_id":"6143bbc4daab169ed298722c","study_id":"6197b3f67c2b5cd3b6d9596a","session_id":"619be58e9898148432a4f1bb","condition":"contingent","relevant_dimensions":["antennae","pattern"],"bee_group":{"antennae":"A","wings":"X","pattern":"D","legs":"X"},"bonus":1.0000000000000007},{"rt":4967.300000071526,"stimulus":"bees-with-color/bee-B2DM.svg","response":1,"trial_type":"image-button-response","trial_index":57,"time_elapsed":457028,"internal_node_id":"0.0-4.0-0.25","subject_id":"6143bbc4daab169ed298722c","study_id":"6197b3f67c2b5cd3b6d9596a","session_id":"619be58e9898148432a4f1bb","condition":"contingent","relevant_dimensions":["antennae","pattern"],"bee_group":{"antennae":"A","wings":"X","pattern":"D","legs":"X"},"action":"avoid","summary":"bad-avoid","bonus":1.0000000000000007},{"rt":831.5,"stimulus":"\n                    <p><b>Action: <em>avoid</em></b></p>\n                    <p>This is the bee that you just saw.</p>\n                    <img src=\"bees-with-color/bee-B2DM.svg\" width=\"200\">\n                    <p><br>Your bonus pay is unchanged, and remains at $0.50.</p>\n            ","response":0,"trial_type":"html-button-response","trial_index":58,"time_elapsed":457862,"internal_node_id":"0.0-4.0-1.25","subject_id":"6143bbc4daab169ed298722c","study_id":"6197b3f67c2b5cd3b6d9596a","session_id":"619be58e9898148432a4f1bb","condition":"contingent","relevant_dimensions":["antennae","pattern"],"bee_group":{"antennae":"A","wings":"X","pattern":"D","legs":"X"},"bonus":1.0000000000000007},{"rt":4224.899999976158,"stimulus":"bees-with-color/bee-B1DM.svg","response":0,"trial_type":"image-button-response","trial_index":59,"time_elapsed":462090,"internal_node_id":"0.0-4.0-0.26","subject_id":"6143bbc4daab169ed298722c","study_id":"6197b3f67c2b5cd3b6d9596a","session_id":"619be58e9898148432a4f1bb","condition":"contingent","relevant_dimensions":["antennae","pattern"],"bee_group":{"antennae":"A","wings":"X","pattern":"D","legs":"X"},"action":"harvest","summary":"good-harvest","bonus":1.0000000000000007},{"rt":1188,"stimulus":"\n                    <p><b>Action: <em>harvest</em></b></p>\n                    <p>This is the bee that you just saw.</p>\n                    <img src=\"bees-with-color/bee-B1DM.svg\" width=\"200\">\n                    <p><span class=\"greenText\"><b>Successful harvest!</b></span><br>Your pay has increased by $0.02. Your bonus pay is now $0.52.</p>\n            ","response":0,"trial_type":"html-button-response","trial_index":60,"time_elapsed":463281,"internal_node_id":"0.0-4.0-1.26","subject_id":"6143bbc4daab169ed298722c","study_id":"6197b3f67c2b5cd3b6d9596a","session_id":"619be58e9898148432a4f1bb","condition":"contingent","relevant_dimensions":["antennae","pattern"],"bee_group":{"antennae":"A","wings":"X","pattern":"D","legs":"X"},"bonus":1.0000000000000007},{"rt":5422,"stimulus":"bees-with-color/bee-A1DF.svg","response":1,"trial_type":"image-button-response","trial_index":61,"time_elapsed":468707,"internal_node_id":"0.0-4.0-0.27","subject_id":"6143bbc4daab169ed298722c","study_id":"6197b3f67c2b5cd3b6d9596a","session_id":"619be58e9898148432a4f1bb","condition":"contingent","relevant_dimensions":["antennae","pattern"],"bee_group":{"antennae":"A","wings":"X","pattern":"D","legs":"X"},"action":"avoid","summary":"good-avoid","bonus":1.0000000000000007},{"rt":1065.9000000953674,"stimulus":"\n                    <p><b>Action: <em>avoid</em></b></p>\n                    <p>This is the bee that you just saw.</p>\n                    <img src=\"bees-with-color/bee-A1DF.svg\" width=\"200\">\n                    <p><br>Your bonus pay is unchanged, and remains at $0.52.</p>\n            ","response":0,"trial_type":"html-button-response","trial_index":62,"time_elapsed":469776,"internal_node_id":"0.0-4.0-1.27","subject_id":"6143bbc4daab169ed298722c","study_id":"6197b3f67c2b5cd3b6d9596a","session_id":"619be58e9898148432a4f1bb","condition":"contingent","relevant_dimensions":["antennae","pattern"],"bee_group":{"antennae":"A","wings":"X","pattern":"D","legs":"X"},"bonus":1.0000000000000007},{"rt":2461.2000000476837,"stimulus":"bees-with-color/bee-A1SM.svg","response":1,"trial_type":"image-button-response","trial_index":63,"time_elapsed":472240,"internal_node_id":"0.0-4.0-0.28","subject_id":"6143bbc4daab169ed298722c","study_id":"6197b3f67c2b5cd3b6d9596a","session_id":"619be58e9898148432a4f1bb","condition":"contingent","relevant_dimensions":["antennae","pattern"],"bee_group":{"antennae":"A","wings":"X","pattern":"D","legs":"X"},"action":"avoid","summary":"bad-avoid","bonus":1.0000000000000007},{"rt":1077.8999999761581,"stimulus":"\n                    <p><b>Action: <em>avoid</em></b></p>\n                    <p>This is the bee that you just saw.</p>\n                    <img src=\"bees-with-color/bee-A1SM.svg\" width=\"200\">\n                    <p><br>Your bonus pay is unchanged, and remains at $0.52.</p>\n            ","response":0,"trial_type":"html-button-response","trial_index":64,"time_elapsed":473320,"internal_node_id":"0.0-4.0-1.28","subject_id":"6143bbc4daab169ed298722c","study_id":"6197b3f67c2b5cd3b6d9596a","session_id":"619be58e9898148432a4f1bb","condition":"contingent","relevant_dimensions":["antennae","pattern"],"bee_group":{"antennae":"A","wings":"X","pattern":"D","legs":"X"},"bonus":1.0000000000000007},{"rt":3233.2000000476837,"stimulus":"bees-with-color/bee-B1SF.svg","response":0,"trial_type":"image-button-response","trial_index":65,"time_elapsed":476557,"internal_node_id":"0.0-4.0-0.29","subject_id":"6143bbc4daab169ed298722c","study_id":"6197b3f67c2b5cd3b6d9596a","session_id":"619be58e9898148432a4f1bb","condition":"contingent","relevant_dimensions":["antennae","pattern"],"bee_group":{"antennae":"A","wings":"X","pattern":"D","legs":"X"},"action":"harvest","summary":"good-harvest","bonus":1.0000000000000007},{"rt":3074.399999976158,"stimulus":"\n                    <p><b>Action: <em>harvest</em></b></p>\n                    <p>This is the bee that you just saw.</p>\n                    <img src=\"bees-with-color/bee-B1SF.svg\" width=\"200\">\n                    <p><span class=\"greenText\"><b>Successful harvest!</b></span><br>Your pay has increased by $0.02. Your bonus pay is now $0.54.</p>\n            ","response":0,"trial_type":"html-button-response","trial_index":66,"time_elapsed":479635,"internal_node_id":"0.0-4.0-1.29","subject_id":"6143bbc4daab169ed298722c","study_id":"6197b3f67c2b5cd3b6d9596a","session_id":"619be58e9898148432a4f1bb","condition":"contingent","relevant_dimensions":["antennae","pattern"],"bee_group":{"antennae":"A","wings":"X","pattern":"D","legs":"X"},"bonus":1.0000000000000007},{"rt":2287.7000000476837,"stimulus":"bees-with-color/bee-A2DM.svg","response":1,"trial_type":"image-button-response","trial_index":67,"time_elapsed":481927,"internal_node_id":"0.0-4.0-0.30","subject_id":"6143bbc4daab169ed298722c","study_id":"6197b3f67c2b5cd3b6d9596a","session_id":"619be58e9898148432a4f1bb","condition":"contingent","relevant_dimensions":["antennae","pattern"],"bee_group":{"antennae":"A","wings":"X","pattern":"D","legs":"X"},"action":"avoid","summary":"good-avoid","bonus":1.0000000000000007},{"rt":1004.6999999284744,"stimulus":"\n                    <p><b>Action: <em>avoid</em></b></p>\n                    <p>This is the bee that you just saw.</p>\n                    <img src=\"bees-with-color/bee-A2DM.svg\" width=\"200\">\n                    <p><br>Your bonus pay is unchanged, and remains at $0.54.</p>\n            ","response":0,"trial_type":"html-button-response","trial_index":68,"time_elapsed":482934,"internal_node_id":"0.0-4.0-1.30","subject_id":"6143bbc4daab169ed298722c","study_id":"6197b3f67c2b5cd3b6d9596a","session_id":"619be58e9898148432a4f1bb","condition":"contingent","relevant_dimensions":["antennae","pattern"],"bee_group":{"antennae":"A","wings":"X","pattern":"D","legs":"X"},"bonus":1.0000000000000007},{"rt":5005.800000071526,"stimulus":"bees-with-color/bee-B2SM.svg","response":1,"trial_type":"image-button-response","trial_index":69,"time_elapsed":487942,"internal_node_id":"0.0-4.0-0.31","subject_id":"6143bbc4daab169ed298722c","study_id":"6197b3f67c2b5cd3b6d9596a","session_id":"619be58e9898148432a4f1bb","condition":"contingent","relevant_dimensions":["antennae","pattern"],"bee_group":{"antennae":"A","wings":"X","pattern":"D","legs":"X"},"action":"avoid","summary":"bad-avoid","bonus":1.0000000000000007},{"rt":1035.5,"stimulus":"\n                    <p><b>Action: <em>avoid</em></b></p>\n                    <p>This is the bee that you just saw.</p>\n                    <img src=\"bees-with-color/bee-B2SM.svg\" width=\"200\">\n                    <p><br>Your bonus pay is unchanged, and remains at $0.54.</p>\n            ","response":0,"trial_type":"html-button-response","trial_index":70,"time_elapsed":488980,"internal_node_id":"0.0-4.0-1.31","subject_id":"6143bbc4daab169ed298722c","study_id":"6197b3f67c2b5cd3b6d9596a","session_id":"619be58e9898148432a4f1bb","condition":"contingent","relevant_dimensions":["antennae","pattern"],"bee_group":{"antennae":"A","wings":"X","pattern":"D","legs":"X"},"bonus":1.0000000000000007},{"rt":1833,"stimulus":"bees-with-color/bee-A2DM.svg","response":1,"trial_type":"image-button-response","trial_index":71,"time_elapsed":490817,"internal_node_id":"0.0-4.0-0.32","subject_id":"6143bbc4daab169ed298722c","study_id":"6197b3f67c2b5cd3b6d9596a","session_id":"619be58e9898148432a4f1bb","condition":"contingent","relevant_dimensions":["antennae","pattern"],"bee_group":{"antennae":"A","wings":"X","pattern":"D","legs":"X"},"action":"avoid","summary":"good-avoid","bonus":1.0000000000000007},{"rt":1083.1000000238419,"stimulus":"\n                    <p><b>Action: <em>avoid</em></b></p>\n                    <p>This is the bee that you just saw.</p>\n                    <img src=\"bees-with-color/bee-A2DM.svg\" width=\"200\">\n                    <p><br>Your bonus pay is unchanged, and remains at $0.54.</p>\n            ","response":0,"trial_type":"html-button-response","trial_index":72,"time_elapsed":491903,"internal_node_id":"0.0-4.0-1.32","subject_id":"6143bbc4daab169ed298722c","study_id":"6197b3f67c2b5cd3b6d9596a","session_id":"619be58e9898148432a4f1bb","condition":"contingent","relevant_dimensions":["antennae","pattern"],"bee_group":{"antennae":"A","wings":"X","pattern":"D","legs":"X"},"bonus":1.0000000000000007},{"rt":7319.199999928474,"stimulus":"bees-with-color/bee-B2DM.svg","response":0,"trial_type":"image-button-response","trial_index":73,"time_elapsed":499224,"internal_node_id":"0.0-4.0-0.33","subject_id":"6143bbc4daab169ed298722c","study_id":"6197b3f67c2b5cd3b6d9596a","session_id":"619be58e9898148432a4f1bb","condition":"contingent","relevant_dimensions":["antennae","pattern"],"bee_group":{"antennae":"A","wings":"X","pattern":"D","legs":"X"},"action":"harvest","summary":"good-harvest","bonus":1.0000000000000007},{"rt":1218.3999999761581,"stimulus":"\n                    <p><b>Action: <em>harvest</em></b></p>\n                    <p>This is the bee that you just saw.</p>\n                    <img src=\"bees-with-color/bee-B2DM.svg\" width=\"200\">\n                    <p><span class=\"greenText\"><b>Successful harvest!</b></span><br>Your pay has increased by $0.02. Your bonus pay is now $0.56.</p>\n            ","response":0,"trial_type":"html-button-response","trial_index":74,"time_elapsed":500447,"internal_node_id":"0.0-4.0-1.33","subject_id":"6143bbc4daab169ed298722c","study_id":"6197b3f67c2b5cd3b6d9596a","session_id":"619be58e9898148432a4f1bb","condition":"contingent","relevant_dimensions":["antennae","pattern"],"bee_group":{"antennae":"A","wings":"X","pattern":"D","legs":"X"},"bonus":1.0000000000000007},{"rt":1576.3000000715256,"stimulus":"bees-with-color/bee-A2DF.svg","response":1,"trial_type":"image-button-response","trial_index":75,"time_elapsed":502029,"internal_node_id":"0.0-4.0-0.34","subject_id":"6143bbc4daab169ed298722c","study_id":"6197b3f67c2b5cd3b6d9596a","session_id":"619be58e9898148432a4f1bb","condition":"contingent","relevant_dimensions":["antennae","pattern"],"bee_group":{"antennae":"A","wings":"X","pattern":"D","legs":"X"},"action":"avoid","summary":"good-avoid","bonus":1.0000000000000007},{"rt":1521.9000000953674,"stimulus":"\n                    <p><b>Action: <em>avoid</em></b></p>\n                    <p>This is the bee that you just saw.</p>\n                    <img src=\"bees-with-color/bee-A2DF.svg\" width=\"200\">\n                    <p><br>Your bonus pay is unchanged, and remains at $0.56.</p>\n            ","response":0,"trial_type":"html-button-response","trial_index":76,"time_elapsed":503553,"internal_node_id":"0.0-4.0-1.34","subject_id":"6143bbc4daab169ed298722c","study_id":"6197b3f67c2b5cd3b6d9596a","session_id":"619be58e9898148432a4f1bb","condition":"contingent","relevant_dimensions":["antennae","pattern"],"bee_group":{"antennae":"A","wings":"X","pattern":"D","legs":"X"},"bonus":1.0000000000000007},{"rt":3824.5,"stimulus":"bees-with-color/bee-B1SF.svg","response":0,"trial_type":"image-button-response","trial_index":77,"time_elapsed":507381,"internal_node_id":"0.0-4.0-0.35","subject_id":"6143bbc4daab169ed298722c","study_id":"6197b3f67c2b5cd3b6d9596a","session_id":"619be58e9898148432a4f1bb","condition":"contingent","relevant_dimensions":["antennae","pattern"],"bee_group":{"antennae":"A","wings":"X","pattern":"D","legs":"X"},"action":"harvest","summary":"good-harvest","bonus":1.0000000000000007},{"rt":1067.1000000238419,"stimulus":"\n                    <p><b>Action: <em>harvest</em></b></p>\n                    <p>This is the bee that you just saw.</p>\n                    <img src=\"bees-with-color/bee-B1SF.svg\" width=\"200\">\n                    <p><span class=\"greenText\"><b>Successful harvest!</b></span><br>Your pay has increased by $0.02. Your bonus pay is now $0.58.</p>\n            ","response":0,"trial_type":"html-button-response","trial_index":78,"time_elapsed":508451,"internal_node_id":"0.0-4.0-1.35","subject_id":"6143bbc4daab169ed298722c","study_id":"6197b3f67c2b5cd3b6d9596a","session_id":"619be58e9898148432a4f1bb","condition":"contingent","relevant_dimensions":["antennae","pattern"],"bee_group":{"antennae":"A","wings":"X","pattern":"D","legs":"X"},"bonus":1.0000000000000007},{"rt":5401.899999976158,"stimulus":"bees-with-color/bee-B2DF.svg","response":1,"trial_type":"image-button-response","trial_index":79,"time_elapsed":513859,"internal_node_id":"0.0-4.0-0.36","subject_id":"6143bbc4daab169ed298722c","study_id":"6197b3f67c2b5cd3b6d9596a","session_id":"619be58e9898148432a4f1bb","condition":"contingent","relevant_dimensions":["antennae","pattern"],"bee_group":{"antennae":"A","wings":"X","pattern":"D","legs":"X"},"action":"avoid","summary":"bad-avoid","bonus":1.0000000000000007},{"rt":3202.2999999523163,"stimulus":"\n                    <p><b>Action: <em>avoid</em></b></p>\n                    <p>This is the bee that you just saw.</p>\n                    <img src=\"bees-with-color/bee-B2DF.svg\" width=\"200\">\n                    <p><br>Your bonus pay is unchanged, and remains at $0.58.</p>\n            ","response":0,"trial_type":"html-button-response","trial_index":80,"time_elapsed":517065,"internal_node_id":"0.0-4.0-1.36","subject_id":"6143bbc4daab169ed298722c","study_id":"6197b3f67c2b5cd3b6d9596a","session_id":"619be58e9898148432a4f1bb","condition":"contingent","relevant_dimensions":["antennae","pattern"],"bee_group":{"antennae":"A","wings":"X","pattern":"D","legs":"X"},"bonus":1.0000000000000007},{"rt":11829.700000047684,"stimulus":"bees-with-color/bee-B1DM.svg","response":0,"trial_type":"image-button-response","trial_index":81,"time_elapsed":528900,"internal_node_id":"0.0-4.0-0.37","subject_id":"6143bbc4daab169ed298722c","study_id":"6197b3f67c2b5cd3b6d9596a","session_id":"619be58e9898148432a4f1bb","condition":"contingent","relevant_dimensions":["antennae","pattern"],"bee_group":{"antennae":"A","wings":"X","pattern":"D","legs":"X"},"action":"harvest","summary":"good-harvest","bonus":1.0000000000000007},{"rt":1436.1000000238419,"stimulus":"\n                    <p><b>Action: <em>harvest</em></b></p>\n                    <p>This is the bee that you just saw.</p>\n                    <img src=\"bees-with-color/bee-B1DM.svg\" width=\"200\">\n                    <p><span class=\"greenText\"><b>Successful harvest!</b></span><br>Your pay has increased by $0.02. Your bonus pay is now $0.60.</p>\n            ","response":0,"trial_type":"html-button-response","trial_index":82,"time_elapsed":530340,"internal_node_id":"0.0-4.0-1.37","subject_id":"6143bbc4daab169ed298722c","study_id":"6197b3f67c2b5cd3b6d9596a","session_id":"619be58e9898148432a4f1bb","condition":"contingent","relevant_dimensions":["antennae","pattern"],"bee_group":{"antennae":"A","wings":"X","pattern":"D","legs":"X"},"bonus":1.0000000000000007},{"rt":2108.7000000476837,"stimulus":"bees-with-color/bee-A1SM.svg","response":1,"trial_type":"image-button-response","trial_index":83,"time_elapsed":532451,"internal_node_id":"0.0-4.0-0.38","subject_id":"6143bbc4daab169ed298722c","study_id":"6197b3f67c2b5cd3b6d9596a","session_id":"619be58e9898148432a4f1bb","condition":"contingent","relevant_dimensions":["antennae","pattern"],"bee_group":{"antennae":"A","wings":"X","pattern":"D","legs":"X"},"action":"avoid","summary":"bad-avoid","bonus":1.0000000000000007},{"rt":1019.3999999761581,"stimulus":"\n                    <p><b>Action: <em>avoid</em></b></p>\n                    <p>This is the bee that you just saw.</p>\n                    <img src=\"bees-with-color/bee-A1SM.svg\" width=\"200\">\n                    <p><br>Your bonus pay is unchanged, and remains at $0.60.</p>\n            ","response":0,"trial_type":"html-button-response","trial_index":84,"time_elapsed":533475,"internal_node_id":"0.0-4.0-1.38","subject_id":"6143bbc4daab169ed298722c","study_id":"6197b3f67c2b5cd3b6d9596a","session_id":"619be58e9898148432a4f1bb","condition":"contingent","relevant_dimensions":["antennae","pattern"],"bee_group":{"antennae":"A","wings":"X","pattern":"D","legs":"X"},"bonus":1.0000000000000007},{"rt":4014.5,"stimulus":"bees-with-color/bee-B2SM.svg","response":1,"trial_type":"image-button-response","trial_index":85,"time_elapsed":537491,"internal_node_id":"0.0-4.0-0.39","subject_id":"6143bbc4daab169ed298722c","study_id":"6197b3f67c2b5cd3b6d9596a","session_id":"619be58e9898148432a4f1bb","condition":"contingent","relevant_dimensions":["antennae","pattern"],"bee_group":{"antennae":"A","wings":"X","pattern":"D","legs":"X"},"action":"avoid","summary":"bad-avoid","bonus":1.0000000000000007},{"rt":824.2000000476837,"stimulus":"\n                    <p><b>Action: <em>avoid</em></b></p>\n                    <p>This is the bee that you just saw.</p>\n                    <img src=\"bees-with-color/bee-B2SM.svg\" width=\"200\">\n                    <p><br>Your bonus pay is unchanged, and remains at $0.60.</p>\n            ","response":0,"trial_type":"html-button-response","trial_index":86,"time_elapsed":538317,"internal_node_id":"0.0-4.0-1.39","subject_id":"6143bbc4daab169ed298722c","study_id":"6197b3f67c2b5cd3b6d9596a","session_id":"619be58e9898148432a4f1bb","condition":"contingent","relevant_dimensions":["antennae","pattern"],"bee_group":{"antennae":"A","wings":"X","pattern":"D","legs":"X"},"bonus":1.0000000000000007},{"rt":3601.2000000476837,"stimulus":"bees-with-color/bee-B2SF.svg","response":0,"trial_type":"image-button-response","trial_index":87,"time_elapsed":541923,"internal_node_id":"0.0-4.0-0.40","subject_id":"6143bbc4daab169ed298722c","study_id":"6197b3f67c2b5cd3b6d9596a","session_id":"619be58e9898148432a4f1bb","condition":"contingent","relevant_dimensions":["antennae","pattern"],"bee_group":{"antennae":"A","wings":"X","pattern":"D","legs":"X"},"action":"harvest","summary":"good-harvest","bonus":1.0000000000000007},{"rt":1335.8999999761581,"stimulus":"\n                    <p><b>Action: <em>harvest</em></b></p>\n                    <p>This is the bee that you just saw.</p>\n                    <img src=\"bees-with-color/bee-B2SF.svg\" width=\"200\">\n                    <p><span class=\"greenText\"><b>Successful harvest!</b></span><br>Your pay has increased by $0.02. Your bonus pay is now $0.62.</p>\n            ","response":0,"trial_type":"html-button-response","trial_index":88,"time_elapsed":543263,"internal_node_id":"0.0-4.0-1.40","subject_id":"6143bbc4daab169ed298722c","study_id":"6197b3f67c2b5cd3b6d9596a","session_id":"619be58e9898148432a4f1bb","condition":"contingent","relevant_dimensions":["antennae","pattern"],"bee_group":{"antennae":"A","wings":"X","pattern":"D","legs":"X"},"bonus":1.0000000000000007},{"rt":1428.8999999761581,"stimulus":"bees-with-color/bee-A1DM.svg","response":1,"trial_type":"image-button-response","trial_index":89,"time_elapsed":544695,"internal_node_id":"0.0-4.0-0.41","subject_id":"6143bbc4daab169ed298722c","study_id":"6197b3f67c2b5cd3b6d9596a","session_id":"619be58e9898148432a4f1bb","condition":"contingent","relevant_dimensions":["antennae","pattern"],"bee_group":{"antennae":"A","wings":"X","pattern":"D","legs":"X"},"action":"avoid","summary":"good-avoid","bonus":1.0000000000000007},{"rt":1084.2999999523163,"stimulus":"\n                    <p><b>Action: <em>avoid</em></b></p>\n                    <p>This is the bee that you just saw.</p>\n                    <img src=\"bees-with-color/bee-A1DM.svg\" width=\"200\">\n                    <p><br>Your bonus pay is unchanged, and remains at $0.62.</p>\n            ","response":0,"trial_type":"html-button-response","trial_index":90,"time_elapsed":545783,"internal_node_id":"0.0-4.0-1.41","subject_id":"6143bbc4daab169ed298722c","study_id":"6197b3f67c2b5cd3b6d9596a","session_id":"619be58e9898148432a4f1bb","condition":"contingent","relevant_dimensions":["antennae","pattern"],"bee_group":{"antennae":"A","wings":"X","pattern":"D","legs":"X"},"bonus":1.0000000000000007},{"rt":1648.1000000238419,"stimulus":"bees-with-color/bee-A1DF.svg","response":1,"trial_type":"image-button-response","trial_index":91,"time_elapsed":547435,"internal_node_id":"0.0-4.0-0.42","subject_id":"6143bbc4daab169ed298722c","study_id":"6197b3f67c2b5cd3b6d9596a","session_id":"619be58e9898148432a4f1bb","condition":"contingent","relevant_dimensions":["antennae","pattern"],"bee_group":{"antennae":"A","wings":"X","pattern":"D","legs":"X"},"action":"avoid","summary":"good-avoid","bonus":1.0000000000000007},{"rt":2423.899999976158,"stimulus":"\n                    <p><b>Action: <em>avoid</em></b></p>\n                    <p>This is the bee that you just saw.</p>\n                    <img src=\"bees-with-color/bee-A1DF.svg\" width=\"200\">\n                    <p><br>Your bonus pay is unchanged, and remains at $0.62.</p>\n            ","response":0,"trial_type":"html-button-response","trial_index":92,"time_elapsed":549861,"internal_node_id":"0.0-4.0-1.42","subject_id":"6143bbc4daab169ed298722c","study_id":"6197b3f67c2b5cd3b6d9596a","session_id":"619be58e9898148432a4f1bb","condition":"contingent","relevant_dimensions":["antennae","pattern"],"bee_group":{"antennae":"A","wings":"X","pattern":"D","legs":"X"},"bonus":1.0000000000000007},{"rt":3988.2000000476837,"stimulus":"bees-with-color/bee-A2SM.svg","response":1,"trial_type":"image-button-response","trial_index":93,"time_elapsed":553853,"internal_node_id":"0.0-4.0-0.43","subject_id":"6143bbc4daab169ed298722c","study_id":"6197b3f67c2b5cd3b6d9596a","session_id":"619be58e9898148432a4f1bb","condition":"contingent","relevant_dimensions":["antennae","pattern"],"bee_group":{"antennae":"A","wings":"X","pattern":"D","legs":"X"},"action":"avoid","summary":"bad-avoid","bonus":1.0000000000000007},{"rt":981.1999999284744,"stimulus":"\n                    <p><b>Action: <em>avoid</em></b></p>\n                    <p>This is the bee that you just saw.</p>\n                    <img src=\"bees-with-color/bee-A2SM.svg\" width=\"200\">\n                    <p><br>Your bonus pay is unchanged, and remains at $0.62.</p>\n            ","response":0,"trial_type":"html-button-response","trial_index":94,"time_elapsed":554839,"internal_node_id":"0.0-4.0-1.43","subject_id":"6143bbc4daab169ed298722c","study_id":"6197b3f67c2b5cd3b6d9596a","session_id":"619be58e9898148432a4f1bb","condition":"contingent","relevant_dimensions":["antennae","pattern"],"bee_group":{"antennae":"A","wings":"X","pattern":"D","legs":"X"},"bonus":1.0000000000000007},{"rt":8249.700000047684,"stimulus":"bees-with-color/bee-B1DF.svg","response":1,"trial_type":"image-button-response","trial_index":95,"time_elapsed":563091,"internal_node_id":"0.0-4.0-0.44","subject_id":"6143bbc4daab169ed298722c","study_id":"6197b3f67c2b5cd3b6d9596a","session_id":"619be58e9898148432a4f1bb","condition":"contingent","relevant_dimensions":["antennae","pattern"],"bee_group":{"antennae":"A","wings":"X","pattern":"D","legs":"X"},"action":"avoid","summary":"bad-avoid","bonus":1.0000000000000007},{"rt":761.1000000238419,"stimulus":"\n                    <p><b>Action: <em>avoid</em></b></p>\n                    <p>This is the bee that you just saw.</p>\n                    <img src=\"bees-with-color/bee-B1DF.svg\" width=\"200\">\n                    <p><br>Your bonus pay is unchanged, and remains at $0.62.</p>\n            ","response":0,"trial_type":"html-button-response","trial_index":96,"time_elapsed":563856,"internal_node_id":"0.0-4.0-1.44","subject_id":"6143bbc4daab169ed298722c","study_id":"6197b3f67c2b5cd3b6d9596a","session_id":"619be58e9898148432a4f1bb","condition":"contingent","relevant_dimensions":["antennae","pattern"],"bee_group":{"antennae":"A","wings":"X","pattern":"D","legs":"X"},"bonus":1.0000000000000007},{"rt":1285.8999999761581,"stimulus":"bees-with-color/bee-A2SF.svg","response":1,"trial_type":"image-button-response","trial_index":97,"time_elapsed":565146,"internal_node_id":"0.0-4.0-0.45","subject_id":"6143bbc4daab169ed298722c","study_id":"6197b3f67c2b5cd3b6d9596a","session_id":"619be58e9898148432a4f1bb","condition":"contingent","relevant_dimensions":["antennae","pattern"],"bee_group":{"antennae":"A","wings":"X","pattern":"D","legs":"X"},"action":"avoid","summary":"bad-avoid","bonus":1.0000000000000007},{"rt":675,"stimulus":"\n                    <p><b>Action: <em>avoid</em></b></p>\n                    <p>This is the bee that you just saw.</p>\n                    <img src=\"bees-with-color/bee-A2SF.svg\" width=\"200\">\n                    <p><br>Your bonus pay is unchanged, and remains at $0.62.</p>\n            ","response":0,"trial_type":"html-button-response","trial_index":98,"time_elapsed":565824,"internal_node_id":"0.0-4.0-1.45","subject_id":"6143bbc4daab169ed298722c","study_id":"6197b3f67c2b5cd3b6d9596a","session_id":"619be58e9898148432a4f1bb","condition":"contingent","relevant_dimensions":["antennae","pattern"],"bee_group":{"antennae":"A","wings":"X","pattern":"D","legs":"X"},"bonus":1.0000000000000007},{"rt":973.3000000715256,"stimulus":"bees-with-color/bee-A1SF.svg","response":1,"trial_type":"image-button-response","trial_index":99,"time_elapsed":566799,"internal_node_id":"0.0-4.0-0.46","subject_id":"6143bbc4daab169ed298722c","study_id":"6197b3f67c2b5cd3b6d9596a","session_id":"619be58e9898148432a4f1bb","condition":"contingent","relevant_dimensions":["antennae","pattern"],"bee_group":{"antennae":"A","wings":"X","pattern":"D","legs":"X"},"action":"avoid","summary":"bad-avoid","bonus":1.0000000000000007},{"rt":972.5,"stimulus":"\n                    <p><b>Action: <em>avoid</em></b></p>\n                    <p>This is the bee that you just saw.</p>\n                    <img src=\"bees-with-color/bee-A1SF.svg\" width=\"200\">\n                    <p><br>Your bonus pay is unchanged, and remains at $0.62.</p>\n            ","response":0,"trial_type":"html-button-response","trial_index":100,"time_elapsed":567776,"internal_node_id":"0.0-4.0-1.46","subject_id":"6143bbc4daab169ed298722c","study_id":"6197b3f67c2b5cd3b6d9596a","session_id":"619be58e9898148432a4f1bb","condition":"contingent","relevant_dimensions":["antennae","pattern"],"bee_group":{"antennae":"A","wings":"X","pattern":"D","legs":"X"},"bonus":1.0000000000000007},{"rt":3626.100000023842,"stimulus":"bees-with-color/bee-B1SM.svg","response":1,"trial_type":"image-button-response","trial_index":101,"time_elapsed":571406,"internal_node_id":"0.0-4.0-0.47","subject_id":"6143bbc4daab169ed298722c","study_id":"6197b3f67c2b5cd3b6d9596a","session_id":"619be58e9898148432a4f1bb","condition":"contingent","relevant_dimensions":["antennae","pattern"],"bee_group":{"antennae":"A","wings":"X","pattern":"D","legs":"X"},"action":"avoid","summary":"bad-avoid","bonus":1.0000000000000007},{"rt":784.3999999761581,"stimulus":"\n                    <p><b>Action: <em>avoid</em></b></p>\n                    <p>This is the bee that you just saw.</p>\n                    <img src=\"bees-with-color/bee-B1SM.svg\" width=\"200\">\n                    <p><br>Your bonus pay is unchanged, and remains at $0.62.</p>\n            ","response":0,"trial_type":"html-button-response","trial_index":102,"time_elapsed":572193,"internal_node_id":"0.0-4.0-1.47","subject_id":"6143bbc4daab169ed298722c","study_id":"6197b3f67c2b5cd3b6d9596a","session_id":"619be58e9898148432a4f1bb","condition":"contingent","relevant_dimensions":["antennae","pattern"],"bee_group":{"antennae":"A","wings":"X","pattern":"D","legs":"X"},"bonus":1.0000000000000007},{"rt":1509,"stimulus":"bees-with-color/bee-A1SF.svg","response":1,"trial_type":"image-button-response","trial_index":103,"time_elapsed":573706,"internal_node_id":"0.0-4.0-0.48","subject_id":"6143bbc4daab169ed298722c","study_id":"6197b3f67c2b5cd3b6d9596a","session_id":"619be58e9898148432a4f1bb","condition":"contingent","relevant_dimensions":["antennae","pattern"],"bee_group":{"antennae":"A","wings":"X","pattern":"D","legs":"X"},"action":"avoid","summary":"bad-avoid","bonus":1.0000000000000007},{"rt":681,"stimulus":"\n                    <p><b>Action: <em>avoid</em></b></p>\n                    <p>This is the bee that you just saw.</p>\n                    <img src=\"bees-with-color/bee-A1SF.svg\" width=\"200\">\n                    <p><br>Your bonus pay is unchanged, and remains at $0.62.</p>\n            ","response":0,"trial_type":"html-button-response","trial_index":104,"time_elapsed":574390,"internal_node_id":"0.0-4.0-1.48","subject_id":"6143bbc4daab169ed298722c","study_id":"6197b3f67c2b5cd3b6d9596a","session_id":"619be58e9898148432a4f1bb","condition":"contingent","relevant_dimensions":["antennae","pattern"],"bee_group":{"antennae":"A","wings":"X","pattern":"D","legs":"X"},"bonus":1.0000000000000007},{"rt":3185.399999976158,"stimulus":"bees-with-color/bee-B2SF.svg","response":0,"trial_type":"image-button-response","trial_index":105,"time_elapsed":577580,"internal_node_id":"0.0-4.0-0.49","subject_id":"6143bbc4daab169ed298722c","study_id":"6197b3f67c2b5cd3b6d9596a","session_id":"619be58e9898148432a4f1bb","condition":"contingent","relevant_dimensions":["antennae","pattern"],"bee_group":{"antennae":"A","wings":"X","pattern":"D","legs":"X"},"action":"harvest","summary":"good-harvest","bonus":1.0000000000000007},{"rt":1043.1000000238419,"stimulus":"\n                    <p><b>Action: <em>harvest</em></b></p>\n                    <p>This is the bee that you just saw.</p>\n                    <img src=\"bees-with-color/bee-B2SF.svg\" width=\"200\">\n                    <p><span class=\"greenText\"><b>Successful harvest!</b></span><br>Your pay has increased by $0.02. Your bonus pay is now $0.64.</p>\n            ","response":0,"trial_type":"html-button-response","trial_index":106,"time_elapsed":578626,"internal_node_id":"0.0-4.0-1.49","subject_id":"6143bbc4daab169ed298722c","study_id":"6197b3f67c2b5cd3b6d9596a","session_id":"619be58e9898148432a4f1bb","condition":"contingent","relevant_dimensions":["antennae","pattern"],"bee_group":{"antennae":"A","wings":"X","pattern":"D","legs":"X"},"bonus":1.0000000000000007},{"rt":3508.600000023842,"stimulus":"bees-with-color/bee-B1SF.svg","response":0,"trial_type":"image-button-response","trial_index":107,"time_elapsed":582137,"internal_node_id":"0.0-4.0-0.50","subject_id":"6143bbc4daab169ed298722c","study_id":"6197b3f67c2b5cd3b6d9596a","session_id":"619be58e9898148432a4f1bb","condition":"contingent","relevant_dimensions":["antennae","pattern"],"bee_group":{"antennae":"A","wings":"X","pattern":"D","legs":"X"},"action":"harvest","summary":"good-harvest","bonus":1.0000000000000007},{"rt":1776.6999999284744,"stimulus":"\n                    <p><b>Action: <em>harvest</em></b></p>\n                    <p>This is the bee that you just saw.</p>\n                    <img src=\"bees-with-color/bee-B1SF.svg\" width=\"200\">\n                    <p><span class=\"greenText\"><b>Successful harvest!</b></span><br>Your pay has increased by $0.02. Your bonus pay is now $0.66.</p>\n            ","response":0,"trial_type":"html-button-response","trial_index":108,"time_elapsed":583918,"internal_node_id":"0.0-4.0-1.50","subject_id":"6143bbc4daab169ed298722c","study_id":"6197b3f67c2b5cd3b6d9596a","session_id":"619be58e9898148432a4f1bb","condition":"contingent","relevant_dimensions":["antennae","pattern"],"bee_group":{"antennae":"A","wings":"X","pattern":"D","legs":"X"},"bonus":1.0000000000000007},{"rt":11978.700000047684,"stimulus":"bees-with-color/bee-B2SM.svg","response":1,"trial_type":"image-button-response","trial_index":109,"time_elapsed":595900,"internal_node_id":"0.0-4.0-0.51","subject_id":"6143bbc4daab169ed298722c","study_id":"6197b3f67c2b5cd3b6d9596a","session_id":"619be58e9898148432a4f1bb","condition":"contingent","relevant_dimensions":["antennae","pattern"],"bee_group":{"antennae":"A","wings":"X","pattern":"D","legs":"X"},"action":"avoid","summary":"bad-avoid","bonus":1.0000000000000007},{"rt":1949.1000000238419,"stimulus":"\n                    <p><b>Action: <em>avoid</em></b></p>\n                    <p>This is the bee that you just saw.</p>\n                    <img src=\"bees-with-color/bee-B2SM.svg\" width=\"200\">\n                    <p><br>Your bonus pay is unchanged, and remains at $0.66.</p>\n            ","response":0,"trial_type":"html-button-response","trial_index":110,"time_elapsed":597851,"internal_node_id":"0.0-4.0-1.51","subject_id":"6143bbc4daab169ed298722c","study_id":"6197b3f67c2b5cd3b6d9596a","session_id":"619be58e9898148432a4f1bb","condition":"contingent","relevant_dimensions":["antennae","pattern"],"bee_group":{"antennae":"A","wings":"X","pattern":"D","legs":"X"},"bonus":1.0000000000000007},{"rt":2381.5,"stimulus":"bees-with-color/bee-A2SF.svg","response":0,"trial_type":"image-button-response","trial_index":111,"time_elapsed":600238,"internal_node_id":"0.0-4.0-0.52","subject_id":"6143bbc4daab169ed298722c","study_id":"6197b3f67c2b5cd3b6d9596a","session_id":"619be58e9898148432a4f1bb","condition":"contingent","relevant_dimensions":["antennae","pattern"],"bee_group":{"antennae":"A","wings":"X","pattern":"D","legs":"X"},"action":"harvest","summary":"good-harvest","bonus":1.0000000000000007},{"rt":1285.1000000238419,"stimulus":"\n                    <p><b>Action: <em>harvest</em></b></p>\n                    <p>This is the bee that you just saw.</p>\n                    <img src=\"bees-with-color/bee-A2SF.svg\" width=\"200\">\n                    <p><span class=\"greenText\"><b>Successful harvest!</b></span><br>Your pay has increased by $0.02. Your bonus pay is now $0.68.</p>\n            ","response":0,"trial_type":"html-button-response","trial_index":112,"time_elapsed":601529,"internal_node_id":"0.0-4.0-1.52","subject_id":"6143bbc4daab169ed298722c","study_id":"6197b3f67c2b5cd3b6d9596a","session_id":"619be58e9898148432a4f1bb","condition":"contingent","relevant_dimensions":["antennae","pattern"],"bee_group":{"antennae":"A","wings":"X","pattern":"D","legs":"X"},"bonus":1.0000000000000007},{"rt":2548.399999976158,"stimulus":"bees-with-color/bee-A2DF.svg","response":1,"trial_type":"image-button-response","trial_index":113,"time_elapsed":604080,"internal_node_id":"0.0-4.0-0.53","subject_id":"6143bbc4daab169ed298722c","study_id":"6197b3f67c2b5cd3b6d9596a","session_id":"619be58e9898148432a4f1bb","condition":"contingent","relevant_dimensions":["antennae","pattern"],"bee_group":{"antennae":"A","wings":"X","pattern":"D","legs":"X"},"action":"avoid","summary":"good-avoid","bonus":1.0000000000000007},{"rt":1902.7999999523163,"stimulus":"\n                    <p><b>Action: <em>avoid</em></b></p>\n                    <p>This is the bee that you just saw.</p>\n                    <img src=\"bees-with-color/bee-A2DF.svg\" width=\"200\">\n                    <p><br>Your bonus pay is unchanged, and remains at $0.68.</p>\n            ","response":0,"trial_type":"html-button-response","trial_index":114,"time_elapsed":605986,"internal_node_id":"0.0-4.0-1.53","subject_id":"6143bbc4daab169ed298722c","study_id":"6197b3f67c2b5cd3b6d9596a","session_id":"619be58e9898148432a4f1bb","condition":"contingent","relevant_dimensions":["antennae","pattern"],"bee_group":{"antennae":"A","wings":"X","pattern":"D","legs":"X"},"bonus":1.0000000000000007},{"rt":5784.399999976158,"stimulus":"bees-with-color/bee-B1DF.svg","response":1,"trial_type":"image-button-response","trial_index":115,"time_elapsed":611774,"internal_node_id":"0.0-4.0-0.54","subject_id":"6143bbc4daab169ed298722c","study_id":"6197b3f67c2b5cd3b6d9596a","session_id":"619be58e9898148432a4f1bb","condition":"contingent","relevant_dimensions":["antennae","pattern"],"bee_group":{"antennae":"A","wings":"X","pattern":"D","legs":"X"},"action":"avoid","summary":"bad-avoid","bonus":1.0000000000000007},{"rt":940.2999999523163,"stimulus":"\n                    <p><b>Action: <em>avoid</em></b></p>\n                    <p>This is the bee that you just saw.</p>\n                    <img src=\"bees-with-color/bee-B1DF.svg\" width=\"200\">\n                    <p><br>Your bonus pay is unchanged, and remains at $0.68.</p>\n            ","response":0,"trial_type":"html-button-response","trial_index":116,"time_elapsed":612717,"internal_node_id":"0.0-4.0-1.54","subject_id":"6143bbc4daab169ed298722c","study_id":"6197b3f67c2b5cd3b6d9596a","session_id":"619be58e9898148432a4f1bb","condition":"contingent","relevant_dimensions":["antennae","pattern"],"bee_group":{"antennae":"A","wings":"X","pattern":"D","legs":"X"},"bonus":1.0000000000000007},{"rt":1541.3999999761581,"stimulus":"bees-with-color/bee-A1DM.svg","response":1,"trial_type":"image-button-response","trial_index":117,"time_elapsed":614262,"internal_node_id":"0.0-4.0-0.55","subject_id":"6143bbc4daab169ed298722c","study_id":"6197b3f67c2b5cd3b6d9596a","session_id":"619be58e9898148432a4f1bb","condition":"contingent","relevant_dimensions":["antennae","pattern"],"bee_group":{"antennae":"A","wings":"X","pattern":"D","legs":"X"},"action":"avoid","summary":"good-avoid","bonus":1.0000000000000007},{"rt":799.6000000238419,"stimulus":"\n                    <p><b>Action: <em>avoid</em></b></p>\n                    <p>This is the bee that you just saw.</p>\n                    <img src=\"bees-with-color/bee-A1DM.svg\" width=\"200\">\n                    <p><br>Your bonus pay is unchanged, and remains at $0.68.</p>\n            ","response":0,"trial_type":"html-button-response","trial_index":118,"time_elapsed":615064,"internal_node_id":"0.0-4.0-1.55","subject_id":"6143bbc4daab169ed298722c","study_id":"6197b3f67c2b5cd3b6d9596a","session_id":"619be58e9898148432a4f1bb","condition":"contingent","relevant_dimensions":["antennae","pattern"],"bee_group":{"antennae":"A","wings":"X","pattern":"D","legs":"X"},"bonus":1.0000000000000007},{"rt":5777.299999952316,"stimulus":"bees-with-color/bee-A2SM.svg","response":1,"trial_type":"image-button-response","trial_index":119,"time_elapsed":620843,"internal_node_id":"0.0-4.0-0.56","subject_id":"6143bbc4daab169ed298722c","study_id":"6197b3f67c2b5cd3b6d9596a","session_id":"619be58e9898148432a4f1bb","condition":"contingent","relevant_dimensions":["antennae","pattern"],"bee_group":{"antennae":"A","wings":"X","pattern":"D","legs":"X"},"action":"avoid","summary":"bad-avoid","bonus":1.0000000000000007},{"rt":1116.2999999523163,"stimulus":"\n                    <p><b>Action: <em>avoid</em></b></p>\n                    <p>This is the bee that you just saw.</p>\n                    <img src=\"bees-with-color/bee-A2SM.svg\" width=\"200\">\n                    <p><br>Your bonus pay is unchanged, and remains at $0.68.</p>\n            ","response":0,"trial_type":"html-button-response","trial_index":120,"time_elapsed":621962,"internal_node_id":"0.0-4.0-1.56","subject_id":"6143bbc4daab169ed298722c","study_id":"6197b3f67c2b5cd3b6d9596a","session_id":"619be58e9898148432a4f1bb","condition":"contingent","relevant_dimensions":["antennae","pattern"],"bee_group":{"antennae":"A","wings":"X","pattern":"D","legs":"X"},"bonus":1.0000000000000007},{"rt":1792.8999999761581,"stimulus":"bees-with-color/bee-A2DM.svg","response":1,"trial_type":"image-button-response","trial_index":121,"time_elapsed":623758,"internal_node_id":"0.0-4.0-0.57","subject_id":"6143bbc4daab169ed298722c","study_id":"6197b3f67c2b5cd3b6d9596a","session_id":"619be58e9898148432a4f1bb","condition":"contingent","relevant_dimensions":["antennae","pattern"],"bee_group":{"antennae":"A","wings":"X","pattern":"D","legs":"X"},"action":"avoid","summary":"good-avoid","bonus":1.0000000000000007},{"rt":616.8999999761581,"stimulus":"\n                    <p><b>Action: <em>avoid</em></b></p>\n                    <p>This is the bee that you just saw.</p>\n                    <img src=\"bees-with-color/bee-A2DM.svg\" width=\"200\">\n                    <p><br>Your bonus pay is unchanged, and remains at $0.68.</p>\n            ","response":0,"trial_type":"html-button-response","trial_index":122,"time_elapsed":624378,"internal_node_id":"0.0-4.0-1.57","subject_id":"6143bbc4daab169ed298722c","study_id":"6197b3f67c2b5cd3b6d9596a","session_id":"619be58e9898148432a4f1bb","condition":"contingent","relevant_dimensions":["antennae","pattern"],"bee_group":{"antennae":"A","wings":"X","pattern":"D","legs":"X"},"bonus":1.0000000000000007},{"rt":1350,"stimulus":"bees-with-color/bee-A1DF.svg","response":1,"trial_type":"image-button-response","trial_index":123,"time_elapsed":625732,"internal_node_id":"0.0-4.0-0.58","subject_id":"6143bbc4daab169ed298722c","study_id":"6197b3f67c2b5cd3b6d9596a","session_id":"619be58e9898148432a4f1bb","condition":"contingent","relevant_dimensions":["antennae","pattern"],"bee_group":{"antennae":"A","wings":"X","pattern":"D","legs":"X"},"action":"avoid","summary":"good-avoid","bonus":1.0000000000000007},{"rt":589.1999999284744,"stimulus":"\n                    <p><b>Action: <em>avoid</em></b></p>\n                    <p>This is the bee that you just saw.</p>\n                    <img src=\"bees-with-color/bee-A1DF.svg\" width=\"200\">\n                    <p><br>Your bonus pay is unchanged, and remains at $0.68.</p>\n            ","response":0,"trial_type":"html-button-response","trial_index":124,"time_elapsed":626324,"internal_node_id":"0.0-4.0-1.58","subject_id":"6143bbc4daab169ed298722c","study_id":"6197b3f67c2b5cd3b6d9596a","session_id":"619be58e9898148432a4f1bb","condition":"contingent","relevant_dimensions":["antennae","pattern"],"bee_group":{"antennae":"A","wings":"X","pattern":"D","legs":"X"},"bonus":1.0000000000000007},{"rt":7216.600000023842,"stimulus":"bees-with-color/bee-B2DM.svg","response":1,"trial_type":"image-button-response","trial_index":125,"time_elapsed":633544,"internal_node_id":"0.0-4.0-0.59","subject_id":"6143bbc4daab169ed298722c","study_id":"6197b3f67c2b5cd3b6d9596a","session_id":"619be58e9898148432a4f1bb","condition":"contingent","relevant_dimensions":["antennae","pattern"],"bee_group":{"antennae":"A","wings":"X","pattern":"D","legs":"X"},"action":"avoid","summary":"bad-avoid","bonus":1.0000000000000007},{"rt":1438.1999999284744,"stimulus":"\n                    <p><b>Action: <em>avoid</em></b></p>\n                    <p>This is the bee that you just saw.</p>\n                    <img src=\"bees-with-color/bee-B2DM.svg\" width=\"200\">\n                    <p><br>Your bonus pay is unchanged, and remains at $0.68.</p>\n            ","response":0,"trial_type":"html-button-response","trial_index":126,"time_elapsed":634984,"internal_node_id":"0.0-4.0-1.59","subject_id":"6143bbc4daab169ed298722c","study_id":"6197b3f67c2b5cd3b6d9596a","session_id":"619be58e9898148432a4f1bb","condition":"contingent","relevant_dimensions":["antennae","pattern"],"bee_group":{"antennae":"A","wings":"X","pattern":"D","legs":"X"},"bonus":1.0000000000000007},{"rt":7927.399999976158,"stimulus":"bees-with-color/bee-B1SM.svg","response":1,"trial_type":"image-button-response","trial_index":127,"time_elapsed":642914,"internal_node_id":"0.0-4.0-0.60","subject_id":"6143bbc4daab169ed298722c","study_id":"6197b3f67c2b5cd3b6d9596a","session_id":"619be58e9898148432a4f1bb","condition":"contingent","relevant_dimensions":["antennae","pattern"],"bee_group":{"antennae":"A","wings":"X","pattern":"D","legs":"X"},"action":"avoid","summary":"bad-avoid","bonus":1.0000000000000007},{"rt":752.2999999523163,"stimulus":"\n                    <p><b>Action: <em>avoid</em></b></p>\n                    <p>This is the bee that you just saw.</p>\n                    <img src=\"bees-with-color/bee-B1SM.svg\" width=\"200\">\n                    <p><br>Your bonus pay is unchanged, and remains at $0.68.</p>\n            ","response":0,"trial_type":"html-button-response","trial_index":128,"time_elapsed":643670,"internal_node_id":"0.0-4.0-1.60","subject_id":"6143bbc4daab169ed298722c","study_id":"6197b3f67c2b5cd3b6d9596a","session_id":"619be58e9898148432a4f1bb","condition":"contingent","relevant_dimensions":["antennae","pattern"],"bee_group":{"antennae":"A","wings":"X","pattern":"D","legs":"X"},"bonus":1.0000000000000007},{"rt":4247.799999952316,"stimulus":"bees-with-color/bee-B1DM.svg","response":0,"trial_type":"image-button-response","trial_index":129,"time_elapsed":647922,"internal_node_id":"0.0-4.0-0.61","subject_id":"6143bbc4daab169ed298722c","study_id":"6197b3f67c2b5cd3b6d9596a","session_id":"619be58e9898148432a4f1bb","condition":"contingent","relevant_dimensions":["antennae","pattern"],"bee_group":{"antennae":"A","wings":"X","pattern":"D","legs":"X"},"action":"harvest","summary":"good-harvest","bonus":1.0000000000000007},{"rt":958.2000000476837,"stimulus":"\n                    <p><b>Action: <em>harvest</em></b></p>\n                    <p>This is the bee that you just saw.</p>\n                    <img src=\"bees-with-color/bee-B1DM.svg\" width=\"200\">\n                    <p><span class=\"greenText\"><b>Successful harvest!</b></span><br>Your pay has increased by $0.02. Your bonus pay is now $0.70.</p>\n            ","response":0,"trial_type":"html-button-response","trial_index":130,"time_elapsed":648884,"internal_node_id":"0.0-4.0-1.61","subject_id":"6143bbc4daab169ed298722c","study_id":"6197b3f67c2b5cd3b6d9596a","session_id":"619be58e9898148432a4f1bb","condition":"contingent","relevant_dimensions":["antennae","pattern"],"bee_group":{"antennae":"A","wings":"X","pattern":"D","legs":"X"},"bonus":1.0000000000000007},{"rt":3791.2000000476837,"stimulus":"bees-with-color/bee-B2DF.svg","response":0,"trial_type":"image-button-response","trial_index":131,"time_elapsed":652678,"internal_node_id":"0.0-4.0-0.62","subject_id":"6143bbc4daab169ed298722c","study_id":"6197b3f67c2b5cd3b6d9596a","session_id":"619be58e9898148432a4f1bb","condition":"contingent","relevant_dimensions":["antennae","pattern"],"bee_group":{"antennae":"A","wings":"X","pattern":"D","legs":"X"},"action":"harvest","summary":"good-harvest","bonus":1.0000000000000007},{"rt":895.7999999523163,"stimulus":"\n                    <p><b>Action: <em>harvest</em></b></p>\n                    <p>This is the bee that you just saw.</p>\n                    <img src=\"bees-with-color/bee-B2DF.svg\" width=\"200\">\n                    <p><span class=\"greenText\"><b>Successful harvest!</b></span><br>Your pay has increased by $0.02. Your bonus pay is now $0.72.</p>\n            ","response":0,"trial_type":"html-button-response","trial_index":132,"time_elapsed":653576,"internal_node_id":"0.0-4.0-1.62","subject_id":"6143bbc4daab169ed298722c","study_id":"6197b3f67c2b5cd3b6d9596a","session_id":"619be58e9898148432a4f1bb","condition":"contingent","relevant_dimensions":["antennae","pattern"],"bee_group":{"antennae":"A","wings":"X","pattern":"D","legs":"X"},"bonus":1.0000000000000007},{"rt":1578.5999999046326,"stimulus":"bees-with-color/bee-A1SM.svg","response":1,"trial_type":"image-button-response","trial_index":133,"time_elapsed":655158,"internal_node_id":"0.0-4.0-0.63","subject_id":"6143bbc4daab169ed298722c","study_id":"6197b3f67c2b5cd3b6d9596a","session_id":"619be58e9898148432a4f1bb","condition":"contingent","relevant_dimensions":["antennae","pattern"],"bee_group":{"antennae":"A","wings":"X","pattern":"D","legs":"X"},"action":"avoid","summary":"bad-avoid","bonus":1.0000000000000007},{"rt":2187,"stimulus":"\n                    <p><b>Action: <em>avoid</em></b></p>\n                    <p>This is the bee that you just saw.</p>\n                    <img src=\"bees-with-color/bee-A1SM.svg\" width=\"200\">\n                    <p><br>Your bonus pay is unchanged, and remains at $0.72.</p>\n            ","response":0,"trial_type":"html-button-response","trial_index":134,"time_elapsed":657348,"internal_node_id":"0.0-4.0-1.63","subject_id":"6143bbc4daab169ed298722c","study_id":"6197b3f67c2b5cd3b6d9596a","session_id":"619be58e9898148432a4f1bb","condition":"contingent","relevant_dimensions":["antennae","pattern"],"bee_group":{"antennae":"A","wings":"X","pattern":"D","legs":"X"},"bonus":1.0000000000000007},{"rt":4806.399999976158,"stimulus":"You have completed the first part of this experiment.<br><br>You will now begin a shorter second part, in which you will receive no feedback.<br>The same rules regarding bonus pay apply.<br><br>Press any key to begin.","response":"a","trial_type":"html-keyboard-response","trial_index":135,"time_elapsed":662157,"internal_node_id":"0.0-5.0","subject_id":"6143bbc4daab169ed298722c","study_id":"6197b3f67c2b5cd3b6d9596a","session_id":"619be58e9898148432a4f1bb","condition":"contingent","relevant_dimensions":["antennae","pattern"],"bee_group":{"antennae":"A","wings":"X","pattern":"D","legs":"X"},"bonus":1.0000000000000007},{"rt":10722,"stimulus":"bees-with-color/bee-B1DM.svg","response":0,"trial_type":"image-button-response","trial_index":136,"time_elapsed":672892,"internal_node_id":"0.0-6.0-0.0","subject_id":"6143bbc4daab169ed298722c","study_id":"6197b3f67c2b5cd3b6d9596a","session_id":"619be58e9898148432a4f1bb","condition":"contingent","relevant_dimensions":["antennae","pattern"],"bee_group":{"antennae":"A","wings":"X","pattern":"D","legs":"X"},"bonus":1.0000000000000007},{"rt":3783.5,"stimulus":"bees-with-color/bee-A1DF.svg","response":1,"trial_type":"image-button-response","trial_index":137,"time_elapsed":676680,"internal_node_id":"0.0-6.0-0.1","subject_id":"6143bbc4daab169ed298722c","study_id":"6197b3f67c2b5cd3b6d9596a","session_id":"619be58e9898148432a4f1bb","condition":"contingent","relevant_dimensions":["antennae","pattern"],"bee_group":{"antennae":"A","wings":"X","pattern":"D","legs":"X"},"bonus":1.0000000000000007},{"rt":2461.7999999523163,"stimulus":"bees-with-color/bee-A2SF.svg","response":1,"trial_type":"image-button-response","trial_index":138,"time_elapsed":679146,"internal_node_id":"0.0-6.0-0.2","subject_id":"6143bbc4daab169ed298722c","study_id":"6197b3f67c2b5cd3b6d9596a","session_id":"619be58e9898148432a4f1bb","condition":"contingent","relevant_dimensions":["antennae","pattern"],"bee_group":{"antennae":"A","wings":"X","pattern":"D","legs":"X"},"bonus":1.0000000000000007},{"rt":1491.1000000238419,"stimulus":"bees-with-color/bee-A2DM.svg","response":1,"trial_type":"image-button-response","trial_index":139,"time_elapsed":680642,"internal_node_id":"0.0-6.0-0.3","subject_id":"6143bbc4daab169ed298722c","study_id":"6197b3f67c2b5cd3b6d9596a","session_id":"619be58e9898148432a4f1bb","condition":"contingent","relevant_dimensions":["antennae","pattern"],"bee_group":{"antennae":"A","wings":"X","pattern":"D","legs":"X"},"bonus":1.0000000000000007},{"rt":701.2999999523163,"stimulus":"bees-with-color/bee-A1SF.svg","response":1,"trial_type":"image-button-response","trial_index":140,"time_elapsed":681350,"internal_node_id":"0.0-6.0-0.4","subject_id":"6143bbc4daab169ed298722c","study_id":"6197b3f67c2b5cd3b6d9596a","session_id":"619be58e9898148432a4f1bb","condition":"contingent","relevant_dimensions":["antennae","pattern"],"bee_group":{"antennae":"A","wings":"X","pattern":"D","legs":"X"},"bonus":1.0000000000000007},{"rt":1870.1000000238419,"stimulus":"bees-with-color/bee-B2SM.svg","response":0,"trial_type":"image-button-response","trial_index":141,"time_elapsed":683223,"internal_node_id":"0.0-6.0-0.5","subject_id":"6143bbc4daab169ed298722c","study_id":"6197b3f67c2b5cd3b6d9596a","session_id":"619be58e9898148432a4f1bb","condition":"contingent","relevant_dimensions":["antennae","pattern"],"bee_group":{"antennae":"A","wings":"X","pattern":"D","legs":"X"},"bonus":1.0000000000000007},{"rt":1508.5,"stimulus":"bees-with-color/bee-B2SF.svg","response":0,"trial_type":"image-button-response","trial_index":142,"time_elapsed":684736,"internal_node_id":"0.0-6.0-0.6","subject_id":"6143bbc4daab169ed298722c","study_id":"6197b3f67c2b5cd3b6d9596a","session_id":"619be58e9898148432a4f1bb","condition":"contingent","relevant_dimensions":["antennae","pattern"],"bee_group":{"antennae":"A","wings":"X","pattern":"D","legs":"X"},"bonus":1.0000000000000007},{"rt":1506.6999999284744,"stimulus":"bees-with-color/bee-B1SM.svg","response":1,"trial_type":"image-button-response","trial_index":143,"time_elapsed":686248,"internal_node_id":"0.0-6.0-0.7","subject_id":"6143bbc4daab169ed298722c","study_id":"6197b3f67c2b5cd3b6d9596a","session_id":"619be58e9898148432a4f1bb","condition":"contingent","relevant_dimensions":["antennae","pattern"],"bee_group":{"antennae":"A","wings":"X","pattern":"D","legs":"X"},"bonus":1.0000000000000007},{"rt":1902.1999999284744,"stimulus":"bees-with-color/bee-B1SF.svg","response":0,"trial_type":"image-button-response","trial_index":144,"time_elapsed":688154,"internal_node_id":"0.0-6.0-0.8","subject_id":"6143bbc4daab169ed298722c","study_id":"6197b3f67c2b5cd3b6d9596a","session_id":"619be58e9898148432a4f1bb","condition":"contingent","relevant_dimensions":["antennae","pattern"],"bee_group":{"antennae":"A","wings":"X","pattern":"D","legs":"X"},"bonus":1.0000000000000007},{"rt":1232.6999999284744,"stimulus":"bees-with-color/bee-B1DF.svg","response":0,"trial_type":"image-button-response","trial_index":145,"time_elapsed":689390,"internal_node_id":"0.0-6.0-0.9","subject_id":"6143bbc4daab169ed298722c","study_id":"6197b3f67c2b5cd3b6d9596a","session_id":"619be58e9898148432a4f1bb","condition":"contingent","relevant_dimensions":["antennae","pattern"],"bee_group":{"antennae":"A","wings":"X","pattern":"D","legs":"X"},"bonus":1.0000000000000007},{"rt":836.8000000715256,"stimulus":"bees-with-color/bee-B2DM.svg","response":0,"trial_type":"image-button-response","trial_index":146,"time_elapsed":690232,"internal_node_id":"0.0-6.0-0.10","subject_id":"6143bbc4daab169ed298722c","study_id":"6197b3f67c2b5cd3b6d9596a","session_id":"619be58e9898148432a4f1bb","condition":"contingent","relevant_dimensions":["antennae","pattern"],"bee_group":{"antennae":"A","wings":"X","pattern":"D","legs":"X"},"bonus":1.0000000000000007},{"rt":1257.6000000238419,"stimulus":"bees-with-color/bee-A1DM.svg","response":1,"trial_type":"image-button-response","trial_index":147,"time_elapsed":691492,"internal_node_id":"0.0-6.0-0.11","subject_id":"6143bbc4daab169ed298722c","study_id":"6197b3f67c2b5cd3b6d9596a","session_id":"619be58e9898148432a4f1bb","condition":"contingent","relevant_dimensions":["antennae","pattern"],"bee_group":{"antennae":"A","wings":"X","pattern":"D","legs":"X"},"bonus":1.0000000000000007},{"rt":2285.600000023842,"stimulus":"bees-with-color/bee-A2SM.svg","response":1,"trial_type":"image-button-response","trial_index":148,"time_elapsed":693784,"internal_node_id":"0.0-6.0-0.12","subject_id":"6143bbc4daab169ed298722c","study_id":"6197b3f67c2b5cd3b6d9596a","session_id":"619be58e9898148432a4f1bb","condition":"contingent","relevant_dimensions":["antennae","pattern"],"bee_group":{"antennae":"A","wings":"X","pattern":"D","legs":"X"},"bonus":1.0000000000000007},{"rt":892.2000000476837,"stimulus":"bees-with-color/bee-B2DF.svg","response":0,"trial_type":"image-button-response","trial_index":149,"time_elapsed":694682,"internal_node_id":"0.0-6.0-0.13","subject_id":"6143bbc4daab169ed298722c","study_id":"6197b3f67c2b5cd3b6d9596a","session_id":"619be58e9898148432a4f1bb","condition":"contingent","relevant_dimensions":["antennae","pattern"],"bee_group":{"antennae":"A","wings":"X","pattern":"D","legs":"X"},"bonus":1.0000000000000007},{"rt":776.5999999046326,"stimulus":"bees-with-color/bee-A2DF.svg","response":1,"trial_type":"image-button-response","trial_index":150,"time_elapsed":695462,"internal_node_id":"0.0-6.0-0.14","subject_id":"6143bbc4daab169ed298722c","study_id":"6197b3f67c2b5cd3b6d9596a","session_id":"619be58e9898148432a4f1bb","condition":"contingent","relevant_dimensions":["antennae","pattern"],"bee_group":{"antennae":"A","wings":"X","pattern":"D","legs":"X"},"bonus":1.0000000000000007},{"rt":1050,"stimulus":"bees-with-color/bee-A1SM.svg","response":1,"trial_type":"image-button-response","trial_index":151,"time_elapsed":696516,"internal_node_id":"0.0-6.0-0.15","subject_id":"6143bbc4daab169ed298722c","study_id":"6197b3f67c2b5cd3b6d9596a","session_id":"619be58e9898148432a4f1bb","condition":"contingent","relevant_dimensions":["antennae","pattern"],"bee_group":{"antennae":"A","wings":"X","pattern":"D","legs":"X"},"bonus":1.0000000000000007},{"rt":774.8999999761581,"stimulus":"bees-with-color/bee-A1DM.svg","response":1,"trial_type":"image-button-response","trial_index":152,"time_elapsed":697295,"internal_node_id":"0.0-6.0-0.16","subject_id":"6143bbc4daab169ed298722c","study_id":"6197b3f67c2b5cd3b6d9596a","session_id":"619be58e9898148432a4f1bb","condition":"contingent","relevant_dimensions":["antennae","pattern"],"bee_group":{"antennae":"A","wings":"X","pattern":"D","legs":"X"},"bonus":1.0000000000000007},{"rt":942.1999999284744,"stimulus":"bees-with-color/bee-B1DF.svg","response":0,"trial_type":"image-button-response","trial_index":153,"time_elapsed":698240,"internal_node_id":"0.0-6.0-0.17","subject_id":"6143bbc4daab169ed298722c","study_id":"6197b3f67c2b5cd3b6d9596a","session_id":"619be58e9898148432a4f1bb","condition":"contingent","relevant_dimensions":["antennae","pattern"],"bee_group":{"antennae":"A","wings":"X","pattern":"D","legs":"X"},"bonus":1.0000000000000007},{"rt":1281.3999999761581,"stimulus":"bees-with-color/bee-B2DM.svg","response":0,"trial_type":"image-button-response","trial_index":154,"time_elapsed":699524,"internal_node_id":"0.0-6.0-0.18","subject_id":"6143bbc4daab169ed298722c","study_id":"6197b3f67c2b5cd3b6d9596a","session_id":"619be58e9898148432a4f1bb","condition":"contingent","relevant_dimensions":["antennae","pattern"],"bee_group":{"antennae":"A","wings":"X","pattern":"D","legs":"X"},"bonus":1.0000000000000007},{"rt":831.6999999284744,"stimulus":"bees-with-color/bee-A1SM.svg","response":1,"trial_type":"image-button-response","trial_index":155,"time_elapsed":700358,"internal_node_id":"0.0-6.0-0.19","subject_id":"6143bbc4daab169ed298722c","study_id":"6197b3f67c2b5cd3b6d9596a","session_id":"619be58e9898148432a4f1bb","condition":"contingent","relevant_dimensions":["antennae","pattern"],"bee_group":{"antennae":"A","wings":"X","pattern":"D","legs":"X"},"bonus":1.0000000000000007},{"rt":1524.8999999761581,"stimulus":"bees-with-color/bee-A2SM.svg","response":1,"trial_type":"image-button-response","trial_index":156,"time_elapsed":701885,"internal_node_id":"0.0-6.0-0.20","subject_id":"6143bbc4daab169ed298722c","study_id":"6197b3f67c2b5cd3b6d9596a","session_id":"619be58e9898148432a4f1bb","condition":"contingent","relevant_dimensions":["antennae","pattern"],"bee_group":{"antennae":"A","wings":"X","pattern":"D","legs":"X"},"bonus":1.0000000000000007},{"rt":1162.6999999284744,"stimulus":"bees-with-color/bee-A2DM.svg","response":1,"trial_type":"image-button-response","trial_index":157,"time_elapsed":703051,"internal_node_id":"0.0-6.0-0.21","subject_id":"6143bbc4daab169ed298722c","study_id":"6197b3f67c2b5cd3b6d9596a","session_id":"619be58e9898148432a4f1bb","condition":"contingent","relevant_dimensions":["antennae","pattern"],"bee_group":{"antennae":"A","wings":"X","pattern":"D","legs":"X"},"bonus":1.0000000000000007},{"rt":2494.399999976158,"stimulus":"bees-with-color/bee-A2SF.svg","response":1,"trial_type":"image-button-response","trial_index":158,"time_elapsed":705548,"internal_node_id":"0.0-6.0-0.22","subject_id":"6143bbc4daab169ed298722c","study_id":"6197b3f67c2b5cd3b6d9596a","session_id":"619be58e9898148432a4f1bb","condition":"contingent","relevant_dimensions":["antennae","pattern"],"bee_group":{"antennae":"A","wings":"X","pattern":"D","legs":"X"},"bonus":1.0000000000000007},{"rt":1365.7000000476837,"stimulus":"bees-with-color/bee-B1DM.svg","response":0,"trial_type":"image-button-response","trial_index":159,"time_elapsed":706917,"internal_node_id":"0.0-6.0-0.23","subject_id":"6143bbc4daab169ed298722c","study_id":"6197b3f67c2b5cd3b6d9596a","session_id":"619be58e9898148432a4f1bb","condition":"contingent","relevant_dimensions":["antennae","pattern"],"bee_group":{"antennae":"A","wings":"X","pattern":"D","legs":"X"},"bonus":1.0000000000000007},{"rt":801.3999999761581,"stimulus":"bees-with-color/bee-B2SM.svg","response":1,"trial_type":"image-button-response","trial_index":160,"time_elapsed":707721,"internal_node_id":"0.0-6.0-0.24","subject_id":"6143bbc4daab169ed298722c","study_id":"6197b3f67c2b5cd3b6d9596a","session_id":"619be58e9898148432a4f1bb","condition":"contingent","relevant_dimensions":["antennae","pattern"],"bee_group":{"antennae":"A","wings":"X","pattern":"D","legs":"X"},"bonus":1.0000000000000007},{"rt":1470,"stimulus":"bees-with-color/bee-A2DF.svg","response":1,"trial_type":"image-button-response","trial_index":161,"time_elapsed":709194,"internal_node_id":"0.0-6.0-0.25","subject_id":"6143bbc4daab169ed298722c","study_id":"6197b3f67c2b5cd3b6d9596a","session_id":"619be58e9898148432a4f1bb","condition":"contingent","relevant_dimensions":["antennae","pattern"],"bee_group":{"antennae":"A","wings":"X","pattern":"D","legs":"X"},"bonus":1.0000000000000007},{"rt":1556.1999999284744,"stimulus":"bees-with-color/bee-B1SM.svg","response":0,"trial_type":"image-button-response","trial_index":162,"time_elapsed":710753,"internal_node_id":"0.0-6.0-0.26","subject_id":"6143bbc4daab169ed298722c","study_id":"6197b3f67c2b5cd3b6d9596a","session_id":"619be58e9898148432a4f1bb","condition":"contingent","relevant_dimensions":["antennae","pattern"],"bee_group":{"antennae":"A","wings":"X","pattern":"D","legs":"X"},"bonus":1.0000000000000007},{"rt":1727.7999999523163,"stimulus":"bees-with-color/bee-B2DF.svg","response":0,"trial_type":"image-button-response","trial_index":163,"time_elapsed":712485,"internal_node_id":"0.0-6.0-0.27","subject_id":"6143bbc4daab169ed298722c","study_id":"6197b3f67c2b5cd3b6d9596a","session_id":"619be58e9898148432a4f1bb","condition":"contingent","relevant_dimensions":["antennae","pattern"],"bee_group":{"antennae":"A","wings":"X","pattern":"D","legs":"X"},"bonus":1.0000000000000007},{"rt":1044.2999999523163,"stimulus":"bees-with-color/bee-A1SF.svg","response":1,"trial_type":"image-button-response","trial_index":164,"time_elapsed":713532,"internal_node_id":"0.0-6.0-0.28","subject_id":"6143bbc4daab169ed298722c","study_id":"6197b3f67c2b5cd3b6d9596a","session_id":"619be58e9898148432a4f1bb","condition":"contingent","relevant_dimensions":["antennae","pattern"],"bee_group":{"antennae":"A","wings":"X","pattern":"D","legs":"X"},"bonus":1.0000000000000007},{"rt":1050.6999999284744,"stimulus":"bees-with-color/bee-A1DF.svg","response":1,"trial_type":"image-button-response","trial_index":165,"time_elapsed":714587,"internal_node_id":"0.0-6.0-0.29","subject_id":"6143bbc4daab169ed298722c","study_id":"6197b3f6