[{"success":true,"trial_type":"fullscreen","trial_index":0,"time_elapsed":2407,"internal_node_id":"0.0-0.0","subject_id":"5f761e5106b786071f45b4aa","study_id":"6197b3f67c2b5cd3b6d9596a","session_id":"619be31f4eda710dc9aa83b5","condition":"contingent","relevant_dimensions":["antennae","pattern"],"bee_group":{"antennae":"A","wings":"X","pattern":"S","legs":"X"},"bonus":0.060000000000001164},{"success":true,"timeout":false,"failed_images":[],"failed_audio":[],"failed_video":[],"trial_type":"preload","trial_index":1,"time_elapsed":7502,"internal_node_id":"0.0-1.0","subject_id":"5f761e5106b786071f45b4aa","study_id":"6197b3f67c2b5cd3b6d9596a","session_id":"619be31f4eda710dc9aa83b5","condition":"contingent","relevant_dimensions":["antennae","pattern"],"bee_group":{"antennae":"A","wings":"X","pattern":"S","legs":"X"},"bonus":0.060000000000001164},{"rt":1088,"stimulus":"Welcome! Press any key to begin.","response":"enter","trial_type":"html-keyboard-response","trial_index":2,"time_elapsed":8592,"internal_node_id":"0.0-2.0","subject_id":"5f761e5106b786071f45b4aa","study_id":"6197b3f67c2b5cd3b6d9596a","session_id":"619be31f4eda710dc9aa83b5","condition":"contingent","relevant_dimensions":["antennae","pattern"],"bee_group":{"antennae":"A","wings":"X","pattern":"S","legs":"X"},"bonus":0.060000000000001164},{"view_history":[{"page_index":0,"viewing_time":1737},{"page_index":1,"viewing_time":656},{"page_index":2,"viewing_time":836},{"page_index":3,"viewing_time":1080},{"page_index":4,"viewing_time":2648},{"page_index":5,"viewing_time":697},{"page_index":6,"viewing_time":890},{"page_index":7,"viewing_time":48120},{"page_index":8,"viewing_time":2585},{"page_index":9,"viewing_time":1989},{"page_index":10,"viewing_time":2109},{"page_index":11,"viewing_time":5279},{"page_index":12,"viewing_time":16229},{"page_index":13,"viewing_time":1215},{"page_index":14,"viewing_time":631}],"rt":86701,"trial_type":"instructions","trial_index":3,"time_elapsed":95294,"internal_node_id":"0.0-3.0-0.0","subject_id":"5f761e5106b786071f45b4aa","study_id":"6197b3f67c2b5cd3b6d9596a","session_id":"619be31f4eda710dc9aa83b5","condition":"contingent","relevant_dimensions":["antennae","pattern"],"bee_group":{"antennae":"A","wings":"X","pattern":"S","legs":"X"},"bonus":0.060000000000001164},{"rt":20701,"response":{"Q0":["Two or six legs","Stripes or spots on body","Single or double wings","Antennae or no antennae"]},"question_order":[0],"trial_type":"survey-multi-select","trial_index":4,"time_elapsed":115999,"internal_node_id":"0.0-3.0-1.0","subject_id":"5f761e5106b786071f45b4aa","study_id":"6197b3f67c2b5cd3b6d9596a","session_id":"619be31f4eda710dc9aa83b5","condition":"contingent","relevant_dimensions":["antennae","pattern"],"bee_group":{"antennae":"A","wings":"X","pattern":"S","legs":"X"},"correct":true,"bonus":0.060000000000001164},{"rt":6932,"response":{"Q1":"No.","Q2":"Based on the four features of the bee.","Q3":"You learn if it was friendly or dangerous and alter your bonus."},"question_order":[0,1,2],"trial_type":"survey-multi-choice","trial_index":5,"time_elapsed":122933,"internal_node_id":"0.0-3.0-2.0","subject_id":"5f761e5106b786071f45b4aa","study_id":"6197b3f67c2b5cd3b6d9596a","session_id":"619be31f4eda710dc9aa83b5","condition":"contingent","relevant_dimensions":["antennae","pattern"],"bee_group":{"antennae":"A","wings":"X","pattern":"S","legs":"X"},"correct":false,"bonus":0.060000000000001164},{"rt":3598,"stimulus":"<p>You did not answer all comprehension questions correctly.<br>Press <b>continue</b> to review the instructions again.</p>","response":0,"trial_type":"html-button-response","trial_index":6,"time_elapsed":126532,"internal_node_id":"0.0-3.0-3.0","subject_id":"5f761e5106b786071f45b4aa","study_id":"6197b3f67c2b5cd3b6d9596a","session_id":"619be31f4eda710dc9aa83b5","condition":"contingent","relevant_dimensions":["antennae","pattern"],"bee_group":{"antennae":"A","wings":"X","pattern":"S","legs":"X"},"bonus":0.060000000000001164},{"view_history":[{"page_index":0,"viewing_time":1083},{"page_index":1,"viewing_time":729},{"page_index":2,"viewing_time":733},{"page_index":3,"viewing_time":594},{"page_index":4,"viewing_time":452},{"page_index":5,"viewing_time":400},{"page_index":6,"viewing_time":540},{"page_index":7,"viewing_time":887},{"page_index":8,"viewing_time":498},{"page_index":9,"viewing_time":690},{"page_index":10,"viewing_time":596},{"page_index":11,"viewing_time":1107},{"page_index":12,"viewing_time":842},{"page_index":13,"viewing_time":645},{"page_index":14,"viewing_time":733}],"rt":10529,"trial_type":"instructions","trial_index":7,"time_elapsed":137063,"internal_node_id":"0.0-3.0-4.0-0.0","subject_id":"5f761e5106b786071f45b4aa","study_id":"6197b3f67c2b5cd3b6d9596a","session_id":"619be31f4eda710dc9aa83b5","condition":"contingent","relevant_dimensions":["antennae","pattern"],"bee_group":{"antennae":"A","wings":"X","pattern":"S","legs":"X"},"bonus":0.060000000000001164},{"rt":6855,"response":{"Q0":["Two or six legs","Stripes or spots on body","Single or double wings","Antennae or no antennae"]},"question_order":[0],"trial_type":"survey-multi-select","trial_index":8,"time_elapsed":143921,"internal_node_id":"0.0-3.0-4.0-1.0","subject_id":"5f761e5106b786071f45b4aa","study_id":"6197b3f67c2b5cd3b6d9596a","session_id":"619be31f4eda710dc9aa83b5","condition":"contingent","relevant_dimensions":["antennae","pattern"],"bee_group":{"antennae":"A","wings":"X","pattern":"S","legs":"X"},"correct":true,"bonus":0.060000000000001164},{"rt":16772,"response":{"Q1":"No.","Q2":"Based on the four features of the bee.","Q3":"You do not learn if it was friendly or dangerous, and do not alter your bonus."},"question_order":[0,1,2],"trial_type":"survey-multi-choice","trial_index":9,"time_elapsed":160695,"internal_node_id":"0.0-3.0-4.0-2.0","subject_id":"5f761e5106b786071f45b4aa","study_id":"6197b3f67c2b5cd3b6d9596a","session_id":"619be31f4eda710dc9aa83b5","condition":"contingent","relevant_dimensions":["antennae","pattern"],"bee_group":{"antennae":"A","wings":"X","pattern":"S","legs":"X"},"correct":true,"bonus":0.060000000000001164},{"rt":5553,"stimulus":"<p>Congrats, you got everything right<br>When you're ready, click the button below to continue to the experiment.</p>","response":0,"trial_type":"html-button-response","trial_index":10,"time_elapsed":166250,"internal_node_id":"0.0-3.0-4.0-3.0","subject_id":"5f761e5106b786071f45b4aa","study_id":"6197b3f67c2b5cd3b6d9596a","session_id":"619be31f4eda710dc9aa83b5","condition":"contingent","relevant_dimensions":["antennae","pattern"],"bee_group":{"antennae":"A","wings":"X","pattern":"S","legs":"X"},"bonus":0.060000000000001164},{"rt":1571,"stimulus":"bees-with-color/bee-A1SM.svg","response":0,"trial_type":"image-button-response","trial_index":11,"time_elapsed":167823,"internal_node_id":"0.0-4.0-0.0","subject_id":"5f761e5106b786071f45b4aa","study_id":"6197b3f67c2b5cd3b6d9596a","session_id":"619be31f4eda710dc9aa83b5","condition":"contingent","relevant_dimensions":["antennae","pattern"],"bee_group":{"antennae":"A","wings":"X","pattern":"S","legs":"X"},"action":"harvest","summary":"bad-harvest","bonus":0.060000000000001164},{"rt":4998,"stimulus":"\n                    <p><b>Action: <em>harvest</em></b></p>\n                    <p>This is the bee that you just saw.</p>\n                    <img src=\"bees-with-color/bee-A1SM.svg\" width=\"200\">\n                    <p><span class=\"redText\">Bad choice, the bee was angry.</span><br><b>You have been stung!</b><br>Your pay has been decreased by $0.10. Your bonus pay is now $0.44.</p>\n            ","response":0,"trial_type":"html-button-response","trial_index":12,"time_elapsed":172831,"internal_node_id":"0.0-4.0-1.0","subject_id":"5f761e5106b786071f45b4aa","study_id":"6197b3f67c2b5cd3b6d9596a","session_id":"619be31f4eda710dc9aa83b5","condition":"contingent","relevant_dimensions":["antennae","pattern"],"bee_group":{"antennae":"A","wings":"X","pattern":"S","legs":"X"},"bonus":0.060000000000001164},{"rt":1673,"stimulus":"bees-with-color/bee-B1DF.svg","response":0,"trial_type":"image-button-response","trial_index":13,"time_elapsed":174506,"internal_node_id":"0.0-4.0-0.1","subject_id":"5f761e5106b786071f45b4aa","study_id":"6197b3f67c2b5cd3b6d9596a","session_id":"619be31f4eda710dc9aa83b5","condition":"contingent","relevant_dimensions":["antennae","pattern"],"bee_group":{"antennae":"A","wings":"X","pattern":"S","legs":"X"},"action":"harvest","summary":"good-harvest","bonus":0.060000000000001164},{"rt":1622,"stimulus":"\n                    <p><b>Action: <em>harvest</em></b></p>\n                    <p>This is the bee that you just saw.</p>\n                    <img src=\"bees-with-color/bee-B1DF.svg\" width=\"200\">\n                    <p><span class=\"greenText\"><b>Successful harvest!</b></span><br>Your pay has increased by $0.02. Your bonus pay is now $0.46.</p>\n            ","response":0,"trial_type":"html-button-response","trial_index":14,"time_elapsed":176129,"internal_node_id":"0.0-4.0-1.1","subject_id":"5f761e5106b786071f45b4aa","study_id":"6197b3f67c2b5cd3b6d9596a","session_id":"619be31f4eda710dc9aa83b5","condition":"contingent","relevant_dimensions":["antennae","pattern"],"bee_group":{"antennae":"A","wings":"X","pattern":"S","legs":"X"},"bonus":0.060000000000001164},{"rt":1008,"stimulus":"bees-with-color/bee-B2SM.svg","response":0,"trial_type":"image-button-response","trial_index":15,"time_elapsed":177137,"internal_node_id":"0.0-4.0-0.2","subject_id":"5f761e5106b786071f45b4aa","study_id":"6197b3f67c2b5cd3b6d9596a","session_id":"619be31f4eda710dc9aa83b5","condition":"contingent","relevant_dimensions":["antennae","pattern"],"bee_group":{"antennae":"A","wings":"X","pattern":"S","legs":"X"},"action":"harvest","summary":"good-harvest","bonus":0.060000000000001164},{"rt":1057,"stimulus":"\n                    <p><b>Action: <em>harvest</em></b></p>\n                    <p>This is the bee that you just saw.</p>\n                    <img src=\"bees-with-color/bee-B2SM.svg\" width=\"200\">\n                    <p><span class=\"greenText\"><b>Successful harvest!</b></span><br>Your pay has increased by $0.02. Your bonus pay is now $0.48.</p>\n            ","response":0,"trial_type":"html-button-response","trial_index":16,"time_elapsed":178196,"internal_node_id":"0.0-4.0-1.2","subject_id":"5f761e5106b786071f45b4aa","study_id":"6197b3f67c2b5cd3b6d9596a","session_id":"619be31f4eda710dc9aa83b5","condition":"contingent","relevant_dimensions":["antennae","pattern"],"bee_group":{"antennae":"A","wings":"X","pattern":"S","legs":"X"},"bonus":0.060000000000001164},{"rt":874,"stimulus":"bees-with-color/bee-B1SF.svg","response":0,"trial_type":"image-button-response","trial_index":17,"time_elapsed":179070,"internal_node_id":"0.0-4.0-0.3","subject_id":"5f761e5106b786071f45b4aa","study_id":"6197b3f67c2b5cd3b6d9596a","session_id":"619be31f4eda710dc9aa83b5","condition":"contingent","relevant_dimensions":["antennae","pattern"],"bee_group":{"antennae":"A","wings":"X","pattern":"S","legs":"X"},"action":"harvest","summary":"good-harvest","bonus":0.060000000000001164},{"rt":529,"stimulus":"\n                    <p><b>Action: <em>harvest</em></b></p>\n                    <p>This is the bee that you just saw.</p>\n                    <img src=\"bees-with-color/bee-B1SF.svg\" width=\"200\">\n                    <p><span class=\"greenText\"><b>Successful harvest!</b></span><br>Your pay has increased by $0.02. Your bonus pay is now $0.50.</p>\n            ","response":0,"trial_type":"html-button-response","trial_index":18,"time_elapsed":179601,"internal_node_id":"0.0-4.0-1.3","subject_id":"5f761e5106b786071f45b4aa","study_id":"6197b3f67c2b5cd3b6d9596a","session_id":"619be31f4eda710dc9aa83b5","condition":"contingent","relevant_dimensions":["antennae","pattern"],"bee_group":{"antennae":"A","wings":"X","pattern":"S","legs":"X"},"bonus":0.060000000000001164},{"rt":859,"stimulus":"bees-with-color/bee-B2DM.svg","response":1,"trial_type":"image-button-response","trial_index":19,"time_elapsed":180460,"internal_node_id":"0.0-4.0-0.4","subject_id":"5f761e5106b786071f45b4aa","study_id":"6197b3f67c2b5cd3b6d9596a","session_id":"619be31f4eda710dc9aa83b5","condition":"contingent","relevant_dimensions":["antennae","pattern"],"bee_group":{"antennae":"A","wings":"X","pattern":"S","legs":"X"},"action":"avoid","summary":"bad-avoid","bonus":0.060000000000001164},{"rt":2113,"stimulus":"\n                    <p><b>Action: <em>avoid</em></b></p>\n                    <p>This is the bee that you just saw.</p>\n                    <img src=\"bees-with-color/bee-B2DM.svg\" width=\"200\">\n                    <p><br>Your bonus pay is unchanged, and remains at $0.50.</p>\n            ","response":0,"trial_type":"html-button-response","trial_index":20,"time_elapsed":182575,"internal_node_id":"0.0-4.0-1.4","subject_id":"5f761e5106b786071f45b4aa","study_id":"6197b3f67c2b5cd3b6d9596a","session_id":"619be31f4eda710dc9aa83b5","condition":"contingent","relevant_dimensions":["antennae","pattern"],"bee_group":{"antennae":"A","wings":"X","pattern":"S","legs":"X"},"bonus":0.060000000000001164},{"rt":1331,"stimulus":"bees-with-color/bee-A2SF.svg","response":0,"trial_type":"image-button-response","trial_index":21,"time_elapsed":183906,"internal_node_id":"0.0-4.0-0.5","subject_id":"5f761e5106b786071f45b4aa","study_id":"6197b3f67c2b5cd3b6d9596a","session_id":"619be31f4eda710dc9aa83b5","condition":"contingent","relevant_dimensions":["antennae","pattern"],"bee_group":{"antennae":"A","wings":"X","pattern":"S","legs":"X"},"action":"harvest","summary":"bad-harvest","bonus":0.060000000000001164},{"rt":618,"stimulus":"\n                    <p><b>Action: <em>harvest</em></b></p>\n                    <p>This is the bee that you just saw.</p>\n                    <img src=\"bees-with-color/bee-A2SF.svg\" width=\"200\">\n                    <p><span class=\"redText\">Bad choice, the bee was angry.</span><br><b>You have been stung!</b><br>Your pay has been decreased by $0.10. Your bonus pay is now $0.40.</p>\n            ","response":0,"trial_type":"html-button-response","trial_index":22,"time_elapsed":184525,"internal_node_id":"0.0-4.0-1.5","subject_id":"5f761e5106b786071f45b4aa","study_id":"6197b3f67c2b5cd3b6d9596a","session_id":"619be31f4eda710dc9aa83b5","condition":"contingent","relevant_dimensions":["antennae","pattern"],"bee_group":{"antennae":"A","wings":"X","pattern":"S","legs":"X"},"bonus":0.060000000000001164},{"rt":401,"stimulus":"bees-with-color/bee-B2SF.svg","response":1,"trial_type":"image-button-response","trial_index":23,"time_elapsed":184926,"internal_node_id":"0.0-4.0-0.6","subject_id":"5f761e5106b786071f45b4aa","study_id":"6197b3f67c2b5cd3b6d9596a","session_id":"619be31f4eda710dc9aa83b5","condition":"contingent","relevant_dimensions":["antennae","pattern"],"bee_group":{"antennae":"A","wings":"X","pattern":"S","legs":"X"},"action":"avoid","summary":"bad-avoid","bonus":0.060000000000001164},{"rt":478,"stimulus":"\n                    <p><b>Action: <em>avoid</em></b></p>\n                    <p>This is the bee that you just saw.</p>\n                    <img src=\"bees-with-color/bee-B2SF.svg\" width=\"200\">\n                    <p><br>Your bonus pay is unchanged, and remains at $0.40.</p>\n            ","response":0,"trial_type":"html-button-response","trial_index":24,"time_elapsed":185406,"internal_node_id":"0.0-4.0-1.6","subject_id":"5f761e5106b786071f45b4aa","study_id":"6197b3f67c2b5cd3b6d9596a","session_id":"619be31f4eda710dc9aa83b5","condition":"contingent","relevant_dimensions":["antennae","pattern"],"bee_group":{"antennae":"A","wings":"X","pattern":"S","legs":"X"},"bonus":0.060000000000001164},{"rt":621,"stimulus":"bees-with-color/bee-A1DM.svg","response":0,"trial_type":"image-button-response","trial_index":25,"time_elapsed":186026,"internal_node_id":"0.0-4.0-0.7","subject_id":"5f761e5106b786071f45b4aa","study_id":"6197b3f67c2b5cd3b6d9596a","session_id":"619be31f4eda710dc9aa83b5","condition":"contingent","relevant_dimensions":["antennae","pattern"],"bee_group":{"antennae":"A","wings":"X","pattern":"S","legs":"X"},"action":"harvest","summary":"good-harvest","bonus":0.060000000000001164},{"rt":531,"stimulus":"\n                    <p><b>Action: <em>harvest</em></b></p>\n                    <p>This is the bee that you just saw.</p>\n                    <img src=\"bees-with-color/bee-A1DM.svg\" width=\"200\">\n                    <p><span class=\"greenText\"><b>Successful harvest!</b></span><br>Your pay has increased by $0.02. Your bonus pay is now $0.42.</p>\n            ","response":0,"trial_type":"html-button-response","trial_index":26,"time_elapsed":186559,"internal_node_id":"0.0-4.0-1.7","subject_id":"5f761e5106b786071f45b4aa","study_id":"6197b3f67c2b5cd3b6d9596a","session_id":"619be31f4eda710dc9aa83b5","condition":"contingent","relevant_dimensions":["antennae","pattern"],"bee_group":{"antennae":"A","wings":"X","pattern":"S","legs":"X"},"bonus":0.060000000000001164},{"rt":504,"stimulus":"bees-with-color/bee-B1DM.svg","response":0,"trial_type":"image-button-response","trial_index":27,"time_elapsed":187062,"internal_node_id":"0.0-4.0-0.8","subject_id":"5f761e5106b786071f45b4aa","study_id":"6197b3f67c2b5cd3b6d9596a","session_id":"619be31f4eda710dc9aa83b5","condition":"contingent","relevant_dimensions":["antennae","pattern"],"bee_group":{"antennae":"A","wings":"X","pattern":"S","legs":"X"},"action":"harvest","summary":"good-harvest","bonus":0.060000000000001164},{"rt":455,"stimulus":"\n                    <p><b>Action: <em>harvest</em></b></p>\n                    <p>This is the bee that you just saw.</p>\n                    <img src=\"bees-with-color/bee-B1DM.svg\" width=\"200\">\n                    <p><span class=\"greenText\"><b>Successful harvest!</b></span><br>Your pay has increased by $0.02. Your bonus pay is now $0.44.</p>\n            ","response":0,"trial_type":"html-button-response","trial_index":28,"time_elapsed":187519,"internal_node_id":"0.0-4.0-1.8","subject_id":"5f761e5106b786071f45b4aa","study_id":"6197b3f67c2b5cd3b6d9596a","session_id":"619be31f4eda710dc9aa83b5","condition":"contingent","relevant_dimensions":["antennae","pattern"],"bee_group":{"antennae":"A","wings":"X","pattern":"S","legs":"X"},"bonus":0.060000000000001164},{"rt":778,"stimulus":"bees-with-color/bee-A1DF.svg","response":0,"trial_type":"image-button-response","trial_index":29,"time_elapsed":188298,"internal_node_id":"0.0-4.0-0.9","subject_id":"5f761e5106b786071f45b4aa","study_id":"6197b3f67c2b5cd3b6d9596a","session_id":"619be31f4eda710dc9aa83b5","condition":"contingent","relevant_dimensions":["antennae","pattern"],"bee_group":{"antennae":"A","wings":"X","pattern":"S","legs":"X"},"action":"harvest","summary":"good-harvest","bonus":0.060000000000001164},{"rt":473,"stimulus":"\n                    <p><b>Action: <em>harvest</em></b></p>\n                    <p>This is the bee that you just saw.</p>\n                    <img src=\"bees-with-color/bee-A1DF.svg\" width=\"200\">\n                    <p><span class=\"greenText\"><b>Successful harvest!</b></span><br>Your pay has increased by $0.02. Your bonus pay is now $0.46.</p>\n            ","response":0,"trial_type":"html-button-response","trial_index":30,"time_elapsed":188771,"internal_node_id":"0.0-4.0-1.9","subject_id":"5f761e5106b786071f45b4aa","study_id":"6197b3f67c2b5cd3b6d9596a","session_id":"619be31f4eda710dc9aa83b5","condition":"contingent","relevant_dimensions":["antennae","pattern"],"bee_group":{"antennae":"A","wings":"X","pattern":"S","legs":"X"},"bonus":0.060000000000001164},{"rt":548,"stimulus":"bees-with-color/bee-A2DM.svg","response":0,"trial_type":"image-button-response","trial_index":31,"time_elapsed":189320,"internal_node_id":"0.0-4.0-0.10","subject_id":"5f761e5106b786071f45b4aa","study_id":"6197b3f67c2b5cd3b6d9596a","session_id":"619be31f4eda710dc9aa83b5","condition":"contingent","relevant_dimensions":["antennae","pattern"],"bee_group":{"antennae":"A","wings":"X","pattern":"S","legs":"X"},"action":"harvest","summary":"good-harvest","bonus":0.060000000000001164},{"rt":500,"stimulus":"\n                    <p><b>Action: <em>harvest</em></b></p>\n                    <p>This is the bee that you just saw.</p>\n                    <img src=\"bees-with-color/bee-A2DM.svg\" width=\"200\">\n                    <p><span class=\"greenText\"><b>Successful harvest!</b></span><br>Your pay has increased by $0.02. Your bonus pay is now $0.48.</p>\n            ","response":0,"trial_type":"html-button-response","trial_index":32,"time_elapsed":189821,"internal_node_id":"0.0-4.0-1.10","subject_id":"5f761e5106b786071f45b4aa","study_id":"6197b3f67c2b5cd3b6d9596a","session_id":"619be31f4eda710dc9aa83b5","condition":"contingent","relevant_dimensions":["antennae","pattern"],"bee_group":{"antennae":"A","wings":"X","pattern":"S","legs":"X"},"bonus":0.060000000000001164},{"rt":473,"stimulus":"bees-with-color/bee-A2DF.svg","response":0,"trial_type":"image-button-response","trial_index":33,"time_elapsed":190295,"internal_node_id":"0.0-4.0-0.11","subject_id":"5f761e5106b786071f45b4aa","study_id":"6197b3f67c2b5cd3b6d9596a","session_id":"619be31f4eda710dc9aa83b5","condition":"contingent","relevant_dimensions":["antennae","pattern"],"bee_group":{"antennae":"A","wings":"X","pattern":"S","legs":"X"},"action":"harvest","summary":"good-harvest","bonus":0.060000000000001164},{"rt":464,"stimulus":"\n                    <p><b>Action: <em>harvest</em></b></p>\n                    <p>This is the bee that you just saw.</p>\n                    <img src=\"bees-with-color/bee-A2DF.svg\" width=\"200\">\n                    <p><span class=\"greenText\"><b>Successful harvest!</b></span><br>Your pay has increased by $0.02. Your bonus pay is now $0.50.</p>\n            ","response":0,"trial_type":"html-button-response","trial_index":34,"time_elapsed":190759,"internal_node_id":"0.0-4.0-1.11","subject_id":"5f761e5106b786071f45b4aa","study_id":"6197b3f67c2b5cd3b6d9596a","session_id":"619be31f4eda710dc9aa83b5","condition":"contingent","relevant_dimensions":["antennae","pattern"],"bee_group":{"antennae":"A","wings":"X","pattern":"S","legs":"X"},"bonus":0.060000000000001164},{"rt":886,"stimulus":"bees-with-color/bee-A1SF.svg","response":0,"trial_type":"image-button-response","trial_index":35,"time_elapsed":191645,"internal_node_id":"0.0-4.0-0.12","subject_id":"5f761e5106b786071f45b4aa","study_id":"6197b3f67c2b5cd3b6d9596a","session_id":"619be31f4eda710dc9aa83b5","condition":"contingent","relevant_dimensions":["antennae","pattern"],"bee_group":{"antennae":"A","wings":"X","pattern":"S","legs":"X"},"action":"harvest","summary":"bad-harvest","bonus":0.060000000000001164},{"rt":456,"stimulus":"\n                    <p><b>Action: <em>harvest</em></b></p>\n                    <p>This is the bee that you just saw.</p>\n                    <img src=\"bees-with-color/bee-A1SF.svg\" width=\"200\">\n                    <p><span class=\"redText\">Bad choice, the bee was angry.</span><br><b>You have been stung!</b><br>Your pay has been decreased by $0.10. Your bonus pay is now $0.40.</p>\n            ","response":0,"trial_type":"html-button-response","trial_index":36,"time_elapsed":192103,"internal_node_id":"0.0-4.0-1.12","subject_id":"5f761e5106b786071f45b4aa","study_id":"6197b3f67c2b5cd3b6d9596a","session_id":"619be31f4eda710dc9aa83b5","condition":"contingent","relevant_dimensions":["antennae","pattern"],"bee_group":{"antennae":"A","wings":"X","pattern":"S","legs":"X"},"bonus":0.060000000000001164},{"rt":498,"stimulus":"bees-with-color/bee-B2DF.svg","response":0,"trial_type":"image-button-response","trial_index":37,"time_elapsed":192601,"internal_node_id":"0.0-4.0-0.13","subject_id":"5f761e5106b786071f45b4aa","study_id":"6197b3f67c2b5cd3b6d9596a","session_id":"619be31f4eda710dc9aa83b5","condition":"contingent","relevant_dimensions":["antennae","pattern"],"bee_group":{"antennae":"A","wings":"X","pattern":"S","legs":"X"},"action":"harvest","summary":"good-harvest","bonus":0.060000000000001164},{"rt":415,"stimulus":"\n                    <p><b>Action: <em>harvest</em></b></p>\n                    <p>This is the bee that you just saw.</p>\n                    <img src=\"bees-with-color/bee-B2DF.svg\" width=\"200\">\n                    <p><span class=\"greenText\"><b>Successful harvest!</b></span><br>Your pay has increased by $0.02. Your bonus pay is now $0.42.</p>\n            ","response":0,"trial_type":"html-button-response","trial_index":38,"time_elapsed":193016,"internal_node_id":"0.0-4.0-1.13","subject_id":"5f761e5106b786071f45b4aa","study_id":"6197b3f67c2b5cd3b6d9596a","session_id":"619be31f4eda710dc9aa83b5","condition":"contingent","relevant_dimensions":["antennae","pattern"],"bee_group":{"antennae":"A","wings":"X","pattern":"S","legs":"X"},"bonus":0.060000000000001164},{"rt":602,"stimulus":"bees-with-color/bee-B1SM.svg","response":1,"trial_type":"image-button-response","trial_index":39,"time_elapsed":193621,"internal_node_id":"0.0-4.0-0.14","subject_id":"5f761e5106b786071f45b4aa","study_id":"6197b3f67c2b5cd3b6d9596a","session_id":"619be31f4eda710dc9aa83b5","condition":"contingent","relevant_dimensions":["antennae","pattern"],"bee_group":{"antennae":"A","wings":"X","pattern":"S","legs":"X"},"action":"avoid","summary":"bad-avoid","bonus":0.060000000000001164},{"rt":637,"stimulus":"\n                    <p><b>Action: <em>avoid</em></b></p>\n                    <p>This is the bee that you just saw.</p>\n                    <img src=\"bees-with-color/bee-B1SM.svg\" width=\"200\">\n                    <p><br>Your bonus pay is unchanged, and remains at $0.42.</p>\n            ","response":0,"trial_type":"html-button-response","trial_index":40,"time_elapsed":194258,"internal_node_id":"0.0-4.0-1.14","subject_id":"5f761e5106b786071f45b4aa","study_id":"6197b3f67c2b5cd3b6d9596a","session_id":"619be31f4eda710dc9aa83b5","condition":"contingent","relevant_dimensions":["antennae","pattern"],"bee_group":{"antennae":"A","wings":"X","pattern":"S","legs":"X"},"bonus":0.060000000000001164},{"rt":344,"stimulus":"bees-with-color/bee-A2SM.svg","response":1,"trial_type":"image-button-response","trial_index":41,"time_elapsed":194604,"internal_node_id":"0.0-4.0-0.15","subject_id":"5f761e5106b786071f45b4aa","study_id":"6197b3f67c2b5cd3b6d9596a","session_id":"619be31f4eda710dc9aa83b5","condition":"contingent","relevant_dimensions":["antennae","pattern"],"bee_group":{"antennae":"A","wings":"X","pattern":"S","legs":"X"},"action":"avoid","summary":"good-avoid","bonus":0.060000000000001164},{"rt":393,"stimulus":"\n                    <p><b>Action: <em>avoid</em></b></p>\n                    <p>This is the bee that you just saw.</p>\n                    <img src=\"bees-with-color/bee-A2SM.svg\" width=\"200\">\n                    <p><br>Your bonus pay is unchanged, and remains at $0.42.</p>\n            ","response":0,"trial_type":"html-button-response","trial_index":42,"time_elapsed":194998,"internal_node_id":"0.0-4.0-1.15","subject_id":"5f761e5106b786071f45b4aa","study_id":"6197b3f67c2b5cd3b6d9596a","session_id":"619be31f4eda710dc9aa83b5","condition":"contingent","relevant_dimensions":["antennae","pattern"],"bee_group":{"antennae":"A","wings":"X","pattern":"S","legs":"X"},"bonus":0.060000000000001164},{"rt":565,"stimulus":"bees-with-color/bee-A2DF.svg","response":0,"trial_type":"image-button-response","trial_index":43,"time_elapsed":195564,"internal_node_id":"0.0-4.0-0.16","subject_id":"5f761e5106b786071f45b4aa","study_id":"6197b3f67c2b5cd3b6d9596a","session_id":"619be31f4eda710dc9aa83b5","condition":"contingent","relevant_dimensions":["antennae","pattern"],"bee_group":{"antennae":"A","wings":"X","pattern":"S","legs":"X"},"action":"harvest","summary":"good-harvest","bonus":0.060000000000001164},{"rt":341,"stimulus":"\n                    <p><b>Action: <em>harvest</em></b></p>\n                    <p>This is the bee that you just saw.</p>\n                    <img src=\"bees-with-color/bee-A2DF.svg\" width=\"200\">\n                    <p><span class=\"greenText\"><b>Successful harvest!</b></span><br>Your pay has increased by $0.02. Your bonus pay is now $0.44.</p>\n            ","response":0,"trial_type":"html-button-response","trial_index":44,"time_elapsed":195907,"internal_node_id":"0.0-4.0-1.16","subject_id":"5f761e5106b786071f45b4aa","study_id":"6197b3f67c2b5cd3b6d9596a","session_id":"619be31f4eda710dc9aa83b5","condition":"contingent","relevant_dimensions":["antennae","pattern"],"bee_group":{"antennae":"A","wings":"X","pattern":"S","legs":"X"},"bonus":0.060000000000001164},{"rt":508,"stimulus":"bees-with-color/bee-A2SF.svg","response":1,"trial_type":"image-button-response","trial_index":45,"time_elapsed":196417,"internal_node_id":"0.0-4.0-0.17","subject_id":"5f761e5106b786071f45b4aa","study_id":"6197b3f67c2b5cd3b6d9596a","session_id":"619be31f4eda710dc9aa83b5","condition":"contingent","relevant_dimensions":["antennae","pattern"],"bee_group":{"antennae":"A","wings":"X","pattern":"S","legs":"X"},"action":"avoid","summary":"good-avoid","bonus":0.060000000000001164},{"rt":441,"stimulus":"\n                    <p><b>Action: <em>avoid</em></b></p>\n                    <p>This is the bee that you just saw.</p>\n                    <img src=\"bees-with-color/bee-A2SF.svg\" width=\"200\">\n                    <p><br>Your bonus pay is unchanged, and remains at $0.44.</p>\n            ","response":0,"trial_type":"html-button-response","trial_index":46,"time_elapsed":196858,"internal_node_id":"0.0-4.0-1.17","subject_id":"5f761e5106b786071f45b4aa","study_id":"6197b3f67c2b5cd3b6d9596a","session_id":"619be31f4eda710dc9aa83b5","condition":"contingent","relevant_dimensions":["antennae","pattern"],"bee_group":{"antennae":"A","wings":"X","pattern":"S","legs":"X"},"bonus":0.060000000000001164},{"rt":310,"stimulus":"bees-with-color/bee-A1SF.svg","response":1,"trial_type":"image-button-response","trial_index":47,"time_elapsed":197169,"internal_node_id":"0.0-4.0-0.18","subject_id":"5f761e5106b786071f45b4aa","study_id":"6197b3f67c2b5cd3b6d9596a","session_id":"619be31f4eda710dc9aa83b5","condition":"contingent","relevant_dimensions":["antennae","pattern"],"bee_group":{"antennae":"A","wings":"X","pattern":"S","legs":"X"},"action":"avoid","summary":"good-avoid","bonus":0.060000000000001164},{"rt":380,"stimulus":"\n                    <p><b>Action: <em>avoid</em></b></p>\n                    <p>This is the bee that you just saw.</p>\n                    <img src=\"bees-with-color/bee-A1SF.svg\" width=\"200\">\n                    <p><br>Your bonus pay is unchanged, and remains at $0.44.</p>\n            ","response":0,"trial_type":"html-button-response","trial_index":48,"time_elapsed":197551,"internal_node_id":"0.0-4.0-1.18","subject_id":"5f761e5106b786071f45b4aa","study_id":"6197b3f67c2b5cd3b6d9596a","session_id":"619be31f4eda710dc9aa83b5","condition":"contingent","relevant_dimensions":["antennae","pattern"],"bee_group":{"antennae":"A","wings":"X","pattern":"S","legs":"X"},"bonus":0.060000000000001164},{"rt":333,"stimulus":"bees-with-color/bee-B2DF.svg","response":1,"trial_type":"image-button-response","trial_index":49,"time_elapsed":197885,"internal_node_id":"0.0-4.0-0.19","subject_id":"5f761e5106b786071f45b4aa","study_id":"6197b3f67c2b5cd3b6d9596a","session_id":"619be31f4eda710dc9aa83b5","condition":"contingent","relevant_dimensions":["antennae","pattern"],"bee_group":{"antennae":"A","wings":"X","pattern":"S","legs":"X"},"action":"avoid","summary":"bad-avoid","bonus":0.060000000000001164},{"rt":574,"stimulus":"\n                    <p><b>Action: <em>avoid</em></b></p>\n                    <p>This is the bee that you just saw.</p>\n                    <img src=\"bees-with-color/bee-B2DF.svg\" width=\"200\">\n                    <p><br>Your bonus pay is unchanged, and remains at $0.44.</p>\n            ","response":0,"trial_type":"html-button-response","trial_index":50,"time_elapsed":198462,"internal_node_id":"0.0-4.0-1.19","subject_id":"5f761e5106b786071f45b4aa","study_id":"6197b3f67c2b5cd3b6d9596a","session_id":"619be31f4eda710dc9aa83b5","condition":"contingent","relevant_dimensions":["antennae","pattern"],"bee_group":{"antennae":"A","wings":"X","pattern":"S","legs":"X"},"bonus":0.060000000000001164},{"rt":1049,"stimulus":"bees-with-color/bee-B2SM.svg","response":0,"trial_type":"image-button-response","trial_index":51,"time_elapsed":199511,"internal_node_id":"0.0-4.0-0.20","subject_id":"5f761e5106b786071f45b4aa","study_id":"6197b3f67c2b5cd3b6d9596a","session_id":"619be31f4eda710dc9aa83b5","condition":"contingent","relevant_dimensions":["antennae","pattern"],"bee_group":{"antennae":"A","wings":"X","pattern":"S","legs":"X"},"action":"harvest","summary":"good-harvest","bonus":0.060000000000001164},{"rt":445,"stimulus":"\n                    <p><b>Action: <em>harvest</em></b></p>\n                    <p>This is the bee that you just saw.</p>\n                    <img src=\"bees-with-color/bee-B2SM.svg\" width=\"200\">\n                    <p><span class=\"greenText\"><b>Successful harvest!</b></span><br>Your pay has increased by $0.02. Your bonus pay is now $0.46.</p>\n            ","response":0,"trial_type":"html-button-response","trial_index":52,"time_elapsed":199956,"internal_node_id":"0.0-4.0-1.20","subject_id":"5f761e5106b786071f45b4aa","study_id":"6197b3f67c2b5cd3b6d9596a","session_id":"619be31f4eda710dc9aa83b5","condition":"contingent","relevant_dimensions":["antennae","pattern"],"bee_group":{"antennae":"A","wings":"X","pattern":"S","legs":"X"},"bonus":0.060000000000001164},{"rt":510,"stimulus":"bees-with-color/bee-B1DF.svg","response":0,"trial_type":"image-button-response","trial_index":53,"time_elapsed":200468,"internal_node_id":"0.0-4.0-0.21","subject_id":"5f761e5106b786071f45b4aa","study_id":"6197b3f67c2b5cd3b6d9596a","session_id":"619be31f4eda710dc9aa83b5","condition":"contingent","relevant_dimensions":["antennae","pattern"],"bee_group":{"antennae":"A","wings":"X","pattern":"S","legs":"X"},"action":"harvest","summary":"good-harvest","bonus":0.060000000000001164},{"rt":384,"stimulus":"\n                    <p><b>Action: <em>harvest</em></b></p>\n                    <p>This is the bee that you just saw.</p>\n                    <img src=\"bees-with-color/bee-B1DF.svg\" width=\"200\">\n                    <p><span class=\"greenText\"><b>Successful harvest!</b></span><br>Your pay has increased by $0.02. Your bonus pay is now $0.48.</p>\n            ","response":0,"trial_type":"html-button-response","trial_index":54,"time_elapsed":200852,"internal_node_id":"0.0-4.0-1.21","subject_id":"5f761e5106b786071f45b4aa","study_id":"6197b3f67c2b5cd3b6d9596a","session_id":"619be31f4eda710dc9aa83b5","condition":"contingent","relevant_dimensions":["antennae","pattern"],"bee_group":{"antennae":"A","wings":"X","pattern":"S","legs":"X"},"bonus":0.060000000000001164},{"rt":615,"stimulus":"bees-with-color/bee-B1DM.svg","response":0,"trial_type":"image-button-response","trial_index":55,"time_elapsed":201469,"internal_node_id":"0.0-4.0-0.22","subject_id":"5f761e5106b786071f45b4aa","study_id":"6197b3f67c2b5cd3b6d9596a","session_id":"619be31f4eda710dc9aa83b5","condition":"contingent","relevant_dimensions":["antennae","pattern"],"bee_group":{"antennae":"A","wings":"X","pattern":"S","legs":"X"},"action":"harvest","summary":"good-harvest","bonus":0.060000000000001164},{"rt":378,"stimulus":"\n                    <p><b>Action: <em>harvest</em></b></p>\n                    <p>This is the bee that you just saw.</p>\n                    <img src=\"bees-with-color/bee-B1DM.svg\" width=\"200\">\n                    <p><span class=\"greenText\"><b>Successful harvest!</b></span><br>Your pay has increased by $0.02. Your bonus pay is now $0.50.</p>\n            ","response":0,"trial_type":"html-button-response","trial_index":56,"time_elapsed":201847,"internal_node_id":"0.0-4.0-1.22","subject_id":"5f761e5106b786071f45b4aa","study_id":"6197b3f67c2b5cd3b6d9596a","session_id":"619be31f4eda710dc9aa83b5","condition":"contingent","relevant_dimensions":["antennae","pattern"],"bee_group":{"antennae":"A","wings":"X","pattern":"S","legs":"X"},"bonus":0.060000000000001164},{"rt":706,"stimulus":"bees-with-color/bee-B1SF.svg","response":0,"trial_type":"image-button-response","trial_index":57,"time_elapsed":202554,"internal_node_id":"0.0-4.0-0.23","subject_id":"5f761e5106b786071f45b4aa","study_id":"6197b3f67c2b5cd3b6d9596a","session_id":"619be31f4eda710dc9aa83b5","condition":"contingent","relevant_dimensions":["antennae","pattern"],"bee_group":{"antennae":"A","wings":"X","pattern":"S","legs":"X"},"action":"harvest","summary":"good-harvest","bonus":0.060000000000001164},{"rt":404,"stimulus":"\n                    <p><b>Action: <em>harvest</em></b></p>\n                    <p>This is the bee that you just saw.</p>\n                    <img src=\"bees-with-color/bee-B1SF.svg\" width=\"200\">\n                    <p><span class=\"greenText\"><b>Successful harvest!</b></span><br>Your pay has increased by $0.02. Your bonus pay is now $0.52.</p>\n            ","response":0,"trial_type":"html-button-response","trial_index":58,"time_elapsed":202959,"internal_node_id":"0.0-4.0-1.23","subject_id":"5f761e5106b786071f45b4aa","study_id":"6197b3f67c2b5cd3b6d9596a","session_id":"619be31f4eda710dc9aa83b5","condition":"contingent","relevant_dimensions":["antennae","pattern"],"bee_group":{"antennae":"A","wings":"X","pattern":"S","legs":"X"},"bonus":0.060000000000001164},{"rt":470,"stimulus":"bees-with-color/bee-B1SM.svg","response":0,"trial_type":"image-button-response","trial_index":59,"time_elapsed":203430,"internal_node_id":"0.0-4.0-0.24","subject_id":"5f761e5106b786071f45b4aa","study_id":"6197b3f67c2b5cd3b6d9596a","session_id":"619be31f4eda710dc9aa83b5","condition":"contingent","relevant_dimensions":["antennae","pattern"],"bee_group":{"antennae":"A","wings":"X","pattern":"S","legs":"X"},"action":"harvest","summary":"good-harvest","bonus":0.060000000000001164},{"rt":339,"stimulus":"\n                    <p><b>Action: <em>harvest</em></b></p>\n                    <p>This is the bee that you just saw.</p>\n                    <img src=\"bees-with-color/bee-B1SM.svg\" width=\"200\">\n                    <p><span class=\"greenText\"><b>Successful harvest!</b></span><br>Your pay has increased by $0.02. Your bonus pay is now $0.54.</p>\n            ","response":0,"trial_type":"html-button-response","trial_index":60,"time_elapsed":203770,"internal_node_id":"0.0-4.0-1.24","subject_id":"5f761e5106b786071f45b4aa","study_id":"6197b3f67c2b5cd3b6d9596a","session_id":"619be31f4eda710dc9aa83b5","condition":"contingent","relevant_dimensions":["antennae","pattern"],"bee_group":{"antennae":"A","wings":"X","pattern":"S","legs":"X"},"bonus":0.060000000000001164},{"rt":552,"stimulus":"bees-with-color/bee-A2DM.svg","response":0,"trial_type":"image-button-response","trial_index":61,"time_elapsed":204322,"internal_node_id":"0.0-4.0-0.25","subject_id":"5f761e5106b786071f45b4aa","study_id":"6197b3f67c2b5cd3b6d9596a","session_id":"619be31f4eda710dc9aa83b5","condition":"contingent","relevant_dimensions":["antennae","pattern"],"bee_group":{"antennae":"A","wings":"X","pattern":"S","legs":"X"},"action":"harvest","summary":"good-harvest","bonus":0.060000000000001164},{"rt":318,"stimulus":"\n                    <p><b>Action: <em>harvest</em></b></p>\n                    <p>This is the bee that you just saw.</p>\n                    <img src=\"bees-with-color/bee-A2DM.svg\" width=\"200\">\n                    <p><span class=\"greenText\"><b>Successful harvest!</b></span><br>Your pay has increased by $0.02. Your bonus pay is now $0.56.</p>\n            ","response":0,"trial_type":"html-button-response","trial_index":62,"time_elapsed":204642,"internal_node_id":"0.0-4.0-1.25","subject_id":"5f761e5106b786071f45b4aa","study_id":"6197b3f67c2b5cd3b6d9596a","session_id":"619be31f4eda710dc9aa83b5","condition":"contingent","relevant_dimensions":["antennae","pattern"],"bee_group":{"antennae":"A","wings":"X","pattern":"S","legs":"X"},"bonus":0.060000000000001164},{"rt":410,"stimulus":"bees-with-color/bee-B2DM.svg","response":0,"trial_type":"image-button-response","trial_index":63,"time_elapsed":205053,"internal_node_id":"0.0-4.0-0.26","subject_id":"5f761e5106b786071f45b4aa","study_id":"6197b3f67c2b5cd3b6d9596a","session_id":"619be31f4eda710dc9aa83b5","condition":"contingent","relevant_dimensions":["antennae","pattern"],"bee_group":{"antennae":"A","wings":"X","pattern":"S","legs":"X"},"action":"harvest","summary":"good-harvest","bonus":0.060000000000001164},{"rt":310,"stimulus":"\n                    <p><b>Action: <em>harvest</em></b></p>\n                    <p>This is the bee that you just saw.</p>\n                    <img src=\"bees-with-color/bee-B2DM.svg\" width=\"200\">\n                    <p><span class=\"greenText\"><b>Successful harvest!</b></span><br>Your pay has increased by $0.02. Your bonus pay is now $0.58.</p>\n            ","response":0,"trial_type":"html-button-response","trial_index":64,"time_elapsed":205364,"internal_node_id":"0.0-4.0-1.26","subject_id":"5f761e5106b786071f45b4aa","study_id":"6197b3f67c2b5cd3b6d9596a","session_id":"619be31f4eda710dc9aa83b5","condition":"contingent","relevant_dimensions":["antennae","pattern"],"bee_group":{"antennae":"A","wings":"X","pattern":"S","legs":"X"},"bonus":0.060000000000001164},{"rt":589,"stimulus":"bees-with-color/bee-A1DF.svg","response":0,"trial_type":"image-button-response","trial_index":65,"time_elapsed":205955,"internal_node_id":"0.0-4.0-0.27","subject_id":"5f761e5106b786071f45b4aa","study_id":"6197b3f67c2b5cd3b6d9596a","session_id":"619be31f4eda710dc9aa83b5","condition":"contingent","relevant_dimensions":["antennae","pattern"],"bee_group":{"antennae":"A","wings":"X","pattern":"S","legs":"X"},"action":"harvest","summary":"good-harvest","bonus":0.060000000000001164},{"rt":367,"stimulus":"\n                    <p><b>Action: <em>harvest</em></b></p>\n                    <p>This is the bee that you just saw.</p>\n                    <img src=\"bees-with-color/bee-A1DF.svg\" width=\"200\">\n                    <p><span class=\"greenText\"><b>Successful harvest!</b></span><br>Your pay has increased by $0.02. Your bonus pay is now $0.60.</p>\n            ","response":0,"trial_type":"html-button-response","trial_index":66,"time_elapsed":206323,"internal_node_id":"0.0-4.0-1.27","subject_id":"5f761e5106b786071f45b4aa","study_id":"6197b3f67c2b5cd3b6d9596a","session_id":"619be31f4eda710dc9aa83b5","condition":"contingent","relevant_dimensions":["antennae","pattern"],"bee_group":{"antennae":"A","wings":"X","pattern":"S","legs":"X"},"bonus":0.060000000000001164},{"rt":843,"stimulus":"bees-with-color/bee-A1DM.svg","response":0,"trial_type":"image-button-response","trial_index":67,"time_elapsed":207166,"internal_node_id":"0.0-4.0-0.28","subject_id":"5f761e5106b786071f45b4aa","study_id":"6197b3f67c2b5cd3b6d9596a","session_id":"619be31f4eda710dc9aa83b5","condition":"contingent","relevant_dimensions":["antennae","pattern"],"bee_group":{"antennae":"A","wings":"X","pattern":"S","legs":"X"},"action":"harvest","summary":"good-harvest","bonus":0.060000000000001164},{"rt":421,"stimulus":"\n                    <p><b>Action: <em>harvest</em></b></p>\n                    <p>This is the bee that you just saw.</p>\n                    <img src=\"bees-with-color/bee-A1DM.svg\" width=\"200\">\n                    <p><span class=\"greenText\"><b>Successful harvest!</b></span><br>Your pay has increased by $0.02. Your bonus pay is now $0.62.</p>\n            ","response":0,"trial_type":"html-button-response","trial_index":68,"time_elapsed":207589,"internal_node_id":"0.0-4.0-1.28","subject_id":"5f761e5106b786071f45b4aa","study_id":"6197b3f67c2b5cd3b6d9596a","session_id":"619be31f4eda710dc9aa83b5","condition":"contingent","relevant_dimensions":["antennae","pattern"],"bee_group":{"antennae":"A","wings":"X","pattern":"S","legs":"X"},"bonus":0.060000000000001164},{"rt":934,"stimulus":"bees-with-color/bee-B2SF.svg","response":1,"trial_type":"image-button-response","trial_index":69,"time_elapsed":208522,"internal_node_id":"0.0-4.0-0.29","subject_id":"5f761e5106b786071f45b4aa","study_id":"6197b3f67c2b5cd3b6d9596a","session_id":"619be31f4eda710dc9aa83b5","condition":"contingent","relevant_dimensions":["antennae","pattern"],"bee_group":{"antennae":"A","wings":"X","pattern":"S","legs":"X"},"action":"avoid","summary":"bad-avoid","bonus":0.060000000000001164},{"rt":414,"stimulus":"\n                    <p><b>Action: <em>avoid</em></b></p>\n                    <p>This is the bee that you just saw.</p>\n                    <img src=\"bees-with-color/bee-B2SF.svg\" width=\"200\">\n                    <p><br>Your bonus pay is unchanged, and remains at $0.62.</p>\n            ","response":0,"trial_type":"html-button-response","trial_index":70,"time_elapsed":208938,"internal_node_id":"0.0-4.0-1.29","subject_id":"5f761e5106b786071f45b4aa","study_id":"6197b3f67c2b5cd3b6d9596a","session_id":"619be31f4eda710dc9aa83b5","condition":"contingent","relevant_dimensions":["antennae","pattern"],"bee_group":{"antennae":"A","wings":"X","pattern":"S","legs":"X"},"bonus":0.060000000000001164},{"rt":341,"stimulus":"bees-with-color/bee-A2SM.svg","response":1,"trial_type":"image-button-response","trial_index":71,"time_elapsed":209280,"internal_node_id":"0.0-4.0-0.30","subject_id":"5f761e5106b786071f45b4aa","study_id":"6197b3f67c2b5cd3b6d9596a","session_id":"619be31f4eda710dc9aa83b5","condition":"contingent","relevant_dimensions":["antennae","pattern"],"bee_group":{"antennae":"A","wings":"X","pattern":"S","legs":"X"},"action":"avoid","summary":"good-avoid","bonus":0.060000000000001164},{"rt":422,"stimulus":"\n                    <p><b>Action: <em>avoid</em></b></p>\n                    <p>This is the bee that you just saw.</p>\n                    <img src=\"bees-with-color/bee-A2SM.svg\" width=\"200\">\n                    <p><br>Your bonus pay is unchanged, and remains at $0.62.</p>\n            ","response":0,"trial_type":"html-button-response","trial_index":72,"time_elapsed":209702,"internal_node_id":"0.0-4.0-1.30","subject_id":"5f761e5106b786071f45b4aa","study_id":"6197b3f67c2b5cd3b6d9596a","session_id":"619be31f4eda710dc9aa83b5","condition":"contingent","relevant_dimensions":["antennae","pattern"],"bee_group":{"antennae":"A","wings":"X","pattern":"S","legs":"X"},"bonus":0.060000000000001164},{"rt":401,"stimulus":"bees-with-color/bee-A1SM.svg","response":0,"trial_type":"image-button-response","trial_index":73,"time_elapsed":210104,"internal_node_id":"0.0-4.0-0.31","subject_id":"5f761e5106b786071f45b4aa","study_id":"6197b3f67c2b5cd3b6d9596a","session_id":"619be31f4eda710dc9aa83b5","condition":"contingent","relevant_dimensions":["antennae","pattern"],"bee_group":{"antennae":"A","wings":"X","pattern":"S","legs":"X"},"action":"harvest","summary":"bad-harvest","bonus":0.060000000000001164},{"rt":898,"stimulus":"\n                    <p><b>Action: <em>harvest</em></b></p>\n                    <p>This is the bee that you just saw.</p>\n                    <img src=\"bees-with-color/bee-A1SM.svg\" width=\"200\">\n                    <p><span class=\"redText\">Bad choice, the bee was angry.</span><br><b>You have been stung!</b><br>Your pay has been decreased by $0.10. Your bonus pay is now $0.52.</p>\n            ","response":0,"trial_type":"html-button-response","trial_index":74,"time_elapsed":211001,"internal_node_id":"0.0-4.0-1.31","subject_id":"5f761e5106b786071f45b4aa","study_id":"6197b3f67c2b5cd3b6d9596a","session_id":"619be31f4eda710dc9aa83b5","condition":"contingent","relevant_dimensions":["antennae","pattern"],"bee_group":{"antennae":"A","wings":"X","pattern":"S","legs":"X"},"bonus":0.060000000000001164},{"rt":583,"stimulus":"bees-with-color/bee-A2SF.svg","response":1,"trial_type":"image-button-response","trial_index":75,"time_elapsed":211585,"internal_node_id":"0.0-4.0-0.32","subject_id":"5f761e5106b786071f45b4aa","study_id":"6197b3f67c2b5cd3b6d9596a","session_id":"619be31f4eda710dc9aa83b5","condition":"contingent","relevant_dimensions":["antennae","pattern"],"bee_group":{"antennae":"A","wings":"X","pattern":"S","legs":"X"},"action":"avoid","summary":"good-avoid","bonus":0.060000000000001164},{"rt":289,"stimulus":"\n                    <p><b>Action: <em>avoid</em></b></p>\n                    <p>This is the bee that you just saw.</p>\n                    <img src=\"bees-with-color/bee-A2SF.svg\" width=\"200\">\n                    <p><br>Your bonus pay is unchanged, and remains at $0.52.</p>\n            ","response":0,"trial_type":"html-button-response","trial_index":76,"time_elapsed":211875,"internal_node_id":"0.0-4.0-1.32","subject_id":"5f761e5106b786071f45b4aa","study_id":"6197b3f67c2b5cd3b6d9596a","session_id":"619be31f4eda710dc9aa83b5","condition":"contingent","relevant_dimensions":["antennae","pattern"],"bee_group":{"antennae":"A","wings":"X","pattern":"S","legs":"X"},"bonus":0.060000000000001164},{"rt":522,"stimulus":"bees-with-color/bee-A2DF.svg","response":0,"trial_type":"image-button-response","trial_index":77,"time_elapsed":212398,"internal_node_id":"0.0-4.0-0.33","subject_id":"5f761e5106b786071f45b4aa","study_id":"6197b3f67c2b5cd3b6d9596a","session_id":"619be31f4eda710dc9aa83b5","condition":"contingent","relevant_dimensions":["antennae","pattern"],"bee_group":{"antennae":"A","wings":"X","pattern":"S","legs":"X"},"action":"harvest","summary":"good-harvest","bonus":0.060000000000001164},{"rt":477,"stimulus":"\n                    <p><b>Action: <em>harvest</em></b></p>\n                    <p>This is the bee that you just saw.</p>\n                    <img src=\"bees-with-color/bee-A2DF.svg\" width=\"200\">\n                    <p><span class=\"greenText\"><b>Successful harvest!</b></span><br>Your pay has increased by $0.02. Your bonus pay is now $0.54.</p>\n            ","response":0,"trial_type":"html-button-response","trial_index":78,"time_elapsed":212877,"internal_node_id":"0.0-4.0-1.33","subject_id":"5f761e5106b786071f45b4aa","study_id":"6197b3f67c2b5cd3b6d9596a","session_id":"619be31f4eda710dc9aa83b5","condition":"contingent","relevant_dimensions":["antennae","pattern"],"bee_group":{"antennae":"A","wings":"X","pattern":"S","legs":"X"},"bonus":0.060000000000001164},{"rt":380,"stimulus":"bees-with-color/bee-A1DF.svg","response":0,"trial_type":"image-button-response","trial_index":79,"time_elapsed":213257,"internal_node_id":"0.0-4.0-0.34","subject_id":"5f761e5106b786071f45b4aa","study_id":"6197b3f67c2b5cd3b6d9596a","session_id":"619be31f4eda710dc9aa83b5","condition":"contingent","relevant_dimensions":["antennae","pattern"],"bee_group":{"antennae":"A","wings":"X","pattern":"S","legs":"X"},"action":"harvest","summary":"good-harvest","bonus":0.060000000000001164},{"rt":244,"stimulus":"\n                    <p><b>Action: <em>harvest</em></b></p>\n                    <p>This is the bee that you just saw.</p>\n                    <img src=\"bees-with-color/bee-A1DF.svg\" width=\"200\">\n                    <p><span class=\"greenText\"><b>Successful harvest!</b></span><br>Your pay has increased by $0.02. Your bonus pay is now $0.56.</p>\n            ","response":0,"trial_type":"html-button-response","trial_index":80,"time_elapsed":213501,"internal_node_id":"0.0-4.0-1.34","subject_id":"5f761e5106b786071f45b4aa","study_id":"6197b3f67c2b5cd3b6d9596a","session_id":"619be31f4eda710dc9aa83b5","condition":"contingent","relevant_dimensions":["antennae","pattern"],"bee_group":{"antennae":"A","wings":"X","pattern":"S","legs":"X"},"bonus":0.060000000000001164},{"rt":507,"stimulus":"bees-with-color/bee-A1SM.svg","response":1,"trial_type":"image-button-response","trial_index":81,"time_elapsed":214009,"internal_node_id":"0.0-4.0-0.35","subject_id":"5f761e5106b786071f45b4aa","study_id":"6197b3f67c2b5cd3b6d9596a","session_id":"619be31f4eda710dc9aa83b5","condition":"contingent","relevant_dimensions":["antennae","pattern"],"bee_group":{"antennae":"A","wings":"X","pattern":"S","legs":"X"},"action":"avoid","summary":"good-avoid","bonus":0.060000000000001164},{"rt":547,"stimulus":"\n                    <p><b>Action: <em>avoid</em></b></p>\n                    <p>This is the bee that you just saw.</p>\n                    <img src=\"bees-with-color/bee-A1SM.svg\" width=\"200\">\n                    <p><br>Your bonus pay is unchanged, and remains at $0.56.</p>\n            ","response":0,"trial_type":"html-button-response","trial_index":82,"time_elapsed":214559,"internal_node_id":"0.0-4.0-1.35","subject_id":"5f761e5106b786071f45b4aa","study_id":"6197b3f67c2b5cd3b6d9596a","session_id":"619be31f4eda710dc9aa83b5","condition":"contingent","relevant_dimensions":["antennae","pattern"],"bee_group":{"antennae":"A","wings":"X","pattern":"S","legs":"X"},"bonus":0.060000000000001164},{"rt":394,"stimulus":"bees-with-color/bee-A1DM.svg","response":0,"trial_type":"image-button-response","trial_index":83,"time_elapsed":214953,"internal_node_id":"0.0-4.0-0.36","subject_id":"5f761e5106b786071f45b4aa","study_id":"6197b3f67c2b5cd3b6d9596a","session_id":"619be31f4eda710dc9aa83b5","condition":"contingent","relevant_dimensions":["antennae","pattern"],"bee_group":{"antennae":"A","wings":"X","pattern":"S","legs":"X"},"action":"harvest","summary":"good-harvest","bonus":0.060000000000001164},{"rt":345,"stimulus":"\n                    <p><b>Action: <em>harvest</em></b></p>\n                    <p>This is the bee that you just saw.</p>\n                    <img src=\"bees-with-color/bee-A1DM.svg\" width=\"200\">\n                    <p><span class=\"greenText\"><b>Successful harvest!</b></span><br>Your pay has increased by $0.02. Your bonus pay is now $0.58.</p>\n            ","response":0,"trial_type":"html-button-response","trial_index":84,"time_elapsed":215298,"internal_node_id":"0.0-4.0-1.36","subject_id":"5f761e5106b786071f45b4aa","study_id":"6197b3f67c2b5cd3b6d9596a","session_id":"619be31f4eda710dc9aa83b5","condition":"contingent","relevant_dimensions":["antennae","pattern"],"bee_group":{"antennae":"A","wings":"X","pattern":"S","legs":"X"},"bonus":0.060000000000001164},{"rt":554,"stimulus":"bees-with-color/bee-B1SM.svg","response":0,"trial_type":"image-button-response","trial_index":85,"time_elapsed":215854,"internal_node_id":"0.0-4.0-0.37","subject_id":"5f761e5106b786071f45b4aa","study_id":"6197b3f67c2b5cd3b6d9596a","session_id":"619be31f4eda710dc9aa83b5","condition":"contingent","relevant_dimensions":["antennae","pattern"],"bee_group":{"antennae":"A","wings":"X","pattern":"S","legs":"X"},"action":"harvest","summary":"good-harvest","bonus":0.060000000000001164},{"rt":394,"stimulus":"\n                    <p><b>Action: <em>harvest</em></b></p>\n                    <p>This is the bee that you just saw.</p>\n                    <img src=\"bees-with-color/bee-B1SM.svg\" width=\"200\">\n                    <p><span class=\"greenText\"><b>Successful harvest!</b></span><br>Your pay has increased by $0.02. Your bonus pay is now $0.60.</p>\n            ","response":0,"trial_type":"html-button-response","trial_index":86,"time_elapsed":216248,"internal_node_id":"0.0-4.0-1.37","subject_id":"5f761e5106b786071f45b4aa","study_id":"6197b3f67c2b5cd3b6d9596a","session_id":"619be31f4eda710dc9aa83b5","condition":"contingent","relevant_dimensions":["antennae","pattern"],"bee_group":{"antennae":"A","wings":"X","pattern":"S","legs":"X"},"bonus":0.060000000000001164},{"rt":530,"stimulus":"bees-with-color/bee-A2DM.svg","response":0,"trial_type":"image-button-response","trial_index":87,"time_elapsed":216779,"internal_node_id":"0.0-4.0-0.38","subject_id":"5f761e5106b786071f45b4aa","study_id":"6197b3f67c2b5cd3b6d9596a","session_id":"619be31f4eda710dc9aa83b5","condition":"contingent","relevant_dimensions":["antennae","pattern"],"bee_group":{"antennae":"A","wings":"X","pattern":"S","legs":"X"},"action":"harvest","summary":"good-harvest","bonus":0.060000000000001164},{"rt":292,"stimulus":"\n                    <p><b>Action: <em>harvest</em></b></p>\n                    <p>This is the bee that you just saw.</p>\n                    <img src=\"bees-with-color/bee-A2DM.svg\" width=\"200\">\n                    <p><span class=\"greenText\"><b>Successful harvest!</b></span><br>Your pay has increased by $0.02. Your bonus pay is now $0.62.</p>\n            ","response":0,"trial_type":"html-button-response","trial_index":88,"time_elapsed":217073,"internal_node_id":"0.0-4.0-1.38","subject_id":"5f761e5106b786071f45b4aa","study_id":"6197b3f67c2b5cd3b6d9596a","session_id":"619be31f4eda710dc9aa83b5","condition":"contingent","relevant_dimensions":["antennae","pattern"],"bee_group":{"antennae":"A","wings":"X","pattern":"S","legs":"X"},"bonus":0.060000000000001164},{"rt":435,"stimulus":"bees-with-color/bee-B2DF.svg","response":0,"trial_type":"image-button-response","trial_index":89,"time_elapsed":217507,"internal_node_id":"0.0-4.0-0.39","subject_id":"5f761e5106b786071f45b4aa","study_id":"6197b3f67c2b5cd3b6d9596a","session_id":"619be31f4eda710dc9aa83b5","condition":"contingent","relevant_dimensions":["antennae","pattern"],"bee_group":{"antennae":"A","wings":"X","pattern":"S","legs":"X"},"action":"harvest","summary":"good-harvest","bonus":0.060000000000001164},{"rt":481,"stimulus":"\n                    <p><b>Action: <em>harvest</em></b></p>\n                    <p>This is the bee that you just saw.</p>\n                    <img src=\"bees-with-color/bee-B2DF.svg\" width=\"200\">\n                    <p><span class=\"greenText\"><b>Successful harvest!</b></span><br>Your pay has increased by $0.02. Your bonus pay is now $0.64.</p>\n            ","response":0,"trial_type":"html-button-response","trial_index":90,"time_elapsed":217990,"internal_node_id":"0.0-4.0-1.39","subject_id":"5f761e5106b786071f45b4aa","study_id":"6197b3f67c2b5cd3b6d9596a","session_id":"619be31f4eda710dc9aa83b5","condition":"contingent","relevant_dimensions":["antennae","pattern"],"bee_group":{"antennae":"A","wings":"X","pattern":"S","legs":"X"},"bonus":0.060000000000001164},{"rt":1214,"stimulus":"bees-with-color/bee-B2SF.svg","response":0,"trial_type":"image-button-response","trial_index":91,"time_elapsed":219205,"internal_node_id":"0.0-4.0-0.40","subject_id":"5f761e5106b786071f45b4aa","study_id":"6197b3f67c2b5cd3b6d9596a","session_id":"619be31f4eda710dc9aa83b5","condition":"contingent","relevant_dimensions":["antennae","pattern"],"bee_group":{"antennae":"A","wings":"X","pattern":"S","legs":"X"},"action":"harvest","summary":"good-harvest","bonus":0.060000000000001164},{"rt":437,"stimulus":"\n                    <p><b>Action: <em>harvest</em></b></p>\n                    <p>This is the bee that you just saw.</p>\n                    <img src=\"bees-with-color/bee-B2SF.svg\" width=\"200\">\n                    <p><span class=\"greenText\"><b>Successful harvest!</b></span><br>Your pay has increased by $0.02. Your bonus pay is now $0.66.</p>\n            ","response":0,"trial_type":"html-button-response","trial_index":92,"time_elapsed":219642,"internal_node_id":"0.0-4.0-1.40","subject_id":"5f761e5106b786071f45b4aa","study_id":"6197b3f67c2b5cd3b6d9596a","session_id":"619be31f4eda710dc9aa83b5","condition":"contingent","relevant_dimensions":["antennae","pattern"],"bee_group":{"antennae":"A","wings":"X","pattern":"S","legs":"X"},"bonus":0.060000000000001164},{"rt":649,"stimulus":"bees-with-color/bee-B2SM.svg","response":1,"trial_type":"image-button-response","trial_index":93,"time_elapsed":220291,"internal_node_id":"0.0-4.0-0.41","subject_id":"5f761e5106b786071f45b4aa","study_id":"6197b3f67c2b5cd3b6d9596a","session_id":"619be31f4eda710dc9aa83b5","condition":"contingent","relevant_dimensions":["antennae","pattern"],"bee_group":{"antennae":"A","wings":"X","pattern":"S","legs":"X"},"action":"avoid","summary":"bad-avoid","bonus":0.060000000000001164},{"rt":414,"stimulus":"\n                    <p><b>Action: <em>avoid</em></b></p>\n                    <p>This is the bee that you just saw.</p>\n                    <img src=\"bees-with-color/bee-B2SM.svg\" width=\"200\">\n                    <p><br>Your bonus pay is unchanged, and remains at $0.66.</p>\n            ","response":0,"trial_type":"html-button-response","trial_index":94,"time_elapsed":220707,"internal_node_id":"0.0-4.0-1.41","subject_id":"5f761e5106b786071f45b4aa","study_id":"6197b3f67c2b5cd3b6d9596a","session_id":"619be31f4eda710dc9aa83b5","condition":"contingent","relevant_dimensions":["antennae","pattern"],"bee_group":{"antennae":"A","wings":"X","pattern":"S","legs":"X"},"bonus":0.060000000000001164},{"rt":409,"stimulus":"bees-with-color/bee-B1SF.svg","response":1,"trial_type":"image-button-response","trial_index":95,"time_elapsed":221118,"internal_node_id":"0.0-4.0-0.42","subject_id":"5f761e5106b786071f45b4aa","study_id":"6197b3f67c2b5cd3b6d9596a","session_id":"619be31f4eda710dc9aa83b5","condition":"contingent","relevant_dimensions":["antennae","pattern"],"bee_group":{"antennae":"A","wings":"X","pattern":"S","legs":"X"},"action":"avoid","summary":"bad-avoid","bonus":0.060000000000001164},{"rt":525,"stimulus":"\n                    <p><b>Action: <em>avoid</em></b></p>\n                    <p>This is the bee that you just saw.</p>\n                    <img src=\"bees-with-color/bee-B1SF.svg\" width=\"200\">\n                    <p><br>Your bonus pay is unchanged, and remains at $0.66.</p>\n            ","response":0,"trial_type":"html-button-response","trial_index":96,"time_elapsed":221644,"internal_node_id":"0.0-4.0-1.42","subject_id":"5f761e5106b786071f45b4aa","study_id":"6197b3f67c2b5cd3b6d9596a","session_id":"619be31f4eda710dc9aa83b5","condition":"contingent","relevant_dimensions":["antennae","pattern"],"bee_group":{"antennae":"A","wings":"X","pattern":"S","legs":"X"},"bonus":0.060000000000001164},{"rt":584,"stimulus":"bees-with-color/bee-B1DF.svg","response":0,"trial_type":"image-button-response","trial_index":97,"time_elapsed":222228,"internal_node_id":"0.0-4.0-0.43","subject_id":"5f761e5106b786071f45b4aa","study_id":"6197b3f67c2b5cd3b6d9596a","session_id":"619be31f4eda710dc9aa83b5","condition":"contingent","relevant_dimensions":["antennae","pattern"],"bee_group":{"antennae":"A","wings":"X","pattern":"S","legs":"X"},"action":"harvest","summary":"good-harvest","bonus":0.060000000000001164},{"rt":306,"stimulus":"\n                    <p><b>Action: <em>harvest</em></b></p>\n                    <p>This is the bee that you just saw.</p>\n                    <img src=\"bees-with-color/bee-B1DF.svg\" width=\"200\">\n                    <p><span class=\"greenText\"><b>Successful harvest!</b></span><br>Your pay has increased by $0.02. Your bonus pay is now $0.68.</p>\n            ","response":0,"trial_type":"html-button-response","trial_index":98,"time_elapsed":222534,"internal_node_id":"0.0-4.0-1.43","subject_id":"5f761e5106b786071f45b4aa","study_id":"6197b3f67c2b5cd3b6d9596a","session_id":"619be31f4eda710dc9aa83b5","condition":"contingent","relevant_dimensions":["antennae","pattern"],"bee_group":{"antennae":"A","wings":"X","pattern":"S","legs":"X"},"bonus":0.060000000000001164},{"rt":602,"stimulus":"bees-with-color/bee-A2SM.svg","response":0,"trial_type":"image-button-response","trial_index":99,"time_elapsed":223137,"internal_node_id":"0.0-4.0-0.44","subject_id":"5f761e5106b786071f45b4aa","study_id":"6197b3f67c2b5cd3b6d9596a","session_id":"619be31f4eda710dc9aa83b5","condition":"contingent","relevant_dimensions":["antennae","pattern"],"bee_group":{"antennae":"A","wings":"X","pattern":"S","legs":"X"},"action":"harvest","summary":"bad-harvest","bonus":0.060000000000001164},{"rt":1045,"stimulus":"\n                    <p><b>Action: <em>harvest</em></b></p>\n                    <p>This is the bee that you just saw.</p>\n                    <img src=\"bees-with-color/bee-A2SM.svg\" width=\"200\">\n                    <p><span class=\"redText\">Bad choice, the bee was angry.</span><br><b>You have been stung!</b><br>Your pay has been decreased by $0.10. Your bonus pay is now $0.58.</p>\n            ","response":0,"trial_type":"html-button-response","trial_index":100,"time_elapsed":224183,"internal_node_id":"0.0-4.0-1.44","subject_id":"5f761e5106b786071f45b4aa","study_id":"6197b3f67c2b5cd3b6d9596a","session_id":"619be31f4eda710dc9aa83b5","condition":"contingent","relevant_dimensions":["antennae","pattern"],"bee_group":{"antennae":"A","wings":"X","pattern":"S","legs":"X"},"bonus":0.060000000000001164},{"rt":518,"stimulus":"bees-with-color/bee-A1SF.svg","response":1,"trial_type":"image-button-response","trial_index":101,"time_elapsed":224702,"internal_node_id":"0.0-4.0-0.45","subject_id":"5f761e5106b786071f45b4aa","study_id":"6197b3f67c2b5cd3b6d9596a","session_id":"619be31f4eda710dc9aa83b5","condition":"contingent","relevant_dimensions":["antennae","pattern"],"bee_group":{"antennae":"A","wings":"X","pattern":"S","legs":"X"},"action":"avoid","summary":"good-avoid","bonus":0.060000000000001164},{"rt":463,"stimulus":"\n                    <p><b>Action: <em>avoid</em></b></p>\n                    <p>This is the bee that you just saw.</p>\n                    <img src=\"bees-with-color/bee-A1SF.svg\" width=\"200\">\n                    <p><br>Your bonus pay is unchanged, and remains at $0.58.</p>\n            ","response":0,"trial_type":"html-button-response","trial_index":102,"time_elapsed":225167,"internal_node_id":"0.0-4.0-1.45","subject_id":"5f761e5106b786071f45b4aa","study_id":"6197b3f67c2b5cd3b6d9596a","session_id":"619be31f4eda710dc9aa83b5","condition":"contingent","relevant_dimensions":["antennae","pattern"],"bee_group":{"antennae":"A","wings":"X","pattern":"S","legs":"X"},"bonus":0.060000000000001164},{"rt":765,"stimulus":"bees-with-color/bee-B1DM.svg","response":0,"trial_type":"image-button-response","trial_index":103,"time_elapsed":225932,"internal_node_id":"0.0-4.0-0.46","subject_id":"5f761e5106b786071f45b4aa","study_id":"6197b3f67c2b5cd3b6d9596a","session_id":"619be31f4eda710dc9aa83b5","condition":"contingent","relevant_dimensions":["antennae","pattern"],"bee_group":{"antennae":"A","wings":"X","pattern":"S","legs":"X"},"action":"harvest","summary":"good-harvest","bonus":0.060000000000001164},{"rt":309,"stimulus":"\n                    <p><b>Action: <em>harvest</em></b></p>\n                    <p>This is the bee that you just saw.</p>\n                    <img src=\"bees-with-color/bee-B1DM.svg\" width=\"200\">\n                    <p><span class=\"greenText\"><b>Successful harvest!</b></span><br>Your pay has increased by $0.02. Your bonus pay is now $0.60.</p>\n            ","response":0,"trial_type":"html-button-response","trial_index":104,"time_elapsed":226243,"internal_node_id":"0.0-4.0-1.46","subject_id":"5f761e5106b786071f45b4aa","study_id":"6197b3f67c2b5cd3b6d9596a","session_id":"619be31f4eda710dc9aa83b5","condition":"contingent","relevant_dimensions":["antennae","pattern"],"bee_group":{"antennae":"A","wings":"X","pattern":"S","legs":"X"},"bonus":0.060000000000001164},{"rt":624,"stimulus":"bees-with-color/bee-B2DM.svg","response":0,"trial_type":"image-button-response","trial_index":105,"time_elapsed":226868,"internal_node_id":"0.0-4.0-0.47","subject_id":"5f761e5106b786071f45b4aa","study_id":"6197b3f67c2b5cd3b6d9596a","session_id":"619be31f4eda710dc9aa83b5","condition":"contingent","relevant_dimensions":["antennae","pattern"],"bee_group":{"antennae":"A","wings":"X","pattern":"S","legs":"X"},"action":"harvest","summary":"good-harvest","bonus":0.060000000000001164},{"rt":534,"stimulus":"\n                    <p><b>Action: <em>harvest</em></b></p>\n                    <p>This is the bee that you just saw.</p>\n                    <img src=\"bees-with-color/bee-B2DM.svg\" width=\"200\">\n                    <p><span class=\"greenText\"><b>Successful harvest!</b></span><br>Your pay has increased by $0.02. Your bonus pay is now $0.62.</p>\n            ","response":0,"trial_type":"html-button-response","trial_index":106,"time_elapsed":227402,"internal_node_id":"0.0-4.0-1.47","subject_id":"5f761e5106b786071f45b4aa","study_id":"6197b3f67c2b5cd3b6d9596a","session_id":"619be31f4eda710dc9aa83b5","condition":"contingent","relevant_dimensions":["antennae","pattern"],"bee_group":{"antennae":"A","wings":"X","pattern":"S","legs":"X"},"bonus":0.060000000000001164},{"rt":778,"stimulus":"bees-with-color/bee-A2SM.svg","response":1,"trial_type":"image-button-response","trial_index":107,"time_elapsed":228181,"internal_node_id":"0.0-4.0-0.48","subject_id":"5f761e5106b786071f45b4aa","study_id":"6197b3f67c2b5cd3b6d9596a","session_id":"619be31f4eda710dc9aa83b5","condition":"contingent","relevant_dimensions":["antennae","pattern"],"bee_group":{"antennae":"A","wings":"X","pattern":"S","legs":"X"},"action":"avoid","summary":"good-avoid","bonus":0.060000000000001164},{"rt":389,"stimulus":"\n                    <p><b>Action: <em>avoid</em></b></p>\n                    <p>This is the bee that you just saw.</p>\n                    <img src=\"bees-with-color/bee-A2SM.svg\" width=\"200\">\n                    <p><br>Your bonus pay is unchanged, and remains at $0.62.</p>\n            ","response":0,"trial_type":"html-button-response","trial_index":108,"time_elapsed":228570,"internal_node_id":"0.0-4.0-1.48","subject_id":"5f761e5106b786071f45b4aa","study_id":"6197b3f67c2b5cd3b6d9596a","session_id":"619be31f4eda710dc9aa83b5","condition":"contingent","relevant_dimensions":["antennae","pattern"],"bee_group":{"antennae":"A","wings":"X","pattern":"S","legs":"X"},"bonus":0.060000000000001164},{"rt":523,"stimulus":"bees-with-color/bee-A1SF.svg","response":1,"trial_type":"image-button-response","trial_index":109,"time_elapsed":229095,"internal_node_id":"0.0-4.0-0.49","subject_id":"5f761e5106b786071f45b4aa","study_id":"6197b3f67c2b5cd3b6d9596a","session_id":"619be31f4eda710dc9aa83b5","condition":"contingent","relevant_dimensions":["antennae","pattern"],"bee_group":{"antennae":"A","wings":"X","pattern":"S","legs":"X"},"action":"avoid","summary":"good-avoid","bonus":0.060000000000001164},{"rt":255,"stimulus":"\n                    <p><b>Action: <em>avoid</em></b></p>\n                    <p>This is the bee that you just saw.</p>\n                    <img src=\"bees-with-color/bee-A1SF.svg\" width=\"200\">\n                    <p><br>Your bonus pay is unchanged, and remains at $0.62.</p>\n            ","response":0,"trial_type":"html-button-response","trial_index":110,"time_elapsed":229351,"internal_node_id":"0.0-4.0-1.49","subject_id":"5f761e5106b786071f45b4aa","study_id":"6197b3f67c2b5cd3b6d9596a","session_id":"619be31f4eda710dc9aa83b5","condition":"contingent","relevant_dimensions":["antennae","pattern"],"bee_group":{"antennae":"A","wings":"X","pattern":"S","legs":"X"},"bonus":0.060000000000001164},{"rt":420,"stimulus":"bees-with-color/bee-B1DM.svg","response":0,"trial_type":"image-button-response","trial_index":111,"time_elapsed":229771,"internal_node_id":"0.0-4.0-0.50","subject_id":"5f761e5106b786071f45b4aa","study_id":"6197b3f67c2b5cd3b6d9596a","session_id":"619be31f4eda710dc9aa83b5","condition":"contingent","relevant_dimensions":["antennae","pattern"],"bee_group":{"antennae":"A","wings":"X","pattern":"S","legs":"X"},"action":"harvest","summary":"good-harvest","bonus":0.060000000000001164},{"rt":272,"stimulus":"\n                    <p><b>Action: <em>harvest</em></b></p>\n                    <p>This is the bee that you just saw.</p>\n                    <img src=\"bees-with-color/bee-B1DM.svg\" width=\"200\">\n                    <p><span class=\"greenText\"><b>Successful harvest!</b></span><br>Your pay has increased by $0.02. Your bonus pay is now $0.64.</p>\n            ","response":0,"trial_type":"html-button-response","trial_index":112,"time_elapsed":230045,"internal_node_id":"0.0-4.0-1.50","subject_id":"5f761e5106b786071f45b4aa","study_id":"6197b3f67c2b5cd3b6d9596a","session_id":"619be31f4eda710dc9aa83b5","condition":"contingent","relevant_dimensions":["antennae","pattern"],"bee_group":{"antennae":"A","wings":"X","pattern":"S","legs":"X"},"bonus":0.060000000000001164},{"rt":1427,"stimulus":"bees-with-color/bee-B1SF.svg","response":1,"trial_type":"image-button-response","trial_index":113,"time_elapsed":231472,"internal_node_id":"0.0-4.0-0.51","subject_id":"5f761e5106b786071f45b4aa","study_id":"6197b3f67c2b5cd3b6d9596a","session_id":"619be31f4eda710dc9aa83b5","condition":"contingent","relevant_dimensions":["antennae","pattern"],"bee_group":{"antennae":"A","wings":"X","pattern":"S","legs":"X"},"action":"avoid","summary":"bad-avoid","bonus":0.060000000000001164},{"rt":430,"stimulus":"\n                    <p><b>Action: <em>avoid</em></b></p>\n                    <p>This is the bee that you just saw.</p>\n                    <img src=\"bees-with-color/bee-B1SF.svg\" width=\"200\">\n                    <p><br>Your bonus pay is unchanged, and remains at $0.64.</p>\n            ","response":0,"trial_type":"html-button-response","trial_index":114,"time_elapsed":231903,"internal_node_id":"0.0-4.0-1.51","subject_id":"5f761e5106b786071f45b4aa","study_id":"6197b3f67c2b5cd3b6d9596a","session_id":"619be31f4eda710dc9aa83b5","condition":"contingent","relevant_dimensions":["antennae","pattern"],"bee_group":{"antennae":"A","wings":"X","pattern":"S","legs":"X"},"bonus":0.060000000000001164},{"rt":469,"stimulus":"bees-with-color/bee-A1DM.svg","response":0,"trial_type":"image-button-response","trial_index":115,"time_elapsed":232373,"internal_node_id":"0.0-4.0-0.52","subject_id":"5f761e5106b786071f45b4aa","study_id":"6197b3f67c2b5cd3b6d9596a","session_id":"619be31f4eda710dc9aa83b5","condition":"contingent","relevant_dimensions":["antennae","pattern"],"bee_group":{"antennae":"A","wings":"X","pattern":"S","legs":"X"},"action":"harvest","summary":"good-harvest","bonus":0.060000000000001164},{"rt":447,"stimulus":"\n                    <p><b>Action: <em>harvest</em></b></p>\n                    <p>This is the bee that you just saw.</p>\n                    <img src=\"bees-with-color/bee-A1DM.svg\" width=\"200\">\n                    <p><span class=\"greenText\"><b>Successful harvest!</b></span><br>Your pay has increased by $0.02. Your bonus pay is now $0.66.</p>\n            ","response":0,"trial_type":"html-button-response","trial_index":116,"time_elapsed":232822,"internal_node_id":"0.0-4.0-1.52","subject_id":"5f761e5106b786071f45b4aa","study_id":"6197b3f67c2b5cd3b6d9596a","session_id":"619be31f4eda710dc9aa83b5","condition":"contingent","relevant_dimensions":["antennae","pattern"],"bee_group":{"antennae":"A","wings":"X","pattern":"S","legs":"X"},"bonus":0.060000000000001164},{"rt":677,"stimulus":"bees-with-color/bee-B2SF.svg","response":0,"trial_type":"image-button-response","trial_index":117,"time_elapsed":233499,"internal_node_id":"0.0-4.0-0.53","subject_id":"5f761e5106b786071f45b4aa","study_id":"6197b3f67c2b5cd3b6d9596a","session_id":"619be31f4eda710dc9aa83b5","condition":"contingent","relevant_dimensions":["antennae","pattern"],"bee_group":{"antennae":"A","wings":"X","pattern":"S","legs":"X"},"action":"harvest","summary":"good-harvest","bonus":0.060000000000001164},{"rt":387,"stimulus":"\n                    <p><b>Action: <em>harvest</em></b></p>\n                    <p>This is the bee that you just saw.</p>\n                    <img src=\"bees-with-color/bee-B2SF.svg\" width=\"200\">\n                    <p><span class=\"greenText\"><b>Successful harvest!</b></span><br>Your pay has increased by $0.02. Your bonus pay is now $0.68.</p>\n            ","response":0,"trial_type":"html-button-response","trial_index":118,"time_elapsed":233888,"internal_node_id":"0.0-4.0-1.53","subject_id":"5f761e5106b786071f45b4aa","study_id":"6197b3f67c2b5cd3b6d9596a","session_id":"619be31f4eda710dc9aa83b5","condition":"contingent","relevant_dimensions":["antennae","pattern"],"bee_group":{"antennae":"A","wings":"X","pattern":"S","legs":"X"},"bonus":0.060000000000001164},{"rt":714,"stimulus":"bees-with-color/bee-B2DM.svg","response":0,"trial_type":"image-button-response","trial_index":119,"time_elapsed":234603,"internal_node_id":"0.0-4.0-0.54","subject_id":"5f761e5106b786071f45b4aa","study_id":"6197b3f67c2b5cd3b6d9596a","session_id":"619be31f4eda710dc9aa83b5","condition":"contingent","relevant_dimensions":["antennae","pattern"],"bee_group":{"antennae":"A","wings":"X","pattern":"S","legs":"X"},"action":"harvest","summary":"good-harvest","bonus":0.060000000000001164},{"rt":410,"stimulus":"\n                    <p><b>Action: <em>harvest</em></b></p>\n                    <p>This is the bee that you just saw.</p>\n                    <img src=\"bees-with-color/bee-B2DM.svg\" width=\"200\">\n                    <p><span class=\"greenText\"><b>Successful harvest!</b></span><br>Your pay has increased by $0.02. Your bonus pay is now $0.70.</p>\n            ","response":0,"trial_type":"html-button-response","trial_index":120,"time_elapsed":235014,"internal_node_id":"0.0-4.0-1.54","subject_id":"5f761e5106b786071f45b4aa","study_id":"6197b3f67c2b5cd3b6d9596a","session_id":"619be31f4eda710dc9aa83b5","condition":"contingent","relevant_dimensions":["antennae","pattern"],"bee_group":{"antennae":"A","wings":"X","pattern":"S","legs":"X"},"bonus":0.060000000000001164},{"rt":486,"stimulus":"bees-with-color/bee-A2DF.svg","response":0,"trial_type":"image-button-response","trial_index":121,"time_elapsed":235501,"internal_node_id":"0.0-4.0-0.55","subject_id":"5f761e5106b786071f45b4aa","study_id":"6197b3f67c2b5cd3b6d9596a","session_id":"619be31f4eda710dc9aa83b5","condition":"contingent","relevant_dimensions":["antennae","pattern"],"bee_group":{"antennae":"A","wings":"X","pattern":"S","legs":"X"},"action":"harvest","summary":"good-harvest","bonus":0.060000000000001164},{"rt":297,"stimulus":"\n                    <p><b>Action: <em>harvest</em></b></p>\n                    <p>This is the bee that you just saw.</p>\n                    <img src=\"bees-with-color/bee-A2DF.svg\" width=\"200\">\n                    <p><span class=\"greenText\"><b>Successful harvest!</b></span><br>Your pay has increased by $0.02. Your bonus pay is now $0.72.</p>\n            ","response":0,"trial_type":"html-button-response","trial_index":122,"time_elapsed":235800,"internal_node_id":"0.0-4.0-1.55","subject_id":"5f761e5106b786071f45b4aa","study_id":"6197b3f67c2b5cd3b6d9596a","session_id":"619be31f4eda710dc9aa83b5","condition":"contingent","relevant_dimensions":["antennae","pattern"],"bee_group":{"antennae":"A","wings":"X","pattern":"S","legs":"X"},"bonus":0.060000000000001164},{"rt":634,"stimulus":"bees-with-color/bee-B2SM.svg","response":0,"trial_type":"image-button-response","trial_index":123,"time_elapsed":236434,"internal_node_id":"0.0-4.0-0.56","subject_id":"5f761e5106b786071f45b4aa","study_id":"6197b3f67c2b5cd3b6d9596a","session_id":"619be31f4eda710dc9aa83b5","condition":"contingent","relevant_dimensions":["antennae","pattern"],"bee_group":{"antennae":"A","wings":"X","pattern":"S","legs":"X"},"action":"harvest","summary":"good-harvest","bonus":0.060000000000001164},{"rt":397,"stimulus":"\n                    <p><b>Action: <em>harvest</em></b></p>\n                    <p>This is the bee that you just saw.</p>\n                    <img src=\"bees-with-color/bee-B2SM.svg\" width=\"200\">\n                    <p><span class=\"greenText\"><b>Successful harvest!</b></span><br>Your pay has increased by $0.02. Your bonus pay is now $0.74.</p>\n            ","response":0,"trial_type":"html-button-response","trial_index":124,"time_elapsed":236831,"internal_node_id":"0.0-4.0-1.56","subject_id":"5f761e5106b786071f45b4aa","study_id":"6197b3f67c2b5cd3b6d9596a","session_id":"619be31f4eda710dc9aa83b5","condition":"contingent","relevant_dimensions":["antennae","pattern"],"bee_group":{"antennae":"A","wings":"X","pattern":"S","legs":"X"},"bonus":0.060000000000001164},{"rt":619,"stimulus":"bees-with-color/bee-A2SF.svg","response":0,"trial_type":"image-button-response","trial_index":125,"time_elapsed":237452,"internal_node_id":"0.0-4.0-0.57","subject_id":"5f761e5106b786071f45b4aa","study_id":"6197b3f67c2b5cd3b6d9596a","session_id":"619be31f4eda710dc9aa83b5","condition":"contingent","relevant_dimensions":["antennae","pattern"],"bee_group":{"antennae":"A","wings":"X","pattern":"S","legs":"X"},"action":"harvest","summary":"bad-harvest","bonus":0.060000000000001164},{"rt":682,"stimulus":"\n                    <p><b>Action: <em>harvest</em></b></p>\n                    <p>This is the bee that you just saw.</p>\n                    <img src=\"bees-with-color/bee-A2SF.svg\" width=\"200\">\n                    <p><span class=\"redText\">Bad choice, the bee was angry.</span><br><b>You have been stung!</b><br>Your pay has been decreased by $0.10. Your bonus pay is now $0.64.</p>\n            ","response":0,"trial_type":"html-button-response","trial_index":126,"time_elapsed":238135,"internal_node_id":"0.0-4.0-1.57","subject_id":"5f761e5106b786071f45b4aa","study_id":"6197b3f67c2b5cd3b6d9596a","session_id":"619be31f4eda710dc9aa83b5","condition":"contingent","relevant_dimensions":["antennae","pattern"],"bee_group":{"antennae":"A","wings":"X","pattern":"S","legs":"X"},"bonus":0.060000000000001164},{"rt":958,"stimulus":"bees-with-color/bee-B1SM.svg","response":0,"trial_type":"image-button-response","trial_index":127,"time_elapsed":239093,"internal_node_id":"0.0-4.0-0.58","subject_id":"5f761e5106b786071f45b4aa","study_id":"6197b3f67c2b5cd3b6d9596a","session_id":"619be31f4eda710dc9aa83b5","condition":"contingent","relevant_dimensions":["antennae","pattern"],"bee_group":{"antennae":"A","wings":"X","pattern":"S","legs":"X"},"action":"harvest","summary":"good-harvest","bonus":0.060000000000001164},{"rt":385,"stimulus":"\n                    <p><b>Action: <em>harvest</em></b></p>\n                    <p>This is the bee that you just saw.</p>\n                    <img src=\"bees-with-color/bee-B1SM.svg\" width=\"200\">\n                    <p><span class=\"greenText\"><b>Successful harvest!</b></span><br>Your pay has increased by $0.02. Your bonus pay is now $0.66.</p>\n            ","response":0,"trial_type":"html-button-response","trial_index":128,"time_elapsed":239480,"internal_node_id":"0.0-4.0-1.58","subject_id":"5f761e5106b786071f45b4aa","study_id":"6197b3f67c2b5cd3b6d9596a","session_id":"619be31f4eda710dc9aa83b5","condition":"contingent","relevant_dimensions":["antennae","pattern"],"bee_group":{"antennae":"A","wings":"X","pattern":"S","legs":"X"},"bonus":0.060000000000001164},{"rt":555,"stimulus":"bees-with-color/bee-A1SM.svg","response":0,"trial_type":"image-button-response","trial_index":129,"time_elapsed":240035,"internal_node_id":"0.0-4.0-0.59","subject_id":"5f761e5106b786071f45b4aa","study_id":"6197b3f67c2b5cd3b6d9596a","session_id":"619be31f4eda710dc9aa83b5","condition":"contingent","relevant_dimensions":["antennae","pattern"],"bee_group":{"antennae":"A","wings":"X","pattern":"S","legs":"X"},"action":"harvest","summary":"bad-harvest","bonus":0.060000000000001164},{"rt":689,"stimulus":"\n                    <p><b>Action: <em>harvest</em></b></p>\n                    <p>This is the bee that you just saw.</p>\n                    <img src=\"bees-with-color/bee-A1SM.svg\" width=\"200\">\n                    <p><span class=\"redText\">Bad choice, the bee was angry.</span><br><b>You have been stung!</b><br>Your pay has been decreased by $0.10. Your bonus pay is now $0.56.</p>\n            ","response":0,"trial_type":"html-button-response","trial_index":130,"time_elapsed":240725,"internal_node_id":"0.0-4.0-1.59","subject_id":"5f761e5106b786071f45b4aa","study_id":"6197b3f67c2b5cd3b6d9596a","session_id":"619be31f4eda710dc9aa83b5","condition":"contingent","relevant_dimensions":["antennae","pattern"],"bee_group":{"antennae":"A","wings":"X","pattern":"S","legs":"X"},"bonus":0.060000000000001164},{"rt":839,"stimulus":"bees-with-color/bee-A2DM.svg","response":1,"trial_type":"image-button-response","trial_index":131,"time_elapsed":241563,"internal_node_id":"0.0-4.0-0.60","subject_id":"5f761e5106b786071f45b4aa","study_id":"6197b3f67c2b5cd3b6d9596a","session_id":"619be31f4eda710dc9aa83b5","condition":"contingent","relevant_dimensions":["antennae","pattern"],"bee_group":{"antennae":"A","wings":"X","pattern":"S","legs":"X"},"action":"avoid","summary":"bad-avoid","bonus":0.060000000000001164},{"rt":1227,"stimulus":"\n                    <p><b>Action: <em>avoid</em></b></p>\n                    <p>This is the bee that you just saw.</p>\n                    <img src=\"bees-with-color/bee-A2DM.svg\" width=\"200\">\n                    <p><br>Your bonus pay is unchanged, and remains at $0.56.</p>\n            ","response":0,"trial_type":"html-button-response","trial_index":132,"time_elapsed":242791,"internal_node_id":"0.0-4.0-1.60","subject_id":"5f761e5106b786071f45b4aa","study_id":"6197b3f67c2b5cd3b6d9596a","session_id":"619be31f4eda710dc9aa83b5","condition":"contingent","relevant_dimensions":["antennae","pattern"],"bee_group":{"antennae":"A","wings":"X","pattern":"S","legs":"X"},"bonus":0.060000000000001164},{"rt":448,"stimulus":"bees-with-color/bee-B2DF.svg","response":0,"trial_type":"image-button-response","trial_index":133,"time_elapsed":243241,"internal_node_id":"0.0-4.0-0.61","subject_id":"5f761e5106b786071f45b4aa","study_id":"6197b3f67c2b5cd3b6d9596a","session_id":"619be31f4eda710dc9aa83b5","condition":"contingent","relevant_dimensions":["antennae","pattern"],"bee_group":{"antennae":"A","wings":"X","pattern":"S","legs":"X"},"action":"harvest","summary":"good-harvest","bonus":0.060000000000001164},{"rt":428,"stimulus":"\n                    <p><b>Action: <em>harvest</em></b></p>\n                    <p>This is the bee that you just saw.</p>\n                    <img src=\"bees-with-color/bee-B2DF.svg\" width=\"200\">\n                    <p><span class=\"greenText\"><b>Successful harvest!</b></span><br>Your pay has increased by $0.02. Your bonus pay is now $0.58.</p>\n            ","response":0,"trial_type":"html-button-response","trial_index":134,"time_elapsed":243670,"internal_node_id":"0.0-4.0-1.61","subject_id":"5f761e5106b786071f45b4aa","study_id":"6197b3f67c2b5cd3b6d9596a","session_id":"619be31f4eda710dc9aa83b5","condition":"contingent","relevant_dimensions":["antennae","pattern"],"bee_group":{"antennae":"A","wings":"X","pattern":"S","legs":"X"},"bonus":0.060000000000001164},{"rt":524,"stimulus":"bees-with-color/bee-A1DF.svg","response":0,"trial_type":"image-button-response","trial_index":135,"time_elapsed":244194,"internal_node_id":"0.0-4.0-0.62","subject_id":"5f761e5106b786071f45b4aa","study_id":"6197b3f67c2b5cd3b6d9596a","session_id":"619be31f4eda710dc9aa83b5","condition":"contingent","relevant_dimensions":["antennae","pattern"],"bee_group":{"antennae":"A","wings":"X","pattern":"S","legs":"X"},"action":"harvest","summary":"good-harvest","bonus":0.060000000000001164},{"rt":345,"stimulus":"\n                    <p><b>Action: <em>harvest</em></b></p>\n                    <p>This is the bee that you just saw.</p>\n                    <img src=\"bees-with-color/bee-A1DF.svg\" width=\"200\">\n                    <p><span class=\"greenText\"><b>Successful harvest!</b></span><br>Your pay has increased by $0.02. Your bonus pay is now $0.60.</p>\n            ","response":0,"trial_type":"html-button-response","trial_index":136,"time_elapsed":244539,"internal_node_id":"0.0-4.0-1.62","subject_id":"5f761e5106b786071f45b4aa","study_id":"6197b3f67c2b5cd3b6d9596a","session_id":"619be31f4eda710dc9aa83b5","condition":"contingent","relevant_dimensions":["antennae","pattern"],"bee_group":{"antennae":"A","wings":"X","pattern":"S","legs":"X"},"bonus":0.060000000000001164},{"rt":403,"stimulus":"bees-with-color/bee-B1DF.svg","response":0,"trial_type":"image-button-response","trial_index":137,"time_elapsed":244944,"internal_node_id":"0.0-4.0-0.63","subject_id":"5f761e5106b786071f45b4aa","study_id":"6197b3f67c2b5cd3b6d9596a","session_id":"619be31f4eda710dc9aa83b5","condition":"contingent","relevant_dimensions":["antennae","pattern"],"bee_group":{"antennae":"A","wings":"X","pattern":"S","legs":"X"},"action":"harvest","summary":"good-harvest","bonus":0.060000000000001164},{"rt":312,"stimulus":"\n                    <p><b>Action: <em>harvest</em></b></p>\n                    <p>This is the bee that you just saw.</p>\n                    <img src=\"bees-with-color/bee-B1DF.svg\" width=\"200\">\n                    <p><span class=\"greenText\"><b>Successful harvest!</b></span><br>Your pay has increased by $0.02. Your bonus pay is now $0.62.</p>\n            ","response":0,"trial_type":"html-button-response","trial_index":138,"time_elapsed":245256,"internal_node_id":"0.0-4.0-1.63","subject_id":"5f761e5106b786071f45b4aa","study_id":"6197b3f67c2b5cd3b6d9596a","session_id":"619be31f4eda710dc9aa83b5","condition":"contingent","relevant_dimensions":["antennae","pattern"],"bee_group":{"antennae":"A","wings":"X","pattern":"S","legs":"X"},"bonus":0.060000000000001164},{"rt":5264,"stimulus":"You have completed the first part of this experiment.<br><br>You will now begin a shorter second part, in which you will receive no feedback.<br>The same rules regarding bonus pay apply.<br><br>Press any key to begin.","response":"enter","trial_type":"html-keyboard-response","trial_index":139,"time_elapsed":250521,"internal_node_id":"0.0-5.0","subject_id":"5f761e5106b786071f45b4aa","study_id":"6197b3f67c2b5cd3b6d9596a","session_id":"619be31f4eda710dc9aa83b5","condition":"contingent","relevant_dimensions":["antennae","pattern"],"bee_group":{"antennae":"A","wings":"X","pattern":"S","legs":"X"},"bonus":0.060000000000001164},{"rt":3649,"stimulus":"bees-with-color/bee-B1DF.svg","response":1,"trial_type":"image-button-response","trial_index":140,"time_elapsed":254170,"internal_node_id":"0.0-6.0-0.0","subject_id":"5f761e5106b786071f45b4aa","study_id":"6197b3f67c2b5cd3b6d9596a","session_id":"619be31f4eda710dc9aa83b5","condition":"contingent","relevant_dimensions":["antennae","pattern"],"bee_group":{"antennae":"A","wings":"X","pattern":"S","legs":"X"},"bonus":0.060000000000001164},{"rt":2447,"stimulus":"bees-with-color/bee-A2SM.svg","response":0,"trial_type":"image-button-response","trial_index":141,"time_elapsed":256618,"internal_node_id":"0.0-6.0-0.1","subject_id":"5f761e5106b786071f45b4aa","study_id":"6197b3f67c2b5cd3b6d9596a","session_id":"619be31f4eda710dc9aa83b5","condition":"contingent","relevant_dimensions":["antennae","pattern"],"bee_group":{"antennae":"A","wings":"X","pattern":"S","legs":"X"},"bonus":0.060000000000001164},{"rt":1738,"stimulus":"bees-with-color/bee-B1SF.svg","response":0,"trial_type":"image-button-response","trial_index":142,"time_elapsed":258357,"internal_node_id":"0.0-6.0-0.2","subject_id":"5f761e5106b786071f45b4aa","study_id":"6197b3f67c2b5cd3b6d9596a","session_id":"619be31f4eda710dc9aa83b5","condition":"contingent","relevant_dimensions":["antennae","pattern"],"bee_group":{"antennae":"A","wings":"X","pattern":"S","legs":"X"},"bonus":0.060000000000001164},{"rt":3830,"stimulus":"bees-with-color/bee-A2DM.svg","response":1,"trial_type":"image-button-response","trial_index":143,"time_elapsed":262187,"internal_node_id":"0.0-6.0-0.3","subject_id":"5f761e5106b786071f45b4aa","study_id":"6197b3f67c2b5cd3b6d9596a","session_id":"619be31f4eda710dc9aa83b5","condition":"contingent","relevant_dimensions":["antennae","pattern"],"bee_group":{"antennae":"A","wings":"X","pattern":"S","legs":"X"},"bonus":0.060000000000001164},{"rt":393,"stimulus":"bees-with-color/bee-A1DF.svg","response":0,"trial_type":"image-button-response","trial_index":144,"time_elapsed":262581,"internal_node_id":"0.0-6.0-0.4","subject_id":"5f761e5106b786071f45b4aa","study_id":"6197b3f67c2b5cd3b6d9596a","session_id":"619be31f4eda710dc9aa83b5","condition":"contingent","relevant_dimensions":["antennae","pattern"],"bee_group":{"antennae":"A","wings":"X","pattern":"S","legs":"X"},"bonus":0.060000000000001164},{"rt":360,"stimulus":"bees-with-color/bee-A1SF.svg","response":0,"trial_type":"image-button-response","trial_index":145,"time_elapsed":262944,"internal_node_id":"0.0-6.0-0.5","subject_id":"5f761e5106b786071f45b4aa","study_id":"6197b3f67c2b5cd3b6d9596a","session_id":"619be31f4eda710dc9aa83b5","condition":"contingent","relevant_dimensions":["antennae","pattern"],"bee_group":{"antennae":"A","wings":"X","pattern":"S","legs":"X"},"bonus":0.060000000000001164},{"rt":308,"stimulus":"bees-with-color/bee-B2SM.svg","response":0,"trial_type":"image-button-response","trial_index":146,"time_elapsed":263254,"internal_node_id":"0.0-6.0-0.6","subject_id":"5f761e5106b786071f45b4aa","study_id":"6197b3f67c2b5cd3b6d9596a","session_id":"619be31f4eda710dc9aa83b5","condition":"contingent","relevant_dimensions":["antennae","pattern"],"bee_group":{"antennae":"A","wings":"X","pattern":"S","legs":"X"},"bonus":0.060000000000001164},{"rt":305,"stimulus":"bees-with-color/bee-B1DM.svg","response":0,"trial_type":"image-button-response","trial_index":147,"time_elapsed":263561,"internal_node_id":"0.0-6.0-0.7","subject_id":"5f761e5106b786071f45b4aa","study_id":"6197b3f67c2b5cd3b6d9596a","session_id":"619be31f4eda710dc9aa83b5","condition":"contingent","relevant_dimensions":["antennae","pattern"],"bee_group":{"antennae":"A","wings":"X","pattern":"S","legs":"X"},"bonus":0.060000000000001164},{"rt":323,"stimulus":"bees-with-color/bee-A1DM.svg","response":0,"trial_type":"image-button-response","trial_index":148,"time_elapsed":263886,"internal_node_id":"0.0-6.0-0.8","subject_id":"5f761e5106b786071f45b4aa","study_id":"6197b3f67c2b5cd3b6d9596a","session_id":"619be31f4eda710dc9aa83b5","condition":"contingent","relevant_dimensions":["antennae","pattern"],"bee_group":{"antennae":"A","wings":"X","pattern":"S","legs":"X"},"bonus":0.060000000000001164},{"rt":642,"stimulus":"bees-with-color/bee-B1SM.svg","response":1,"trial_type":"image-button-response","trial_index":149,"time_elapsed":264529,"internal_node_id":"0.0-6.0-0.9","subject_id":"5f761e5106b786071f45b4aa","study_id":"6197b3f67c2b5cd3b6d9596a","session_id":"619be31f4eda710dc9aa83b5","condition":"contingent","relevant_dimensions":["antennae","pattern"],"bee_group":{"antennae":"A","wings":"X","pattern":"S","legs":"X"},"bonus":0.060000000000001164},{"rt":287,"stimulus":"bees-with-color/bee-B2SF.svg","response":1,"trial_type":"image-button-response","trial_index":150,"time_elapsed":264817,"internal_node_id":"0.0-6.0-0.10","subject_id":"5f761e5106b786071f45b4aa","study_id":"6197b3f67c2b5cd3b6d9596a","session_id":"619be31f4eda710dc9aa83b5","condition":"contingent","relevant_dimensions":["antennae","pattern"],"bee_group":{"antennae":"A","wings":"X","pattern":"S","legs":"X"},"bonus":0.060000000000001164},{"rt":184,"stimulus":"bees-with-color/bee-B2DF.svg","response":1,"trial_type":"image-button-response","trial_index":151,"time_elapsed":265002,"internal_node_id":"0.0-6.0-0.11","subject_id":"5f761e5106b786071f45b4aa","study_id":"6197b3f67c2b5cd3b6d9596a","session_id":"619be31f4eda710dc9aa83b5","condition":"contingent","relevant_dimensions":["antennae","pattern"],"bee_group":{"antennae":"A","wings":"X","pattern":"S","legs":"X"},"bonus":0.060000000000001164},{"rt":150,"stimulus":"bees-with-color/bee-B2DM.svg","response":1,"trial_type":"image-button-response","trial_index":152,"time_elapsed":265154,"internal_node_id":"0.0-6.0-0.12","subject_id":"5f761e5106b786071f45b4aa","study_id":"6197b3f67c2b5cd3b6d9596a","session_id":"619be31f4eda710dc9aa83b5","condition":"contingent","relevant_dimensions":["antennae","pattern"],"bee_group":{"antennae":"A","wings":"X","pattern":"S","legs":"X"},"bonus":0.060000000000001164},{"rt":334,"stimulus":"bees-with-color/bee-A2SF.svg","response":0,"trial_type":"image-button-response","trial_index":153,"time_elapsed":265487,"internal_node_id":"0.0-6.0-0.13","subject_id":"5f761e5106b786071f45b4aa","study_id":"6197b3f67c2b5cd3b6d9596a","session_id":"619be31f4eda710dc9aa83b5","condition":"contingent","relevant_dimensions":["antennae","pattern"],"bee_group":{"antennae":"A","wings":"X","pattern":"S","legs":"X"},"bonus":0.060000000000001164},{"rt":252,"stimulus":"bees-with-color/bee-A1SM.svg","response":0,"trial_type":"image-button-response","trial_index":154,"time_elapsed":265741,"internal_node_id":"0.0-6.0-0.14","subject_id":"5f761e5106b786071f45b4aa","study_id":"6197b3f67c2b5cd3b6d9596a","session_id":"619be31f4eda710dc9aa83b5","condition":"contingent","relevant_dimensions":["antennae","pattern"],"bee_group":{"antennae":"A","wings":"X","pattern":"S","legs":"X"},"bonus":0.060000000000001164},{"rt":302,"stimulus":"bees-with-color/bee-A2DF.svg","response":0,"trial_type":"image-button-response","trial_index":155,"time_elapsed":266044,"internal_node_id":"0.0-6.0-0.15","subject_id":"5f761e5106b786071f45b4aa","study_id":"6197b3f67c2b5cd3b6d9596a","session_id":"619be31f4eda710dc9aa83b5","condition":"contingent","relevant_dimensions":["antennae","pattern"],"bee_group":{"antennae":"A","wings":"X","pattern":"S","legs":"X"},"bonus":0.060000000000001164},{"rt":490,"stimulus":"bees-with-color/bee-B1SF.svg","response":0,"trial_type":"image-button-response","trial_index":156,"time_elapsed":266534,"internal_node_id":"0.0-6.0-0.16","subject_id":"5f761e5106b786071f45b4aa","study_id":"6197b3f67c2b5cd3b6d9596a","session_id":"619be31f4eda710dc9aa83b5","condition":"contingent","relevant_dimensions":["antennae","pattern"],"bee_group":{"antennae":"A","wings":"X","pattern":"S","legs":"X"},"bonus":0.060000000000001164},{"rt":399,"stimulus":"bees-with-color/bee-A1DF.svg","response":1,"trial_type":"image-button-response","trial_index":157,"time_elapsed":266935,"internal_node_id":"0.0-6.0-0.17","subject_id":"5f761e5106b786071f45b4aa","study_id":"6197b3f67c2b5cd3b6d9596a","session_id":"619be31f4eda710dc9aa83b5","condition":"contingent","relevant_dimensions":["antennae","pattern"],"bee_group":{"antennae":"A","wings":"X","pattern":"S","legs":"X"},"bonus":0.060000000000001164},{"rt":242,"stimulus":"bees-with-color/bee-A2SF.svg","response":0,"trial_type":"image-button-response","trial_index":158,"time_elapsed":267176,"internal_node_id":"0.0-6.0-0.18","subject_id":"5f761e5106b786071f45b4aa","study_id":"6197b3f67c2b5cd3b6d9596a","session_id":"619be31f4eda710dc9aa83b5","condition":"contingent","relevant_dimensions":["antennae","pattern"],"bee_group":{"antennae":"A","wings":"X","pattern":"S","legs":"X"},"bonus":0.060000000000001164},{"rt":274,"stimulus":"bees-with-color/bee-B2SM.svg","response":1,"trial_type":"image-button-response","trial_index":159,"time_elapsed":267451,"internal_node_id":"0.0-6.0-0.19","subject_id":"5f761e5106b786071f45b4aa","study_id":"6197b3f67c2b5cd3b6d9596a","session_id":"619be31f4eda710dc9aa83b5","condition":"contingent","relevant_dimensions":["antennae","pattern"],"bee_group":{"antennae":"A","wings":"X","pattern":"S","legs":"X"},"bonus":0.060000000000001164},{"rt":255,"stimulus":"bees-with-color/bee-B2DF.svg","response":0,"trial_type":"image-button-response","trial_index":160,"time_elapsed":267706,"internal_node_id":"0.0-6.0-0.20","subject_id":"5f761e5106b786071f45b4aa","study_id":"6197b3f67c2b5cd3b6d9596a","session_id":"619be31f4eda710dc9aa83b5","condition":"contingent","relevant_dimensions":["antennae","pattern"],"bee_group":{"antennae":"A","wings":"X","pattern":"S","legs":"X"},"bonus":0.060000000000001164},{"rt":412,"stimulus":"bees-with-color/bee-B2DM.svg","response":0,"trial_type":"image-button-response","trial_index":161,"time_elapsed":268120,"internal_node_id":"0.0-6.0-0.21","subject_id":"5f761e5106b786071f45b4aa","study_id":"6197b3f67c2b5cd3b6d9596a","session_id":"619be31f4eda710dc9aa83b5","condition":"contingent","relevant_dimensions":["antennae","pattern"],"bee_group":{"antennae":"A","wings":"X","pattern":"S","legs":"X"},"bonus":0.060000000000001164},{"rt":130,"stimulus":"bees-with-color/bee-A1DM.svg","response":0,"trial_type":"image-button-response","trial_index":162,"time_elapsed":268250,"internal_node_id":"0.0-6.0-0.22","subject_id":"5f761e5106b786071f45b4aa","study_id":"6197b3f67c2b5cd3b6d9596a","session_id":"619be31f4eda710dc9aa83b5","condition":"contingent","relevant_dimensions":["antennae","pattern"],"bee_group":{"antennae":"A","wings":"X","pattern