[{"success":true,"trial_type":"fullscreen","trial_index":0,"time_elapsed":47570,"internal_node_id":"0.0-0.0","subject_id":"60211a7c07e6f203ccb99231","study_id":"60edd13110225f80f9f3709b","session_id":"6196c1f1bdd09b93d96bd2c3","condition":"full-information","relevant_dimensions":["antennae","wings"],"bee_group":{"antennae":"B","wings":"2","pattern":"X","legs":"X"},"bonus":1.720000000000001},{"success":true,"timeout":false,"failed_images":[],"failed_audio":[],"failed_video":[],"trial_type":"preload","trial_index":1,"time_elapsed":49533,"internal_node_id":"0.0-1.0","subject_id":"60211a7c07e6f203ccb99231","study_id":"60edd13110225f80f9f3709b","session_id":"6196c1f1bdd09b93d96bd2c3","condition":"full-information","relevant_dimensions":["antennae","wings"],"bee_group":{"antennae":"B","wings":"2","pattern":"X","legs":"X"},"bonus":1.720000000000001},{"rt":4445.79999999702,"stimulus":"Welcome! Press any key to begin.","response":" ","trial_type":"html-keyboard-response","trial_index":2,"time_elapsed":53983,"internal_node_id":"0.0-2.0","subject_id":"60211a7c07e6f203ccb99231","study_id":"60edd13110225f80f9f3709b","session_id":"6196c1f1bdd09b93d96bd2c3","condition":"full-information","relevant_dimensions":["antennae","wings"],"bee_group":{"antennae":"B","wings":"2","pattern":"X","legs":"X"},"bonus":1.720000000000001},{"view_history":[{"page_index":0,"viewing_time":7646.80000000447},{"page_index":1,"viewing_time":19039.79999999702},{"page_index":2,"viewing_time":29176.20000000298},{"page_index":3,"viewing_time":24207.79999999702},{"page_index":4,"viewing_time":17519.89999999851},{"page_index":5,"viewing_time":18936.10000000149},{"page_index":6,"viewing_time":31759.70000000298},{"page_index":7,"viewing_time":14888.5},{"page_index":8,"viewing_time":12304.60000000149},{"page_index":9,"viewing_time":13919.19999999553},{"page_index":10,"viewing_time":87784.20000000298},{"page_index":11,"viewing_time":15112.10000000149},{"page_index":12,"viewing_time":32479.89999999851},{"page_index":13,"viewing_time":9976.39999999851},{"page_index":14,"viewing_time":4248.20000000298}],"rt":338999.700000003,"trial_type":"instructions","trial_index":3,"time_elapsed":392985,"internal_node_id":"0.0-3.0-0.0","subject_id":"60211a7c07e6f203ccb99231","study_id":"60edd13110225f80f9f3709b","session_id":"6196c1f1bdd09b93d96bd2c3","condition":"full-information","relevant_dimensions":["antennae","wings"],"bee_group":{"antennae":"B","wings":"2","pattern":"X","legs":"X"},"bonus":1.720000000000001},{"rt":24044.5,"response":{"Q0":["Two or six legs","Stripes or spots on body","Single or double wings","Antennae or no antennae"]},"question_order":[0],"trial_type":"survey-multi-select","trial_index":4,"time_elapsed":417033,"internal_node_id":"0.0-3.0-1.0","subject_id":"60211a7c07e6f203ccb99231","study_id":"60edd13110225f80f9f3709b","session_id":"6196c1f1bdd09b93d96bd2c3","condition":"full-information","relevant_dimensions":["antennae","wings"],"bee_group":{"antennae":"B","wings":"2","pattern":"X","legs":"X"},"correct":true,"bonus":1.720000000000001},{"rt":40486,"response":{"Q1":"No.","Q2":"Based on the four features of the bee.","Q3":"You learn if it was friendly or dangerous, but do not alter your bonus."},"question_order":[0,1,2],"trial_type":"survey-multi-choice","trial_index":5,"time_elapsed":457522,"internal_node_id":"0.0-3.0-2.0","subject_id":"60211a7c07e6f203ccb99231","study_id":"60edd13110225f80f9f3709b","session_id":"6196c1f1bdd09b93d96bd2c3","condition":"full-information","relevant_dimensions":["antennae","wings"],"bee_group":{"antennae":"B","wings":"2","pattern":"X","legs":"X"},"correct":true,"bonus":1.720000000000001},{"rt":20406.39999999851,"stimulus":"<p>Congrats, you got everything right<br>When you're ready, click the button below to continue to the experiment.</p>","response":0,"trial_type":"html-button-response","trial_index":6,"time_elapsed":477930,"internal_node_id":"0.0-3.0-3.0","subject_id":"60211a7c07e6f203ccb99231","study_id":"60edd13110225f80f9f3709b","session_id":"6196c1f1bdd09b93d96bd2c3","condition":"full-information","relevant_dimensions":["antennae","wings"],"bee_group":{"antennae":"B","wings":"2","pattern":"X","legs":"X"},"bonus":1.720000000000001},{"rt":14293.19999999553,"stimulus":"bees-with-color/bee-A1DM.svg","response":1,"trial_type":"image-button-response","trial_index":7,"time_elapsed":492226,"internal_node_id":"0.0-4.0-0.0","subject_id":"60211a7c07e6f203ccb99231","study_id":"60edd13110225f80f9f3709b","session_id":"6196c1f1bdd09b93d96bd2c3","condition":"full-information","relevant_dimensions":["antennae","wings"],"bee_group":{"antennae":"B","wings":"2","pattern":"X","legs":"X"},"action":"avoid","summary":"bad-avoid","bonus":1.720000000000001},{"rt":13892.89999999851,"stimulus":"\n                    <p><b>Action: <em>avoid</em></b></p>\n                    <p>This is the bee that you just saw.</p>\n                    <img src=\"bees-with-color/bee-A1DM.svg\" width=\"200\">\n                    <p><span class=\"redText\">Bad choice,</span> the bee was friendly.<br>Your bonus pay is unchanged, and remains at $0.54.</p>\n            ","response":0,"trial_type":"html-button-response","trial_index":8,"time_elapsed":506121,"internal_node_id":"0.0-4.0-1.0","subject_id":"60211a7c07e6f203ccb99231","study_id":"60edd13110225f80f9f3709b","session_id":"6196c1f1bdd09b93d96bd2c3","condition":"full-information","relevant_dimensions":["antennae","wings"],"bee_group":{"antennae":"B","wings":"2","pattern":"X","legs":"X"},"bonus":1.720000000000001},{"rt":3606.5,"stimulus":"bees-with-color/bee-B2DM.svg","response":1,"trial_type":"image-button-response","trial_index":9,"time_elapsed":509730,"internal_node_id":"0.0-4.0-0.1","subject_id":"60211a7c07e6f203ccb99231","study_id":"60edd13110225f80f9f3709b","session_id":"6196c1f1bdd09b93d96bd2c3","condition":"full-information","relevant_dimensions":["antennae","wings"],"bee_group":{"antennae":"B","wings":"2","pattern":"X","legs":"X"},"action":"avoid","summary":"good-avoid","bonus":1.720000000000001},{"rt":24637.79999999702,"stimulus":"\n                    <p><b>Action: <em>avoid</em></b></p>\n                    <p>This is the bee that you just saw.</p>\n                    <img src=\"bees-with-color/bee-B2DM.svg\" width=\"200\">\n                    <p><span class=\"greenText\">Good choice!</span>  This bee would have stung you.<br>Your bonus pay is unchanged, and remains at $0.54.</p>\n            ","response":0,"trial_type":"html-button-response","trial_index":10,"time_elapsed":534369,"internal_node_id":"0.0-4.0-1.1","subject_id":"60211a7c07e6f203ccb99231","study_id":"60edd13110225f80f9f3709b","session_id":"6196c1f1bdd09b93d96bd2c3","condition":"full-information","relevant_dimensions":["antennae","wings"],"bee_group":{"antennae":"B","wings":"2","pattern":"X","legs":"X"},"bonus":1.720000000000001},{"rt":5294.39999999851,"stimulus":"bees-with-color/bee-B2SM.svg","response":1,"trial_type":"image-button-response","trial_index":11,"time_elapsed":539666,"internal_node_id":"0.0-4.0-0.2","subject_id":"60211a7c07e6f203ccb99231","study_id":"60edd13110225f80f9f3709b","session_id":"6196c1f1bdd09b93d96bd2c3","condition":"full-information","relevant_dimensions":["antennae","wings"],"bee_group":{"antennae":"B","wings":"2","pattern":"X","legs":"X"},"action":"avoid","summary":"good-avoid","bonus":1.720000000000001},{"rt":16718.90000000596,"stimulus":"\n                    <p><b>Action: <em>avoid</em></b></p>\n                    <p>This is the bee that you just saw.</p>\n                    <img src=\"bees-with-color/bee-B2SM.svg\" width=\"200\">\n                    <p><span class=\"greenText\">Good choice!</span>  This bee would have stung you.<br>Your bonus pay is unchanged, and remains at $0.54.</p>\n            ","response":0,"trial_type":"html-button-response","trial_index":12,"time_elapsed":556386,"internal_node_id":"0.0-4.0-1.2","subject_id":"60211a7c07e6f203ccb99231","study_id":"60edd13110225f80f9f3709b","session_id":"6196c1f1bdd09b93d96bd2c3","condition":"full-information","relevant_dimensions":["antennae","wings"],"bee_group":{"antennae":"B","wings":"2","pattern":"X","legs":"X"},"bonus":1.720000000000001},{"rt":5182.10000000149,"stimulus":"bees-with-color/bee-A1SM.svg","response":1,"trial_type":"image-button-response","trial_index":13,"time_elapsed":561570,"internal_node_id":"0.0-4.0-0.3","subject_id":"60211a7c07e6f203ccb99231","study_id":"60edd13110225f80f9f3709b","session_id":"6196c1f1bdd09b93d96bd2c3","condition":"full-information","relevant_dimensions":["antennae","wings"],"bee_group":{"antennae":"B","wings":"2","pattern":"X","legs":"X"},"action":"avoid","summary":"bad-avoid","bonus":1.720000000000001},{"rt":14599,"stimulus":"\n                    <p><b>Action: <em>avoid</em></b></p>\n                    <p>This is the bee that you just saw.</p>\n                    <img src=\"bees-with-color/bee-A1SM.svg\" width=\"200\">\n                    <p><span class=\"redText\">Bad choice,</span> the bee was friendly.<br>Your bonus pay is unchanged, and remains at $0.54.</p>\n            ","response":0,"trial_type":"html-button-response","trial_index":14,"time_elapsed":576169,"internal_node_id":"0.0-4.0-1.3","subject_id":"60211a7c07e6f203ccb99231","study_id":"60edd13110225f80f9f3709b","session_id":"6196c1f1bdd09b93d96bd2c3","condition":"full-information","relevant_dimensions":["antennae","wings"],"bee_group":{"antennae":"B","wings":"2","pattern":"X","legs":"X"},"bonus":1.720000000000001},{"rt":5950.30000000447,"stimulus":"bees-with-color/bee-A1DF.svg","response":1,"trial_type":"image-button-response","trial_index":15,"time_elapsed":582121,"internal_node_id":"0.0-4.0-0.4","subject_id":"60211a7c07e6f203ccb99231","study_id":"60edd13110225f80f9f3709b","session_id":"6196c1f1bdd09b93d96bd2c3","condition":"full-information","relevant_dimensions":["antennae","wings"],"bee_group":{"antennae":"B","wings":"2","pattern":"X","legs":"X"},"action":"avoid","summary":"bad-avoid","bonus":1.720000000000001},{"rt":15542.69999999553,"stimulus":"\n                    <p><b>Action: <em>avoid</em></b></p>\n                    <p>This is the bee that you just saw.</p>\n                    <img src=\"bees-with-color/bee-A1DF.svg\" width=\"200\">\n                    <p><span class=\"redText\">Bad choice,</span> the bee was friendly.<br>Your bonus pay is unchanged, and remains at $0.54.</p>\n            ","response":0,"trial_type":"html-button-response","trial_index":16,"time_elapsed":597665,"internal_node_id":"0.0-4.0-1.4","subject_id":"60211a7c07e6f203ccb99231","study_id":"60edd13110225f80f9f3709b","session_id":"6196c1f1bdd09b93d96bd2c3","condition":"full-information","relevant_dimensions":["antennae","wings"],"bee_group":{"antennae":"B","wings":"2","pattern":"X","legs":"X"},"bonus":1.720000000000001},{"rt":5470.70000000298,"stimulus":"bees-with-color/bee-A1SF.svg","response":1,"trial_type":"image-button-response","trial_index":17,"time_elapsed":603137,"internal_node_id":"0.0-4.0-0.5","subject_id":"60211a7c07e6f203ccb99231","study_id":"60edd13110225f80f9f3709b","session_id":"6196c1f1bdd09b93d96bd2c3","condition":"full-information","relevant_dimensions":["antennae","wings"],"bee_group":{"antennae":"B","wings":"2","pattern":"X","legs":"X"},"action":"avoid","summary":"bad-avoid","bonus":1.720000000000001},{"rt":11326.80000000447,"stimulus":"\n                    <p><b>Action: <em>avoid</em></b></p>\n                    <p>This is the bee that you just saw.</p>\n                    <img src=\"bees-with-color/bee-A1SF.svg\" width=\"200\">\n                    <p><span class=\"redText\">Bad choice,</span> the bee was friendly.<br>Your bonus pay is unchanged, and remains at $0.54.</p>\n            ","response":0,"trial_type":"html-button-response","trial_index":18,"time_elapsed":614465,"internal_node_id":"0.0-4.0-1.5","subject_id":"60211a7c07e6f203ccb99231","study_id":"60edd13110225f80f9f3709b","session_id":"6196c1f1bdd09b93d96bd2c3","condition":"full-information","relevant_dimensions":["antennae","wings"],"bee_group":{"antennae":"B","wings":"2","pattern":"X","legs":"X"},"bonus":1.720000000000001},{"rt":5142.10000000149,"stimulus":"bees-with-color/bee-A2SM.svg","response":1,"trial_type":"image-button-response","trial_index":19,"time_elapsed":619609,"internal_node_id":"0.0-4.0-0.6","subject_id":"60211a7c07e6f203ccb99231","study_id":"60edd13110225f80f9f3709b","session_id":"6196c1f1bdd09b93d96bd2c3","condition":"full-information","relevant_dimensions":["antennae","wings"],"bee_group":{"antennae":"B","wings":"2","pattern":"X","legs":"X"},"action":"avoid","summary":"bad-avoid","bonus":1.720000000000001},{"rt":16214.40000000596,"stimulus":"\n                    <p><b>Action: <em>avoid</em></b></p>\n                    <p>This is the bee that you just saw.</p>\n                    <img src=\"bees-with-color/bee-A2SM.svg\" width=\"200\">\n                    <p><span class=\"redText\">Bad choice,</span> the bee was friendly.<br>Your bonus pay is unchanged, and remains at $0.54.</p>\n            ","response":0,"trial_type":"html-button-response","trial_index":20,"time_elapsed":635825,"internal_node_id":"0.0-4.0-1.6","subject_id":"60211a7c07e6f203ccb99231","study_id":"60edd13110225f80f9f3709b","session_id":"6196c1f1bdd09b93d96bd2c3","condition":"full-information","relevant_dimensions":["antennae","wings"],"bee_group":{"antennae":"B","wings":"2","pattern":"X","legs":"X"},"bonus":1.720000000000001},{"rt":11381.79999999702,"stimulus":"bees-with-color/bee-A2SF.svg","response":1,"trial_type":"image-button-response","trial_index":21,"time_elapsed":647209,"internal_node_id":"0.0-4.0-0.7","subject_id":"60211a7c07e6f203ccb99231","study_id":"60edd13110225f80f9f3709b","session_id":"6196c1f1bdd09b93d96bd2c3","condition":"full-information","relevant_dimensions":["antennae","wings"],"bee_group":{"antennae":"B","wings":"2","pattern":"X","legs":"X"},"action":"avoid","summary":"bad-avoid","bonus":1.720000000000001},{"rt":11766.20000000298,"stimulus":"\n                    <p><b>Action: <em>avoid</em></b></p>\n                    <p>This is the bee that you just saw.</p>\n                    <img src=\"bees-with-color/bee-A2SF.svg\" width=\"200\">\n                    <p><span class=\"redText\">Bad choice,</span> the bee was friendly.<br>Your bonus pay is unchanged, and remains at $0.54.</p>\n            ","response":0,"trial_type":"html-button-response","trial_index":22,"time_elapsed":658977,"internal_node_id":"0.0-4.0-1.7","subject_id":"60211a7c07e6f203ccb99231","study_id":"60edd13110225f80f9f3709b","session_id":"6196c1f1bdd09b93d96bd2c3","condition":"full-information","relevant_dimensions":["antennae","wings"],"bee_group":{"antennae":"B","wings":"2","pattern":"X","legs":"X"},"bonus":1.720000000000001},{"rt":12013.5,"stimulus":"bees-with-color/bee-B2DF.svg","response":1,"trial_type":"image-button-response","trial_index":23,"time_elapsed":670993,"internal_node_id":"0.0-4.0-0.8","subject_id":"60211a7c07e6f203ccb99231","study_id":"60edd13110225f80f9f3709b","session_id":"6196c1f1bdd09b93d96bd2c3","condition":"full-information","relevant_dimensions":["antennae","wings"],"bee_group":{"antennae":"B","wings":"2","pattern":"X","legs":"X"},"action":"avoid","summary":"good-avoid","bonus":1.720000000000001},{"rt":10886.5,"stimulus":"\n                    <p><b>Action: <em>avoid</em></b></p>\n                    <p>This is the bee that you just saw.</p>\n                    <img src=\"bees-with-color/bee-B2DF.svg\" width=\"200\">\n                    <p><span class=\"greenText\">Good choice!</span>  This bee would have stung you.<br>Your bonus pay is unchanged, and remains at $0.54.</p>\n            ","response":0,"trial_type":"html-button-response","trial_index":24,"time_elapsed":681881,"internal_node_id":"0.0-4.0-1.8","subject_id":"60211a7c07e6f203ccb99231","study_id":"60edd13110225f80f9f3709b","session_id":"6196c1f1bdd09b93d96bd2c3","condition":"full-information","relevant_dimensions":["antennae","wings"],"bee_group":{"antennae":"B","wings":"2","pattern":"X","legs":"X"},"bonus":1.720000000000001},{"rt":12414.89999999851,"stimulus":"bees-with-color/bee-A2DM.svg","response":1,"trial_type":"image-button-response","trial_index":25,"time_elapsed":694298,"internal_node_id":"0.0-4.0-0.9","subject_id":"60211a7c07e6f203ccb99231","study_id":"60edd13110225f80f9f3709b","session_id":"6196c1f1bdd09b93d96bd2c3","condition":"full-information","relevant_dimensions":["antennae","wings"],"bee_group":{"antennae":"B","wings":"2","pattern":"X","legs":"X"},"action":"avoid","summary":"bad-avoid","bonus":1.720000000000001},{"rt":10318.69999999553,"stimulus":"\n                    <p><b>Action: <em>avoid</em></b></p>\n                    <p>This is the bee that you just saw.</p>\n                    <img src=\"bees-with-color/bee-A2DM.svg\" width=\"200\">\n                    <p><span class=\"redText\">Bad choice,</span> the bee was friendly.<br>Your bonus pay is unchanged, and remains at $0.54.</p>\n            ","response":0,"trial_type":"html-button-response","trial_index":26,"time_elapsed":704618,"internal_node_id":"0.0-4.0-1.9","subject_id":"60211a7c07e6f203ccb99231","study_id":"60edd13110225f80f9f3709b","session_id":"6196c1f1bdd09b93d96bd2c3","condition":"full-information","relevant_dimensions":["antennae","wings"],"bee_group":{"antennae":"B","wings":"2","pattern":"X","legs":"X"},"bonus":1.720000000000001},{"rt":6182.5,"stimulus":"bees-with-color/bee-B2SF.svg","response":1,"trial_type":"image-button-response","trial_index":27,"time_elapsed":710802,"internal_node_id":"0.0-4.0-0.10","subject_id":"60211a7c07e6f203ccb99231","study_id":"60edd13110225f80f9f3709b","session_id":"6196c1f1bdd09b93d96bd2c3","condition":"full-information","relevant_dimensions":["antennae","wings"],"bee_group":{"antennae":"B","wings":"2","pattern":"X","legs":"X"},"action":"avoid","summary":"good-avoid","bonus":1.720000000000001},{"rt":8622.39999999851,"stimulus":"\n                    <p><b>Action: <em>avoid</em></b></p>\n                    <p>This is the bee that you just saw.</p>\n                    <img src=\"bees-with-color/bee-B2SF.svg\" width=\"200\">\n                    <p><span class=\"greenText\">Good choice!</span>  This bee would have stung you.<br>Your bonus pay is unchanged, and remains at $0.54.</p>\n            ","response":0,"trial_type":"html-button-response","trial_index":28,"time_elapsed":719426,"internal_node_id":"0.0-4.0-1.10","subject_id":"60211a7c07e6f203ccb99231","study_id":"60edd13110225f80f9f3709b","session_id":"6196c1f1bdd09b93d96bd2c3","condition":"full-information","relevant_dimensions":["antennae","wings"],"bee_group":{"antennae":"B","wings":"2","pattern":"X","legs":"X"},"bonus":1.720000000000001},{"rt":11158.39999999851,"stimulus":"bees-with-color/bee-B1DM.svg","response":1,"trial_type":"image-button-response","trial_index":29,"time_elapsed":730586,"internal_node_id":"0.0-4.0-0.11","subject_id":"60211a7c07e6f203ccb99231","study_id":"60edd13110225f80f9f3709b","session_id":"6196c1f1bdd09b93d96bd2c3","condition":"full-information","relevant_dimensions":["antennae","wings"],"bee_group":{"antennae":"B","wings":"2","pattern":"X","legs":"X"},"action":"avoid","summary":"bad-avoid","bonus":1.720000000000001},{"rt":9799.60000000149,"stimulus":"\n                    <p><b>Action: <em>avoid</em></b></p>\n                    <p>This is the bee that you just saw.</p>\n                    <img src=\"bees-with-color/bee-B1DM.svg\" width=\"200\">\n                    <p><span class=\"redText\">Bad choice,</span> the bee was friendly.<br>Your bonus pay is unchanged, and remains at $0.54.</p>\n            ","response":0,"trial_type":"html-button-response","trial_index":30,"time_elapsed":740386,"internal_node_id":"0.0-4.0-1.11","subject_id":"60211a7c07e6f203ccb99231","study_id":"60edd13110225f80f9f3709b","session_id":"6196c1f1bdd09b93d96bd2c3","condition":"full-information","relevant_dimensions":["antennae","wings"],"bee_group":{"antennae":"B","wings":"2","pattern":"X","legs":"X"},"bonus":1.720000000000001},{"rt":9590,"stimulus":"bees-with-color/bee-B1SM.svg","response":1,"trial_type":"image-button-response","trial_index":31,"time_elapsed":749978,"internal_node_id":"0.0-4.0-0.12","subject_id":"60211a7c07e6f203ccb99231","study_id":"60edd13110225f80f9f3709b","session_id":"6196c1f1bdd09b93d96bd2c3","condition":"full-information","relevant_dimensions":["antennae","wings"],"bee_group":{"antennae":"B","wings":"2","pattern":"X","legs":"X"},"action":"avoid","summary":"bad-avoid","bonus":1.720000000000001},{"rt":11622.60000000149,"stimulus":"\n                    <p><b>Action: <em>avoid</em></b></p>\n                    <p>This is the bee that you just saw.</p>\n                    <img src=\"bees-with-color/bee-B1SM.svg\" width=\"200\">\n                    <p><span class=\"redText\">Bad choice,</span> the bee was friendly.<br>Your bonus pay is unchanged, and remains at $0.54.</p>\n            ","response":0,"trial_type":"html-button-response","trial_index":32,"time_elapsed":761602,"internal_node_id":"0.0-4.0-1.12","subject_id":"60211a7c07e6f203ccb99231","study_id":"60edd13110225f80f9f3709b","session_id":"6196c1f1bdd09b93d96bd2c3","condition":"full-information","relevant_dimensions":["antennae","wings"],"bee_group":{"antennae":"B","wings":"2","pattern":"X","legs":"X"},"bonus":1.720000000000001},{"rt":11870.5,"stimulus":"bees-with-color/bee-B1DF.svg","response":1,"trial_type":"image-button-response","trial_index":33,"time_elapsed":773474,"internal_node_id":"0.0-4.0-0.13","subject_id":"60211a7c07e6f203ccb99231","study_id":"60edd13110225f80f9f3709b","session_id":"6196c1f1bdd09b93d96bd2c3","condition":"full-information","relevant_dimensions":["antennae","wings"],"bee_group":{"antennae":"B","wings":"2","pattern":"X","legs":"X"},"action":"avoid","summary":"bad-avoid","bonus":1.720000000000001},{"rt":11183,"stimulus":"\n                    <p><b>Action: <em>avoid</em></b></p>\n                    <p>This is the bee that you just saw.</p>\n                    <img src=\"bees-with-color/bee-B1DF.svg\" width=\"200\">\n                    <p><span class=\"redText\">Bad choice,</span> the bee was friendly.<br>Your bonus pay is unchanged, and remains at $0.54.</p>\n            ","response":0,"trial_type":"html-button-response","trial_index":34,"time_elapsed":784658,"internal_node_id":"0.0-4.0-1.13","subject_id":"60211a7c07e6f203ccb99231","study_id":"60edd13110225f80f9f3709b","session_id":"6196c1f1bdd09b93d96bd2c3","condition":"full-information","relevant_dimensions":["antennae","wings"],"bee_group":{"antennae":"B","wings":"2","pattern":"X","legs":"X"},"bonus":1.720000000000001},{"rt":16758,"stimulus":"bees-with-color/bee-A2DF.svg","response":0,"trial_type":"image-button-response","trial_index":35,"time_elapsed":801418,"internal_node_id":"0.0-4.0-0.14","subject_id":"60211a7c07e6f203ccb99231","study_id":"60edd13110225f80f9f3709b","session_id":"6196c1f1bdd09b93d96bd2c3","condition":"full-information","relevant_dimensions":["antennae","wings"],"bee_group":{"antennae":"B","wings":"2","pattern":"X","legs":"X"},"action":"harvest","summary":"good-harvest","bonus":1.720000000000001},{"rt":3559.2999999970198,"stimulus":"\n                    <p><b>Action: <em>harvest</em></b></p>\n                    <p>This is the bee that you just saw.</p>\n                    <img src=\"bees-with-color/bee-A2DF.svg\" width=\"200\">\n                    <p><span class=\"greenText\"><b>Successful harvest!</b></span><br>Your pay has increased by $0.02. Your bonus pay is now $0.56.</p>\n            ","response":0,"trial_type":"html-button-response","trial_index":36,"time_elapsed":804978,"internal_node_id":"0.0-4.0-1.14","subject_id":"60211a7c07e6f203ccb99231","study_id":"60edd13110225f80f9f3709b","session_id":"6196c1f1bdd09b93d96bd2c3","condition":"full-information","relevant_dimensions":["antennae","wings"],"bee_group":{"antennae":"B","wings":"2","pattern":"X","legs":"X"},"bonus":1.720000000000001},{"rt":22286.5,"stimulus":"bees-with-color/bee-B1SF.svg","response":1,"trial_type":"image-button-response","trial_index":37,"time_elapsed":827266,"internal_node_id":"0.0-4.0-0.15","subject_id":"60211a7c07e6f203ccb99231","study_id":"60edd13110225f80f9f3709b","session_id":"6196c1f1bdd09b93d96bd2c3","condition":"full-information","relevant_dimensions":["antennae","wings"],"bee_group":{"antennae":"B","wings":"2","pattern":"X","legs":"X"},"action":"avoid","summary":"bad-avoid","bonus":1.720000000000001},{"rt":9838.5,"stimulus":"\n                    <p><b>Action: <em>avoid</em></b></p>\n                    <p>This is the bee that you just saw.</p>\n                    <img src=\"bees-with-color/bee-B1SF.svg\" width=\"200\">\n                    <p><span class=\"redText\">Bad choice,</span> the bee was friendly.<br>Your bonus pay is unchanged, and remains at $0.56.</p>\n            ","response":0,"trial_type":"html-button-response","trial_index":38,"time_elapsed":837106,"internal_node_id":"0.0-4.0-1.15","subject_id":"60211a7c07e6f203ccb99231","study_id":"60edd13110225f80f9f3709b","session_id":"6196c1f1bdd09b93d96bd2c3","condition":"full-information","relevant_dimensions":["antennae","wings"],"bee_group":{"antennae":"B","wings":"2","pattern":"X","legs":"X"},"bonus":1.720000000000001},{"rt":13246.5,"stimulus":"bees-with-color/bee-A2DF.svg","response":0,"trial_type":"image-button-response","trial_index":39,"time_elapsed":850353,"internal_node_id":"0.0-4.0-0.16","subject_id":"60211a7c07e6f203ccb99231","study_id":"60edd13110225f80f9f3709b","session_id":"6196c1f1bdd09b93d96bd2c3","condition":"full-information","relevant_dimensions":["antennae","wings"],"bee_group":{"antennae":"B","wings":"2","pattern":"X","legs":"X"},"action":"harvest","summary":"good-harvest","bonus":1.720000000000001},{"rt":1582.7000000029802,"stimulus":"\n                    <p><b>Action: <em>harvest</em></b></p>\n                    <p>This is the bee that you just saw.</p>\n                    <img src=\"bees-with-color/bee-A2DF.svg\" width=\"200\">\n                    <p><span class=\"greenText\"><b>Successful harvest!</b></span><br>Your pay has increased by $0.02. Your bonus pay is now $0.58.</p>\n            ","response":0,"trial_type":"html-button-response","trial_index":40,"time_elapsed":851937,"internal_node_id":"0.0-4.0-1.16","subject_id":"60211a7c07e6f203ccb99231","study_id":"60edd13110225f80f9f3709b","session_id":"6196c1f1bdd09b93d96bd2c3","condition":"full-information","relevant_dimensions":["antennae","wings"],"bee_group":{"antennae":"B","wings":"2","pattern":"X","legs":"X"},"bonus":1.720000000000001},{"rt":15255,"stimulus":"bees-with-color/bee-A2SM.svg","response":0,"trial_type":"image-button-response","trial_index":41,"time_elapsed":867193,"internal_node_id":"0.0-4.0-0.17","subject_id":"60211a7c07e6f203ccb99231","study_id":"60edd13110225f80f9f3709b","session_id":"6196c1f1bdd09b93d96bd2c3","condition":"full-information","relevant_dimensions":["antennae","wings"],"bee_group":{"antennae":"B","wings":"2","pattern":"X","legs":"X"},"action":"harvest","summary":"good-harvest","bonus":1.720000000000001},{"rt":1135.3000000044703,"stimulus":"\n                    <p><b>Action: <em>harvest</em></b></p>\n                    <p>This is the bee that you just saw.</p>\n                    <img src=\"bees-with-color/bee-A2SM.svg\" width=\"200\">\n                    <p><span class=\"greenText\"><b>Successful harvest!</b></span><br>Your pay has increased by $0.02. Your bonus pay is now $0.60.</p>\n            ","response":0,"trial_type":"html-button-response","trial_index":42,"time_elapsed":868330,"internal_node_id":"0.0-4.0-1.17","subject_id":"60211a7c07e6f203ccb99231","study_id":"60edd13110225f80f9f3709b","session_id":"6196c1f1bdd09b93d96bd2c3","condition":"full-information","relevant_dimensions":["antennae","wings"],"bee_group":{"antennae":"B","wings":"2","pattern":"X","legs":"X"},"bonus":1.720000000000001},{"rt":17238.5,"stimulus":"bees-with-color/bee-A1DM.svg","response":0,"trial_type":"image-button-response","trial_index":43,"time_elapsed":885570,"internal_node_id":"0.0-4.0-0.18","subject_id":"60211a7c07e6f203ccb99231","study_id":"60edd13110225f80f9f3709b","session_id":"6196c1f1bdd09b93d96bd2c3","condition":"full-information","relevant_dimensions":["antennae","wings"],"bee_group":{"antennae":"B","wings":"2","pattern":"X","legs":"X"},"action":"harvest","summary":"good-harvest","bonus":1.720000000000001},{"rt":1582.1000000014901,"stimulus":"\n                    <p><b>Action: <em>harvest</em></b></p>\n                    <p>This is the bee that you just saw.</p>\n                    <img src=\"bees-with-color/bee-A1DM.svg\" width=\"200\">\n                    <p><span class=\"greenText\"><b>Successful harvest!</b></span><br>Your pay has increased by $0.02. Your bonus pay is now $0.62.</p>\n            ","response":0,"trial_type":"html-button-response","trial_index":44,"time_elapsed":887154,"internal_node_id":"0.0-4.0-1.18","subject_id":"60211a7c07e6f203ccb99231","study_id":"60edd13110225f80f9f3709b","session_id":"6196c1f1bdd09b93d96bd2c3","condition":"full-information","relevant_dimensions":["antennae","wings"],"bee_group":{"antennae":"B","wings":"2","pattern":"X","legs":"X"},"bonus":1.720000000000001},{"rt":13199,"stimulus":"bees-with-color/bee-B1SF.svg","response":0,"trial_type":"image-button-response","trial_index":45,"time_elapsed":900354,"internal_node_id":"0.0-4.0-0.19","subject_id":"60211a7c07e6f203ccb99231","study_id":"60edd13110225f80f9f3709b","session_id":"6196c1f1bdd09b93d96bd2c3","condition":"full-information","relevant_dimensions":["antennae","wings"],"bee_group":{"antennae":"B","wings":"2","pattern":"X","legs":"X"},"action":"harvest","summary":"good-harvest","bonus":1.720000000000001},{"rt":1774.6999999955297,"stimulus":"\n                    <p><b>Action: <em>harvest</em></b></p>\n                    <p>This is the bee that you just saw.</p>\n                    <img src=\"bees-with-color/bee-B1SF.svg\" width=\"200\">\n                    <p><span class=\"greenText\"><b>Successful harvest!</b></span><br>Your pay has increased by $0.02. Your bonus pay is now $0.64.</p>\n            ","response":0,"trial_type":"html-button-response","trial_index":46,"time_elapsed":902130,"internal_node_id":"0.0-4.0-1.19","subject_id":"60211a7c07e6f203ccb99231","study_id":"60edd13110225f80f9f3709b","session_id":"6196c1f1bdd09b93d96bd2c3","condition":"full-information","relevant_dimensions":["antennae","wings"],"bee_group":{"antennae":"B","wings":"2","pattern":"X","legs":"X"},"bonus":1.720000000000001},{"rt":10135,"stimulus":"bees-with-color/bee-B2SF.svg","response":1,"trial_type":"image-button-response","trial_index":47,"time_elapsed":912266,"internal_node_id":"0.0-4.0-0.20","subject_id":"60211a7c07e6f203ccb99231","study_id":"60edd13110225f80f9f3709b","session_id":"6196c1f1bdd09b93d96bd2c3","condition":"full-information","relevant_dimensions":["antennae","wings"],"bee_group":{"antennae":"B","wings":"2","pattern":"X","legs":"X"},"action":"avoid","summary":"good-avoid","bonus":1.720000000000001},{"rt":7814.89999999851,"stimulus":"\n                    <p><b>Action: <em>avoid</em></b></p>\n                    <p>This is the bee that you just saw.</p>\n                    <img src=\"bees-with-color/bee-B2SF.svg\" width=\"200\">\n                    <p><span class=\"greenText\">Good choice!</span>  This bee would have stung you.<br>Your bonus pay is unchanged, and remains at $0.64.</p>\n            ","response":0,"trial_type":"html-button-response","trial_index":48,"time_elapsed":920082,"internal_node_id":"0.0-4.0-1.20","subject_id":"60211a7c07e6f203ccb99231","study_id":"60edd13110225f80f9f3709b","session_id":"6196c1f1bdd09b93d96bd2c3","condition":"full-information","relevant_dimensions":["antennae","wings"],"bee_group":{"antennae":"B","wings":"2","pattern":"X","legs":"X"},"bonus":1.720000000000001},{"rt":15429.80000000447,"stimulus":"bees-with-color/bee-A1SM.svg","response":0,"trial_type":"image-button-response","trial_index":49,"time_elapsed":935514,"internal_node_id":"0.0-4.0-0.21","subject_id":"60211a7c07e6f203ccb99231","study_id":"60edd13110225f80f9f3709b","session_id":"6196c1f1bdd09b93d96bd2c3","condition":"full-information","relevant_dimensions":["antennae","wings"],"bee_group":{"antennae":"B","wings":"2","pattern":"X","legs":"X"},"action":"harvest","summary":"good-harvest","bonus":1.720000000000001},{"rt":1775.5,"stimulus":"\n                    <p><b>Action: <em>harvest</em></b></p>\n                    <p>This is the bee that you just saw.</p>\n                    <img src=\"bees-with-color/bee-A1SM.svg\" width=\"200\">\n                    <p><span class=\"greenText\"><b>Successful harvest!</b></span><br>Your pay has increased by $0.02. Your bonus pay is now $0.66.</p>\n            ","response":0,"trial_type":"html-button-response","trial_index":50,"time_elapsed":937291,"internal_node_id":"0.0-4.0-1.21","subject_id":"60211a7c07e6f203ccb99231","study_id":"60edd13110225f80f9f3709b","session_id":"6196c1f1bdd09b93d96bd2c3","condition":"full-information","relevant_dimensions":["antennae","wings"],"bee_group":{"antennae":"B","wings":"2","pattern":"X","legs":"X"},"bonus":1.720000000000001},{"rt":6974.39999999851,"stimulus":"bees-with-color/bee-B2DM.svg","response":1,"trial_type":"image-button-response","trial_index":51,"time_elapsed":944266,"internal_node_id":"0.0-4.0-0.22","subject_id":"60211a7c07e6f203ccb99231","study_id":"60edd13110225f80f9f3709b","session_id":"6196c1f1bdd09b93d96bd2c3","condition":"full-information","relevant_dimensions":["antennae","wings"],"bee_group":{"antennae":"B","wings":"2","pattern":"X","legs":"X"},"action":"avoid","summary":"good-avoid","bonus":1.720000000000001},{"rt":5646.5,"stimulus":"\n                    <p><b>Action: <em>avoid</em></b></p>\n                    <p>This is the bee that you just saw.</p>\n                    <img src=\"bees-with-color/bee-B2DM.svg\" width=\"200\">\n                    <p><span class=\"greenText\">Good choice!</span>  This bee would have stung you.<br>Your bonus pay is unchanged, and remains at $0.66.</p>\n            ","response":0,"trial_type":"html-button-response","trial_index":52,"time_elapsed":949914,"internal_node_id":"0.0-4.0-1.22","subject_id":"60211a7c07e6f203ccb99231","study_id":"60edd13110225f80f9f3709b","session_id":"6196c1f1bdd09b93d96bd2c3","condition":"full-information","relevant_dimensions":["antennae","wings"],"bee_group":{"antennae":"B","wings":"2","pattern":"X","legs":"X"},"bonus":1.720000000000001},{"rt":9974.29999999702,"stimulus":"bees-with-color/bee-A1DF.svg","response":0,"trial_type":"image-button-response","trial_index":53,"time_elapsed":959890,"internal_node_id":"0.0-4.0-0.23","subject_id":"60211a7c07e6f203ccb99231","study_id":"60edd13110225f80f9f3709b","session_id":"6196c1f1bdd09b93d96bd2c3","condition":"full-information","relevant_dimensions":["antennae","wings"],"bee_group":{"antennae":"B","wings":"2","pattern":"X","legs":"X"},"action":"harvest","summary":"good-harvest","bonus":1.720000000000001},{"rt":1831.1000000014901,"stimulus":"\n                    <p><b>Action: <em>harvest</em></b></p>\n                    <p>This is the bee that you just saw.</p>\n                    <img src=\"bees-with-color/bee-A1DF.svg\" width=\"200\">\n                    <p><span class=\"greenText\"><b>Successful harvest!</b></span><br>Your pay has increased by $0.02. Your bonus pay is now $0.68.</p>\n            ","response":0,"trial_type":"html-button-response","trial_index":54,"time_elapsed":961722,"internal_node_id":"0.0-4.0-1.23","subject_id":"60211a7c07e6f203ccb99231","study_id":"60edd13110225f80f9f3709b","session_id":"6196c1f1bdd09b93d96bd2c3","condition":"full-information","relevant_dimensions":["antennae","wings"],"bee_group":{"antennae":"B","wings":"2","pattern":"X","legs":"X"},"bonus":1.720000000000001},{"rt":7126.29999999702,"stimulus":"bees-with-color/bee-A1SF.svg","response":0,"trial_type":"image-button-response","trial_index":55,"time_elapsed":968850,"internal_node_id":"0.0-4.0-0.24","subject_id":"60211a7c07e6f203ccb99231","study_id":"60edd13110225f80f9f3709b","session_id":"6196c1f1bdd09b93d96bd2c3","condition":"full-information","relevant_dimensions":["antennae","wings"],"bee_group":{"antennae":"B","wings":"2","pattern":"X","legs":"X"},"action":"harvest","summary":"good-harvest","bonus":1.720000000000001},{"rt":1398.5,"stimulus":"\n                    <p><b>Action: <em>harvest</em></b></p>\n                    <p>This is the bee that you just saw.</p>\n                    <img src=\"bees-with-color/bee-A1SF.svg\" width=\"200\">\n                    <p><span class=\"greenText\"><b>Successful harvest!</b></span><br>Your pay has increased by $0.02. Your bonus pay is now $0.70.</p>\n            ","response":0,"trial_type":"html-button-response","trial_index":56,"time_elapsed":970250,"internal_node_id":"0.0-4.0-1.24","subject_id":"60211a7c07e6f203ccb99231","study_id":"60edd13110225f80f9f3709b","session_id":"6196c1f1bdd09b93d96bd2c3","condition":"full-information","relevant_dimensions":["antennae","wings"],"bee_group":{"antennae":"B","wings":"2","pattern":"X","legs":"X"},"bonus":1.720000000000001},{"rt":8398.39999999851,"stimulus":"bees-with-color/bee-B2DF.svg","response":1,"trial_type":"image-button-response","trial_index":57,"time_elapsed":978650,"internal_node_id":"0.0-4.0-0.25","subject_id":"60211a7c07e6f203ccb99231","study_id":"60edd13110225f80f9f3709b","session_id":"6196c1f1bdd09b93d96bd2c3","condition":"full-information","relevant_dimensions":["antennae","wings"],"bee_group":{"antennae":"B","wings":"2","pattern":"X","legs":"X"},"action":"avoid","summary":"good-avoid","bonus":1.720000000000001},{"rt":1342.5999999940395,"stimulus":"\n                    <p><b>Action: <em>avoid</em></b></p>\n                    <p>This is the bee that you just saw.</p>\n                    <img src=\"bees-with-color/bee-B2DF.svg\" width=\"200\">\n                    <p><span class=\"greenText\">Good choice!</span>  This bee would have stung you.<br>Your bonus pay is unchanged, and remains at $0.70.</p>\n            ","response":0,"trial_type":"html-button-response","trial_index":58,"time_elapsed":979994,"internal_node_id":"0.0-4.0-1.25","subject_id":"60211a7c07e6f203ccb99231","study_id":"60edd13110225f80f9f3709b","session_id":"6196c1f1bdd09b93d96bd2c3","condition":"full-information","relevant_dimensions":["antennae","wings"],"bee_group":{"antennae":"B","wings":"2","pattern":"X","legs":"X"},"bonus":1.720000000000001},{"rt":9198,"stimulus":"bees-with-color/bee-A2DM.svg","response":0,"trial_type":"image-button-response","trial_index":59,"time_elapsed":989194,"internal_node_id":"0.0-4.0-0.26","subject_id":"60211a7c07e6f203ccb99231","study_id":"60edd13110225f80f9f3709b","session_id":"6196c1f1bdd09b93d96bd2c3","condition":"full-information","relevant_dimensions":["antennae","wings"],"bee_group":{"antennae":"B","wings":"2","pattern":"X","legs":"X"},"action":"harvest","summary":"good-harvest","bonus":1.720000000000001},{"rt":1447,"stimulus":"\n                    <p><b>Action: <em>harvest</em></b></p>\n                    <p>This is the bee that you just saw.</p>\n                    <img src=\"bees-with-color/bee-A2DM.svg\" width=\"200\">\n                    <p><span class=\"greenText\"><b>Successful harvest!</b></span><br>Your pay has increased by $0.02. Your bonus pay is now $0.72.</p>\n            ","response":0,"trial_type":"html-button-response","trial_index":60,"time_elapsed":990642,"internal_node_id":"0.0-4.0-1.26","subject_id":"60211a7c07e6f203ccb99231","study_id":"60edd13110225f80f9f3709b","session_id":"6196c1f1bdd09b93d96bd2c3","condition":"full-information","relevant_dimensions":["antennae","wings"],"bee_group":{"antennae":"B","wings":"2","pattern":"X","legs":"X"},"bonus":1.720000000000001},{"rt":7326,"stimulus":"bees-with-color/bee-B2SM.svg","response":1,"trial_type":"image-button-response","trial_index":61,"time_elapsed":997970,"internal_node_id":"0.0-4.0-0.27","subject_id":"60211a7c07e6f203ccb99231","study_id":"60edd13110225f80f9f3709b","session_id":"6196c1f1bdd09b93d96bd2c3","condition":"full-information","relevant_dimensions":["antennae","wings"],"bee_group":{"antennae":"B","wings":"2","pattern":"X","legs":"X"},"action":"avoid","summary":"good-avoid","bonus":1.720000000000001},{"rt":1199,"stimulus":"\n                    <p><b>Action: <em>avoid</em></b></p>\n                    <p>This is the bee that you just saw.</p>\n                    <img src=\"bees-with-color/bee-B2SM.svg\" width=\"200\">\n                    <p><span class=\"greenText\">Good choice!</span>  This bee would have stung you.<br>Your bonus pay is unchanged, and remains at $0.72.</p>\n            ","response":0,"trial_type":"html-button-response","trial_index":62,"time_elapsed":999170,"internal_node_id":"0.0-4.0-1.27","subject_id":"60211a7c07e6f203ccb99231","study_id":"60edd13110225f80f9f3709b","session_id":"6196c1f1bdd09b93d96bd2c3","condition":"full-information","relevant_dimensions":["antennae","wings"],"bee_group":{"antennae":"B","wings":"2","pattern":"X","legs":"X"},"bonus":1.720000000000001},{"rt":24222.40000000596,"stimulus":"bees-with-color/bee-B1SM.svg","response":0,"trial_type":"image-button-response","trial_index":63,"time_elapsed":1023394,"internal_node_id":"0.0-4.0-0.28","subject_id":"60211a7c07e6f203ccb99231","study_id":"60edd13110225f80f9f3709b","session_id":"6196c1f1bdd09b93d96bd2c3","condition":"full-information","relevant_dimensions":["antennae","wings"],"bee_group":{"antennae":"B","wings":"2","pattern":"X","legs":"X"},"action":"harvest","summary":"good-harvest","bonus":1.720000000000001},{"rt":1718.6000000014901,"stimulus":"\n                    <p><b>Action: <em>harvest</em></b></p>\n                    <p>This is the bee that you just saw.</p>\n                    <img src=\"bees-with-color/bee-B1SM.svg\" width=\"200\">\n                    <p><span class=\"greenText\"><b>Successful harvest!</b></span><br>Your pay has increased by $0.02. Your bonus pay is now $0.74.</p>\n            ","response":0,"trial_type":"html-button-response","trial_index":64,"time_elapsed":1025114,"internal_node_id":"0.0-4.0-1.28","subject_id":"60211a7c07e6f203ccb99231","study_id":"60edd13110225f80f9f3709b","session_id":"6196c1f1bdd09b93d96bd2c3","condition":"full-information","relevant_dimensions":["antennae","wings"],"bee_group":{"antennae":"B","wings":"2","pattern":"X","legs":"X"},"bonus":1.720000000000001},{"rt":7246.10000000149,"stimulus":"bees-with-color/bee-B1DM.svg","response":0,"trial_type":"image-button-response","trial_index":65,"time_elapsed":1032362,"internal_node_id":"0.0-4.0-0.29","subject_id":"60211a7c07e6f203ccb99231","study_id":"60edd13110225f80f9f3709b","session_id":"6196c1f1bdd09b93d96bd2c3","condition":"full-information","relevant_dimensions":["antennae","wings"],"bee_group":{"antennae":"B","wings":"2","pattern":"X","legs":"X"},"action":"harvest","summary":"good-harvest","bonus":1.720000000000001},{"rt":1431.0999999940395,"stimulus":"\n                    <p><b>Action: <em>harvest</em></b></p>\n                    <p>This is the bee that you just saw.</p>\n                    <img src=\"bees-with-color/bee-B1DM.svg\" width=\"200\">\n                    <p><span class=\"greenText\"><b>Successful harvest!</b></span><br>Your pay has increased by $0.02. Your bonus pay is now $0.76.</p>\n            ","response":0,"trial_type":"html-button-response","trial_index":66,"time_elapsed":1033794,"internal_node_id":"0.0-4.0-1.29","subject_id":"60211a7c07e6f203ccb99231","study_id":"60edd13110225f80f9f3709b","session_id":"6196c1f1bdd09b93d96bd2c3","condition":"full-information","relevant_dimensions":["antennae","wings"],"bee_group":{"antennae":"B","wings":"2","pattern":"X","legs":"X"},"bonus":1.720000000000001},{"rt":8302.79999999702,"stimulus":"bees-with-color/bee-B1DF.svg","response":0,"trial_type":"image-button-response","trial_index":67,"time_elapsed":1042098,"internal_node_id":"0.0-4.0-0.30","subject_id":"60211a7c07e6f203ccb99231","study_id":"60edd13110225f80f9f3709b","session_id":"6196c1f1bdd09b93d96bd2c3","condition":"full-information","relevant_dimensions":["antennae","wings"],"bee_group":{"antennae":"B","wings":"2","pattern":"X","legs":"X"},"action":"harvest","summary":"good-harvest","bonus":1.720000000000001},{"rt":1206.5,"stimulus":"\n                    <p><b>Action: <em>harvest</em></b></p>\n                    <p>This is the bee that you just saw.</p>\n                    <img src=\"bees-with-color/bee-B1DF.svg\" width=\"200\">\n                    <p><span class=\"greenText\"><b>Successful harvest!</b></span><br>Your pay has increased by $0.02. Your bonus pay is now $0.78.</p>\n            ","response":0,"trial_type":"html-button-response","trial_index":68,"time_elapsed":1043306,"internal_node_id":"0.0-4.0-1.30","subject_id":"60211a7c07e6f203ccb99231","study_id":"60edd13110225f80f9f3709b","session_id":"6196c1f1bdd09b93d96bd2c3","condition":"full-information","relevant_dimensions":["antennae","wings"],"bee_group":{"antennae":"B","wings":"2","pattern":"X","legs":"X"},"bonus":1.720000000000001},{"rt":22286.10000000149,"stimulus":"bees-with-color/bee-A2SF.svg","response":1,"trial_type":"image-button-response","trial_index":69,"time_elapsed":1065594,"internal_node_id":"0.0-4.0-0.31","subject_id":"60211a7c07e6f203ccb99231","study_id":"60edd13110225f80f9f3709b","session_id":"6196c1f1bdd09b93d96bd2c3","condition":"full-information","relevant_dimensions":["antennae","wings"],"bee_group":{"antennae":"B","wings":"2","pattern":"X","legs":"X"},"action":"avoid","summary":"bad-avoid","bonus":1.720000000000001},{"rt":11638.60000000149,"stimulus":"\n                    <p><b>Action: <em>avoid</em></b></p>\n                    <p>This is the bee that you just saw.</p>\n                    <img src=\"bees-with-color/bee-A2SF.svg\" width=\"200\">\n                    <p><span class=\"redText\">Bad choice,</span> the bee was friendly.<br>Your bonus pay is unchanged, and remains at $0.78.</p>\n            ","response":0,"trial_type":"html-button-response","trial_index":70,"time_elapsed":1077234,"internal_node_id":"0.0-4.0-1.31","subject_id":"60211a7c07e6f203ccb99231","study_id":"60edd13110225f80f9f3709b","session_id":"6196c1f1bdd09b93d96bd2c3","condition":"full-information","relevant_dimensions":["antennae","wings"],"bee_group":{"antennae":"B","wings":"2","pattern":"X","legs":"X"},"bonus":1.720000000000001},{"rt":7790.70000000298,"stimulus":"bees-with-color/bee-A1DM.svg","response":0,"trial_type":"image-button-response","trial_index":71,"time_elapsed":1085027,"internal_node_id":"0.0-4.0-0.32","subject_id":"60211a7c07e6f203ccb99231","study_id":"60edd13110225f80f9f3709b","session_id":"6196c1f1bdd09b93d96bd2c3","condition":"full-information","relevant_dimensions":["antennae","wings"],"bee_group":{"antennae":"B","wings":"2","pattern":"X","legs":"X"},"action":"harvest","summary":"good-harvest","bonus":1.720000000000001},{"rt":1358.8999999985099,"stimulus":"\n                    <p><b>Action: <em>harvest</em></b></p>\n                    <p>This is the bee that you just saw.</p>\n                    <img src=\"bees-with-color/bee-A1DM.svg\" width=\"200\">\n                    <p><span class=\"greenText\"><b>Successful harvest!</b></span><br>Your pay has increased by $0.02. Your bonus pay is now $0.80.</p>\n            ","response":0,"trial_type":"html-button-response","trial_index":72,"time_elapsed":1086387,"internal_node_id":"0.0-4.0-1.32","subject_id":"60211a7c07e6f203ccb99231","study_id":"60edd13110225f80f9f3709b","session_id":"6196c1f1bdd09b93d96bd2c3","condition":"full-information","relevant_dimensions":["antennae","wings"],"bee_group":{"antennae":"B","wings":"2","pattern":"X","legs":"X"},"bonus":1.720000000000001},{"rt":5694.39999999851,"stimulus":"bees-with-color/bee-B2DF.svg","response":1,"trial_type":"image-button-response","trial_index":73,"time_elapsed":1092083,"internal_node_id":"0.0-4.0-0.33","subject_id":"60211a7c07e6f203ccb99231","study_id":"60edd13110225f80f9f3709b","session_id":"6196c1f1bdd09b93d96bd2c3","condition":"full-information","relevant_dimensions":["antennae","wings"],"bee_group":{"antennae":"B","wings":"2","pattern":"X","legs":"X"},"action":"avoid","summary":"good-avoid","bonus":1.720000000000001},{"rt":1478.8999999985099,"stimulus":"\n                    <p><b>Action: <em>avoid</em></b></p>\n                    <p>This is the bee that you just saw.</p>\n                    <img src=\"bees-with-color/bee-B2DF.svg\" width=\"200\">\n                    <p><span class=\"greenText\">Good choice!</span>  This bee would have stung you.<br>Your bonus pay is unchanged, and remains at $0.80.</p>\n            ","response":0,"trial_type":"html-button-response","trial_index":74,"time_elapsed":1093562,"internal_node_id":"0.0-4.0-1.33","subject_id":"60211a7c07e6f203ccb99231","study_id":"60edd13110225f80f9f3709b","session_id":"6196c1f1bdd09b93d96bd2c3","condition":"full-information","relevant_dimensions":["antennae","wings"],"bee_group":{"antennae":"B","wings":"2","pattern":"X","legs":"X"},"bonus":1.720000000000001},{"rt":5814.9000000059605,"stimulus":"bees-with-color/bee-A1SF.svg","response":0,"trial_type":"image-button-response","trial_index":75,"time_elapsed":1099379,"internal_node_id":"0.0-4.0-0.34","subject_id":"60211a7c07e6f203ccb99231","study_id":"60edd13110225f80f9f3709b","session_id":"6196c1f1bdd09b93d96bd2c3","condition":"full-information","relevant_dimensions":["antennae","wings"],"bee_group":{"antennae":"B","wings":"2","pattern":"X","legs":"X"},"action":"harvest","summary":"good-harvest","bonus":1.720000000000001},{"rt":974.6999999955297,"stimulus":"\n                    <p><b>Action: <em>harvest</em></b></p>\n                    <p>This is the bee that you just saw.</p>\n                    <img src=\"bees-with-color/bee-A1SF.svg\" width=\"200\">\n                    <p><span class=\"greenText\"><b>Successful harvest!</b></span><br>Your pay has increased by $0.02. Your bonus pay is now $0.82.</p>\n            ","response":0,"trial_type":"html-button-response","trial_index":76,"time_elapsed":1100355,"internal_node_id":"0.0-4.0-1.34","subject_id":"60211a7c07e6f203ccb99231","study_id":"60edd13110225f80f9f3709b","session_id":"6196c1f1bdd09b93d96bd2c3","condition":"full-information","relevant_dimensions":["antennae","wings"],"bee_group":{"antennae":"B","wings":"2","pattern":"X","legs":"X"},"bonus":1.720000000000001},{"rt":16278.5,"stimulus":"bees-with-color/bee-B2DM.svg","response":1,"trial_type":"image-button-response","trial_index":77,"time_elapsed":1116634,"internal_node_id":"0.0-4.0-0.35","subject_id":"60211a7c07e6f203ccb99231","study_id":"60edd13110225f80f9f3709b","session_id":"6196c1f1bdd09b93d96bd2c3","condition":"full-information","relevant_dimensions":["antennae","wings"],"bee_group":{"antennae":"B","wings":"2","pattern":"X","legs":"X"},"action":"avoid","summary":"good-avoid","bonus":1.720000000000001},{"rt":967.2000000029802,"stimulus":"\n                    <p><b>Action: <em>avoid</em></b></p>\n                    <p>This is the bee that you just saw.</p>\n                    <img src=\"bees-with-color/bee-B2DM.svg\" width=\"200\">\n                    <p><span class=\"greenText\">Good choice!</span>  This bee would have stung you.<br>Your bonus pay is unchanged, and remains at $0.82.</p>\n            ","response":0,"trial_type":"html-button-response","trial_index":78,"time_elapsed":1117603,"internal_node_id":"0.0-4.0-1.35","subject_id":"60211a7c07e6f203ccb99231","study_id":"60edd13110225f80f9f3709b","session_id":"6196c1f1bdd09b93d96bd2c3","condition":"full-information","relevant_dimensions":["antennae","wings"],"bee_group":{"antennae":"B","wings":"2","pattern":"X","legs":"X"},"bonus":1.720000000000001},{"rt":11701.89999999851,"stimulus":"bees-with-color/bee-B1DF.svg","response":0,"trial_type":"image-button-response","trial_index":79,"time_elapsed":1129306,"internal_node_id":"0.0-4.0-0.36","subject_id":"60211a7c07e6f203ccb99231","study_id":"60edd13110225f80f9f3709b","session_id":"6196c1f1bdd09b93d96bd2c3","condition":"full-information","relevant_dimensions":["antennae","wings"],"bee_group":{"antennae":"B","wings":"2","pattern":"X","legs":"X"},"action":"harvest","summary":"good-harvest","bonus":1.720000000000001},{"rt":1327,"stimulus":"\n                    <p><b>Action: <em>harvest</em></b></p>\n                    <p>This is the bee that you just saw.</p>\n                    <img src=\"bees-with-color/bee-B1DF.svg\" width=\"200\">\n                    <p><span class=\"greenText\"><b>Successful harvest!</b></span><br>Your pay has increased by $0.02. Your bonus pay is now $0.84.</p>\n            ","response":0,"trial_type":"html-button-response","trial_index":80,"time_elapsed":1130635,"internal_node_id":"0.0-4.0-1.36","subject_id":"60211a7c07e6f203ccb99231","study_id":"60edd13110225f80f9f3709b","session_id":"6196c1f1bdd09b93d96bd2c3","condition":"full-information","relevant_dimensions":["antennae","wings"],"bee_group":{"antennae":"B","wings":"2","pattern":"X","legs":"X"},"bonus":1.720000000000001},{"rt":8310.10000000149,"stimulus":"bees-with-color/bee-A2DM.svg","response":0,"trial_type":"image-button-response","trial_index":81,"time_elapsed":1138946,"internal_node_id":"0.0-4.0-0.37","subject_id":"60211a7c07e6f203ccb99231","study_id":"60edd13110225f80f9f3709b","session_id":"6196c1f1bdd09b93d96bd2c3","condition":"full-information","relevant_dimensions":["antennae","wings"],"bee_group":{"antennae":"B","wings":"2","pattern":"X","legs":"X"},"action":"harvest","summary":"good-harvest","bonus":1.720000000000001},{"rt":879.1000000014901,"stimulus":"\n                    <p><b>Action: <em>harvest</em></b></p>\n                    <p>This is the bee that you just saw.</p>\n                    <img src=\"bees-with-color/bee-A2DM.svg\" width=\"200\">\n                    <p><span class=\"greenText\"><b>Successful harvest!</b></span><br>Your pay has increased by $0.02. Your bonus pay is now $0.86.</p>\n            ","response":0,"trial_type":"html-button-response","trial_index":82,"time_elapsed":1139827,"internal_node_id":"0.0-4.0-1.37","subject_id":"60211a7c07e6f203ccb99231","study_id":"60edd13110225f80f9f3709b","session_id":"6196c1f1bdd09b93d96bd2c3","condition":"full-information","relevant_dimensions":["antennae","wings"],"bee_group":{"antennae":"B","wings":"2","pattern":"X","legs":"X"},"bonus":1.720000000000001},{"rt":15790.39999999851,"stimulus":"bees-with-color/bee-A1SM.svg","response":0,"trial_type":"image-button-response","trial_index":83,"time_elapsed":1155618,"internal_node_id":"0.0-4.0-0.38","subject_id":"60211a7c07e6f203ccb99231","study_id":"60edd13110225f80f9f3709b","session_id":"6196c1f1bdd09b93d96bd2c3","condition":"full-information","relevant_dimensions":["antennae","wings"],"bee_group":{"antennae":"B","wings":"2","pattern":"X","legs":"X"},"action":"harvest","summary":"good-harvest","bonus":1.720000000000001},{"rt":1070.2999999970198,"stimulus":"\n                    <p><b>Action: <em>harvest</em></b></p>\n                    <p>This is the bee that you just saw.</p>\n                    <img src=\"bees-with-color/bee-A1SM.svg\" width=\"200\">\n                    <p><span class=\"greenText\"><b>Successful harvest!</b></span><br>Your pay has increased by $0.02. Your bonus pay is now $0.88.</p>\n            ","response":0,"trial_type":"html-button-response","trial_index":84,"time_elapsed":1156690,"internal_node_id":"0.0-4.0-1.38","subject_id":"60211a7c07e6f203ccb99231","study_id":"60edd13110225f80f9f3709b","session_id":"6196c1f1bdd09b93d96bd2c3","condition":"full-information","relevant_dimensions":["antennae","wings"],"bee_group":{"antennae":"B","wings":"2","pattern":"X","legs":"X"},"bonus":1.720000000000001},{"rt":7711.4000000059605,"stimulus":"bees-with-color/bee-B1DM.svg","response":0,"trial_type":"image-button-response","trial_index":85,"time_elapsed":1164403,"internal_node_id":"0.0-4.0-0.39","subject_id":"60211a7c07e6f203ccb99231","study_id":"60edd13110225f80f9f3709b","session_id":"6196c1f1bdd09b93d96bd2c3","condition":"full-information","relevant_dimensions":["antennae","wings"],"bee_group":{"antennae":"B","wings":"2","pattern":"X","legs":"X"},"action":"harvest","summary":"good-harvest","bonus":1.720000000000001},{"rt":926.5,"stimulus":"\n                    <p><b>Action: <em>harvest</em></b></p>\n                    <p>This is the bee that you just saw.</p>\n                    <img src=\"bees-with-color/bee-B1DM.svg\" width=\"200\">\n                    <p><span class=\"greenText\"><b>Successful harvest!</b></span><br>Your pay has increased by $0.02. Your bonus pay is now $0.90.</p>\n            ","response":0,"trial_type":"html-button-response","trial_index":86,"time_elapsed":1165330,"internal_node_id":"0.0-4.0-1.39","subject_id":"60211a7c07e6f203ccb99231","study_id":"60edd13110225f80f9f3709b","session_id":"6196c1f1bdd09b93d96bd2c3","condition":"full-information","relevant_dimensions":["antennae","wings"],"bee_group":{"antennae":"B","wings":"2","pattern":"X","legs":"X"},"bonus":1.720000000000001},{"rt":7098.80000000447,"stimulus":"bees-with-color/bee-A2DF.svg","response":0,"trial_type":"image-button-response","trial_index":87,"time_elapsed":1172431,"internal_node_id":"0.0-4.0-0.40","subject_id":"60211a7c07e6f203ccb99231","study_id":"60edd13110225f80f9f3709b","session_id":"6196c1f1bdd09b93d96bd2c3","condition":"full-information","relevant_dimensions":["antennae","wings"],"bee_group":{"antennae":"B","wings":"2","pattern":"X","legs":"X"},"action":"harvest","summary":"good-harvest","bonus":1.720000000000001},{"rt":1186.2000000029802,"stimulus":"\n                    <p><b>Action: <em>harvest</em></b></p>\n                    <p>This is the bee that you just saw.</p>\n                    <img src=\"bees-with-color/bee-A2DF.svg\" width=\"200\">\n                    <p><span class=\"greenText\"><b>Successful harvest!</b></span><br>Your pay has increased by $0.02. Your bonus pay is now $0.92.</p>\n            ","response":0,"trial_type":"html-button-response","trial_index":88,"time_elapsed":1173618,"internal_node_id":"0.0-4.0-1.40","subject_id":"60211a7c07e6f203ccb99231","study_id":"60edd13110225f80f9f3709b","session_id":"6196c1f1bdd09b93d96bd2c3","condition":"full-information","relevant_dimensions":["antennae","wings"],"bee_group":{"antennae":"B","wings":"2","pattern":"X","legs":"X"},"bonus":1.720000000000001},{"rt":10926.20000000298,"stimulus":"bees-with-color/bee-B1SF.svg","response":0,"trial_type":"image-button-response","trial_index":89,"time_elapsed":1184546,"internal_node_id":"0.0-4.0-0.41","subject_id":"60211a7c07e6f203ccb99231","study_id":"60edd13110225f80f9f3709b","session_id":"6196c1f1bdd09b93d96bd2c3","condition":"full-information","relevant_dimensions":["antennae","wings"],"bee_group":{"antennae":"B","wings":"2","pattern":"X","legs":"X"},"action":"harvest","summary":"good-harvest","bonus":1.720000000000001},{"rt":911,"stimulus":"\n                    <p><b>Action: <em>harvest</em></b></p>\n                    <p>This is the bee that you just saw.</p>\n                    <img src=\"bees-with-color/bee-B1SF.svg\" width=\"200\">\n                    <p><span class=\"greenText\"><b>Successful harvest!</b></span><br>Your pay has increased by $0.02. Your bonus pay is now $0.94.</p>\n            ","response":0,"trial_type":"html-button-response","trial_index":90,"time_elapsed":1185458,"internal_node_id":"0.0-4.0-1.41","subject_id":"60211a7c07e6f203ccb99231","study_id":"60edd13110225f80f9f3709b","session_id":"6196c1f1bdd09b93d96bd2c3","condition":"full-information","relevant_dimensions":["antennae","wings"],"bee_group":{"antennae":"B","wings":"2","pattern":"X","legs":"X"},"bonus":1.720000000000001},{"rt":8918.60000000149,"stimulus":"bees-with-color/bee-B1SM.svg","response":0,"trial_type":"image-button-response","trial_index":91,"time_elapsed":1194378,"internal_node_id":"0.0-4.0-0.42","subject_id":"60211a7c07e6f203ccb99231","study_id":"60edd13110225f80f9f3709b","session_id":"6196c1f1bdd09b93d96bd2c3","condition":"full-information","relevant_dimensions":["antennae","wings"],"bee_group":{"antennae":"B","wings":"2","pattern":"X","legs":"X"},"action":"harvest","summary":"good-harvest","bonus":1.720000000000001},{"rt":918.7999999970198,"stimulus":"\n                    <p><b>Action: <em>harvest</em></b></p>\n                    <p>This is the bee that you just saw.</p>\n                    <img src=\"bees-with-color/bee-B1SM.svg\" width=\"200\">\n                    <p><span class=\"greenText\"><b>Successful harvest!</b></span><br>Your pay has increased by $0.02. Your bonus pay is now $0.96.</p>\n            ","response":0,"trial_type":"html-button-response","trial_index":92,"time_elapsed":1195298,"internal_node_id":"0.0-4.0-1.42","subject_id":"60211a7c07e6f203ccb99231","study_id":"60edd13110225f80f9f3709b","session_id":"6196c1f1bdd09b93d96bd2c3","condition":"full-information","relevant_dimensions":["antennae","wings"],"bee_group":{"antennae":"B","wings":"2","pattern":"X","legs":"X"},"bonus":1.720000000000001},{"rt":7062.70000000298,"stimulus":"bees-with-color/bee-B2SM.svg","response":1,"trial_type":"image-button-response","trial_index":93,"time_elapsed":1202363,"internal_node_id":"0.0-4.0-0.43","subject_id":"60211a7c07e6f203ccb99231","study_id":"60edd13110225f80f9f3709b","session_id":"6196c1f1bdd09b93d96bd2c3","condition":"full-information","relevant_dimensions":["antennae","wings"],"bee_group":{"antennae":"B","wings":"2","pattern":"X","legs":"X"},"action":"avoid","summary":"good-avoid","bonus":1.720000000000001},{"rt":1462.4000000059605,"stimulus":"\n                    <p><b>Action: <em>avoid</em></b></p>\n                    <p>This is the bee that you just saw.</p>\n                    <img src=\"bees-with-color/bee-B2SM.svg\" width=\"200\">\n                    <p><span class=\"greenText\">Good choice!</span>  This bee would have stung you.<br>Your bonus pay is unchanged, and remains at $0.96.</p>\n            ","response":0,"trial_type":"html-button-response","trial_index":94,"time_elapsed":1203826,"internal_node_id":"0.0-4.0-1.43","subject_id":"60211a7c07e6f203ccb99231","study_id":"60edd13110225f80f9f3709b","session_id":"6196c1f1bdd09b93d96bd2c3","condition":"full-information","relevant_dimensions":["antennae","wings"],"bee_group":{"antennae":"B","wings":"2","pattern":"X","legs":"X"},"bonus":1.720000000000001},{"rt":5710.80000000447,"stimulus":"bees-with-color/bee-A2SM.svg","response":0,"trial_type":"image-button-response","trial_index":95,"time_elapsed":1209538,"internal_node_id":"0.0-4.0-0.44","subject_id":"60211a7c07e6f203ccb99231","study_id":"60edd13110225f80f9f3709b","session_id":"6196c1f1bdd09b93d96bd2c3","condition":"full-information","relevant_dimensions":["antennae","wings"],"bee_group":{"antennae":"B","wings":"2","pattern":"X","legs":"X"},"action":"harvest","summary":"good-harvest","bonus":1.720000000000001},{"rt":934.5999999940395,"stimulus":"\n                    <p><b>Action: <em>harvest</em></b></p>\n                    <p>This is the bee that you just saw.</p>\n                    <img src=\"bees-with-color/bee-A2SM.svg\" width=\"200\">\n                    <p><span class=\"greenText\"><b>Successful harvest!</b></span><br>Your pay has increased by $0.02. Your bonus pay is now $0.98.</p>\n            ","response":0,"trial_type":"html-button-response","trial_index":96,"time_elapsed":1210474,"internal_node_id":"0.0-4.0-1.44","subject_id":"60211a7c07e6f203ccb99231","study_id":"60edd13110225f80f9f3709b","session_id":"6196c1f1bdd09b93d96bd2c3","condition":"full-information","relevant_dimensions":["antennae","wings"],"bee_group":{"antennae":"B","wings":"2","pattern":"X","legs":"X"},"bonus":1.720000000000001},{"rt":6222.70000000298,"stimulus":"bees-with-color/bee-A2SF.svg","response":0,"trial_type":"image-button-response","trial_index":97,"time_elapsed":1216699,"internal_node_id":"0.0-4.0-0.45","subject_id":"60211a7c07e6f203ccb99231","study_id":"60edd13110225f80f9f3709b","session_id":"6196c1f1bdd09b93d96bd2c3","condition":"full-information","relevant_dimensions":["antennae","wings"],"bee_group":{"antennae":"B","wings":"2","pattern":"X","legs":"X"},"action":"harvest","summary":"good-harvest","bonus":1.720000000000001},{"rt":1270.8999999985099,"stimulus":"\n                    <p><b>Action: <em>harvest</em></b></p>\n                    <p>This is the bee that you just saw.</p>\n                    <img src=\"bees-with-color/bee-A2SF.svg\" width=\"200\">\n                    <p><span class=\"greenText\"><b>Successful harvest!</b></span><br>Your pay has increased by $0.02. Your bonus pay is now $1.00.</p>\n            ","response":0,"trial_type":"html-button-response","trial_index":98,"time_elapsed":1217971,"internal_node_id":"0.0-4.0-1.45","subject_id":"60211a7c07e6f203ccb99231","study_id":"60edd13110225f80f9f3709b","session_id":"6196c1f1bdd09b93d96bd2c3","condition":"full-information","relevant_dimensions":["antennae","wings"],"bee_group":{"antennae":"B","wings":"2","pattern":"X","legs":"X"},"bonus":1.720000000000001},{"rt":5774.5,"stimulus":"bees-with-color/bee-B2SF.svg","response":1,"trial_type":"image-button-response","trial_index":99,"time_elapsed":1223747,"internal_node_id":"0.0-4.0-0.46","subject_id":"60211a7c07e6f203ccb99231","study_id":"60edd13110225f80f9f3709b","session_id":"6196c1f1bdd09b93d96bd2c3","condition":"full-information","relevant_dimensions":["antennae","wings"],"bee_group":{"antennae":"B","wings":"2","pattern":"X","legs":"X"},"action":"avoid","summary":"good-avoid","bonus":1.720000000000001},{"rt":1054.3999999985099,"stimulus":"\n                    <p><b>Action: <em>avoid</em></b></p>\n                    <p>This is the bee that you just saw.</p>\n                    <img src=\"bees-with-color/bee-B2SF.svg\" width=\"200\">\n                    <p><span class=\"greenText\">Good choice!</span>  This bee would have stung you.<br>Your bonus pay is unchanged, and remains at $1.00.</p>\n            ","response":0,"trial_type":"html-button-response","trial_index":100,"time_elapsed":1224803,"internal_node_id":"0.0-4.0-1.46","subject_id":"60211a7c07e6f203ccb99231","study_id":"60edd13110225f80f9f3709b","session_id":"6196c1f1bdd09b93d96bd2c3","condition":"full-information","relevant_dimensions":["antennae","wings"],"bee_group":{"antennae":"B","wings":"2","pattern":"X","legs":"X"},"bonus":1.720000000000001},{"rt":16014.80000000447,"stimulus":"bees-with-color/bee-A1DF.svg","response":0,"trial_type":"image-button-response","trial_index":101,"time_elapsed":1240819,"internal_node_id":"0.0-4.0-0.47","subject_id":"60211a7c07e6f203ccb99231","study_id":"60edd13110225f80f9f3709b","session_id":"6196c1f1bdd09b93d96bd2c3","condition":"full-information","relevant_dimensions":["antennae","wings"],"bee_group":{"antennae":"B","wings":"2","pattern":"X","legs":"X"},"action":"harvest","summary":"good-harvest","bonus":1.720000000000001},{"rt":878.7999999970198,"stimulus":"\n                    <p><b>Action: <em>harvest</em></b></p>\n                    <p>This is the bee that you just saw.</p>\n                    <img src=\"bees-with-color/bee-A1DF.svg\" width=\"200\">\n                    <p><span class=\"greenText\"><b>Successful harvest!</b></span><br>Your pay has increased by $0.02. Your bonus pay is now $1.02.</p>\n            ","response":0,"trial_type":"html-button-response","trial_index":102,"time_elapsed":1241699,"internal_node_id":"0.0-4.0-1.47","subject_id":"60211a7c07e6f203ccb99231","study_id":"60edd13110225f80f9f3709b","session_id":"6196c1f1bdd09b93d96bd2c3","condition":"full-information","relevant_dimensions":["antennae","wings"],"bee_group":{"antennae":"B","wings":"2","pattern":"X","legs":"X"},"bonus":1.720000000000001},{"rt":5109.70000000298,"stimulus":"bees-with-color/bee-B2SM.svg","response":1,"trial_type":"image-button-response","trial_index":103,"time_elapsed":1246811,"internal_node_id":"0.0-4.0-0.48","subject_id":"60211a7c07e6f203ccb99231","study_id":"60edd13110225f80f9f3709b","session_id":"6196c1f1bdd09b93d96bd2c3","condition":"full-information","relevant_dimensions":["antennae","wings"],"bee_group":{"antennae":"B","wings":"2","pattern":"X","legs":"X"},"action":"avoid","summary":"good-avoid","bonus":1.720000000000001},{"rt":1958.9000000059605,"stimulus":"\n                    <p><b>Action: <em>avoid</em></b></p>\n                    <p>This is the bee that you just saw.</p>\n                    <img src=\"bees-with-color/bee-B2SM.svg\" width=\"200\">\n                    <p><span class=\"greenText\">Good choice!</span>  This bee would have stung you.<br>Your bonus pay is unchanged, and remains at $1.02.</p>\n            ","response":0,"trial_type":"html-button-response","trial_index":104,"time_elapsed":1248771,"internal_node_id":"0.0-4.0-1.48","subject_id":"60211a7c07e6f203ccb99231","study_id":"60edd13110225f80f9f3709b","session_id":"6196c1f1bdd09b93d96bd2c3","condition":"full-information","relevant_dimensions":["antennae","wings"],"bee_group":{"antennae":"B","wings":"2","pattern":"X","legs":"X"},"bonus":1.720000000000001},{"rt":6070.69999999553,"stimulus":"bees-with-color/bee-B2DM.svg","response":1,"trial_type":"image-button-response","trial_index":105,"time_elapsed":1254843,"internal_node_id":"0.0-4.0-0.49","subject_id":"60211a7c07e6f203ccb99231","study_id":"60edd13110225f80f9f3709b","session_id":"6196c1f1bdd09b93d96bd2c3","condition":"full-information","relevant_dimensions":["antennae","wings"],"bee_group":{"antennae":"B","wings":"2","pattern":"X","legs":"X"},"action":"avoid","summary":"good-avoid","bonus":1.720000000000001},{"rt":1655,"stimulus":"\n                    <p><b>Action: <em>avoid</em></b></p>\n                    <p>This is the bee that you just saw.</p>\n                    <img src=\"bees-with-color/bee-B2DM.svg\" width=\"200\">\n                    <p><span class=\"greenText\">Good choice!</span>  This bee would have stung you.<br>Your bonus pay is unchanged, and remains at $1.02.</p>\n            ","response":0,"trial_type":"html-button-response","trial_index":106,"time_elapsed":1256499,"internal_node_id":"0.0-4.0-1.49","subject_id":"60211a7c07e6f203ccb99231","study_id":"60edd13110225f80f9f3709b","session_id":"6196c1f1bdd09b93d96bd2c3","condition":"full-information","relevant_dimensions":["antennae","wings"],"bee_group":{"antennae":"B","wings":"2","pattern":"X","legs":"X"},"bonus":1.720000000000001},{"rt":11397.70000000298,"stimulus":"bees-with-color/bee-A1DF.svg","response":0,"trial_type":"image-button-response","trial_index":107,"time_elapsed":1267898,"internal_node_id":"0.0-4.0-0.50","subject_id":"60211a7c07e6f203ccb99231","study_id":"60edd13110225f80f9f3709b","session_id":"6196c1f1bdd09b93d96bd2c3","condition":"full-information","relevant_dimensions":["antennae","wings"],"bee_group":{"antennae":"B","wings":"2","pattern":"X","legs":"X"},"action":"harvest","summary":"good-harvest","bonus":1.720000000000001},{"rt":911.3000000044703,"stimulus":"\n                    <p><b>Action: <em>harvest</em></b></p>\n                    <p>This is the bee that you just saw.</p>\n                    <img src=\"bees-with-color/bee-A1DF.svg\" width=\"200\">\n                    <p><span class=\"greenText\"><b>Successful harvest!</b></span><br>Your pay has increased by $0.02. Your bonus pay is now $1.04.</p>\n            ","response":0,"trial_type":"html-button-response","trial_index":108,"time_elapsed":1268811,"internal_node_id":"0.0-4.0-1.50","subject_id":"60211a7c07e6f203ccb99231","study_id":"60edd13110225f80f9f3709b","session_id":"6196c1f1bdd09b93d96bd2c3","condition":"full-information","relevant_dimensions":["antennae","wings"],"bee_group":{"antennae":"B","wings":"2","pattern":"X","legs":"X"},"bonus":1.720000000000001},{"rt":14310.89999999851,"stimulus":"bees-with-color/bee-A1DM.svg","response":0,"trial_type":"image-button-response","trial_index":109,"time_elapsed":1283123,"internal_node_id":"0.0-4.0-0.51","subject_id":"60211a7c07e6f203ccb99231","study_id":"60edd13110225f80f9f3709b","session_id":"6196c1f1bdd09b93d96bd2c3","condition":"full-information","relevant_dimensions":["antennae","wings"],"bee_group":{"antennae":"B","wings":"2","pattern":"X","legs":"X"},"action":"harvest","summary":"good-harvest","bonus":1.720000000000001},{"rt":1158.7000000029802,"stimulus":"\n                    <p><b>Action: <em>harvest</em></b></p>\n                    <p>This is the bee that you just saw.</p>\n                    <img src=\"bees-with-color/bee-A1DM.svg\" width=\"200\">\n                    <p><span class=\"greenText\"><b>Successful harvest!</b></span><br>Your pay has increased by $0.02. Your bonus pay is now $1.06.</p>\n            ","response":0,"trial_type":"html-button-response","trial_index":110,"time_elapsed":1284283,"internal_node_id":"0.0-4.0-1.51","subject_id":"60211a7c07e6f203ccb99231","study_id":"60edd13110225f80f9f3709b","session_id":"6196c1f1bdd09b93d96bd2c3","condition":"full-information","relevant_dimensions":["antennae","wings"],"bee_group":{"antennae":"B","wings":"2","pattern":"X","legs":"X"},"bonus":1.720000000000001},{"rt":21126.19999999553,"stimulus":"bees-with-color/bee-A1SM.svg","response":0,"trial_type":"image-button-response","trial_index":111,"time_elapsed":1305411,"internal_node_id":"0.0-4.0-0.52","subject_id":"60211a7c07e6f203ccb99231","study_id":"60edd13110225f80f9f3709b","session_id":"6196c1f1bdd09b93d96bd2c3","condition":"full-information","relevant_dimensions":["antennae","wings"],"bee_group":{"antennae":"B","wings":"2","pattern":"X","legs":"X"},"action":"harvest","summary":"good-harvest","bonus":1.720000000000001},{"rt":918.8999999985099,"stimulus":"\n                    <p><b>Action: <em>harvest</em></b></p>\n                    <p>This is the bee that you just saw.</p>\n                    <img src=\"bees-with-color/bee-A1SM.svg\" width=\"200\">\n                    <p><span class=\"greenText\"><b>Successful harvest!</b></span><br>Your pay has increased by $0.02. Your bonus pay is now $1.08.</p>\n            ","response":0,"trial_type":"html-button-response","trial_index":112,"time_elapsed":1306331,"internal_node_id":"0.0-4.0-1.52","subject_id":"60211a7c07e6f203ccb99231","study_id":"60edd13110225f80f9f3709b","session_id":"6196c1f1bdd09b93d96bd2c3","condition":"full-information","relevant_dimensions":["antennae","wings"],"bee_group":{"antennae":"B","wings":"2","pattern":"X","legs":"X"},"bonus":1.720000000000001},{"rt":9710.80000000447,"stimulus":"bees-with-color/bee-A2SM.svg","response":0,"trial_type":"image-button-response","trial_index":113,"time_elapsed":1316043,"internal_node_id":"0.0-4.0-0.53","subject_id":"60211a7c07e6f203ccb99231","study_id":"60edd13110225f80f9f3709b","session_id":"6196c1f1bdd09b93d96bd2c3","condition":"full-information","relevant_dimensions":["antennae","wings"],"bee_group":{"antennae":"B","wings":"2","pattern":"X","legs":"X"},"action":"harvest","summary":"good-harvest","bonus":1.720000000000001},{"rt":1142.8999999985099,"stimulus":"\n                    <p><b>Action: <em>harvest</em></b></p>\n                    <p>This is the bee that you just saw.</p>\n                    <img src=\"bees-with-color/bee-A2SM.svg\" width=\"200\">\n                    <p><span class=\"greenText\"><b>Successful harvest!</b></span><br>Your pay has increased by $0.02. Your bonus pay is now $1.10.</p>\n            ","response":0,"trial_type":"html-button-response","trial_index":114,"time_elapsed":1317187,"internal_node_id":"0.0-4.0-1.53","subject_id":"60211a7c07e6f203ccb99231","study_id":"60edd13110225f80f9f3709b","session_id":"6196c1f1bdd09b93d96bd2c3","condition":"full-information","relevant_dimensions":["antennae","wings"],"bee_group":{"antennae":"B","wings":"2","pattern":"X","legs":"X"},"bonus":1.720000000000001},{"rt":8630.20000000298,"stimulus":"bees-with-color/bee-B1SM.svg","response":0,"trial_type":"image-button-response","trial_index":115,"time_elapsed":1325819,"internal_node_id":"0.0-4.0-0.54","subject_id":"60211a7c07e6f203ccb99231","study_id":"60edd13110225f80f9f3709b","session_id":"6196c1f1bdd09b93d96bd2c3","condition":"full-information","relevant_dimensions":["antennae","wings"],"bee_group":{"antennae":"B","wings":"2","pattern":"X","legs":"X"},"action":"harvest","summary":"good-harvest","bonus":1.720000000000001},{"rt":902.5,"stimulus":"\n                    <p><b>Action: <em>harvest</em></b></p>\n                    <p>This is the bee that you just saw.</p>\n                    <img src=\"bees-with-color/bee-B1SM.svg\" width=\"200\">\n                    <p><span class=\"greenText\"><b>Successful harvest!</b></span><br>Your pay has increased by $0.02. Your bonus pay is now $1.12.</p>\n            ","response":0,"trial_type":"html-button-response","trial_index":116,"time_elapsed":1326723,"internal_node_id":"0.0-4.0-1.54","subject_id":"60211a7c07e6f203ccb99231","study_id":"60edd13110225f80f9f3709b","session_id":"6196c1f1bdd09b93d96bd2c3","condition":"full-information","relevant_dimensions":["antennae","wings"],"bee_group":{"antennae":"B","wings":"2","pattern":"X","legs":"X"},"bonus":1.720000000000001},{"rt":9446.5,"stimulus":"bees-with-color/bee-A2DM.svg","response":0,"trial_type":"image-button-response","trial_index":117,"time_elapsed":1336171,"internal_node_id":"0.0-4.0-0.55","subject_id":"60211a7c07e6f203ccb99231","study_id":"60edd13110225f80f9f3709b","session_id":"6196c1f1bdd09b93d96bd2c3","condition":"full-information","relevant_dimensions":["antennae","wings"],"bee_group":{"antennae":"B","wings":"2","pattern":"X","legs":"X"},"action":"harvest","summary":"good-harvest","bonus":1.720000000000001},{"rt":1182.8999999985099,"stimulus":"\n                    <p><b>Action: <em>harvest</em></b></p>\n                    <p>This is the bee that you just saw.</p>\n                    <img src=\"bees-with-color/bee-A2DM.svg\" width=\"200\">\n                    <p><span class=\"greenText\"><b>Successful harvest!</b></span><br>Your pay has increased by $0.02. Your bonus pay is now $1.14.</p>\n            ","response":0,"trial_type":"html-button-response","trial_index":118,"time_elapsed":1337355,"internal_node_id":"0.0-4.0-1.55","subject_id":"60211a7c07e6f203ccb99231","study_id":"60edd13110225f80f9f3709b","session_id":"6196c1f1bdd09b93d96bd2c3","condition":"full-information","relevant_dimensions":["antennae","wings"],"bee_group":{"antennae":"B","wings":"2","pattern":"X","legs":"X"},"bonus":1.720000000000001},{"rt":11270.89999999851,"stimulus":"bees-with-color/bee-A2SF.svg","response":0,"trial_type":"image-button-response","trial_index":119,"time_elapsed":1348627,"internal_node_id":"0.0-4.0-0.56","subject_id":"60211a7c07e6f203ccb99231","study_id":"60edd13110225f80f9f3709b","session_id":"6196c1f1bdd09b93d96bd2c3","condition":"full-information","relevant_dimensions":["antennae","wings"],"bee_group":{"antennae":"B","wings":"2","pattern":"X","legs":"X"},"action":"harvest","summary":"good-harvest","bonus":1.720000000000001},{"rt":1262.5,"stimulus":"\n                    <p><b>Action: <em>harvest</em></b></p>\n                    <p>This is the bee that you just saw.</p>\n                    <img src=\"bees-with-color/bee-A2SF.svg\" width=\"200\">\n                    <p><span class=\"greenText\"><b>Successful harvest!</b></span><br>Your pay has increased by $0.02. Your bonus pay is now $1.16.</p>\n            ","response":0,"trial_type":"html-button-response","trial_index":120,"time_elapsed":1349891,"internal_node_id":"0.0-4.0-1.56","subject_id":"60211a7c07e6f203ccb99231","study_id":"60edd13110225f80f9f3709b","session_id":"6196c1f1bdd09b93d96bd2c3","condition":"full-information","relevant_dimensions":["antennae","wings"],"bee_group":{"antennae":"B","wings":"2","pattern":"X","legs":"X"},"bonus":1.720000000000001},{"rt":6614.69999999553,"stimulus":"bees-with-color/bee-B2SF.svg","response":1,"trial_type":"image-button-response","trial_index":121,"time_elapsed":1356507,"internal_node_id":"0.0-4.0-0.57","subject_id":"60211a7c07e6f203ccb99231","study_id":"60edd13110225f80f9f3709b","session_id":"6196c1f1bdd09b93d96bd2c3","condition":"full-information","relevant_dimensions":["antennae","wings"],"bee_group":{"antennae":"B","wings":"2","pattern":"X","legs":"X"},"action":"avoid","summary":"good-avoid","bonus":1.720000000000001},{"rt":1302.7000000029802,"stimulus":"\n                    <p><b>Action: <em>avoid</em></b></p>\n                    <p>This is the bee that you just saw.</p>\n                    <img src=\"bees-with-color/bee-B2SF.svg\" width=\"200\">\n                    <p><span class=\"greenText\">Good choice!</span>  This bee would have stung you.<br>Your bonus pay is unchanged, and remains at $1.16.</p>\n            ","response":0,"trial_type":"html-button-response","trial_index":122,"time_elapsed":1357811,"internal_node_id":"0.0-4.0-1.57","subject_id":"60211a7c07e6f203ccb99231","study_id":"60edd13110225f80f9f3709b","session_id":"6196c1f1bdd09b93d96bd2c3","condition":"full-information","relevant_dimensions":["antennae","wings"],"bee_group":{"antennae":"B","wings":"2","pattern":"X","legs":"X"},"bonus":1.720000000000001},{"rt":8318.79999999702,"stimulus":"bees-with-color/bee-A2DF.svg","response":0,"trial_type":"image-button-response","trial_index":123,"time_elapsed":1366131,"internal_node_id":"0.0-4.0-0.58","subject_id":"60211a7c07e6f203ccb99231","study_id":"60edd13110225f80f9f3709b","session_id":"6196c1f1bdd09b93d96bd2c3","condition":"full-information","relevant_dimensions":["antennae","wings"],"bee_group":{"antennae":"B","wings":"2","pattern":"X","legs":"X"},"action":"harvest","summary":"good-harvest","bonus":1.720000000000001},{"rt":1007.2999999970198,"stimulus":"\n                    <p><b>Action: <em>harvest</em></b></p>\n                    <p>This is the bee that you just saw.</p>\n                    <img src=\"bees-with-color/bee-A2DF.svg\" width=\"200\">\n                    <p><span class=\"greenText\"><b>Successful harvest!</b></span><br>Your pay has increased by $0.02. Your bonus pay is now $1.18.</p>\n            ","response":0,"trial_type":"html-button-response","trial_index":124,"time_elapsed":1367139,"internal_node_id":"0.0-4.0-1.58","subject_id":"60211a7c07e6f203ccb99231","study_id":"60edd13110225f80f9f3709b","session_id":"6196c1f1bdd09b93d96bd2c3","condition":"full-information","relevant_dimensions":["antennae","wings"],"bee_group":{"antennae":"B","wings":"2","pattern":"X","legs":"X"},"bonus":1.720000000000001},{"rt":8229.79999999702,"stimulus":"bees-with-color/bee-B1DF.svg","response":0,"trial_type":"image-button-response","trial_index":125,"time_elapsed":1375371,"internal_node_id":"0.0-4.0-0.59","subject_id":"60211a7c07e6f203ccb99231","study_id":"60edd13110225f80f9f3709b","session_id":"6196c1f1bdd09b93d96bd2c3","condition":"full-information","relevant_dimensions":["antennae","wings"],"bee_group":{"antennae":"B","wings":"2","pattern":"X","legs":"X"},"action":"harvest","summary":"good-harvest","bonus":1.720000000000001},{"rt":1215.6000000014901,"stimulus":"\n                    <p><b>Action: <em>harvest</em></b></p>\n                    <p>This is the bee that you just saw.</p>\n                    <img src=\"bees-with-color/bee-B1DF.svg\" width=\"200\">\n                    <p><span class=\"greenText\"><b>Successful harvest!</b></span><br>Your pay has increased by $0.02. Your bonus pay is now $1.20.</p>\n            ","response":0,"trial_type":"html-button-response","trial_index":126,"time_elapsed":1376587,"internal_node_id":"0.0-4.0-1.59","subject_id":"60211a7c07e6f203ccb99231","study_id":"60edd13110225f80f9f3709b","session_id":"6196c1f1bdd09b93d96bd2c3","condition":"full-information","relevant_dimensions":["antennae","wings"],"bee_group":{"antennae":"B","wings":"2","pattern":"X","legs":"X"},"bonus":1.720000000000001},{"rt":14285.80000000447,"stimulus":"bees-with-color/bee-A1SF.svg","response":0,"trial_type":"image-button-response","trial_index":127,"time_elapsed":1390874,"internal_node_id":"0.0-4.0-0.60","subject_id":"60211a7c07e6f203ccb99231","study_id":"60edd13110225f80f9f3709b","session_id":"6196c1f1bdd09b93d96bd2c3","condition":"full-information","relevant_dimensions":["antennae","wings"],"bee_group":{"antennae":"B","wings":"2","pattern":"X","legs":"X"},"action":"harvest","summary":"good-harvest","bonus":1.720000000000001},{"rt":1118.9000000059605,"stimulus":"\n                    <p><b>Action: <em>harvest</em></b></p>\n                    <p>This is the bee that you just saw.</p>\n                    <img src=\"bees-with-color/bee-A1SF.svg\" width=\"200\">\n                    <p><span class=\"greenText\"><b>Successful harvest!</b></span><br>Your pay has increased by $0.02. Your bonus pay is now $1.22.</p>\n            ","response":0,"trial_type":"html-button-response","trial_index":128,"time_elapsed":1391995,"internal_node_id":"0.0-4.0-1.60","subject_id":"60211a7c07e6f203ccb99231","study_id":"60edd13110225f80f9f3709b","session_id":"6196c1f1bdd09b93d96bd2c3","condition":"full-information","relevant_dimensions":["antennae","wings"],"bee_group":{"antennae":"B","wings":"2","pattern":"X","legs":"X"},"bonus":1.720000000000001},{"rt":4374.5999999940395,"stimulus":"bees-with-color/bee-B2DF.svg","response":1,"trial_type":"image-button-response","trial_index":129,"time_elapsed":1396371,"internal_node_id":"0.0-4.0-0.61","subject_id":"60211a7c07e6f203ccb99231","study_id":"60edd13110225f80f9f3709b","session_id":"6196c1f1bdd09b93d96bd2c3","condition":"full-information","relevant_dimensions":["antennae","wings"],"bee_group":{"antennae":"B","wings":"2","pattern":"X","legs":"X"},"action":"avoid","summary":"good-avoid","bonus":1.720000000000001},{"rt":1159.1000000014901,"stimulus":"\n                    <p><b>Action: <em>avoid</em></b></p>\n                    <p>This is the bee that you just saw.</p>\n                    <img src=\"bees-with-color/bee-B2DF.svg\" width=\"200\">\n                    <p><span class=\"greenText\">Good choice!</span>  This bee would have stung you.<br>Your bonus pay is unchanged, and remains at $1.22.</p>\n            ","response":0,"trial_type":"html-button-response","trial_index":130,"time_elapsed":1397531,"internal_node_id":"0.0-4.0-1.61","subject_id":"60211a7c07e6f203ccb99231","study_id":"60edd13110225f80f9f3709b","session_id":"6196c1f1bdd09b93d96bd2c3","condition":"full-information","relevant_dimensions":["antennae","wings"],"bee_group":{"antennae":"B","wings":"2","pattern":"X","legs":"X"},"bonus":1.720000000000001},{"rt":32215.19999999553,"stimulus":"bees-with-color/bee-B1SF.svg","response":1,"trial_type":"image-button-response","trial_index":131,"time_elapsed":1429746,"internal_node_id":"0.0-4.0-0.62","subject_id":"60211a7c07e6f203ccb99231","study_id":"60edd13110225f80f9f3709b","session_id":"6196c1f1bdd09b93d96bd2c3","condition":"full-information","relevant_dimensions":["antennae","wings"],"bee_group":{"antennae":"B","wings":"2","pattern":"X","legs":"X"},"action":"avoid","summary":"bad-avoid","bonus":1.720000000000001},{"rt":3062.3000000044703,"stimulus":"\n                    <p><b>Action: <em>avoid</em></b></p>\n                    <p>This is the bee that you just saw.</p>\n                    <img src=\"bees-with-color/bee-B1SF.svg\" width=\"200\">\n                    <p><span class=\"redText\">Bad choice,</span> the bee was friendly.<br>Your bonus pay is unchanged, and remains at $1.22.</p>\n            ","response":0,"trial_type":"html-button-response","trial_index":132,"time_elapsed":1432810,"internal_node_id":"0.0-4.0-1.62","subject_id":"60211a7c07e6f203ccb99231","study_id":"60edd13110225f80f9f3709b","session_id":"6196c1f1bdd09b93d96bd2c3","condition":"full-information","relevant_dimensions":["antennae","wings"],"bee_group":{"antennae":"B","wings":"2","pattern":"X","legs":"X"},"bonus":1.720000000000001},{"rt":6198.69999999553,"stimulus":"bees-with-color/bee-B1DM.svg","response":0,"trial_type":"image-button-response","trial_index":133,"time_elapsed":1439010,"internal_node_id":"0.0-4.0-0.63","subject_id":"60211a7c07e6f203ccb99231","study_id":"60edd13110225f80f9f3709b","session_id":"6196c1f1bdd09b93d96bd2c3","condition":"full-information","relevant_dimensions":["antennae","wings"],"bee_group":{"antennae":"B","wings":"2","pattern":"X","legs":"X"},"action":"harvest","summary":"good-harvest","bonus":1.720000000000001},{"rt":1303.3000000044703,"stimulus":"\n                    <p><b>Action: <em>harvest</em></b></p>\n                    <p>This is the bee that you just saw.</p>\n                    <img src=\"bees-with-color/bee-B1DM.svg\" width=\"200\">\n                    <p><span class=\"greenText\"><b>Successful harvest!</b></span><br>Your pay has increased by $0.02. Your bonus pay is now $1.24.</p>\n            ","response":0,"trial_type":"html-button-response","trial_index":134,"time_elapsed":1440314,"internal_node_id":"0.0-4.0-1.63","subject_id":"60211a7c07e6f203ccb99231","study_id":"60edd13110225f80f9f3709b","session_id":"6196c1f1bdd09b93d96bd2c3","condition":"full-information","relevant_dimensions":["antennae","wings"],"bee_group":{"antennae":"B","wings":"2","pattern":"X","legs":"X"},"bonus":1.720000000000001},{"rt":26901.5,"stimulus":"You have completed the first part of this experiment.<br><br>You will now begin a shorter second part, in which you will receive no feedback.<br>The same rules regarding bonus pay apply.<br><br>Press any key to begin.","response":" ","trial_type":"html-keyboard-response","trial_index":135,"time_elapsed":1467218,"internal_node_id":"0.0-5.0","subject_id":"60211a7c07e6f203ccb99231","study_id":"60edd13110225f80f9f3709b","session_id":"6196c1f1bdd09b93d96bd2c3","condition":"full-information","relevant_dimensions":["antennae","wings"],"bee_group":{"antennae":"B","wings":"2","pattern":"X","legs":"X"},"bonus":1.720000000000001},{"rt":19115.39999999851,"stimulus":"bees-with-color/bee-A2DF.svg","response":0,"trial_type":"image-button-response","trial_index":136,"time_elapsed":1486362,"internal_node_id":"0.0-6.0-0.0","subject_id":"60211a7c07e6f203ccb99231","study_id":"60edd13110225f80f9f3709b","session_id":"6196c1f1bdd09b93d96bd2c3","condition":"full-information","relevant_dimensions":["antennae","wings"],"bee_group":{"antennae":"B","wings":"2","pattern":"X","legs":"X"},"bonus":1.720000000000001},{"rt":6742.29999999702,"stimulus":"bees-with-color/bee-B2SF.svg","response":1,"trial_type":"image-button-response","trial_index":137,"time_elapsed":1493107,"internal_node_id":"0.0-6.0-0.1","subject_id":"60211a7c07e6f203ccb99231","study_id":"60edd13110225f80f9f3709b","session_id":"6196c1f1bdd09b93d96bd2c3","condition":"full-information","relevant_dimensions":["antennae","wings"],"bee_group":{"antennae":"B","wings":"2","pattern":"X","legs":"X"},"bonus":1.720000000000001},{"rt":8965.70000000298,"stimulus":"bees-with-color/bee-B1SF.svg","response":0,"trial_type":"image-button-response","trial_index":138,"time_elapsed":1502075,"internal_node_id":"0.0-6.0-0.2","subject_id":"60211a7c07e6f203ccb99231","study_id":"60edd13110225f80f9f3709b","session_id":"6196c1f1bdd09b93d96bd2c3","condition":"full-information","relevant_dimensions":["antennae","wings"],"bee_group":{"antennae":"B","wings":"2","pattern":"X","legs":"X"},"bonus":1.720000000000001},{"rt":12166,"stimulus":"bees-with-color/bee-A1DF.svg","response":0,"trial_type":"image-button-response","trial_index":139,"time_elapsed":1514243,"internal_node_id":"0.0-6.0-0.3","subject_id":"60211a7c07e6f203ccb99231","study_id":"60edd13110225f80f9f3709b","session_id":"6196c1f1bdd09b93d96bd2c3","condition":"full-information","relevant_dimensions":["antennae","wings"],"bee_group":{"antennae":"B","wings":"2","pattern":"X","legs":"X"},"bonus":1.720000000000001},{"rt":7261.60000000149,"stimulus":"bees-with-color/bee-B1DF.svg","response":0,"trial_type":"image-button-response","trial_index":140,"time_elapsed":1521507,"internal_node_id":"0.0-6.0-0.4","subject_id":"60211a7c07e6f203ccb99231","study_id":"60edd13110225f80f9f3709b","session_id":"6196c1f1bdd09b93d96bd2c3","condition":"full-information","relevant_dimensions":["antennae","wings"],"bee_group":{"antennae":"B","wings":"2","pattern":"X","legs":"X"},"bonus":1.720000000000001},{"rt":9638,"stimulus":"bees-with-color/bee-A2SM.svg","response":0,"trial_type":"image-button-response","trial_index":141,"time_elapsed":1531147,"internal_node_id":"0.0-6.0-0.5","subject_id":"60211a7c07e6f203ccb99231","study_id":"60edd13110225f80f9f3709b","session_id":"6196c1f1bdd09b93d96bd2c3","condition":"full-information","relevant_dimensions":["antennae","wings"],"bee_group":{"antennae":"B","wings":"2","pattern":"X","legs":"X"},"bonus":1.720000000000001},{"rt":9613.29999999702,"stimulus":"bees-with-color/bee-B1DM.svg","response":0,"trial_type":"image-button-response","trial_index":142,"time_elapsed":1540762,"internal_node_id":"0.0-6.0-0.6","subject_id":"60211a7c07e6f203ccb99231","study_id":"60edd13110225f80f9f3709b","session_id":"6196c1f1bdd09b93d96bd2c3","condition":"full-information","relevant_dimensions":["antennae","wings"],"bee_group":{"antennae":"B","wings":"2","pattern":"X","legs":"X"},"bonus":1.720000000000001},{"rt":6334.10000000149,"stimulus":"bees-with-color/bee-B2DM.svg","response":1,"trial_type":"image-button-response","trial_index":143,"time_elapsed":1547099,"internal_node_id":"0.0-6.0-0.7","subject_id":"60211a7c07e6f203ccb99231","study_id":"60edd13110225f80f9f3709b","session_id":"6196c1f1bdd09b93d96bd2c3","condition":"full-information","relevant_dimensions":["antennae","wings"],"bee_group":{"antennae":"B","wings":"2","pattern":"X","legs":"X"},"bonus":1.720000000000001},{"rt":5245.89999999851,"stimulus":"bees-with-color/bee-B2DF.svg","response":1,"trial_type":"image-button-response","trial_index":144,"time_elapsed":1552347,"internal_node_id":"0.0-6.0-0.8","subject_id":"60211a7c07e6f203ccb99231","study_id":"60edd13110225f80f9f3709b","session_id":"6196c1f1bdd09b93d96bd2c3","condition":"full-information","relevant_dimensions":["antennae","wings"],"bee_group":{"antennae":"B","wings":"2","pattern":"X","legs":"X"},"bonus":1.720000000000001},{"rt":13005.20000000298,"stimulus":"bees-with-color/bee-A2DM.svg","response":0,"trial_type":"image-button-response","trial_index":145,"time_elapsed":1565355,"internal_node_id":"0.0-6.0-0.9","subject_id":"60211a7c07e6f203ccb99231","study_id":"60edd13110225f80f9f3709b","session_id":"6196c1f1bdd09b93d96bd2c3","condition":"full-information","relevant_dimensions":["antennae","wings"],"bee_group":{"antennae":"B","wings":"2","pattern":"X","legs":"X"},"bonus":1.720000000000001},{"rt":10589.79999999702,"stimulus":"bees-with-color/bee-B1SM.svg","response":0,"trial_type":"image-button-response","trial_index":146,"time_elapsed":1575947,"internal_node_id":"0.0-6.0-0.10","subject_id":"60211a7c07e6f203ccb99231","study_id":"60edd13110225f80f9f3709b","session_id":"6196c1f1bdd09b93d96bd2c3","condition":"full-information","relevant_dimensions":["antennae","wings"],"bee_group":{"antennae":"B","wings":"2","pattern":"X","legs":"X"},"bonus":1.720000000000001},{"rt":7461.5,"stimulus":"bees-with-color/bee-B2SM.svg","response":1,"trial_type":"image-button-response","trial_index":147,"time_elapsed":1583411,"internal_node_id":"0.0-6.0-0.11","subject_id":"60211a7c07e6f203ccb99231","study_id":"60edd13110225f80f9f3709b","session_id":"6196c1f1bdd09b93d96bd2c3","condition":"full-information","relevant_dimensions":["antennae","wings"],"bee_group":{"antennae":"B","wings":"2","pattern":"X","legs":"X"},"bonus":1.720000000000001},{"rt":18637.70000000298,"stimulus":"bees-with-color/bee-A2SF.svg","response":0,"trial_type":"image-button-response","trial_index":148,"time_elapsed":1602051,"internal_node_id":"0.0-6.0-0.12","subject_id":"60211a7c07e6f203ccb99231","study_id":"60edd13110225f80f9f3709b","session_id":"6196c1f1bdd09b93d96bd2c3","condition":"full-information","relevant_dimensions":["antennae","wings"],"bee_group":{"antennae":"B","wings":"2","pattern":"X","legs":"X"},"bonus":1.720000000000001},{"rt":14965.5,"stimulus":"bees-with-color/bee-A1DM.svg","response":0,"trial_type":"image-button-response","trial_index":149,"time_elapsed":1617018,"internal_node_id":"0.0-6.0-0.13","subject_id":"60211a7c07e6f203ccb99231","study_id":"60edd13110225f80f9f3709b","session_id":"6196c1f1bdd09b93d96bd2c3","condition":"full-information","relevant_dimensions":["antennae","wings"],"bee_group":{"antennae":"B","wings":"2","pattern":"X","legs":"X"},"bonus":1.720000000000001},{"rt":12077.60000000149,"stimulus":"bees-with-color/bee-A1SF.svg","response":0,"trial_type":"image-button-response","trial_index":150,"time_elapsed":1629099,"internal_node_id":"0.0-6.0-0.14","subject_id":"60211a7c07e6f203ccb99231","study_id":"60edd13110225f80f9f3709b","session_id":"6196c1f1bdd09b93d96bd2c3","condition":"full-information","relevant_dimensions":["antennae","wings"],"bee_group":{"antennae":"B","wings":"2","pattern":"X","legs":"X"},"bonus":1.720000000000001},{"rt":9429.5,"stimulus":"bees-with-color/bee-A1SM.svg","response":0,"trial_type":"image-button-response","trial_index":151,"time_elapsed":1638531,"internal_node_id":"0.0-6.0-0.15","subject_id":"60211a7c07e6f203ccb99231","study_id":"60edd13110225f80f9f3709b","session_id":"6196c1f1bdd09b93d96bd2c3","condition":"full-information","relevant_dimensions":["antennae","wings"],"bee_group":{"antennae":"B","wings":"2","pattern":"X","legs":"X"},"bonus":1.720000000000001},{"rt":7341.19999999553,"stimulus":"bees-with-color/bee-A2DF.svg","response":0,"trial_type":"image-button-response","trial_index":152,"time_elapsed":1645875,"internal_node_id":"0.0-6.0-0.16","subject_id":"60211a7c07e6f203ccb99231","study_id":"60edd13110225f80f9f3709b","session_id":"6196c1f1bdd09b93d96bd2c3","condition":"full-information","relevant_dimensions":["antennae","wings"],"bee_group":{"antennae":"B","wings":"2","pattern":"X","legs":"X"},"bonus":1.720000000000001},{"rt":11693.60000000149,"stimulus":"bees-with-color/bee-B1DF.svg","response":0,"trial_type":"image-button-response","trial_index":153,"time_elapsed":1657570,"internal_node_id":"0.0-6.0-0.17","subject_id":"60211a7c07e6f203ccb99231","study_id":"60edd13110225f80f9f3709b","session_id":"6196c1f1bdd09b93d96bd2c3","condition":"full-information","relevant_dimensions":["antennae","wings"],"bee_group":{"antennae":"B","wings":"2","pattern":"X","legs":"X"},"bonus":1.720000000000001},{"rt":8342.59999999404,"stimulus":"bees-with-color/bee-B2DF.svg","response":1,"trial_type":"image-button-response","trial_index":154,"time_elapsed":1665915,"internal_node_id":"0.0-6.0-0.18","subject_id":"60211a7c07e6f203ccb99231","study_id":"60edd13110225f80f9f3709b","session_id":"6196c1f1bdd09b93d96bd2c3","condition":"full-information","relevant_dimensions":["antennae","wings"],"bee_group":{"antennae":"B","wings":"2","pattern":"X","legs":"X"},"bonus":1.720000000000001},{"rt":9950.10000000149,"stimulus":"bees-with-color/bee-B1DM.svg","response":0,"trial_type":"image-button-response","trial_index":155,"time_elapsed":1675867,"internal_node_id":"0.0-6.0-0.19","subject_id":"60211a7c07e6f203ccb99231","study_id":"60edd13110225f80f9f3709b","session_id":"6196c1f1bdd09b93d96bd2c3","condition":"full-information","relevant_dimensions":["antennae","wings"],"bee_group":{"antennae":"B","wings":"2","pattern":"X","legs":"X"},"bonus":1.720000000000001},{"rt":5357.29999999702,"stimulus":"bees-with-color/bee-B2DM.svg","response":1,"trial_type":"image-button-response","trial_index":156,"time_elapsed":1681226,"internal_node_id":"0.0-6.0-0.20","subject_id":"60211a7c07e6f203ccb99231","study_id":"60edd13110225f80f9f3709b","session_id":"6196c1f1bdd09b93d96bd2c3","condition":"full-information","relevant_dimensions":["antennae","wings"],"bee_group":{"antennae":"B","wings":"2","pattern":"X","legs":"X"},"bonus":1.720000000000001},{"rt":9518.29999999702,"stimulus":"bees-with-color/bee-A2SM.svg","response":0,"trial_type":"image-button-response","trial_index":157,"time_elapsed":1690747,"internal_node_id":"0.0-6.0-0.21","subject_id":"60211a7c07e6f203ccb99231","study_id":"60edd13110225f80f9f3709b","session_id":"6196c1f1bdd09b93d96bd2c3","condition":"full-information","relevant_dimensions":["antennae","wings"],"bee_group":{"antennae":"B","wings":"2","pattern":"X","legs":"X"},"bonus":1.720000000000001},{"rt":12181.5999