[{"success":true,"trial_type":"fullscreen","trial_index":0,"time_elapsed":103443,"internal_node_id":"0.0-0.0","subject_id":"61115b5393470e9dfd1a5f9a","study_id":"60edd13110225f80f9f3709b","session_id":"6196bf62b8e5c0f19acd8b8f","condition":"contingent","relevant_dimensions":["antennae","pattern"],"bee_group":{"antennae":"B","wings":"X","pattern":"S","legs":"X"},"bonus":1.320000000000001},{"success":true,"timeout":false,"failed_images":[],"failed_audio":[],"failed_video":[],"trial_type":"preload","trial_index":1,"time_elapsed":104936,"internal_node_id":"0.0-1.0","subject_id":"61115b5393470e9dfd1a5f9a","study_id":"60edd13110225f80f9f3709b","session_id":"6196bf62b8e5c0f19acd8b8f","condition":"contingent","relevant_dimensions":["antennae","pattern"],"bee_group":{"antennae":"B","wings":"X","pattern":"S","legs":"X"},"bonus":1.320000000000001},{"rt":9006.100000023842,"stimulus":"Welcome! Press any key to begin.","response":" ","trial_type":"html-keyboard-response","trial_index":2,"time_elapsed":113944,"internal_node_id":"0.0-2.0","subject_id":"61115b5393470e9dfd1a5f9a","study_id":"60edd13110225f80f9f3709b","session_id":"6196bf62b8e5c0f19acd8b8f","condition":"contingent","relevant_dimensions":["antennae","pattern"],"bee_group":{"antennae":"B","wings":"X","pattern":"S","legs":"X"},"bonus":1.320000000000001},{"view_history":[{"page_index":0,"viewing_time":69042.90000003576},{"page_index":1,"viewing_time":30008.299999952316},{"page_index":2,"viewing_time":13514.200000047684},{"page_index":3,"viewing_time":17007.099999964237},{"page_index":4,"viewing_time":5583.400000035763},{"page_index":5,"viewing_time":17931.299999952316},{"page_index":6,"viewing_time":49804},{"page_index":7,"viewing_time":5274.300000011921},{"page_index":8,"viewing_time":3431},{"page_index":9,"viewing_time":3658},{"page_index":10,"viewing_time":2826.600000023842},{"page_index":11,"viewing_time":10995.599999964237},{"page_index":12,"viewing_time":13714.5},{"page_index":13,"viewing_time":1770.300000011921},{"page_index":14,"viewing_time":8783}],"rt":253345.19999998808,"trial_type":"instructions","trial_index":3,"time_elapsed":367290,"internal_node_id":"0.0-3.0-0.0","subject_id":"61115b5393470e9dfd1a5f9a","study_id":"60edd13110225f80f9f3709b","session_id":"6196bf62b8e5c0f19acd8b8f","condition":"contingent","relevant_dimensions":["antennae","pattern"],"bee_group":{"antennae":"B","wings":"X","pattern":"S","legs":"X"},"bonus":1.320000000000001},{"rt":11401.699999988079,"response":{"Q0":["Two or six legs","Stripes or spots on body","Single or double wings","Antennae or no antennae"]},"question_order":[0],"trial_type":"survey-multi-select","trial_index":4,"time_elapsed":378701,"internal_node_id":"0.0-3.0-1.0","subject_id":"61115b5393470e9dfd1a5f9a","study_id":"60edd13110225f80f9f3709b","session_id":"6196bf62b8e5c0f19acd8b8f","condition":"contingent","relevant_dimensions":["antennae","pattern"],"bee_group":{"antennae":"B","wings":"X","pattern":"S","legs":"X"},"correct":true,"bonus":1.320000000000001},{"rt":23951.80000001192,"response":{"Q1":"No.","Q2":"Based on the four features of the bee.","Q3":"You do not learn if it was friendly or dangerous, and do not alter your bonus."},"question_order":[0,1,2],"trial_type":"survey-multi-choice","trial_index":5,"time_elapsed":402658,"internal_node_id":"0.0-3.0-2.0","subject_id":"61115b5393470e9dfd1a5f9a","study_id":"60edd13110225f80f9f3709b","session_id":"6196bf62b8e5c0f19acd8b8f","condition":"contingent","relevant_dimensions":["antennae","pattern"],"bee_group":{"antennae":"B","wings":"X","pattern":"S","legs":"X"},"correct":true,"bonus":1.320000000000001},{"rt":2386.2999999523163,"stimulus":"<p>Congrats, you got everything right<br>When you're ready, click the button below to continue to the experiment.</p>","response":0,"trial_type":"html-button-response","trial_index":6,"time_elapsed":405049,"internal_node_id":"0.0-3.0-3.0","subject_id":"61115b5393470e9dfd1a5f9a","study_id":"60edd13110225f80f9f3709b","session_id":"6196bf62b8e5c0f19acd8b8f","condition":"contingent","relevant_dimensions":["antennae","pattern"],"bee_group":{"antennae":"B","wings":"X","pattern":"S","legs":"X"},"bonus":1.320000000000001},{"rt":15522.699999988079,"stimulus":"bees-with-color/bee-A1DF.svg","response":0,"trial_type":"image-button-response","trial_index":7,"time_elapsed":420580,"internal_node_id":"0.0-4.0-0.0","subject_id":"61115b5393470e9dfd1a5f9a","study_id":"60edd13110225f80f9f3709b","session_id":"6196bf62b8e5c0f19acd8b8f","condition":"contingent","relevant_dimensions":["antennae","pattern"],"bee_group":{"antennae":"B","wings":"X","pattern":"S","legs":"X"},"action":"harvest","summary":"good-harvest","bonus":1.320000000000001},{"rt":2813.5,"stimulus":"\n                    <p><b>Action: <em>harvest</em></b></p>\n                    <p>This is the bee that you just saw.</p>\n                    <img src=\"bees-with-color/bee-A1DF.svg\" width=\"200\">\n                    <p><span class=\"greenText\"><b>Successful harvest!</b></span><br>Your pay has increased by $0.02. Your bonus pay is now $0.56.</p>\n            ","response":0,"trial_type":"html-button-response","trial_index":8,"time_elapsed":423401,"internal_node_id":"0.0-4.0-1.0","subject_id":"61115b5393470e9dfd1a5f9a","study_id":"60edd13110225f80f9f3709b","session_id":"6196bf62b8e5c0f19acd8b8f","condition":"contingent","relevant_dimensions":["antennae","pattern"],"bee_group":{"antennae":"B","wings":"X","pattern":"S","legs":"X"},"bonus":1.320000000000001},{"rt":13374.5,"stimulus":"bees-with-color/bee-B2DM.svg","response":0,"trial_type":"image-button-response","trial_index":9,"time_elapsed":436781,"internal_node_id":"0.0-4.0-0.1","subject_id":"61115b5393470e9dfd1a5f9a","study_id":"60edd13110225f80f9f3709b","session_id":"6196bf62b8e5c0f19acd8b8f","condition":"contingent","relevant_dimensions":["antennae","pattern"],"bee_group":{"antennae":"B","wings":"X","pattern":"S","legs":"X"},"action":"harvest","summary":"good-harvest","bonus":1.320000000000001},{"rt":2269.100000023842,"stimulus":"\n                    <p><b>Action: <em>harvest</em></b></p>\n                    <p>This is the bee that you just saw.</p>\n                    <img src=\"bees-with-color/bee-B2DM.svg\" width=\"200\">\n                    <p><span class=\"greenText\"><b>Successful harvest!</b></span><br>Your pay has increased by $0.02. Your bonus pay is now $0.58.</p>\n            ","response":0,"trial_type":"html-button-response","trial_index":10,"time_elapsed":439056,"internal_node_id":"0.0-4.0-1.1","subject_id":"61115b5393470e9dfd1a5f9a","study_id":"60edd13110225f80f9f3709b","session_id":"6196bf62b8e5c0f19acd8b8f","condition":"contingent","relevant_dimensions":["antennae","pattern"],"bee_group":{"antennae":"B","wings":"X","pattern":"S","legs":"X"},"bonus":1.320000000000001},{"rt":6464.399999976158,"stimulus":"bees-with-color/bee-A1SM.svg","response":1,"trial_type":"image-button-response","trial_index":11,"time_elapsed":445525,"internal_node_id":"0.0-4.0-0.2","subject_id":"61115b5393470e9dfd1a5f9a","study_id":"60edd13110225f80f9f3709b","session_id":"6196bf62b8e5c0f19acd8b8f","condition":"contingent","relevant_dimensions":["antennae","pattern"],"bee_group":{"antennae":"B","wings":"X","pattern":"S","legs":"X"},"action":"avoid","summary":"bad-avoid","bonus":1.320000000000001},{"rt":84066.89999997616,"stimulus":"\n                    <p><b>Action: <em>avoid</em></b></p>\n                    <p>This is the bee that you just saw.</p>\n                    <img src=\"bees-with-color/bee-A1SM.svg\" width=\"200\">\n                    <p><br>Your bonus pay is unchanged, and remains at $0.58.</p>\n            ","response":0,"trial_type":"html-button-response","trial_index":12,"time_elapsed":529594,"internal_node_id":"0.0-4.0-1.2","subject_id":"61115b5393470e9dfd1a5f9a","study_id":"60edd13110225f80f9f3709b","session_id":"6196bf62b8e5c0f19acd8b8f","condition":"contingent","relevant_dimensions":["antennae","pattern"],"bee_group":{"antennae":"B","wings":"X","pattern":"S","legs":"X"},"bonus":1.320000000000001},{"rt":5759.399999976158,"stimulus":"bees-with-color/bee-A2SF.svg","response":0,"trial_type":"image-button-response","trial_index":13,"time_elapsed":535358,"internal_node_id":"0.0-4.0-0.3","subject_id":"61115b5393470e9dfd1a5f9a","study_id":"60edd13110225f80f9f3709b","session_id":"6196bf62b8e5c0f19acd8b8f","condition":"contingent","relevant_dimensions":["antennae","pattern"],"bee_group":{"antennae":"B","wings":"X","pattern":"S","legs":"X"},"action":"harvest","summary":"good-harvest","bonus":1.320000000000001},{"rt":6922.699999988079,"stimulus":"\n                    <p><b>Action: <em>harvest</em></b></p>\n                    <p>This is the bee that you just saw.</p>\n                    <img src=\"bees-with-color/bee-A2SF.svg\" width=\"200\">\n                    <p><span class=\"greenText\"><b>Successful harvest!</b></span><br>Your pay has increased by $0.02. Your bonus pay is now $0.60.</p>\n            ","response":0,"trial_type":"html-button-response","trial_index":14,"time_elapsed":542285,"internal_node_id":"0.0-4.0-1.3","subject_id":"61115b5393470e9dfd1a5f9a","study_id":"60edd13110225f80f9f3709b","session_id":"6196bf62b8e5c0f19acd8b8f","condition":"contingent","relevant_dimensions":["antennae","pattern"],"bee_group":{"antennae":"B","wings":"X","pattern":"S","legs":"X"},"bonus":1.320000000000001},{"rt":3112.100000023842,"stimulus":"bees-with-color/bee-B2SM.svg","response":0,"trial_type":"image-button-response","trial_index":15,"time_elapsed":545402,"internal_node_id":"0.0-4.0-0.4","subject_id":"61115b5393470e9dfd1a5f9a","study_id":"60edd13110225f80f9f3709b","session_id":"6196bf62b8e5c0f19acd8b8f","condition":"contingent","relevant_dimensions":["antennae","pattern"],"bee_group":{"antennae":"B","wings":"X","pattern":"S","legs":"X"},"action":"harvest","summary":"bad-harvest","bonus":1.320000000000001},{"rt":2542.399999976158,"stimulus":"\n                    <p><b>Action: <em>harvest</em></b></p>\n                    <p>This is the bee that you just saw.</p>\n                    <img src=\"bees-with-color/bee-B2SM.svg\" width=\"200\">\n                    <p><span class=\"redText\">Bad choice, the bee was angry.</span><br><b>You have been stung!</b><br>Your pay has been decreased by $0.10. Your bonus pay is now $0.50.</p>\n            ","response":0,"trial_type":"html-button-response","trial_index":16,"time_elapsed":547949,"internal_node_id":"0.0-4.0-1.4","subject_id":"61115b5393470e9dfd1a5f9a","study_id":"60edd13110225f80f9f3709b","session_id":"6196bf62b8e5c0f19acd8b8f","condition":"contingent","relevant_dimensions":["antennae","pattern"],"bee_group":{"antennae":"B","wings":"X","pattern":"S","legs":"X"},"bonus":1.320000000000001},{"rt":2885.5,"stimulus":"bees-with-color/bee-A2SM.svg","response":1,"trial_type":"image-button-response","trial_index":17,"time_elapsed":550839,"internal_node_id":"0.0-4.0-0.5","subject_id":"61115b5393470e9dfd1a5f9a","study_id":"60edd13110225f80f9f3709b","session_id":"6196bf62b8e5c0f19acd8b8f","condition":"contingent","relevant_dimensions":["antennae","pattern"],"bee_group":{"antennae":"B","wings":"X","pattern":"S","legs":"X"},"action":"avoid","summary":"bad-avoid","bonus":1.320000000000001},{"rt":796.5999999642372,"stimulus":"\n                    <p><b>Action: <em>avoid</em></b></p>\n                    <p>This is the bee that you just saw.</p>\n                    <img src=\"bees-with-color/bee-A2SM.svg\" width=\"200\">\n                    <p><br>Your bonus pay is unchanged, and remains at $0.50.</p>\n            ","response":0,"trial_type":"html-button-response","trial_index":18,"time_elapsed":551638,"internal_node_id":"0.0-4.0-1.5","subject_id":"61115b5393470e9dfd1a5f9a","study_id":"60edd13110225f80f9f3709b","session_id":"6196bf62b8e5c0f19acd8b8f","condition":"contingent","relevant_dimensions":["antennae","pattern"],"bee_group":{"antennae":"B","wings":"X","pattern":"S","legs":"X"},"bonus":1.320000000000001},{"rt":1533.800000011921,"stimulus":"bees-with-color/bee-B1DF.svg","response":0,"trial_type":"image-button-response","trial_index":19,"time_elapsed":553177,"internal_node_id":"0.0-4.0-0.6","subject_id":"61115b5393470e9dfd1a5f9a","study_id":"60edd13110225f80f9f3709b","session_id":"6196bf62b8e5c0f19acd8b8f","condition":"contingent","relevant_dimensions":["antennae","pattern"],"bee_group":{"antennae":"B","wings":"X","pattern":"S","legs":"X"},"action":"harvest","summary":"good-harvest","bonus":1.320000000000001},{"rt":874,"stimulus":"\n                    <p><b>Action: <em>harvest</em></b></p>\n                    <p>This is the bee that you just saw.</p>\n                    <img src=\"bees-with-color/bee-B1DF.svg\" width=\"200\">\n                    <p><span class=\"greenText\"><b>Successful harvest!</b></span><br>Your pay has increased by $0.02. Your bonus pay is now $0.52.</p>\n            ","response":0,"trial_type":"html-button-response","trial_index":20,"time_elapsed":554054,"internal_node_id":"0.0-4.0-1.6","subject_id":"61115b5393470e9dfd1a5f9a","study_id":"60edd13110225f80f9f3709b","session_id":"6196bf62b8e5c0f19acd8b8f","condition":"contingent","relevant_dimensions":["antennae","pattern"],"bee_group":{"antennae":"B","wings":"X","pattern":"S","legs":"X"},"bonus":1.320000000000001},{"rt":2319,"stimulus":"bees-with-color/bee-B1SM.svg","response":1,"trial_type":"image-button-response","trial_index":21,"time_elapsed":556377,"internal_node_id":"0.0-4.0-0.7","subject_id":"61115b5393470e9dfd1a5f9a","study_id":"60edd13110225f80f9f3709b","session_id":"6196bf62b8e5c0f19acd8b8f","condition":"contingent","relevant_dimensions":["antennae","pattern"],"bee_group":{"antennae":"B","wings":"X","pattern":"S","legs":"X"},"action":"avoid","summary":"good-avoid","bonus":1.320000000000001},{"rt":610.6999999880791,"stimulus":"\n                    <p><b>Action: <em>avoid</em></b></p>\n                    <p>This is the bee that you just saw.</p>\n                    <img src=\"bees-with-color/bee-B1SM.svg\" width=\"200\">\n                    <p><br>Your bonus pay is unchanged, and remains at $0.52.</p>\n            ","response":0,"trial_type":"html-button-response","trial_index":22,"time_elapsed":556990,"internal_node_id":"0.0-4.0-1.7","subject_id":"61115b5393470e9dfd1a5f9a","study_id":"60edd13110225f80f9f3709b","session_id":"6196bf62b8e5c0f19acd8b8f","condition":"contingent","relevant_dimensions":["antennae","pattern"],"bee_group":{"antennae":"B","wings":"X","pattern":"S","legs":"X"},"bonus":1.320000000000001},{"rt":3784.699999988079,"stimulus":"bees-with-color/bee-B1SF.svg","response":0,"trial_type":"image-button-response","trial_index":23,"time_elapsed":560780,"internal_node_id":"0.0-4.0-0.8","subject_id":"61115b5393470e9dfd1a5f9a","study_id":"60edd13110225f80f9f3709b","session_id":"6196bf62b8e5c0f19acd8b8f","condition":"contingent","relevant_dimensions":["antennae","pattern"],"bee_group":{"antennae":"B","wings":"X","pattern":"S","legs":"X"},"action":"harvest","summary":"bad-harvest","bonus":1.320000000000001},{"rt":882,"stimulus":"\n                    <p><b>Action: <em>harvest</em></b></p>\n                    <p>This is the bee that you just saw.</p>\n                    <img src=\"bees-with-color/bee-B1SF.svg\" width=\"200\">\n                    <p><span class=\"redText\">Bad choice, the bee was angry.</span><br><b>You have been stung!</b><br>Your pay has been decreased by $0.10. Your bonus pay is now $0.42.</p>\n            ","response":0,"trial_type":"html-button-response","trial_index":24,"time_elapsed":561667,"internal_node_id":"0.0-4.0-1.8","subject_id":"61115b5393470e9dfd1a5f9a","study_id":"60edd13110225f80f9f3709b","session_id":"6196bf62b8e5c0f19acd8b8f","condition":"contingent","relevant_dimensions":["antennae","pattern"],"bee_group":{"antennae":"B","wings":"X","pattern":"S","legs":"X"},"bonus":1.320000000000001},{"rt":1353.699999988079,"stimulus":"bees-with-color/bee-A1DM.svg","response":0,"trial_type":"image-button-response","trial_index":25,"time_elapsed":563025,"internal_node_id":"0.0-4.0-0.9","subject_id":"61115b5393470e9dfd1a5f9a","study_id":"60edd13110225f80f9f3709b","session_id":"6196bf62b8e5c0f19acd8b8f","condition":"contingent","relevant_dimensions":["antennae","pattern"],"bee_group":{"antennae":"B","wings":"X","pattern":"S","legs":"X"},"action":"harvest","summary":"good-harvest","bonus":1.320000000000001},{"rt":781.1000000238419,"stimulus":"\n                    <p><b>Action: <em>harvest</em></b></p>\n                    <p>This is the bee that you just saw.</p>\n                    <img src=\"bees-with-color/bee-A1DM.svg\" width=\"200\">\n                    <p><span class=\"greenText\"><b>Successful harvest!</b></span><br>Your pay has increased by $0.02. Your bonus pay is now $0.44.</p>\n            ","response":0,"trial_type":"html-button-response","trial_index":26,"time_elapsed":563810,"internal_node_id":"0.0-4.0-1.9","subject_id":"61115b5393470e9dfd1a5f9a","study_id":"60edd13110225f80f9f3709b","session_id":"6196bf62b8e5c0f19acd8b8f","condition":"contingent","relevant_dimensions":["antennae","pattern"],"bee_group":{"antennae":"B","wings":"X","pattern":"S","legs":"X"},"bonus":1.320000000000001},{"rt":1426.699999988079,"stimulus":"bees-with-color/bee-B1DM.svg","response":0,"trial_type":"image-button-response","trial_index":27,"time_elapsed":565239,"internal_node_id":"0.0-4.0-0.10","subject_id":"61115b5393470e9dfd1a5f9a","study_id":"60edd13110225f80f9f3709b","session_id":"6196bf62b8e5c0f19acd8b8f","condition":"contingent","relevant_dimensions":["antennae","pattern"],"bee_group":{"antennae":"B","wings":"X","pattern":"S","legs":"X"},"action":"harvest","summary":"good-harvest","bonus":1.320000000000001},{"rt":625.5,"stimulus":"\n                    <p><b>Action: <em>harvest</em></b></p>\n                    <p>This is the bee that you just saw.</p>\n                    <img src=\"bees-with-color/bee-B1DM.svg\" width=\"200\">\n                    <p><span class=\"greenText\"><b>Successful harvest!</b></span><br>Your pay has increased by $0.02. Your bonus pay is now $0.46.</p>\n            ","response":0,"trial_type":"html-button-response","trial_index":28,"time_elapsed":565868,"internal_node_id":"0.0-4.0-1.10","subject_id":"61115b5393470e9dfd1a5f9a","study_id":"60edd13110225f80f9f3709b","session_id":"6196bf62b8e5c0f19acd8b8f","condition":"contingent","relevant_dimensions":["antennae","pattern"],"bee_group":{"antennae":"B","wings":"X","pattern":"S","legs":"X"},"bonus":1.320000000000001},{"rt":1417.300000011921,"stimulus":"bees-with-color/bee-B2SF.svg","response":1,"trial_type":"image-button-response","trial_index":29,"time_elapsed":567288,"internal_node_id":"0.0-4.0-0.11","subject_id":"61115b5393470e9dfd1a5f9a","study_id":"60edd13110225f80f9f3709b","session_id":"6196bf62b8e5c0f19acd8b8f","condition":"contingent","relevant_dimensions":["antennae","pattern"],"bee_group":{"antennae":"B","wings":"X","pattern":"S","legs":"X"},"action":"avoid","summary":"good-avoid","bonus":1.320000000000001},{"rt":976.3000000119209,"stimulus":"\n                    <p><b>Action: <em>avoid</em></b></p>\n                    <p>This is the bee that you just saw.</p>\n                    <img src=\"bees-with-color/bee-B2SF.svg\" width=\"200\">\n                    <p><br>Your bonus pay is unchanged, and remains at $0.46.</p>\n            ","response":0,"trial_type":"html-button-response","trial_index":30,"time_elapsed":568267,"internal_node_id":"0.0-4.0-1.11","subject_id":"61115b5393470e9dfd1a5f9a","study_id":"60edd13110225f80f9f3709b","session_id":"6196bf62b8e5c0f19acd8b8f","condition":"contingent","relevant_dimensions":["antennae","pattern"],"bee_group":{"antennae":"B","wings":"X","pattern":"S","legs":"X"},"bonus":1.320000000000001},{"rt":734.6999999880791,"stimulus":"bees-with-color/bee-A2DF.svg","response":0,"trial_type":"image-button-response","trial_index":31,"time_elapsed":569005,"internal_node_id":"0.0-4.0-0.12","subject_id":"61115b5393470e9dfd1a5f9a","study_id":"60edd13110225f80f9f3709b","session_id":"6196bf62b8e5c0f19acd8b8f","condition":"contingent","relevant_dimensions":["antennae","pattern"],"bee_group":{"antennae":"B","wings":"X","pattern":"S","legs":"X"},"action":"harvest","summary":"good-harvest","bonus":1.320000000000001},{"rt":640.3999999761581,"stimulus":"\n                    <p><b>Action: <em>harvest</em></b></p>\n                    <p>This is the bee that you just saw.</p>\n                    <img src=\"bees-with-color/bee-A2DF.svg\" width=\"200\">\n                    <p><span class=\"greenText\"><b>Successful harvest!</b></span><br>Your pay has increased by $0.02. Your bonus pay is now $0.48.</p>\n            ","response":0,"trial_type":"html-button-response","trial_index":32,"time_elapsed":569650,"internal_node_id":"0.0-4.0-1.12","subject_id":"61115b5393470e9dfd1a5f9a","study_id":"60edd13110225f80f9f3709b","session_id":"6196bf62b8e5c0f19acd8b8f","condition":"contingent","relevant_dimensions":["antennae","pattern"],"bee_group":{"antennae":"B","wings":"X","pattern":"S","legs":"X"},"bonus":1.320000000000001},{"rt":944.3999999761581,"stimulus":"bees-with-color/bee-A2DM.svg","response":0,"trial_type":"image-button-response","trial_index":33,"time_elapsed":570597,"internal_node_id":"0.0-4.0-0.13","subject_id":"61115b5393470e9dfd1a5f9a","study_id":"60edd13110225f80f9f3709b","session_id":"6196bf62b8e5c0f19acd8b8f","condition":"contingent","relevant_dimensions":["antennae","pattern"],"bee_group":{"antennae":"B","wings":"X","pattern":"S","legs":"X"},"action":"harvest","summary":"good-harvest","bonus":1.320000000000001},{"rt":602.1000000238419,"stimulus":"\n                    <p><b>Action: <em>harvest</em></b></p>\n                    <p>This is the bee that you just saw.</p>\n                    <img src=\"bees-with-color/bee-A2DM.svg\" width=\"200\">\n                    <p><span class=\"greenText\"><b>Successful harvest!</b></span><br>Your pay has increased by $0.02. Your bonus pay is now $0.50.</p>\n            ","response":0,"trial_type":"html-button-response","trial_index":34,"time_elapsed":571203,"internal_node_id":"0.0-4.0-1.13","subject_id":"61115b5393470e9dfd1a5f9a","study_id":"60edd13110225f80f9f3709b","session_id":"6196bf62b8e5c0f19acd8b8f","condition":"contingent","relevant_dimensions":["antennae","pattern"],"bee_group":{"antennae":"B","wings":"X","pattern":"S","legs":"X"},"bonus":1.320000000000001},{"rt":888.0999999642372,"stimulus":"bees-with-color/bee-B2DF.svg","response":0,"trial_type":"image-button-response","trial_index":35,"time_elapsed":572095,"internal_node_id":"0.0-4.0-0.14","subject_id":"61115b5393470e9dfd1a5f9a","study_id":"60edd13110225f80f9f3709b","session_id":"6196bf62b8e5c0f19acd8b8f","condition":"contingent","relevant_dimensions":["antennae","pattern"],"bee_group":{"antennae":"B","wings":"X","pattern":"S","legs":"X"},"action":"harvest","summary":"good-harvest","bonus":1.320000000000001},{"rt":587.3999999761581,"stimulus":"\n                    <p><b>Action: <em>harvest</em></b></p>\n                    <p>This is the bee that you just saw.</p>\n                    <img src=\"bees-with-color/bee-B2DF.svg\" width=\"200\">\n                    <p><span class=\"greenText\"><b>Successful harvest!</b></span><br>Your pay has increased by $0.02. Your bonus pay is now $0.52.</p>\n            ","response":0,"trial_type":"html-button-response","trial_index":36,"time_elapsed":572686,"internal_node_id":"0.0-4.0-1.14","subject_id":"61115b5393470e9dfd1a5f9a","study_id":"60edd13110225f80f9f3709b","session_id":"6196bf62b8e5c0f19acd8b8f","condition":"contingent","relevant_dimensions":["antennae","pattern"],"bee_group":{"antennae":"B","wings":"X","pattern":"S","legs":"X"},"bonus":1.320000000000001},{"rt":1061.300000011921,"stimulus":"bees-with-color/bee-A1SF.svg","response":1,"trial_type":"image-button-response","trial_index":37,"time_elapsed":573750,"internal_node_id":"0.0-4.0-0.15","subject_id":"61115b5393470e9dfd1a5f9a","study_id":"60edd13110225f80f9f3709b","session_id":"6196bf62b8e5c0f19acd8b8f","condition":"contingent","relevant_dimensions":["antennae","pattern"],"bee_group":{"antennae":"B","wings":"X","pattern":"S","legs":"X"},"action":"avoid","summary":"bad-avoid","bonus":1.320000000000001},{"rt":640.3999999761581,"stimulus":"\n                    <p><b>Action: <em>avoid</em></b></p>\n                    <p>This is the bee that you just saw.</p>\n                    <img src=\"bees-with-color/bee-A1SF.svg\" width=\"200\">\n                    <p><br>Your bonus pay is unchanged, and remains at $0.52.</p>\n            ","response":0,"trial_type":"html-button-response","trial_index":38,"time_elapsed":574394,"internal_node_id":"0.0-4.0-1.15","subject_id":"61115b5393470e9dfd1a5f9a","study_id":"60edd13110225f80f9f3709b","session_id":"6196bf62b8e5c0f19acd8b8f","condition":"contingent","relevant_dimensions":["antennae","pattern"],"bee_group":{"antennae":"B","wings":"X","pattern":"S","legs":"X"},"bonus":1.320000000000001},{"rt":1031.4000000357628,"stimulus":"bees-with-color/bee-A1DF.svg","response":0,"trial_type":"image-button-response","trial_index":39,"time_elapsed":575429,"internal_node_id":"0.0-4.0-0.16","subject_id":"61115b5393470e9dfd1a5f9a","study_id":"60edd13110225f80f9f3709b","session_id":"6196bf62b8e5c0f19acd8b8f","condition":"contingent","relevant_dimensions":["antennae","pattern"],"bee_group":{"antennae":"B","wings":"X","pattern":"S","legs":"X"},"action":"harvest","summary":"good-harvest","bonus":1.320000000000001},{"rt":624.5,"stimulus":"\n                    <p><b>Action: <em>harvest</em></b></p>\n                    <p>This is the bee that you just saw.</p>\n                    <img src=\"bees-with-color/bee-A1DF.svg\" width=\"200\">\n                    <p><span class=\"greenText\"><b>Successful harvest!</b></span><br>Your pay has increased by $0.02. Your bonus pay is now $0.54.</p>\n            ","response":0,"trial_type":"html-button-response","trial_index":40,"time_elapsed":576057,"internal_node_id":"0.0-4.0-1.16","subject_id":"61115b5393470e9dfd1a5f9a","study_id":"60edd13110225f80f9f3709b","session_id":"6196bf62b8e5c0f19acd8b8f","condition":"contingent","relevant_dimensions":["antennae","pattern"],"bee_group":{"antennae":"B","wings":"X","pattern":"S","legs":"X"},"bonus":1.320000000000001},{"rt":1091.6000000238419,"stimulus":"bees-with-color/bee-A1SF.svg","response":1,"trial_type":"image-button-response","trial_index":41,"time_elapsed":577153,"internal_node_id":"0.0-4.0-0.17","subject_id":"61115b5393470e9dfd1a5f9a","study_id":"60edd13110225f80f9f3709b","session_id":"6196bf62b8e5c0f19acd8b8f","condition":"contingent","relevant_dimensions":["antennae","pattern"],"bee_group":{"antennae":"B","wings":"X","pattern":"S","legs":"X"},"action":"avoid","summary":"bad-avoid","bonus":1.320000000000001},{"rt":646.6999999880791,"stimulus":"\n                    <p><b>Action: <em>avoid</em></b></p>\n                    <p>This is the bee that you just saw.</p>\n                    <img src=\"bees-with-color/bee-A1SF.svg\" width=\"200\">\n                    <p><br>Your bonus pay is unchanged, and remains at $0.54.</p>\n            ","response":0,"trial_type":"html-button-response","trial_index":42,"time_elapsed":577804,"internal_node_id":"0.0-4.0-1.17","subject_id":"61115b5393470e9dfd1a5f9a","study_id":"60edd13110225f80f9f3709b","session_id":"6196bf62b8e5c0f19acd8b8f","condition":"contingent","relevant_dimensions":["antennae","pattern"],"bee_group":{"antennae":"B","wings":"X","pattern":"S","legs":"X"},"bonus":1.320000000000001},{"rt":1892.199999988079,"stimulus":"bees-with-color/bee-A1SM.svg","response":1,"trial_type":"image-button-response","trial_index":43,"time_elapsed":579701,"internal_node_id":"0.0-4.0-0.18","subject_id":"61115b5393470e9dfd1a5f9a","study_id":"60edd13110225f80f9f3709b","session_id":"6196bf62b8e5c0f19acd8b8f","condition":"contingent","relevant_dimensions":["antennae","pattern"],"bee_group":{"antennae":"B","wings":"X","pattern":"S","legs":"X"},"action":"avoid","summary":"bad-avoid","bonus":1.320000000000001},{"rt":592.1999999880791,"stimulus":"\n                    <p><b>Action: <em>avoid</em></b></p>\n                    <p>This is the bee that you just saw.</p>\n                    <img src=\"bees-with-color/bee-A1SM.svg\" width=\"200\">\n                    <p><br>Your bonus pay is unchanged, and remains at $0.54.</p>\n            ","response":0,"trial_type":"html-button-response","trial_index":44,"time_elapsed":580297,"internal_node_id":"0.0-4.0-1.18","subject_id":"61115b5393470e9dfd1a5f9a","study_id":"60edd13110225f80f9f3709b","session_id":"6196bf62b8e5c0f19acd8b8f","condition":"contingent","relevant_dimensions":["antennae","pattern"],"bee_group":{"antennae":"B","wings":"X","pattern":"S","legs":"X"},"bonus":1.320000000000001},{"rt":1340.300000011921,"stimulus":"bees-with-color/bee-B2SF.svg","response":1,"trial_type":"image-button-response","trial_index":45,"time_elapsed":581641,"internal_node_id":"0.0-4.0-0.19","subject_id":"61115b5393470e9dfd1a5f9a","study_id":"60edd13110225f80f9f3709b","session_id":"6196bf62b8e5c0f19acd8b8f","condition":"contingent","relevant_dimensions":["antennae","pattern"],"bee_group":{"antennae":"B","wings":"X","pattern":"S","legs":"X"},"action":"avoid","summary":"good-avoid","bonus":1.320000000000001},{"rt":632.9000000357628,"stimulus":"\n                    <p><b>Action: <em>avoid</em></b></p>\n                    <p>This is the bee that you just saw.</p>\n                    <img src=\"bees-with-color/bee-B2SF.svg\" width=\"200\">\n                    <p><br>Your bonus pay is unchanged, and remains at $0.54.</p>\n            ","response":0,"trial_type":"html-button-response","trial_index":46,"time_elapsed":582277,"internal_node_id":"0.0-4.0-1.19","subject_id":"61115b5393470e9dfd1a5f9a","study_id":"60edd13110225f80f9f3709b","session_id":"6196bf62b8e5c0f19acd8b8f","condition":"contingent","relevant_dimensions":["antennae","pattern"],"bee_group":{"antennae":"B","wings":"X","pattern":"S","legs":"X"},"bonus":1.320000000000001},{"rt":796.1999999880791,"stimulus":"bees-with-color/bee-A2DM.svg","response":0,"trial_type":"image-button-response","trial_index":47,"time_elapsed":583077,"internal_node_id":"0.0-4.0-0.20","subject_id":"61115b5393470e9dfd1a5f9a","study_id":"60edd13110225f80f9f3709b","session_id":"6196bf62b8e5c0f19acd8b8f","condition":"contingent","relevant_dimensions":["antennae","pattern"],"bee_group":{"antennae":"B","wings":"X","pattern":"S","legs":"X"},"action":"harvest","summary":"good-harvest","bonus":1.320000000000001},{"rt":687.6000000238419,"stimulus":"\n                    <p><b>Action: <em>harvest</em></b></p>\n                    <p>This is the bee that you just saw.</p>\n                    <img src=\"bees-with-color/bee-A2DM.svg\" width=\"200\">\n                    <p><span class=\"greenText\"><b>Successful harvest!</b></span><br>Your pay has increased by $0.02. Your bonus pay is now $0.56.</p>\n            ","response":0,"trial_type":"html-button-response","trial_index":48,"time_elapsed":583769,"internal_node_id":"0.0-4.0-1.20","subject_id":"61115b5393470e9dfd1a5f9a","study_id":"60edd13110225f80f9f3709b","session_id":"6196bf62b8e5c0f19acd8b8f","condition":"contingent","relevant_dimensions":["antennae","pattern"],"bee_group":{"antennae":"B","wings":"X","pattern":"S","legs":"X"},"bonus":1.320000000000001},{"rt":944.8000000119209,"stimulus":"bees-with-color/bee-B2SM.svg","response":1,"trial_type":"image-button-response","trial_index":49,"time_elapsed":584716,"internal_node_id":"0.0-4.0-0.21","subject_id":"61115b5393470e9dfd1a5f9a","study_id":"60edd13110225f80f9f3709b","session_id":"6196bf62b8e5c0f19acd8b8f","condition":"contingent","relevant_dimensions":["antennae","pattern"],"bee_group":{"antennae":"B","wings":"X","pattern":"S","legs":"X"},"action":"avoid","summary":"good-avoid","bonus":1.320000000000001},{"rt":1495.699999988079,"stimulus":"\n                    <p><b>Action: <em>avoid</em></b></p>\n                    <p>This is the bee that you just saw.</p>\n                    <img src=\"bees-with-color/bee-B2SM.svg\" width=\"200\">\n                    <p><br>Your bonus pay is unchanged, and remains at $0.56.</p>\n            ","response":0,"trial_type":"html-button-response","trial_index":50,"time_elapsed":586215,"internal_node_id":"0.0-4.0-1.21","subject_id":"61115b5393470e9dfd1a5f9a","study_id":"60edd13110225f80f9f3709b","session_id":"6196bf62b8e5c0f19acd8b8f","condition":"contingent","relevant_dimensions":["antennae","pattern"],"bee_group":{"antennae":"B","wings":"X","pattern":"S","legs":"X"},"bonus":1.320000000000001},{"rt":2234.5,"stimulus":"bees-with-color/bee-A2SM.svg","response":1,"trial_type":"image-button-response","trial_index":51,"time_elapsed":588452,"internal_node_id":"0.0-4.0-0.22","subject_id":"61115b5393470e9dfd1a5f9a","study_id":"60edd13110225f80f9f3709b","session_id":"6196bf62b8e5c0f19acd8b8f","condition":"contingent","relevant_dimensions":["antennae","pattern"],"bee_group":{"antennae":"B","wings":"X","pattern":"S","legs":"X"},"action":"avoid","summary":"bad-avoid","bonus":1.320000000000001},{"rt":913.5999999642372,"stimulus":"\n                    <p><b>Action: <em>avoid</em></b></p>\n                    <p>This is the bee that you just saw.</p>\n                    <img src=\"bees-with-color/bee-A2SM.svg\" width=\"200\">\n                    <p><br>Your bonus pay is unchanged, and remains at $0.56.</p>\n            ","response":0,"trial_type":"html-button-response","trial_index":52,"time_elapsed":589369,"internal_node_id":"0.0-4.0-1.22","subject_id":"61115b5393470e9dfd1a5f9a","study_id":"60edd13110225f80f9f3709b","session_id":"6196bf62b8e5c0f19acd8b8f","condition":"contingent","relevant_dimensions":["antennae","pattern"],"bee_group":{"antennae":"B","wings":"X","pattern":"S","legs":"X"},"bonus":1.320000000000001},{"rt":1108.5,"stimulus":"bees-with-color/bee-B1DF.svg","response":0,"trial_type":"image-button-response","trial_index":53,"time_elapsed":590480,"internal_node_id":"0.0-4.0-0.23","subject_id":"61115b5393470e9dfd1a5f9a","study_id":"60edd13110225f80f9f3709b","session_id":"6196bf62b8e5c0f19acd8b8f","condition":"contingent","relevant_dimensions":["antennae","pattern"],"bee_group":{"antennae":"B","wings":"X","pattern":"S","legs":"X"},"action":"harvest","summary":"good-harvest","bonus":1.320000000000001},{"rt":578.3999999761581,"stimulus":"\n                    <p><b>Action: <em>harvest</em></b></p>\n                    <p>This is the bee that you just saw.</p>\n                    <img src=\"bees-with-color/bee-B1DF.svg\" width=\"200\">\n                    <p><span class=\"greenText\"><b>Successful harvest!</b></span><br>Your pay has increased by $0.02. Your bonus pay is now $0.58.</p>\n            ","response":0,"trial_type":"html-button-response","trial_index":54,"time_elapsed":591062,"internal_node_id":"0.0-4.0-1.23","subject_id":"61115b5393470e9dfd1a5f9a","study_id":"60edd13110225f80f9f3709b","session_id":"6196bf62b8e5c0f19acd8b8f","condition":"contingent","relevant_dimensions":["antennae","pattern"],"bee_group":{"antennae":"B","wings":"X","pattern":"S","legs":"X"},"bonus":1.320000000000001},{"rt":921.5,"stimulus":"bees-with-color/bee-B1SM.svg","response":1,"trial_type":"image-button-response","trial_index":55,"time_elapsed":591986,"internal_node_id":"0.0-4.0-0.24","subject_id":"61115b5393470e9dfd1a5f9a","study_id":"60edd13110225f80f9f3709b","session_id":"6196bf62b8e5c0f19acd8b8f","condition":"contingent","relevant_dimensions":["antennae","pattern"],"bee_group":{"antennae":"B","wings":"X","pattern":"S","legs":"X"},"action":"avoid","summary":"good-avoid","bonus":1.320000000000001},{"rt":555.5,"stimulus":"\n                    <p><b>Action: <em>avoid</em></b></p>\n                    <p>This is the bee that you just saw.</p>\n                    <img src=\"bees-with-color/bee-B1SM.svg\" width=\"200\">\n                    <p><br>Your bonus pay is unchanged, and remains at $0.58.</p>\n            ","response":0,"trial_type":"html-button-response","trial_index":56,"time_elapsed":592546,"internal_node_id":"0.0-4.0-1.24","subject_id":"61115b5393470e9dfd1a5f9a","study_id":"60edd13110225f80f9f3709b","session_id":"6196bf62b8e5c0f19acd8b8f","condition":"contingent","relevant_dimensions":["antennae","pattern"],"bee_group":{"antennae":"B","wings":"X","pattern":"S","legs":"X"},"bonus":1.320000000000001},{"rt":733.8999999761581,"stimulus":"bees-with-color/bee-A1DM.svg","response":0,"trial_type":"image-button-response","trial_index":57,"time_elapsed":593283,"internal_node_id":"0.0-4.0-0.25","subject_id":"61115b5393470e9dfd1a5f9a","study_id":"60edd13110225f80f9f3709b","session_id":"6196bf62b8e5c0f19acd8b8f","condition":"contingent","relevant_dimensions":["antennae","pattern"],"bee_group":{"antennae":"B","wings":"X","pattern":"S","legs":"X"},"action":"harvest","summary":"good-harvest","bonus":1.320000000000001},{"rt":572,"stimulus":"\n                    <p><b>Action: <em>harvest</em></b></p>\n                    <p>This is the bee that you just saw.</p>\n                    <img src=\"bees-with-color/bee-A1DM.svg\" width=\"200\">\n                    <p><span class=\"greenText\"><b>Successful harvest!</b></span><br>Your pay has increased by $0.02. Your bonus pay is now $0.60.</p>\n            ","response":0,"trial_type":"html-button-response","trial_index":58,"time_elapsed":593858,"internal_node_id":"0.0-4.0-1.25","subject_id":"61115b5393470e9dfd1a5f9a","study_id":"60edd13110225f80f9f3709b","session_id":"6196bf62b8e5c0f19acd8b8f","condition":"contingent","relevant_dimensions":["antennae","pattern"],"bee_group":{"antennae":"B","wings":"X","pattern":"S","legs":"X"},"bonus":1.320000000000001},{"rt":905.8999999761581,"stimulus":"bees-with-color/bee-A2DF.svg","response":0,"trial_type":"image-button-response","trial_index":59,"time_elapsed":594767,"internal_node_id":"0.0-4.0-0.26","subject_id":"61115b5393470e9dfd1a5f9a","study_id":"60edd13110225f80f9f3709b","session_id":"6196bf62b8e5c0f19acd8b8f","condition":"contingent","relevant_dimensions":["antennae","pattern"],"bee_group":{"antennae":"B","wings":"X","pattern":"S","legs":"X"},"action":"harvest","summary":"good-harvest","bonus":1.320000000000001},{"rt":578.8999999761581,"stimulus":"\n                    <p><b>Action: <em>harvest</em></b></p>\n                    <p>This is the bee that you just saw.</p>\n                    <img src=\"bees-with-color/bee-A2DF.svg\" width=\"200\">\n                    <p><span class=\"greenText\"><b>Successful harvest!</b></span><br>Your pay has increased by $0.02. Your bonus pay is now $0.62.</p>\n            ","response":0,"trial_type":"html-button-response","trial_index":60,"time_elapsed":595350,"internal_node_id":"0.0-4.0-1.26","subject_id":"61115b5393470e9dfd1a5f9a","study_id":"60edd13110225f80f9f3709b","session_id":"6196bf62b8e5c0f19acd8b8f","condition":"contingent","relevant_dimensions":["antennae","pattern"],"bee_group":{"antennae":"B","wings":"X","pattern":"S","legs":"X"},"bonus":1.320000000000001},{"rt":655,"stimulus":"bees-with-color/bee-B1DM.svg","response":0,"trial_type":"image-button-response","trial_index":61,"time_elapsed":596009,"internal_node_id":"0.0-4.0-0.27","subject_id":"61115b5393470e9dfd1a5f9a","study_id":"60edd13110225f80f9f3709b","session_id":"6196bf62b8e5c0f19acd8b8f","condition":"contingent","relevant_dimensions":["antennae","pattern"],"bee_group":{"antennae":"B","wings":"X","pattern":"S","legs":"X"},"action":"harvest","summary":"good-harvest","bonus":1.320000000000001},{"rt":578.6000000238419,"stimulus":"\n                    <p><b>Action: <em>harvest</em></b></p>\n                    <p>This is the bee that you just saw.</p>\n                    <img src=\"bees-with-color/bee-B1DM.svg\" width=\"200\">\n                    <p><span class=\"greenText\"><b>Successful harvest!</b></span><br>Your pay has increased by $0.02. Your bonus pay is now $0.64.</p>\n            ","response":0,"trial_type":"html-button-response","trial_index":62,"time_elapsed":596591,"internal_node_id":"0.0-4.0-1.27","subject_id":"61115b5393470e9dfd1a5f9a","study_id":"60edd13110225f80f9f3709b","session_id":"6196bf62b8e5c0f19acd8b8f","condition":"contingent","relevant_dimensions":["antennae","pattern"],"bee_group":{"antennae":"B","wings":"X","pattern":"S","legs":"X"},"bonus":1.320000000000001},{"rt":921.8000000119209,"stimulus":"bees-with-color/bee-B2DF.svg","response":0,"trial_type":"image-button-response","trial_index":63,"time_elapsed":597516,"internal_node_id":"0.0-4.0-0.28","subject_id":"61115b5393470e9dfd1a5f9a","study_id":"60edd13110225f80f9f3709b","session_id":"6196bf62b8e5c0f19acd8b8f","condition":"contingent","relevant_dimensions":["antennae","pattern"],"bee_group":{"antennae":"B","wings":"X","pattern":"S","legs":"X"},"action":"harvest","summary":"good-harvest","bonus":1.320000000000001},{"rt":609.6000000238419,"stimulus":"\n                    <p><b>Action: <em>harvest</em></b></p>\n                    <p>This is the bee that you just saw.</p>\n                    <img src=\"bees-with-color/bee-B2DF.svg\" width=\"200\">\n                    <p><span class=\"greenText\"><b>Successful harvest!</b></span><br>Your pay has increased by $0.02. Your bonus pay is now $0.66.</p>\n            ","response":0,"trial_type":"html-button-response","trial_index":64,"time_elapsed":598129,"internal_node_id":"0.0-4.0-1.28","subject_id":"61115b5393470e9dfd1a5f9a","study_id":"60edd13110225f80f9f3709b","session_id":"6196bf62b8e5c0f19acd8b8f","condition":"contingent","relevant_dimensions":["antennae","pattern"],"bee_group":{"antennae":"B","wings":"X","pattern":"S","legs":"X"},"bonus":1.320000000000001},{"rt":982.8000000119209,"stimulus":"bees-with-color/bee-B1SF.svg","response":1,"trial_type":"image-button-response","trial_index":65,"time_elapsed":599116,"internal_node_id":"0.0-4.0-0.29","subject_id":"61115b5393470e9dfd1a5f9a","study_id":"60edd13110225f80f9f3709b","session_id":"6196bf62b8e5c0f19acd8b8f","condition":"contingent","relevant_dimensions":["antennae","pattern"],"bee_group":{"antennae":"B","wings":"X","pattern":"S","legs":"X"},"action":"avoid","summary":"good-avoid","bonus":1.320000000000001},{"rt":934.8999999761581,"stimulus":"\n                    <p><b>Action: <em>avoid</em></b></p>\n                    <p>This is the bee that you just saw.</p>\n                    <img src=\"bees-with-color/bee-B1SF.svg\" width=\"200\">\n                    <p><br>Your bonus pay is unchanged, and remains at $0.66.</p>\n            ","response":0,"trial_type":"html-button-response","trial_index":66,"time_elapsed":600054,"internal_node_id":"0.0-4.0-1.29","subject_id":"61115b5393470e9dfd1a5f9a","study_id":"60edd13110225f80f9f3709b","session_id":"6196bf62b8e5c0f19acd8b8f","condition":"contingent","relevant_dimensions":["antennae","pattern"],"bee_group":{"antennae":"B","wings":"X","pattern":"S","legs":"X"},"bonus":1.320000000000001},{"rt":698.1000000238419,"stimulus":"bees-with-color/bee-B2DM.svg","response":0,"trial_type":"image-button-response","trial_index":67,"time_elapsed":600754,"internal_node_id":"0.0-4.0-0.30","subject_id":"61115b5393470e9dfd1a5f9a","study_id":"60edd13110225f80f9f3709b","session_id":"6196bf62b8e5c0f19acd8b8f","condition":"contingent","relevant_dimensions":["antennae","pattern"],"bee_group":{"antennae":"B","wings":"X","pattern":"S","legs":"X"},"action":"harvest","summary":"good-harvest","bonus":1.320000000000001},{"rt":772.3999999761581,"stimulus":"\n                    <p><b>Action: <em>harvest</em></b></p>\n                    <p>This is the bee that you just saw.</p>\n                    <img src=\"bees-with-color/bee-B2DM.svg\" width=\"200\">\n                    <p><span class=\"greenText\"><b>Successful harvest!</b></span><br>Your pay has increased by $0.02. Your bonus pay is now $0.68.</p>\n            ","response":0,"trial_type":"html-button-response","trial_index":68,"time_elapsed":601530,"internal_node_id":"0.0-4.0-1.30","subject_id":"61115b5393470e9dfd1a5f9a","study_id":"60edd13110225f80f9f3709b","session_id":"6196bf62b8e5c0f19acd8b8f","condition":"contingent","relevant_dimensions":["antennae","pattern"],"bee_group":{"antennae":"B","wings":"X","pattern":"S","legs":"X"},"bonus":1.320000000000001},{"rt":2133,"stimulus":"bees-with-color/bee-A2SF.svg","response":1,"trial_type":"image-button-response","trial_index":69,"time_elapsed":603667,"internal_node_id":"0.0-4.0-0.31","subject_id":"61115b5393470e9dfd1a5f9a","study_id":"60edd13110225f80f9f3709b","session_id":"6196bf62b8e5c0f19acd8b8f","condition":"contingent","relevant_dimensions":["antennae","pattern"],"bee_group":{"antennae":"B","wings":"X","pattern":"S","legs":"X"},"action":"avoid","summary":"bad-avoid","bonus":1.320000000000001},{"rt":959.1000000238419,"stimulus":"\n                    <p><b>Action: <em>avoid</em></b></p>\n                    <p>This is the bee that you just saw.</p>\n                    <img src=\"bees-with-color/bee-A2SF.svg\" width=\"200\">\n                    <p><br>Your bonus pay is unchanged, and remains at $0.68.</p>\n            ","response":0,"trial_type":"html-button-response","trial_index":70,"time_elapsed":604629,"internal_node_id":"0.0-4.0-1.31","subject_id":"61115b5393470e9dfd1a5f9a","study_id":"60edd13110225f80f9f3709b","session_id":"6196bf62b8e5c0f19acd8b8f","condition":"contingent","relevant_dimensions":["antennae","pattern"],"bee_group":{"antennae":"B","wings":"X","pattern":"S","legs":"X"},"bonus":1.320000000000001},{"rt":820.5,"stimulus":"bees-with-color/bee-B2DF.svg","response":0,"trial_type":"image-button-response","trial_index":71,"time_elapsed":605453,"internal_node_id":"0.0-4.0-0.32","subject_id":"61115b5393470e9dfd1a5f9a","study_id":"60edd13110225f80f9f3709b","session_id":"6196bf62b8e5c0f19acd8b8f","condition":"contingent","relevant_dimensions":["antennae","pattern"],"bee_group":{"antennae":"B","wings":"X","pattern":"S","legs":"X"},"action":"harvest","summary":"good-harvest","bonus":1.320000000000001},{"rt":656.6999999880791,"stimulus":"\n                    <p><b>Action: <em>harvest</em></b></p>\n                    <p>This is the bee that you just saw.</p>\n                    <img src=\"bees-with-color/bee-B2DF.svg\" width=\"200\">\n                    <p><span class=\"greenText\"><b>Successful harvest!</b></span><br>Your pay has increased by $0.02. Your bonus pay is now $0.70.</p>\n            ","response":0,"trial_type":"html-button-response","trial_index":72,"time_elapsed":606113,"internal_node_id":"0.0-4.0-1.32","subject_id":"61115b5393470e9dfd1a5f9a","study_id":"60edd13110225f80f9f3709b","session_id":"6196bf62b8e5c0f19acd8b8f","condition":"contingent","relevant_dimensions":["antennae","pattern"],"bee_group":{"antennae":"B","wings":"X","pattern":"S","legs":"X"},"bonus":1.320000000000001},{"rt":812.1999999880791,"stimulus":"bees-with-color/bee-A1DM.svg","response":0,"trial_type":"image-button-response","trial_index":73,"time_elapsed":606929,"internal_node_id":"0.0-4.0-0.33","subject_id":"61115b5393470e9dfd1a5f9a","study_id":"60edd13110225f80f9f3709b","session_id":"6196bf62b8e5c0f19acd8b8f","condition":"contingent","relevant_dimensions":["antennae","pattern"],"bee_group":{"antennae":"B","wings":"X","pattern":"S","legs":"X"},"action":"harvest","summary":"good-harvest","bonus":1.320000000000001},{"rt":601.6000000238419,"stimulus":"\n                    <p><b>Action: <em>harvest</em></b></p>\n                    <p>This is the bee that you just saw.</p>\n                    <img src=\"bees-with-color/bee-A1DM.svg\" width=\"200\">\n                    <p><span class=\"greenText\"><b>Successful harvest!</b></span><br>Your pay has increased by $0.02. Your bonus pay is now $0.72.</p>\n            ","response":0,"trial_type":"html-button-response","trial_index":74,"time_elapsed":607534,"internal_node_id":"0.0-4.0-1.33","subject_id":"61115b5393470e9dfd1a5f9a","study_id":"60edd13110225f80f9f3709b","session_id":"6196bf62b8e5c0f19acd8b8f","condition":"contingent","relevant_dimensions":["antennae","pattern"],"bee_group":{"antennae":"B","wings":"X","pattern":"S","legs":"X"},"bonus":1.320000000000001},{"rt":1038.5,"stimulus":"bees-with-color/bee-A2DM.svg","response":0,"trial_type":"image-button-response","trial_index":75,"time_elapsed":608576,"internal_node_id":"0.0-4.0-0.34","subject_id":"61115b5393470e9dfd1a5f9a","study_id":"60edd13110225f80f9f3709b","session_id":"6196bf62b8e5c0f19acd8b8f","condition":"contingent","relevant_dimensions":["antennae","pattern"],"bee_group":{"antennae":"B","wings":"X","pattern":"S","legs":"X"},"action":"harvest","summary":"good-harvest","bonus":1.320000000000001},{"rt":764.1000000238419,"stimulus":"\n                    <p><b>Action: <em>harvest</em></b></p>\n                    <p>This is the bee that you just saw.</p>\n                    <img src=\"bees-with-color/bee-A2DM.svg\" width=\"200\">\n                    <p><span class=\"greenText\"><b>Successful harvest!</b></span><br>Your pay has increased by $0.02. Your bonus pay is now $0.74.</p>\n            ","response":0,"trial_type":"html-button-response","trial_index":76,"time_elapsed":609344,"internal_node_id":"0.0-4.0-1.34","subject_id":"61115b5393470e9dfd1a5f9a","study_id":"60edd13110225f80f9f3709b","session_id":"6196bf62b8e5c0f19acd8b8f","condition":"contingent","relevant_dimensions":["antennae","pattern"],"bee_group":{"antennae":"B","wings":"X","pattern":"S","legs":"X"},"bonus":1.320000000000001},{"rt":945.5,"stimulus":"bees-with-color/bee-B1DM.svg","response":0,"trial_type":"image-button-response","trial_index":77,"time_elapsed":610292,"internal_node_id":"0.0-4.0-0.35","subject_id":"61115b5393470e9dfd1a5f9a","study_id":"60edd13110225f80f9f3709b","session_id":"6196bf62b8e5c0f19acd8b8f","condition":"contingent","relevant_dimensions":["antennae","pattern"],"bee_group":{"antennae":"B","wings":"X","pattern":"S","legs":"X"},"action":"harvest","summary":"good-harvest","bonus":1.320000000000001},{"rt":547.6000000238419,"stimulus":"\n                    <p><b>Action: <em>harvest</em></b></p>\n                    <p>This is the bee that you just saw.</p>\n                    <img src=\"bees-with-color/bee-B1DM.svg\" width=\"200\">\n                    <p><span class=\"greenText\"><b>Successful harvest!</b></span><br>Your pay has increased by $0.02. Your bonus pay is now $0.76.</p>\n            ","response":0,"trial_type":"html-button-response","trial_index":78,"time_elapsed":610843,"internal_node_id":"0.0-4.0-1.35","subject_id":"61115b5393470e9dfd1a5f9a","study_id":"60edd13110225f80f9f3709b","session_id":"6196bf62b8e5c0f19acd8b8f","condition":"contingent","relevant_dimensions":["antennae","pattern"],"bee_group":{"antennae":"B","wings":"X","pattern":"S","legs":"X"},"bonus":1.320000000000001},{"rt":851.2000000476837,"stimulus":"bees-with-color/bee-A2DF.svg","response":0,"trial_type":"image-button-response","trial_index":79,"time_elapsed":611698,"internal_node_id":"0.0-4.0-0.36","subject_id":"61115b5393470e9dfd1a5f9a","study_id":"60edd13110225f80f9f3709b","session_id":"6196bf62b8e5c0f19acd8b8f","condition":"contingent","relevant_dimensions":["antennae","pattern"],"bee_group":{"antennae":"B","wings":"X","pattern":"S","legs":"X"},"action":"harvest","summary":"good-harvest","bonus":1.320000000000001},{"rt":625.8000000119209,"stimulus":"\n                    <p><b>Action: <em>harvest</em></b></p>\n                    <p>This is the bee that you just saw.</p>\n                    <img src=\"bees-with-color/bee-A2DF.svg\" width=\"200\">\n                    <p><span class=\"greenText\"><b>Successful harvest!</b></span><br>Your pay has increased by $0.02. Your bonus pay is now $0.78.</p>\n            ","response":0,"trial_type":"html-button-response","trial_index":80,"time_elapsed":612327,"internal_node_id":"0.0-4.0-1.36","subject_id":"61115b5393470e9dfd1a5f9a","study_id":"60edd13110225f80f9f3709b","session_id":"6196bf62b8e5c0f19acd8b8f","condition":"contingent","relevant_dimensions":["antennae","pattern"],"bee_group":{"antennae":"B","wings":"X","pattern":"S","legs":"X"},"bonus":1.320000000000001},{"rt":1169.5,"stimulus":"bees-with-color/bee-A1SM.svg","response":1,"trial_type":"image-button-response","trial_index":81,"time_elapsed":613501,"internal_node_id":"0.0-4.0-0.37","subject_id":"61115b5393470e9dfd1a5f9a","study_id":"60edd13110225f80f9f3709b","session_id":"6196bf62b8e5c0f19acd8b8f","condition":"contingent","relevant_dimensions":["antennae","pattern"],"bee_group":{"antennae":"B","wings":"X","pattern":"S","legs":"X"},"action":"avoid","summary":"bad-avoid","bonus":1.320000000000001},{"rt":538.0999999642372,"stimulus":"\n                    <p><b>Action: <em>avoid</em></b></p>\n                    <p>This is the bee that you just saw.</p>\n                    <img src=\"bees-with-color/bee-A1SM.svg\" width=\"200\">\n                    <p><br>Your bonus pay is unchanged, and remains at $0.78.</p>\n            ","response":0,"trial_type":"html-button-response","trial_index":82,"time_elapsed":614043,"internal_node_id":"0.0-4.0-1.37","subject_id":"61115b5393470e9dfd1a5f9a","study_id":"60edd13110225f80f9f3709b","session_id":"6196bf62b8e5c0f19acd8b8f","condition":"contingent","relevant_dimensions":["antennae","pattern"],"bee_group":{"antennae":"B","wings":"X","pattern":"S","legs":"X"},"bonus":1.320000000000001},{"rt":936.3999999761581,"stimulus":"bees-with-color/bee-B2SM.svg","response":1,"trial_type":"image-button-response","trial_index":83,"time_elapsed":614983,"internal_node_id":"0.0-4.0-0.38","subject_id":"61115b5393470e9dfd1a5f9a","study_id":"60edd13110225f80f9f3709b","session_id":"6196bf62b8e5c0f19acd8b8f","condition":"contingent","relevant_dimensions":["antennae","pattern"],"bee_group":{"antennae":"B","wings":"X","pattern":"S","legs":"X"},"action":"avoid","summary":"good-avoid","bonus":1.320000000000001},{"rt":563.7000000476837,"stimulus":"\n                    <p><b>Action: <em>avoid</em></b></p>\n                    <p>This is the bee that you just saw.</p>\n                    <img src=\"bees-with-color/bee-B2SM.svg\" width=\"200\">\n                    <p><br>Your bonus pay is unchanged, and remains at $0.78.</p>\n            ","response":0,"trial_type":"html-button-response","trial_index":84,"time_elapsed":615550,"internal_node_id":"0.0-4.0-1.38","subject_id":"61115b5393470e9dfd1a5f9a","study_id":"60edd13110225f80f9f3709b","session_id":"6196bf62b8e5c0f19acd8b8f","condition":"contingent","relevant_dimensions":["antennae","pattern"],"bee_group":{"antennae":"B","wings":"X","pattern":"S","legs":"X"},"bonus":1.320000000000001},{"rt":990.1999999880791,"stimulus":"bees-with-color/bee-B1SM.svg","response":1,"trial_type":"image-button-response","trial_index":85,"time_elapsed":616544,"internal_node_id":"0.0-4.0-0.39","subject_id":"61115b5393470e9dfd1a5f9a","study_id":"60edd13110225f80f9f3709b","session_id":"6196bf62b8e5c0f19acd8b8f","condition":"contingent","relevant_dimensions":["antennae","pattern"],"bee_group":{"antennae":"B","wings":"X","pattern":"S","legs":"X"},"action":"avoid","summary":"good-avoid","bonus":1.320000000000001},{"rt":577,"stimulus":"\n                    <p><b>Action: <em>avoid</em></b></p>\n                    <p>This is the bee that you just saw.</p>\n                    <img src=\"bees-with-color/bee-B1SM.svg\" width=\"200\">\n                    <p><br>Your bonus pay is unchanged, and remains at $0.78.</p>\n            ","response":0,"trial_type":"html-button-response","trial_index":86,"time_elapsed":617126,"internal_node_id":"0.0-4.0-1.39","subject_id":"61115b5393470e9dfd1a5f9a","study_id":"60edd13110225f80f9f3709b","session_id":"6196bf62b8e5c0f19acd8b8f","condition":"contingent","relevant_dimensions":["antennae","pattern"],"bee_group":{"antennae":"B","wings":"X","pattern":"S","legs":"X"},"bonus":1.320000000000001},{"rt":851.0999999642372,"stimulus":"bees-with-color/bee-B2DM.svg","response":0,"trial_type":"image-button-response","trial_index":87,"time_elapsed":617981,"internal_node_id":"0.0-4.0-0.40","subject_id":"61115b5393470e9dfd1a5f9a","study_id":"60edd13110225f80f9f3709b","session_id":"6196bf62b8e5c0f19acd8b8f","condition":"contingent","relevant_dimensions":["antennae","pattern"],"bee_group":{"antennae":"B","wings":"X","pattern":"S","legs":"X"},"action":"harvest","summary":"good-harvest","bonus":1.320000000000001},{"rt":648.0999999642372,"stimulus":"\n                    <p><b>Action: <em>harvest</em></b></p>\n                    <p>This is the bee that you just saw.</p>\n                    <img src=\"bees-with-color/bee-B2DM.svg\" width=\"200\">\n                    <p><span class=\"greenText\"><b>Successful harvest!</b></span><br>Your pay has increased by $0.02. Your bonus pay is now $0.80.</p>\n            ","response":0,"trial_type":"html-button-response","trial_index":88,"time_elapsed":618632,"internal_node_id":"0.0-4.0-1.40","subject_id":"61115b5393470e9dfd1a5f9a","study_id":"60edd13110225f80f9f3709b","session_id":"6196bf62b8e5c0f19acd8b8f","condition":"contingent","relevant_dimensions":["antennae","pattern"],"bee_group":{"antennae":"B","wings":"X","pattern":"S","legs":"X"},"bonus":1.320000000000001},{"rt":781.5999999642372,"stimulus":"bees-with-color/bee-B1DF.svg","response":0,"trial_type":"image-button-response","trial_index":89,"time_elapsed":619417,"internal_node_id":"0.0-4.0-0.41","subject_id":"61115b5393470e9dfd1a5f9a","study_id":"60edd13110225f80f9f3709b","session_id":"6196bf62b8e5c0f19acd8b8f","condition":"contingent","relevant_dimensions":["antennae","pattern"],"bee_group":{"antennae":"B","wings":"X","pattern":"S","legs":"X"},"action":"harvest","summary":"good-harvest","bonus":1.320000000000001},{"rt":580.1999999880791,"stimulus":"\n                    <p><b>Action: <em>harvest</em></b></p>\n                    <p>This is the bee that you just saw.</p>\n                    <img src=\"bees-with-color/bee-B1DF.svg\" width=\"200\">\n                    <p><span class=\"greenText\"><b>Successful harvest!</b></span><br>Your pay has increased by $0.02. Your bonus pay is now $0.82.</p>\n            ","response":0,"trial_type":"html-button-response","trial_index":90,"time_elapsed":619999,"internal_node_id":"0.0-4.0-1.41","subject_id":"61115b5393470e9dfd1a5f9a","study_id":"60edd13110225f80f9f3709b","session_id":"6196bf62b8e5c0f19acd8b8f","condition":"contingent","relevant_dimensions":["antennae","pattern"],"bee_group":{"antennae":"B","wings":"X","pattern":"S","legs":"X"},"bonus":1.320000000000001},{"rt":975,"stimulus":"bees-with-color/bee-B1SF.svg","response":1,"trial_type":"image-button-response","trial_index":91,"time_elapsed":620978,"internal_node_id":"0.0-4.0-0.42","subject_id":"61115b5393470e9dfd1a5f9a","study_id":"60edd13110225f80f9f3709b","session_id":"6196bf62b8e5c0f19acd8b8f","condition":"contingent","relevant_dimensions":["antennae","pattern"],"bee_group":{"antennae":"B","wings":"X","pattern":"S","legs":"X"},"action":"avoid","summary":"good-avoid","bonus":1.320000000000001},{"rt":595.9000000357628,"stimulus":"\n                    <p><b>Action: <em>avoid</em></b></p>\n                    <p>This is the bee that you just saw.</p>\n                    <img src=\"bees-with-color/bee-B1SF.svg\" width=\"200\">\n                    <p><br>Your bonus pay is unchanged, and remains at $0.82.</p>\n            ","response":0,"trial_type":"html-button-response","trial_index":92,"time_elapsed":621577,"internal_node_id":"0.0-4.0-1.42","subject_id":"61115b5393470e9dfd1a5f9a","study_id":"60edd13110225f80f9f3709b","session_id":"6196bf62b8e5c0f19acd8b8f","condition":"contingent","relevant_dimensions":["antennae","pattern"],"bee_group":{"antennae":"B","wings":"X","pattern":"S","legs":"X"},"bonus":1.320000000000001},{"rt":602.5,"stimulus":"bees-with-color/bee-A1DF.svg","response":0,"trial_type":"image-button-response","trial_index":93,"time_elapsed":622182,"internal_node_id":"0.0-4.0-0.43","subject_id":"61115b5393470e9dfd1a5f9a","study_id":"60edd13110225f80f9f3709b","session_id":"6196bf62b8e5c0f19acd8b8f","condition":"contingent","relevant_dimensions":["antennae","pattern"],"bee_group":{"antennae":"B","wings":"X","pattern":"S","legs":"X"},"action":"harvest","summary":"good-harvest","bonus":1.320000000000001},{"rt":680.5,"stimulus":"\n                    <p><b>Action: <em>harvest</em></b></p>\n                    <p>This is the bee that you just saw.</p>\n                    <img src=\"bees-with-color/bee-A1DF.svg\" width=\"200\">\n                    <p><span class=\"greenText\"><b>Successful harvest!</b></span><br>Your pay has increased by $0.02. Your bonus pay is now $0.84.</p>\n            ","response":0,"trial_type":"html-button-response","trial_index":94,"time_elapsed":622865,"internal_node_id":"0.0-4.0-1.43","subject_id":"61115b5393470e9dfd1a5f9a","study_id":"60edd13110225f80f9f3709b","session_id":"6196bf62b8e5c0f19acd8b8f","condition":"contingent","relevant_dimensions":["antennae","pattern"],"bee_group":{"antennae":"B","wings":"X","pattern":"S","legs":"X"},"bonus":1.320000000000001},{"rt":843.5,"stimulus":"bees-with-color/bee-A2SF.svg","response":1,"trial_type":"image-button-response","trial_index":95,"time_elapsed":623711,"internal_node_id":"0.0-4.0-0.44","subject_id":"61115b5393470e9dfd1a5f9a","study_id":"60edd13110225f80f9f3709b","session_id":"6196bf62b8e5c0f19acd8b8f","condition":"contingent","relevant_dimensions":["antennae","pattern"],"bee_group":{"antennae":"B","wings":"X","pattern":"S","legs":"X"},"action":"avoid","summary":"bad-avoid","bonus":1.320000000000001},{"rt":478.60000002384186,"stimulus":"\n                    <p><b>Action: <em>avoid</em></b></p>\n                    <p>This is the bee that you just saw.</p>\n                    <img src=\"bees-with-color/bee-A2SF.svg\" width=\"200\">\n                    <p><br>Your bonus pay is unchanged, and remains at $0.84.</p>\n            ","response":0,"trial_type":"html-button-response","trial_index":96,"time_elapsed":624193,"internal_node_id":"0.0-4.0-1.44","subject_id":"61115b5393470e9dfd1a5f9a","study_id":"60edd13110225f80f9f3709b","session_id":"6196bf62b8e5c0f19acd8b8f","condition":"contingent","relevant_dimensions":["antennae","pattern"],"bee_group":{"antennae":"B","wings":"X","pattern":"S","legs":"X"},"bonus":1.320000000000001},{"rt":851.6999999880791,"stimulus":"bees-with-color/bee-B2SF.svg","response":1,"trial_type":"image-button-response","trial_index":97,"time_elapsed":625048,"internal_node_id":"0.0-4.0-0.45","subject_id":"61115b5393470e9dfd1a5f9a","study_id":"60edd13110225f80f9f3709b","session_id":"6196bf62b8e5c0f19acd8b8f","condition":"contingent","relevant_dimensions":["antennae","pattern"],"bee_group":{"antennae":"B","wings":"X","pattern":"S","legs":"X"},"action":"avoid","summary":"good-avoid","bonus":1.320000000000001},{"rt":548,"stimulus":"\n                    <p><b>Action: <em>avoid</em></b></p>\n                    <p>This is the bee that you just saw.</p>\n                    <img src=\"bees-with-color/bee-B2SF.svg\" width=\"200\">\n                    <p><br>Your bonus pay is unchanged, and remains at $0.84.</p>\n            ","response":0,"trial_type":"html-button-response","trial_index":98,"time_elapsed":625599,"internal_node_id":"0.0-4.0-1.45","subject_id":"61115b5393470e9dfd1a5f9a","study_id":"60edd13110225f80f9f3709b","session_id":"6196bf62b8e5c0f19acd8b8f","condition":"contingent","relevant_dimensions":["antennae","pattern"],"bee_group":{"antennae":"B","wings":"X","pattern":"S","legs":"X"},"bonus":1.320000000000001},{"rt":758.6000000238419,"stimulus":"bees-with-color/bee-A2SM.svg","response":1,"trial_type":"image-button-response","trial_index":99,"time_elapsed":626360,"internal_node_id":"0.0-4.0-0.46","subject_id":"61115b5393470e9dfd1a5f9a","study_id":"60edd13110225f80f9f3709b","session_id":"6196bf62b8e5c0f19acd8b8f","condition":"contingent","relevant_dimensions":["antennae","pattern"],"bee_group":{"antennae":"B","wings":"X","pattern":"S","legs":"X"},"action":"avoid","summary":"bad-avoid","bonus":1.320000000000001},{"rt":509.2999999523163,"stimulus":"\n                    <p><b>Action: <em>avoid</em></b></p>\n                    <p>This is the bee that you just saw.</p>\n                    <img src=\"bees-with-color/bee-A2SM.svg\" width=\"200\">\n                    <p><br>Your bonus pay is unchanged, and remains at $0.84.</p>\n            ","response":0,"trial_type":"html-button-response","trial_index":100,"time_elapsed":626872,"internal_node_id":"0.0-4.0-1.46","subject_id":"61115b5393470e9dfd1a5f9a","study_id":"60edd13110225f80f9f3709b","session_id":"6196bf62b8e5c0f19acd8b8f","condition":"contingent","relevant_dimensions":["antennae","pattern"],"bee_group":{"antennae":"B","wings":"X","pattern":"S","legs":"X"},"bonus":1.320000000000001},{"rt":734,"stimulus":"bees-with-color/bee-A1SF.svg","response":1,"trial_type":"image-button-response","trial_index":101,"time_elapsed":627609,"internal_node_id":"0.0-4.0-0.47","subject_id":"61115b5393470e9dfd1a5f9a","study_id":"60edd13110225f80f9f3709b","session_id":"6196bf62b8e5c0f19acd8b8f","condition":"contingent","relevant_dimensions":["antennae","pattern"],"bee_group":{"antennae":"B","wings":"X","pattern":"S","legs":"X"},"action":"avoid","summary":"bad-avoid","bonus":1.320000000000001},{"rt":479.80000001192093,"stimulus":"\n                    <p><b>Action: <em>avoid</em></b></p>\n                    <p>This is the bee that you just saw.</p>\n                    <img src=\"bees-with-color/bee-A1SF.svg\" width=\"200\">\n                    <p><br>Your bonus pay is unchanged, and remains at $0.84.</p>\n            ","response":0,"trial_type":"html-button-response","trial_index":102,"time_elapsed":628092,"internal_node_id":"0.0-4.0-1.47","subject_id":"61115b5393470e9dfd1a5f9a","study_id":"60edd13110225f80f9f3709b","session_id":"6196bf62b8e5c0f19acd8b8f","condition":"contingent","relevant_dimensions":["antennae","pattern"],"bee_group":{"antennae":"B","wings":"X","pattern":"S","legs":"X"},"bonus":1.320000000000001},{"rt":742.5,"stimulus":"bees-with-color/bee-A2DF.svg","response":0,"trial_type":"image-button-response","trial_index":103,"time_elapsed":628837,"internal_node_id":"0.0-4.0-0.48","subject_id":"61115b5393470e9dfd1a5f9a","study_id":"60edd13110225f80f9f3709b","session_id":"6196bf62b8e5c0f19acd8b8f","condition":"contingent","relevant_dimensions":["antennae","pattern"],"bee_group":{"antennae":"B","wings":"X","pattern":"S","legs":"X"},"action":"harvest","summary":"good-harvest","bonus":1.320000000000001},{"rt":556.3000000119209,"stimulus":"\n                    <p><b>Action: <em>harvest</em></b></p>\n                    <p>This is the bee that you just saw.</p>\n                    <img src=\"bees-with-color/bee-A2DF.svg\" width=\"200\">\n                    <p><span class=\"greenText\"><b>Successful harvest!</b></span><br>Your pay has increased by $0.02. Your bonus pay is now $0.86.</p>\n            ","response":0,"trial_type":"html-button-response","trial_index":104,"time_elapsed":629397,"internal_node_id":"0.0-4.0-1.48","subject_id":"61115b5393470e9dfd1a5f9a","study_id":"60edd13110225f80f9f3709b","session_id":"6196bf62b8e5c0f19acd8b8f","condition":"contingent","relevant_dimensions":["antennae","pattern"],"bee_group":{"antennae":"B","wings":"X","pattern":"S","legs":"X"},"bonus":1.320000000000001},{"rt":5376.900000035763,"stimulus":"bees-with-color/bee-A2SF.svg","response":1,"trial_type":"image-button-response","trial_index":105,"time_elapsed":634779,"internal_node_id":"0.0-4.0-0.49","subject_id":"61115b5393470e9dfd1a5f9a","study_id":"60edd13110225f80f9f3709b","session_id":"6196bf62b8e5c0f19acd8b8f","condition":"contingent","relevant_dimensions":["antennae","pattern"],"bee_group":{"antennae":"B","wings":"X","pattern":"S","legs":"X"},"action":"avoid","summary":"bad-avoid","bonus":1.320000000000001},{"rt":796.1999999880791,"stimulus":"\n                    <p><b>Action: <em>avoid</em></b></p>\n                    <p>This is the bee that you just saw.</p>\n                    <img src=\"bees-with-color/bee-A2SF.svg\" width=\"200\">\n                    <p><br>Your bonus pay is unchanged, and remains at $0.86.</p>\n            ","response":0,"trial_type":"html-button-response","trial_index":106,"time_elapsed":635579,"internal_node_id":"0.0-4.0-1.49","subject_id":"61115b5393470e9dfd1a5f9a","study_id":"60edd13110225f80f9f3709b","session_id":"6196bf62b8e5c0f19acd8b8f","condition":"contingent","relevant_dimensions":["antennae","pattern"],"bee_group":{"antennae":"B","wings":"X","pattern":"S","legs":"X"},"bonus":1.320000000000001},{"rt":5029.399999976158,"stimulus":"bees-with-color/bee-B2SF.svg","response":1,"trial_type":"image-button-response","trial_index":107,"time_elapsed":640612,"internal_node_id":"0.0-4.0-0.50","subject_id":"61115b5393470e9dfd1a5f9a","study_id":"60edd13110225f80f9f3709b","session_id":"6196bf62b8e5c0f19acd8b8f","condition":"contingent","relevant_dimensions":["antennae","pattern"],"bee_group":{"antennae":"B","wings":"X","pattern":"S","legs":"X"},"action":"avoid","summary":"good-avoid","bonus":1.320000000000001},{"rt":1954.5,"stimulus":"\n                    <p><b>Action: <em>avoid</em></b></p>\n                    <p>This is the bee that you just saw.</p>\n                    <img src=\"bees-with-color/bee-B2SF.svg\" width=\"200\">\n                    <p><br>Your bonus pay is unchanged, and remains at $0.86.</p>\n            ","response":0,"trial_type":"html-button-response","trial_index":108,"time_elapsed":642569,"internal_node_id":"0.0-4.0-1.50","subject_id":"61115b5393470e9dfd1a5f9a","study_id":"60edd13110225f80f9f3709b","session_id":"6196bf62b8e5c0f19acd8b8f","condition":"contingent","relevant_dimensions":["antennae","pattern"],"bee_group":{"antennae":"B","wings":"X","pattern":"S","legs":"X"},"bonus":1.320000000000001},{"rt":1081.6000000238419,"stimulus":"bees-with-color/bee-B1SM.svg","response":1,"trial_type":"image-button-response","trial_index":109,"time_elapsed":643656,"internal_node_id":"0.0-4.0-0.51","subject_id":"61115b5393470e9dfd1a5f9a","study_id":"60edd13110225f80f9f3709b","session_id":"6196bf62b8e5c0f19acd8b8f","condition":"contingent","relevant_dimensions":["antennae","pattern"],"bee_group":{"antennae":"B","wings":"X","pattern":"S","legs":"X"},"action":"avoid","summary":"good-avoid","bonus":1.320000000000001},{"rt":827.5999999642372,"stimulus":"\n                    <p><b>Action: <em>avoid</em></b></p>\n                    <p>This is the bee that you just saw.</p>\n                    <img src=\"bees-with-color/bee-B1SM.svg\" width=\"200\">\n                    <p><br>Your bonus pay is unchanged, and remains at $0.86.</p>\n            ","response":0,"trial_type":"html-button-response","trial_index":110,"time_elapsed":644487,"internal_node_id":"0.0-4.0-1.51","subject_id":"61115b5393470e9dfd1a5f9a","study_id":"60edd13110225f80f9f3709b","session_id":"6196bf62b8e5c0f19acd8b8f","condition":"contingent","relevant_dimensions":["antennae","pattern"],"bee_group":{"antennae":"B","wings":"X","pattern":"S","legs":"X"},"bonus":1.320000000000001},{"rt":813.3000000119209,"stimulus":"bees-with-color/bee-A1SM.svg","response":1,"trial_type":"image-button-response","trial_index":111,"time_elapsed":645303,"internal_node_id":"0.0-4.0-0.52","subject_id":"61115b5393470e9dfd1a5f9a","study_id":"60edd13110225f80f9f3709b","session_id":"6196bf62b8e5c0f19acd8b8f","condition":"contingent","relevant_dimensions":["antennae","pattern"],"bee_group":{"antennae":"B","wings":"X","pattern":"S","legs":"X"},"action":"avoid","summary":"bad-avoid","bonus":1.320000000000001},{"rt":617.3000000119209,"stimulus":"\n                    <p><b>Action: <em>avoid</em></b></p>\n                    <p>This is the bee that you just saw.</p>\n                    <img src=\"bees-with-color/bee-A1SM.svg\" width=\"200\">\n                    <p><br>Your bonus pay is unchanged, and remains at $0.86.</p>\n            ","response":0,"trial_type":"html-button-response","trial_index":112,"time_elapsed":645924,"internal_node_id":"0.0-4.0-1.52","subject_id":"61115b5393470e9dfd1a5f9a","study_id":"60edd13110225f80f9f3709b","session_id":"6196bf62b8e5c0f19acd8b8f","condition":"contingent","relevant_dimensions":["antennae","pattern"],"bee_group":{"antennae":"B","wings":"X","pattern":"S","legs":"X"},"bonus":1.320000000000001},{"rt":921.2000000476837,"stimulus":"bees-with-color/bee-A2DM.svg","response":0,"trial_type":"image-button-response","trial_index":113,"time_elapsed":646849,"internal_node_id":"0.0-4.0-0.53","subject_id":"61115b5393470e9dfd1a5f9a","study_id":"60edd13110225f80f9f3709b","session_id":"6196bf62b8e5c0f19acd8b8f","condition":"contingent","relevant_dimensions":["antennae","pattern"],"bee_group":{"antennae":"B","wings":"X","pattern":"S","legs":"X"},"action":"harvest","summary":"good-harvest","bonus":1.320000000000001},{"rt":639.5999999642372,"stimulus":"\n                    <p><b>Action: <em>harvest</em></b></p>\n                    <p>This is the bee that you just saw.</p>\n                    <img src=\"bees-with-color/bee-A2DM.svg\" width=\"200\">\n                    <p><span class=\"greenText\"><b>Successful harvest!</b></span><br>Your pay has increased by $0.02. Your bonus pay is now $0.88.</p>\n            ","response":0,"trial_type":"html-button-response","trial_index":114,"time_elapsed":647493,"internal_node_id":"0.0-4.0-1.53","subject_id":"61115b5393470e9dfd1a5f9a","study_id":"60edd13110225f80f9f3709b","session_id":"6196bf62b8e5c0f19acd8b8f","condition":"contingent","relevant_dimensions":["antennae","pattern"],"bee_group":{"antennae":"B","wings":"X","pattern":"S","legs":"X"},"bonus":1.320000000000001},{"rt":7677.199999988079,"stimulus":"bees-with-color/bee-A1DF.svg","response":0,"trial_type":"image-button-response","trial_index":115,"time_elapsed":655174,"internal_node_id":"0.0-4.0-0.54","subject_id":"61115b5393470e9dfd1a5f9a","study_id":"60edd13110225f80f9f3709b","session_id":"6196bf62b8e5c0f19acd8b8f","condition":"contingent","relevant_dimensions":["antennae","pattern"],"bee_group":{"antennae":"B","wings":"X","pattern":"S","legs":"X"},"action":"harvest","summary":"good-harvest","bonus":1.320000000000001},{"rt":663.1999999880791,"stimulus":"\n                    <p><b>Action: <em>harvest</em></b></p>\n                    <p>This is the bee that you just saw.</p>\n                    <img src=\"bees-with-color/bee-A1DF.svg\" width=\"200\">\n                    <p><span class=\"greenText\"><b>Successful harvest!</b></span><br>Your pay has increased by $0.02. Your bonus pay is now $0.90.</p>\n            ","response":0,"trial_type":"html-button-response","trial_index":116,"time_elapsed":655842,"internal_node_id":"0.0-4.0-1.54","subject_id":"61115b5393470e9dfd1a5f9a","study_id":"60edd13110225f80f9f3709b","session_id":"6196bf62b8e5c0f19acd8b8f","condition":"contingent","relevant_dimensions":["antennae","pattern"],"bee_group":{"antennae":"B","wings":"X","pattern":"S","legs":"X"},"bonus":1.320000000000001},{"rt":702.7000000476837,"stimulus":"bees-with-color/bee-B2DM.svg","response":0,"trial_type":"image-button-response","trial_index":117,"time_elapsed":656549,"internal_node_id":"0.0-4.0-0.55","subject_id":"61115b5393470e9dfd1a5f9a","study_id":"60edd13110225f80f9f3709b","session_id":"6196bf62b8e5c0f19acd8b8f","condition":"contingent","relevant_dimensions":["antennae","pattern"],"bee_group":{"antennae":"B","wings":"X","pattern":"S","legs":"X"},"action":"harvest","summary":"good-harvest","bonus":1.320000000000001},{"rt":563.3000000119209,"stimulus":"\n                    <p><b>Action: <em>harvest</em></b></p>\n                    <p>This is the bee that you just saw.</p>\n                    <img src=\"bees-with-color/bee-B2DM.svg\" width=\"200\">\n                    <p><span class=\"greenText\"><b>Successful harvest!</b></span><br>Your pay has increased by $0.02. Your bonus pay is now $0.92.</p>\n            ","response":0,"trial_type":"html-button-response","trial_index":118,"time_elapsed":657115,"internal_node_id":"0.0-4.0-1.55","subject_id":"61115b5393470e9dfd1a5f9a","study_id":"60edd13110225f80f9f3709b","session_id":"6196bf62b8e5c0f19acd8b8f","condition":"contingent","relevant_dimensions":["antennae","pattern"],"bee_group":{"antennae":"B","wings":"X","pattern":"S","legs":"X"},"bonus":1.320000000000001},{"rt":610,"stimulus":"bees-with-color/bee-A1DM.svg","response":0,"trial_type":"image-button-response","trial_index":119,"time_elapsed":657729,"internal_node_id":"0.0-4.0-0.56","subject_id":"61115b5393470e9dfd1a5f9a","study_id":"60edd13110225f80f9f3709b","session_id":"6196bf62b8e5c0f19acd8b8f","condition":"contingent","relevant_dimensions":["antennae","pattern"],"bee_group":{"antennae":"B","wings":"X","pattern":"S","legs":"X"},"action":"harvest","summary":"good-harvest","bonus":1.320000000000001},{"rt":1084.300000011921,"stimulus":"\n                    <p><b>Action: <em>harvest</em></b></p>\n                    <p>This is the bee that you just saw.</p>\n                    <img src=\"bees-with-color/bee-A1DM.svg\" width=\"200\">\n                    <p><span class=\"greenText\"><b>Successful harvest!</b></span><br>Your pay has increased by $0.02. Your bonus pay is now $0.94.</p>\n            ","response":0,"trial_type":"html-button-response","trial_index":120,"time_elapsed":658816,"internal_node_id":"0.0-4.0-1.56","subject_id":"61115b5393470e9dfd1a5f9a","study_id":"60edd13110225f80f9f3709b","session_id":"6196bf62b8e5c0f19acd8b8f","condition":"contingent","relevant_dimensions":["antennae","pattern"],"bee_group":{"antennae":"B","wings":"X","pattern":"S","legs":"X"},"bonus":1.320000000000001},{"rt":2265.100000023842,"stimulus":"bees-with-color/bee-B2DF.svg","response":0,"trial_type":"image-button-response","trial_index":121,"time_elapsed":661085,"internal_node_id":"0.0-4.0-0.57","subject_id":"61115b5393470e9dfd1a5f9a","study_id":"60edd13110225f80f9f3709b","session_id":"6196bf62b8e5c0f19acd8b8f","condition":"contingent","relevant_dimensions":["antennae","pattern"],"bee_group":{"antennae":"B","wings":"X","pattern":"S","legs":"X"},"action":"harvest","summary":"good-harvest","bonus":1.320000000000001},{"rt":615.5,"stimulus":"\n                    <p><b>Action: <em>harvest</em></b></p>\n                    <p>This is the bee that you just saw.</p>\n                    <img src=\"bees-with-color/bee-B2DF.svg\" width=\"200\">\n                    <p><span class=\"greenText\"><b>Successful harvest!</b></span><br>Your pay has increased by $0.02. Your bonus pay is now $0.96.</p>\n            ","response":0,"trial_type":"html-button-response","trial_index":122,"time_elapsed":661705,"internal_node_id":"0.0-4.0-1.57","subject_id":"61115b5393470e9dfd1a5f9a","study_id":"60edd13110225f80f9f3709b","session_id":"6196bf62b8e5c0f19acd8b8f","condition":"contingent","relevant_dimensions":["antennae","pattern"],"bee_group":{"antennae":"B","wings":"X","pattern":"S","legs":"X"},"bonus":1.320000000000001},{"rt":944.1999999880791,"stimulus":"bees-with-color/bee-B1DF.svg","response":0,"trial_type":"image-button-response","trial_index":123,"time_elapsed":662653,"internal_node_id":"0.0-4.0-0.58","subject_id":"61115b5393470e9dfd1a5f9a","study_id":"60edd13110225f80f9f3709b","session_id":"6196bf62b8e5c0f19acd8b8f","condition":"contingent","relevant_dimensions":["antennae","pattern"],"bee_group":{"antennae":"B","wings":"X","pattern":"S","legs":"X"},"action":"harvest","summary":"good-harvest","bonus":1.320000000000001},{"rt":570.8000000119209,"stimulus":"\n                    <p><b>Action: <em>harvest</em></b></p>\n                    <p>This is the bee that you just saw.</p>\n                    <img src=\"bees-with-color/bee-B1DF.svg\" width=\"200\">\n                    <p><span class=\"greenText\"><b>Successful harvest!</b></span><br>Your pay has increased by $0.02. Your bonus pay is now $0.98.</p>\n            ","response":0,"trial_type":"html-button-response","trial_index":124,"time_elapsed":663228,"internal_node_id":"0.0-4.0-1.58","subject_id":"61115b5393470e9dfd1a5f9a","study_id":"60edd13110225f80f9f3709b","session_id":"6196bf62b8e5c0f19acd8b8f","condition":"contingent","relevant_dimensions":["antennae","pattern"],"bee_group":{"antennae":"B","wings":"X","pattern":"S","legs":"X"},"bonus":1.320000000000001},{"rt":1036,"stimulus":"bees-with-color/bee-B2SM.svg","response":1,"trial_type":"image-button-response","trial_index":125,"time_elapsed":664268,"internal_node_id":"0.0-4.0-0.59","subject_id":"61115b5393470e9dfd1a5f9a","study_id":"60edd13110225f80f9f3709b","session_id":"6196bf62b8e5c0f19acd8b8f","condition":"contingent","relevant_dimensions":["antennae","pattern"],"bee_group":{"antennae":"B","wings":"X","pattern":"S","legs":"X"},"action":"avoid","summary":"good-avoid","bonus":1.320000000000001},{"rt":516.8999999761581,"stimulus":"\n                    <p><b>Action: <em>avoid</em></b></p>\n                    <p>This is the bee that you just saw.</p>\n                    <img src=\"bees-with-color/bee-B2SM.svg\" width=\"200\">\n                    <p><br>Your bonus pay is unchanged, and remains at $0.98.</p>\n            ","response":0,"trial_type":"html-button-response","trial_index":126,"time_elapsed":664789,"internal_node_id":"0.0-4.0-1.59","subject_id":"61115b5393470e9dfd1a5f9a","study_id":"60edd13110225f80f9f3709b","session_id":"6196bf62b8e5c0f19acd8b8f","condition":"contingent","relevant_dimensions":["antennae","pattern"],"bee_group":{"antennae":"B","wings":"X","pattern":"S","legs":"X"},"bonus":1.320000000000001},{"rt":927.7000000476837,"stimulus":"bees-with-color/bee-B1DM.svg","response":0,"trial_type":"image-button-response","trial_index":127,"time_elapsed":665721,"internal_node_id":"0.0-4.0-0.60","subject_id":"61115b5393470e9dfd1a5f9a","study_id":"60edd13110225f80f9f3709b","session_id":"6196bf62b8e5c0f19acd8b8f","condition":"contingent","relevant_dimensions":["antennae","pattern"],"bee_group":{"antennae":"B","wings":"X","pattern":"S","legs":"X"},"action":"harvest","summary":"good-harvest","bonus":1.320000000000001},{"rt":1696.300000011921,"stimulus":"\n                    <p><b>Action: <em>harvest</em></b></p>\n                    <p>This is the bee that you just saw.</p>\n                    <img src=\"bees-with-color/bee-B1DM.svg\" width=\"200\">\n                    <p><span class=\"greenText\"><b>Successful harvest!</b></span><br>Your pay has increased by $0.02. Your bonus pay is now $1.00.</p>\n            ","response":0,"trial_type":"html-button-response","trial_index":128,"time_elapsed":667421,"internal_node_id":"0.0-4.0-1.60","subject_id":"61115b5393470e9dfd1a5f9a","study_id":"60edd13110225f80f9f3709b","session_id":"6196bf62b8e5c0f19acd8b8f","condition":"contingent","relevant_dimensions":["antennae","pattern"],"bee_group":{"antennae":"B","wings":"X","pattern":"S","legs":"X"},"bonus":1.320000000000001},{"rt":883,"stimulus":"bees-with-color/bee-A1SF.svg","response":1,"trial_type":"image-button-response","trial_index":129,"time_elapsed":668307,"internal_node_id":"0.0-4.0-0.61","subject_id":"61115b5393470e9dfd1a5f9a","study_id":"60edd13110225f80f9f3709b","session_id":"6196bf62b8e5c0f19acd8b8f","condition":"contingent","relevant_dimensions":["antennae","pattern"],"bee_group":{"antennae":"B","wings":"X","pattern":"S","legs":"X"},"action":"avoid","summary":"bad-avoid","bonus":1.320000000000001},{"rt":626.6000000238419,"stimulus":"\n                    <p><b>Action: <em>avoid</em></b></p>\n                    <p>This is the bee that you just saw.</p>\n                    <img src=\"bees-with-color/bee-A1SF.svg\" width=\"200\">\n                    <p><br>Your bonus pay is unchanged, and remains at $1.00.</p>\n            ","response":0,"trial_type":"html-button-response","trial_index":130,"time_elapsed":668936,"internal_node_id":"0.0-4.0-1.61","subject_id":"61115b5393470e9dfd1a5f9a","study_id":"60edd13110225f80f9f3709b","session_id":"6196bf62b8e5c0f19acd8b8f","condition":"contingent","relevant_dimensions":["antennae","pattern"],"bee_group":{"antennae":"B","wings":"X","pattern":"S","legs":"X"},"bonus":1.320000000000001},{"rt":1363.300000011921,"stimulus":"bees-with-color/bee-A2SM.svg","response":1,"trial_type":"image-button-response","trial_index":131,"time_elapsed":670302,"internal_node_id":"0.0-4.0-0.62","subject_id":"61115b5393470e9dfd1a5f9a","study_id":"60edd13110225f80f9f3709b","session_id":"6196bf62b8e5c0f19acd8b8f","condition":"contingent","relevant_dimensions":["antennae","pattern"],"bee_group":{"antennae":"B","wings":"X","pattern":"S","legs":"X"},"action":"avoid","summary":"bad-avoid","bonus":1.320000000000001},{"rt":479.19999998807907,"stimulus":"\n                    <p><b>Action: <em>avoid</em></b></p>\n                    <p>This is the bee that you just saw.</p>\n                    <img src=\"bees-with-color/bee-A2SM.svg\" width=\"200\">\n                    <p><br>Your bonus pay is unchanged, and remains at $1.00.</p>\n            ","response":0,"trial_type":"html-button-response","trial_index":132,"time_elapsed":670784,"internal_node_id":"0.0-4.0-1.62","subject_id":"61115b5393470e9dfd1a5f9a","study_id":"60edd13110225f80f9f3709b","session_id":"6196bf62b8e5c0f19acd8b8f","condition":"contingent","relevant_dimensions":["antennae","pattern"],"bee_group":{"antennae":"B","wings":"X","pattern":"S","legs":"X"},"bonus":1.320000000000001},{"rt":928.5,"stimulus":"bees-with-color/bee-B1SF.svg","response":1,"trial_type":"image-button-response","trial_index":133,"time_elapsed":671715,"internal_node_id":"0.0-4.0-0.63","subject_id":"61115b5393470e9dfd1a5f9a","study_id":"60edd13110225f80f9f3709b","session_id":"6196bf62b8e5c0f19acd8b8f","condition":"contingent","relevant_dimensions":["antennae","pattern"],"bee_group":{"antennae":"B","wings":"X","pattern":"S","legs":"X"},"action":"avoid","summary":"good-avoid","bonus":1.320000000000001},{"rt":572.8999999761581,"stimulus":"\n                    <p><b>Action: <em>avoid</em></b></p>\n                    <p>This is the bee that you just saw.</p>\n                    <img src=\"bees-with-color/bee-B1SF.svg\" width=\"200\">\n                    <p><br>Your bonus pay is unchanged, and remains at $1.00.</p>\n            ","response":0,"trial_type":"html-button-response","trial_index":134,"time_elapsed":672291,"internal_node_id":"0.0-4.0-1.63","subject_id":"61115b5393470e9dfd1a5f9a","study_id":"60edd13110225f80f9f3709b","session_id":"6196bf62b8e5c0f19acd8b8f","condition":"contingent","relevant_dimensions":["antennae","pattern"],"bee_group":{"antennae":"B","wings":"X","pattern":"S","legs":"X"},"bonus":1.320000000000001},{"rt":7780.899999976158,"stimulus":"You have completed the first part of this experiment.<br><br>You will now begin a shorter second part, in which you will receive no feedback.<br>The same rules regarding bonus pay apply.<br><br>Press any key to begin.","response":"d","trial_type":"html-keyboard-response","trial_index":135,"time_elapsed":680075,"internal_node_id":"0.0-5.0","subject_id":"61115b5393470e9dfd1a5f9a","study_id":"60edd13110225f80f9f3709b","session_id":"6196bf62b8e5c0f19acd8b8f","condition":"contingent","relevant_dimensions":["antennae","pattern"],"bee_group":{"antennae":"B","wings":"X","pattern":"S","legs":"X"},"bonus":1.320000000000001},{"rt":2111,"stimulus":"bees-with-color/bee-B2DM.svg","response":0,"trial_type":"image-button-response","trial_index":136,"time_elapsed":682200,"internal_node_id":"0.0-6.0-0.0","subject_id":"61115b5393470e9dfd1a5f9a","study_id":"60edd13110225f80f9f3709b","session_id":"6196bf62b8e5c0f19acd8b8f","condition":"contingent","relevant_dimensions":["antennae","pattern"],"bee_group":{"antennae":"B","wings":"X","pattern":"S","legs":"X"},"bonus":1.320000000000001},{"rt":1221.199999988079,"stimulus":"bees-with-color/bee-B1SF.svg","response":1,"trial_type":"image-button-response","trial_index":137,"time_elapsed":683427,"internal_node_id":"0.0-6.0-0.1","subject_id":"61115b5393470e9dfd1a5f9a","study_id":"60edd13110225f80f9f3709b","session_id":"6196bf62b8e5c0f19acd8b8f","condition":"contingent","relevant_dimensions":["antennae","pattern"],"bee_group":{"antennae":"B","wings":"X","pattern":"S","legs":"X"},"bonus":1.320000000000001},{"rt":794.6000000238419,"stimulus":"bees-with-color/bee-A1DF.svg","response":0,"trial_type":"image-button-response","trial_index":138,"time_elapsed":684228,"internal_node_id":"0.0-6.0-0.2","subject_id":"61115b5393470e9dfd1a5f9a","study_id":"60edd13110225f80f9f3709b","session_id":"6196bf62b8e5c0f19acd8b8f","condition":"contingent","relevant_dimensions":["antennae","pattern"],"bee_group":{"antennae":"B","wings":"X","pattern":"S","legs":"X"},"bonus":1.320000000000001},{"rt":802.8000000119209,"stimulus":"bees-with-color/bee-A1SF.svg","response":1,"trial_type":"image-button-response","trial_index":139,"time_elapsed":685036,"internal_node_id":"0.0-6.0-0.3","subject_id":"61115b5393470e9dfd1a5f9a","study_id":"60edd13110225f80f9f3709b","session_id":"6196bf62b8e5c0f19acd8b8f","condition":"contingent","relevant_dimensions":["antennae","pattern"],"bee_group":{"antennae":"B","wings":"X","pattern":"S","legs":"X"},"bonus":1.320000000000001},{"rt":740.1000000238419,"stimulus":"bees-with-color/bee-A1DM.svg","response":0,"trial_type":"image-button-response","trial_index":140,"time_elapsed":685780,"internal_node_id":"0.0-6.0-0.4","subject_id":"61115b5393470e9dfd1a5f9a","study_id":"60edd13110225f80f9f3709b","session_id":"6196bf62b8e5c0f19acd8b8f","condition":"contingent","relevant_dimensions":["antennae","pattern"],"bee_group":{"antennae":"B","wings":"X","pattern":"S","legs":"X"},"bonus":1.320000000000001},{"rt":1029,"stimulus":"bees-with-color/bee-B2SM.svg","response":1,"trial_type":"image-button-response","trial_index":141,"time_elapsed":686814,"internal_node_id":"0.0-6.0-0.5","subject_id":"61115b5393470e9dfd1a5f9a","study_id":"60edd13110225f80f9f3709b","session_id":"6196bf62b8e5c0f19acd8b8f","condition":"contingent","relevant_dimensions":["antennae","pattern"],"bee_group":{"antennae":"B","wings":"X","pattern":"S","legs":"X"},"bonus":1.320000000000001},{"rt":1144.800000011921,"stimulus":"bees-with-color/bee-B2DF.svg","response":0,"trial_type":"image-button-response","trial_index":142,"time_elapsed":687963,"internal_node_id":"0.0-6.0-0.6","subject_id":"61115b5393470e9dfd1a5f9a","study_id":"60edd13110225f80f9f3709b","session_id":"6196bf62b8e5c0f19acd8b8f","condition":"contingent","relevant_dimensions":["antennae","pattern"],"bee_group":{"antennae":"B","wings":"X","pattern":"S","legs":"X"},"bonus":1.320000000000001},{"rt":810.3000000119209,"stimulus":"bees-with-color/bee-A2SM.svg","response":1,"trial_type":"image-button-response","trial_index":143,"time_elapsed":688779,"internal_node_id":"0.0-6.0-0.7","subject_id":"61115b5393470e9dfd1a5f9a","study_id":"60edd13110225f80f9f3709b","session_id":"6196bf62b8e5c0f19acd8b8f","condition":"contingent","relevant_dimensions":["antennae","pattern"],"bee_group":{"antennae":"B","wings":"X","pattern":"S","legs":"X"},"bonus":1.320000000000001},{"rt":724,"stimulus":"bees-with-color/bee-A2DF.svg","response":0,"trial_type":"image-button-response","trial_index":144,"time_elapsed":689509,"internal_node_id":"0.0-6.0-0.8","subject_id":"61115b5393470e9dfd1a5f9a","study_id":"60edd13110225f80f9f3709b","session_id":"6196bf62b8e5c0f19acd8b8f","condition":"contingent","relevant_dimensions":["antennae","pattern"],"bee_group":{"antennae":"B","wings":"X","pattern":"S","legs":"X"},"bonus":1.320000000000001},{"rt":802.6000000238419,"stimulus":"bees-with-color/bee-B2SF.svg","response":1,"trial_type":"image-button-response","trial_index":145,"time_elapsed":690317,"internal_node_id":"0.0-6.0-0.9","subject_id":"61115b5393470e9dfd1a5f9a","study_id":"60edd13110225f80f9f3709b","session_id":"6196bf62b8e5c0f19acd8b8f","condition":"contingent","relevant_dimensions":["antennae","pattern"],"bee_group":{"antennae":"B","wings":"X","pattern":"S","legs":"X"},"bonus":1.320000000000001},{"rt":902.8000000119209,"stimulus":"bees-with-color/bee-A1SM.svg","response":1,"trial_type":"image-button-response","trial_index":146,"time_elapsed":691225,"internal_node_id":"0.0-6.0-0.10","subject_id":"61115b5393470e9dfd1a5f9a","study_id":"60edd13110225f80f9f3709b","session_id":"6196bf62b8e5c0f19acd8b8f","condition":"contingent","relevant_dimensions":["antennae","pattern"],"bee_group":{"antennae":"B","wings":"X","pattern":"S","legs":"X"},"bonus":1.320000000000001},{"rt":842.6999999880791,"stimulus":"bees-with-color/bee-B1DF.svg","response":0,"trial_type":"image-button-response","trial_index":147,"time_elapsed":692072,"internal_node_id":"0.0-6.0-0.11","subject_id":"61115b5393470e9dfd1a5f9a","study_id":"60edd13110225f80f9f3709b","session_id":"6196bf62b8e5c0f19acd8b8f","condition":"contingent","relevant_dimensions":["antennae","pattern"],"bee_group":{"antennae":"B","wings":"X","pattern":"S","legs":"X"},"bonus":1.320000000000001},{"rt":662.5,"stimulus":"bees-with-color/bee-A2DM.svg","response":0,"trial_type":"image-button-response","trial_index":148,"time_elapsed":692739,"internal_node_id":"0.0-6.0-0.12","subject_id":"61115b5393470e9dfd1a5f9a","study_id":"60edd13110225f80f9f3709b","session_id":"6196bf62b8e5c0f19acd8b8f","condition":"contingent","relevant_dimensions":["antennae","pattern"],"bee_group":{"antennae":"B","wings":"X","pattern":"S","legs":"X"},"bonus":1.320000000000001},{"rt":1034.5,"stimulus":"bees-with-color/bee-A2SF.svg","response":1,"trial_type":"image-button-response","trial_index":149,"time_elapsed":693780,"internal_node_id":"0.0-6.0-0.13","subject_id":"61115b5393470e9dfd1a5f9a","study_id":"60edd13110225f80f9f3709b","session_id":"6196bf62b8e5c0f19acd8b8f","condition":"contingent","relevant_dimensions":["antennae","pattern"],"bee_group":{"antennae":"B","wings":"X","pattern":"S","legs":"X"},"bonus":1.320000000000001},{"rt":770.8000000119209,"stimulus":"bees-with-color/bee-B1SM.svg","response":1,"trial_type":"image-button-response","trial_index":150,"time_elapsed":694556,"internal_node_id":"0.0-6.0-0.14","subject_id":"61115b5393470e9dfd1a5f9a","study_id":"60edd13110225f80f9f3709b","session_id":"6196bf62b8e5c0f19acd8b8f","condition":"contingent","relevant_dimensions":["antennae","pattern"],"bee_group":{"antennae":"B","wings":"X","pattern":"S","legs":"X"},"bonus":1.320000000000001},{"rt":825.8000000119209,"stimulus":"bees-with-color/bee-B1DM.svg","response":0,"trial_type":"image-button-response","trial_index":151,"time_elapsed":695388,"internal_node_id":"0.0-6.0-0.15","subject_id":"61115b5393470e9dfd1a5f9a","study_id":"60edd13110225f80f9f3709b","session_id":"6196bf62b8e5c0f19acd8b8f","condition":"contingent","relevant_dimensions":["antennae","pattern"],"bee_group":{"antennae":"B","wings":"X","pattern":"S","legs":"X"},"bonus":1.320000000000001},{"rt":959.3000000119209,"stimulus":"bees-with-color/bee-B1SF.svg","response":1,"trial_type":"image-button-response","trial_index":152,"time_elapsed":696351,"internal_node_id":"0.0-6.0-0.16","subject_id":"61115b5393470e9dfd1a5f9a","study_id":"60edd13110225f80f9f3709b","session_id":"6196bf62b8e5c0f19acd8b8f","condition":"contingent","relevant_dimensions":["antennae","pattern"],"bee_group":{"antennae":"B","wings":"X","pattern":"S","legs":"X"},"bonus":1.320000000000001},{"rt":802.1999999880791,"stimulus":"bees-with-color/bee-A2DM.svg","response":0,"trial_type":"image-button-response","trial_index":153,"time_elapsed":697158,"internal_node_id":"0.0-6.0-0.17","subject_id":"61115b5393470e9dfd1a5f9a","study_id":"60edd13110225f80f9f3709b","session_id":"6196bf62b8e5c0f19acd8b8f","condition":"contingent","relevant_dimensions":["antennae","pattern"],"bee_group":{"antennae":"B","wings":"X","pattern":"S","legs":"X"},"bonus":1.320000000000001},{"rt":1128.2000000476837,"stimulus":"bees-with-color/bee-A1SM.svg","response":1,"trial_type":"image-button-response","trial_index":154,"time_elapsed":698292,"internal_node_id":"0.0-6.0-0.18","subject_id":"61115b5393470e9dfd1a5f9a","study_id":"60edd13110225f80f9f3709b","session_id":"6196bf62b8e5c0f19acd8b8f","condition":"contingent","relevant_dimensions":["antennae","pattern"],"bee_group":{"antennae":"B","wings":"X","pattern":"S","legs":"X"},"bonus":1.320000000000001},{"rt":764.1000000238419,"stimulus":"bees-with-color/bee-B1DM.svg","response":0,"trial_type":"image-button-response","trial_index":155,"time_elapsed":699061,"internal_node_id":"0.0-6.0-0.19","subject_id":"61115b5393470e9dfd1a5f9a","study_id":"60edd13110225f80f9f3709b","session_id":"6196bf62b8e5c0f19acd8b8f","condition":"contingent","relevant_dimensions":["antennae","pattern"],"bee_group":{"antennae":"B","wings":"X","pattern":"S","legs":"X"},"bonus":1.320000000000001},{"rt":623.8999999761581,"stimulus":"bees-with-color/bee-B2DM.svg","response":0,"trial_type":"image-button-response","trial_index":156,"time_elapsed":699690,"internal_node_id":"0.0-6.0-0.20","subject_id":"61115b5393470e9dfd1a5f9a","study_id":"60edd13110225f80f9f3709b","session_id":"6196bf62b8e5c0f19acd8b8f","condition":"contingent","relevant_dimensions":["antennae","pattern"],"bee_group":{"antennae":"B","wings":"X","pattern":"S","legs":"X"},"bonus":1.320000000000001},{"rt":515.8999999761581,"stimulus":"bees-with-color/bee-A2DF.svg","response":0,"trial_type":"image-button-response","trial_index":157,"time_elapsed":700211,"internal_node_id":"0.0-6.0-0.21","subject_id":"61115b5393470e9dfd1a5f9a","study_id":"60edd13110225f80f9f3709b","session_id":"6196bf62b8e5c0f19acd8b8f","condition":"contingent","relevant_dimensions":["antennae","pattern"],"bee_group":{"antennae":"B","wings":"X","pattern":"S","legs":"X"},"bonus":1.320000000000001},{"rt":941.6000000238419,"stimulus":"bees-with-color/bee-B2SM.svg","response":1,"trial_type":"image-button-response","trial_index":158,"time_elapsed":701157,"internal_node_id":"0.0-6.0-0.22","subject_id":"61115b5393470e9dfd1a5f9a","study_id":"60edd13110225f80f9f3709b","session_id":"6196bf62b8e5c0f19acd8b8f","condition":"contingent","relevant_dimensions":["antennae","pattern"],"bee_group":{"antennae":"B","wings":"X","pattern":"S","legs":"X"},"bonus":1.320000000000001},{"rt":802.6999999880791,"stimulus":"bees-with-color/bee-A2SF.svg","response":1,"trial_type":"image-button-response","trial_index":159,"time_elapsed":701965,"internal_node_id":"0.0-6.0-0.23","subject_id":"61115b5393470e9dfd1a5f9a","study_id":"60edd13110225f80f9f3709b","session_id":"6196bf62b8e5c0f19acd8b8f","condition":"contingent","relevant_dimensions":["antennae","pattern"],"bee_group":{"antennae":"B","wings":"X","pattern":"S","legs":"X"},"bonus":1.320000000000001},{"rt":2473.100000023842,"stimulus":"bees-with-color/bee-A1DF.svg","response":0,"trial_type":"image-button-response","trial_index":160,"time_elapsed":704444,"internal_node_id":"0.0-6.0-0.24","subject_id":"61115b5393470e9dfd1a5f9a","study_id":"60edd13110225f80f9f3709b","session_id":"6196bf62b8e5c0f19acd8b8f","condition":"contingent","relevant_dimensions":["antennae","pattern"],"bee_group":{"antennae":"B","wings":"X","pattern":"S","legs":"X"},"bonus":1.320000000000001},{"rt":847.8999999761581,"stimulus":"bees-with-color/bee-B2DF.svg","response":0,"trial_type":"image-button-response","trial_index":161,"time_elapsed":705296,"internal_node_id":"0.0-6.0-0.25","subject_id":"61115b5393470e9dfd1a5f9a","study_id":"60edd13110225f80f9f3709b","session_id":"6196bf62b8e5c0f19acd8b8f","condition":"contingent","relevant_dimensions":["antennae","pattern"],"bee_group":{"antennae":"B","wings":"X","pattern":"S","legs":"X"},"bonus":1.320000000000001},{"rt":827.3999999761581,"stimulus":"bees-with-color/bee-A1SF.svg","response":1,"trial_type":"image-button-response","trial_index":162,"time_elapsed":706128,"internal_node_id":"0.0-6.0-0.26","subject_id":"61115b5393470e9dfd1a5f9a","study_id":"60edd13110225f80f9f3709b","session_id":"6196bf62b8e5c0f19acd8b8f","condition":"contingent","relevant_dimensions":["antennae","pattern"],"bee_group":{"antennae":"B","wings":"X","pattern":"S","legs":"X"},"bonus":1.320000000000001},{"rt":858.5999999642372,"stimulus":"bees-with-color/bee-A1DM.svg","response":0,"trial_type":"image-button-response","trial_index":163,"time_elapsed":706991,"internal_node_id":"0.0-6.0-0.27","subject_id":"61115b5393470e9dfd1a5f9a","study_id":"60edd13110225f80f9f3709b","session_id":"6196bf62b8e5c0f19acd8b8f","condition":"contingent","relevant_dimensions":["antennae","pattern"],"bee_group":{"