[{"success":true,"trial_type":"fullscreen","trial_index":0,"time_elapsed":8196,"internal_node_id":"0.0-0.0","subject_id":"61542045f27b876c93207ad0","study_id":"60edd13110225f80f9f3709b","session_id":"6196c3d92fb1cf806d232eda","condition":"full-information","relevant_dimensions":["wings","pattern"],"bee_group":{"antennae":"X","wings":"2","pattern":"D","legs":"X"},"bonus":1.1600000000000013},{"success":true,"timeout":false,"failed_images":[],"failed_audio":[],"failed_video":[],"trial_type":"preload","trial_index":1,"time_elapsed":10154,"internal_node_id":"0.0-1.0","subject_id":"61542045f27b876c93207ad0","study_id":"60edd13110225f80f9f3709b","session_id":"6196c3d92fb1cf806d232eda","condition":"full-information","relevant_dimensions":["wings","pattern"],"bee_group":{"antennae":"X","wings":"2","pattern":"D","legs":"X"},"bonus":1.1600000000000013},{"rt":2669.699999988079,"stimulus":"Welcome! Press any key to begin.","response":" ","trial_type":"html-keyboard-response","trial_index":2,"time_elapsed":12825,"internal_node_id":"0.0-2.0","subject_id":"61542045f27b876c93207ad0","study_id":"60edd13110225f80f9f3709b","session_id":"6196c3d92fb1cf806d232eda","condition":"full-information","relevant_dimensions":["wings","pattern"],"bee_group":{"antennae":"X","wings":"2","pattern":"D","legs":"X"},"bonus":1.1600000000000013},{"view_history":[{"page_index":0,"viewing_time":9332.599999964237},{"page_index":1,"viewing_time":13816},{"page_index":2,"viewing_time":13511.800000011921},{"page_index":3,"viewing_time":15855.5},{"page_index":4,"viewing_time":7415.800000011921},{"page_index":5,"viewing_time":6359.800000011921},{"page_index":6,"viewing_time":11935.899999976158},{"page_index":7,"viewing_time":6175.600000023842},{"page_index":8,"viewing_time":5047.899999976158},{"page_index":9,"viewing_time":5688.900000035763},{"page_index":10,"viewing_time":3087.099999964237},{"page_index":11,"viewing_time":12583.400000035763},{"page_index":12,"viewing_time":8903.899999976158},{"page_index":13,"viewing_time":1687.8999999761581},{"page_index":14,"viewing_time":3496}],"rt":124899.09999996424,"trial_type":"instructions","trial_index":3,"time_elapsed":137727,"internal_node_id":"0.0-3.0-0.0","subject_id":"61542045f27b876c93207ad0","study_id":"60edd13110225f80f9f3709b","session_id":"6196c3d92fb1cf806d232eda","condition":"full-information","relevant_dimensions":["wings","pattern"],"bee_group":{"antennae":"X","wings":"2","pattern":"D","legs":"X"},"bonus":1.1600000000000013},{"rt":15840.199999988079,"response":{"Q0":["Two or six legs","Stripes or spots on body","Single or double wings","Antennae or no antennae"]},"question_order":[0],"trial_type":"survey-multi-select","trial_index":4,"time_elapsed":153594,"internal_node_id":"0.0-3.0-1.0","subject_id":"61542045f27b876c93207ad0","study_id":"60edd13110225f80f9f3709b","session_id":"6196c3d92fb1cf806d232eda","condition":"full-information","relevant_dimensions":["wings","pattern"],"bee_group":{"antennae":"X","wings":"2","pattern":"D","legs":"X"},"correct":true,"bonus":1.1600000000000013},{"rt":22708.099999964237,"response":{"Q1":"No.","Q2":"Based on the four features of the bee.","Q3":"You learn if it was friendly or dangerous, but do not alter your bonus."},"question_order":[0,1,2],"trial_type":"survey-multi-choice","trial_index":5,"time_elapsed":176321,"internal_node_id":"0.0-3.0-2.0","subject_id":"61542045f27b876c93207ad0","study_id":"60edd13110225f80f9f3709b","session_id":"6196c3d92fb1cf806d232eda","condition":"full-information","relevant_dimensions":["wings","pattern"],"bee_group":{"antennae":"X","wings":"2","pattern":"D","legs":"X"},"correct":true,"bonus":1.1600000000000013},{"rt":2979.600000023842,"stimulus":"<p>Congrats, you got everything right<br>When you're ready, click the button below to continue to the experiment.</p>","response":0,"trial_type":"html-button-response","trial_index":6,"time_elapsed":179316,"internal_node_id":"0.0-3.0-3.0","subject_id":"61542045f27b876c93207ad0","study_id":"60edd13110225f80f9f3709b","session_id":"6196c3d92fb1cf806d232eda","condition":"full-information","relevant_dimensions":["wings","pattern"],"bee_group":{"antennae":"X","wings":"2","pattern":"D","legs":"X"},"bonus":1.1600000000000013},{"rt":7338,"stimulus":"bees-with-color/bee-B1DM.svg","response":1,"trial_type":"image-button-response","trial_index":7,"time_elapsed":186664,"internal_node_id":"0.0-4.0-0.0","subject_id":"61542045f27b876c93207ad0","study_id":"60edd13110225f80f9f3709b","session_id":"6196c3d92fb1cf806d232eda","condition":"full-information","relevant_dimensions":["wings","pattern"],"bee_group":{"antennae":"X","wings":"2","pattern":"D","legs":"X"},"action":"avoid","summary":"bad-avoid","bonus":1.1600000000000013},{"rt":8324.299999952316,"stimulus":"\n                    <p><b>Action: <em>avoid</em></b></p>\n                    <p>This is the bee that you just saw.</p>\n                    <img src=\"bees-with-color/bee-B1DM.svg\" width=\"200\">\n                    <p><span class=\"redText\">Bad choice,</span> the bee was friendly.<br>Your bonus pay is unchanged, and remains at $0.54.</p>\n            ","response":0,"trial_type":"html-button-response","trial_index":8,"time_elapsed":194999,"internal_node_id":"0.0-4.0-1.0","subject_id":"61542045f27b876c93207ad0","study_id":"60edd13110225f80f9f3709b","session_id":"6196c3d92fb1cf806d232eda","condition":"full-information","relevant_dimensions":["wings","pattern"],"bee_group":{"antennae":"X","wings":"2","pattern":"D","legs":"X"},"bonus":1.1600000000000013},{"rt":2625.900000035763,"stimulus":"bees-with-color/bee-A2SF.svg","response":1,"trial_type":"image-button-response","trial_index":9,"time_elapsed":197631,"internal_node_id":"0.0-4.0-0.1","subject_id":"61542045f27b876c93207ad0","study_id":"60edd13110225f80f9f3709b","session_id":"6196c3d92fb1cf806d232eda","condition":"full-information","relevant_dimensions":["wings","pattern"],"bee_group":{"antennae":"X","wings":"2","pattern":"D","legs":"X"},"action":"avoid","summary":"bad-avoid","bonus":1.1600000000000013},{"rt":12106.300000011921,"stimulus":"\n                    <p><b>Action: <em>avoid</em></b></p>\n                    <p>This is the bee that you just saw.</p>\n                    <img src=\"bees-with-color/bee-A2SF.svg\" width=\"200\">\n                    <p><span class=\"redText\">Bad choice,</span> the bee was friendly.<br>Your bonus pay is unchanged, and remains at $0.54.</p>\n            ","response":0,"trial_type":"html-button-response","trial_index":10,"time_elapsed":209743,"internal_node_id":"0.0-4.0-1.1","subject_id":"61542045f27b876c93207ad0","study_id":"60edd13110225f80f9f3709b","session_id":"6196c3d92fb1cf806d232eda","condition":"full-information","relevant_dimensions":["wings","pattern"],"bee_group":{"antennae":"X","wings":"2","pattern":"D","legs":"X"},"bonus":1.1600000000000013},{"rt":1313.8999999761581,"stimulus":"bees-with-color/bee-A1DF.svg","response":0,"trial_type":"image-button-response","trial_index":11,"time_elapsed":211063,"internal_node_id":"0.0-4.0-0.2","subject_id":"61542045f27b876c93207ad0","study_id":"60edd13110225f80f9f3709b","session_id":"6196c3d92fb1cf806d232eda","condition":"full-information","relevant_dimensions":["wings","pattern"],"bee_group":{"antennae":"X","wings":"2","pattern":"D","legs":"X"},"action":"harvest","summary":"good-harvest","bonus":1.1600000000000013},{"rt":8731,"stimulus":"\n                    <p><b>Action: <em>harvest</em></b></p>\n                    <p>This is the bee that you just saw.</p>\n                    <img src=\"bees-with-color/bee-A1DF.svg\" width=\"200\">\n                    <p><span class=\"greenText\"><b>Successful harvest!</b></span><br>Your pay has increased by $0.02. Your bonus pay is now $0.56.</p>\n            ","response":0,"trial_type":"html-button-response","trial_index":12,"time_elapsed":219798,"internal_node_id":"0.0-4.0-1.2","subject_id":"61542045f27b876c93207ad0","study_id":"60edd13110225f80f9f3709b","session_id":"6196c3d92fb1cf806d232eda","condition":"full-information","relevant_dimensions":["wings","pattern"],"bee_group":{"antennae":"X","wings":"2","pattern":"D","legs":"X"},"bonus":1.1600000000000013},{"rt":1585.6000000238419,"stimulus":"bees-with-color/bee-B2SF.svg","response":0,"trial_type":"image-button-response","trial_index":13,"time_elapsed":221391,"internal_node_id":"0.0-4.0-0.3","subject_id":"61542045f27b876c93207ad0","study_id":"60edd13110225f80f9f3709b","session_id":"6196c3d92fb1cf806d232eda","condition":"full-information","relevant_dimensions":["wings","pattern"],"bee_group":{"antennae":"X","wings":"2","pattern":"D","legs":"X"},"action":"harvest","summary":"good-harvest","bonus":1.1600000000000013},{"rt":2362.2000000476837,"stimulus":"\n                    <p><b>Action: <em>harvest</em></b></p>\n                    <p>This is the bee that you just saw.</p>\n                    <img src=\"bees-with-color/bee-B2SF.svg\" width=\"200\">\n                    <p><span class=\"greenText\"><b>Successful harvest!</b></span><br>Your pay has increased by $0.02. Your bonus pay is now $0.58.</p>\n            ","response":0,"trial_type":"html-button-response","trial_index":14,"time_elapsed":223758,"internal_node_id":"0.0-4.0-1.3","subject_id":"61542045f27b876c93207ad0","study_id":"60edd13110225f80f9f3709b","session_id":"6196c3d92fb1cf806d232eda","condition":"full-information","relevant_dimensions":["wings","pattern"],"bee_group":{"antennae":"X","wings":"2","pattern":"D","legs":"X"},"bonus":1.1600000000000013},{"rt":2723.100000023842,"stimulus":"bees-with-color/bee-B2DF.svg","response":1,"trial_type":"image-button-response","trial_index":15,"time_elapsed":226487,"internal_node_id":"0.0-4.0-0.4","subject_id":"61542045f27b876c93207ad0","study_id":"60edd13110225f80f9f3709b","session_id":"6196c3d92fb1cf806d232eda","condition":"full-information","relevant_dimensions":["wings","pattern"],"bee_group":{"antennae":"X","wings":"2","pattern":"D","legs":"X"},"action":"avoid","summary":"good-avoid","bonus":1.1600000000000013},{"rt":9697.800000011921,"stimulus":"\n                    <p><b>Action: <em>avoid</em></b></p>\n                    <p>This is the bee that you just saw.</p>\n                    <img src=\"bees-with-color/bee-B2DF.svg\" width=\"200\">\n                    <p><span class=\"greenText\">Good choice!</span>  This bee would have stung you.<br>Your bonus pay is unchanged, and remains at $0.58.</p>\n            ","response":0,"trial_type":"html-button-response","trial_index":16,"time_elapsed":236191,"internal_node_id":"0.0-4.0-1.4","subject_id":"61542045f27b876c93207ad0","study_id":"60edd13110225f80f9f3709b","session_id":"6196c3d92fb1cf806d232eda","condition":"full-information","relevant_dimensions":["wings","pattern"],"bee_group":{"antennae":"X","wings":"2","pattern":"D","legs":"X"},"bonus":1.1600000000000013},{"rt":1953.3999999761581,"stimulus":"bees-with-color/bee-B1DF.svg","response":0,"trial_type":"image-button-response","trial_index":17,"time_elapsed":238151,"internal_node_id":"0.0-4.0-0.5","subject_id":"61542045f27b876c93207ad0","study_id":"60edd13110225f80f9f3709b","session_id":"6196c3d92fb1cf806d232eda","condition":"full-information","relevant_dimensions":["wings","pattern"],"bee_group":{"antennae":"X","wings":"2","pattern":"D","legs":"X"},"action":"harvest","summary":"good-harvest","bonus":1.1600000000000013},{"rt":5098.399999976158,"stimulus":"\n                    <p><b>Action: <em>harvest</em></b></p>\n                    <p>This is the bee that you just saw.</p>\n                    <img src=\"bees-with-color/bee-B1DF.svg\" width=\"200\">\n                    <p><span class=\"greenText\"><b>Successful harvest!</b></span><br>Your pay has increased by $0.02. Your bonus pay is now $0.60.</p>\n            ","response":0,"trial_type":"html-button-response","trial_index":18,"time_elapsed":243255,"internal_node_id":"0.0-4.0-1.5","subject_id":"61542045f27b876c93207ad0","study_id":"60edd13110225f80f9f3709b","session_id":"6196c3d92fb1cf806d232eda","condition":"full-information","relevant_dimensions":["wings","pattern"],"bee_group":{"antennae":"X","wings":"2","pattern":"D","legs":"X"},"bonus":1.1600000000000013},{"rt":1727.6000000238419,"stimulus":"bees-with-color/bee-A2DM.svg","response":1,"trial_type":"image-button-response","trial_index":19,"time_elapsed":244991,"internal_node_id":"0.0-4.0-0.6","subject_id":"61542045f27b876c93207ad0","study_id":"60edd13110225f80f9f3709b","session_id":"6196c3d92fb1cf806d232eda","condition":"full-information","relevant_dimensions":["wings","pattern"],"bee_group":{"antennae":"X","wings":"2","pattern":"D","legs":"X"},"action":"avoid","summary":"good-avoid","bonus":1.1600000000000013},{"rt":3626.2999999523163,"stimulus":"\n                    <p><b>Action: <em>avoid</em></b></p>\n                    <p>This is the bee that you just saw.</p>\n                    <img src=\"bees-with-color/bee-A2DM.svg\" width=\"200\">\n                    <p><span class=\"greenText\">Good choice!</span>  This bee would have stung you.<br>Your bonus pay is unchanged, and remains at $0.60.</p>\n            ","response":0,"trial_type":"html-button-response","trial_index":20,"time_elapsed":248624,"internal_node_id":"0.0-4.0-1.6","subject_id":"61542045f27b876c93207ad0","study_id":"60edd13110225f80f9f3709b","session_id":"6196c3d92fb1cf806d232eda","condition":"full-information","relevant_dimensions":["wings","pattern"],"bee_group":{"antennae":"X","wings":"2","pattern":"D","legs":"X"},"bonus":1.1600000000000013},{"rt":2321.5,"stimulus":"bees-with-color/bee-B2SM.svg","response":1,"trial_type":"image-button-response","trial_index":21,"time_elapsed":250951,"internal_node_id":"0.0-4.0-0.7","subject_id":"61542045f27b876c93207ad0","study_id":"60edd13110225f80f9f3709b","session_id":"6196c3d92fb1cf806d232eda","condition":"full-information","relevant_dimensions":["wings","pattern"],"bee_group":{"antennae":"X","wings":"2","pattern":"D","legs":"X"},"action":"avoid","summary":"bad-avoid","bonus":1.1600000000000013},{"rt":4098,"stimulus":"\n                    <p><b>Action: <em>avoid</em></b></p>\n                    <p>This is the bee that you just saw.</p>\n                    <img src=\"bees-with-color/bee-B2SM.svg\" width=\"200\">\n                    <p><span class=\"redText\">Bad choice,</span> the bee was friendly.<br>Your bonus pay is unchanged, and remains at $0.60.</p>\n            ","response":0,"trial_type":"html-button-response","trial_index":22,"time_elapsed":255055,"internal_node_id":"0.0-4.0-1.7","subject_id":"61542045f27b876c93207ad0","study_id":"60edd13110225f80f9f3709b","session_id":"6196c3d92fb1cf806d232eda","condition":"full-information","relevant_dimensions":["wings","pattern"],"bee_group":{"antennae":"X","wings":"2","pattern":"D","legs":"X"},"bonus":1.1600000000000013},{"rt":2169.300000011921,"stimulus":"bees-with-color/bee-A1SM.svg","response":0,"trial_type":"image-button-response","trial_index":23,"time_elapsed":257231,"internal_node_id":"0.0-4.0-0.8","subject_id":"61542045f27b876c93207ad0","study_id":"60edd13110225f80f9f3709b","session_id":"6196c3d92fb1cf806d232eda","condition":"full-information","relevant_dimensions":["wings","pattern"],"bee_group":{"antennae":"X","wings":"2","pattern":"D","legs":"X"},"action":"harvest","summary":"good-harvest","bonus":1.1600000000000013},{"rt":1258.699999988079,"stimulus":"\n                    <p><b>Action: <em>harvest</em></b></p>\n                    <p>This is the bee that you just saw.</p>\n                    <img src=\"bees-with-color/bee-A1SM.svg\" width=\"200\">\n                    <p><span class=\"greenText\"><b>Successful harvest!</b></span><br>Your pay has increased by $0.02. Your bonus pay is now $0.62.</p>\n            ","response":0,"trial_type":"html-button-response","trial_index":24,"time_elapsed":258494,"internal_node_id":"0.0-4.0-1.8","subject_id":"61542045f27b876c93207ad0","study_id":"60edd13110225f80f9f3709b","session_id":"6196c3d92fb1cf806d232eda","condition":"full-information","relevant_dimensions":["wings","pattern"],"bee_group":{"antennae":"X","wings":"2","pattern":"D","legs":"X"},"bonus":1.1600000000000013},{"rt":5099,"stimulus":"bees-with-color/bee-A1SF.svg","response":0,"trial_type":"image-button-response","trial_index":25,"time_elapsed":263598,"internal_node_id":"0.0-4.0-0.9","subject_id":"61542045f27b876c93207ad0","study_id":"60edd13110225f80f9f3709b","session_id":"6196c3d92fb1cf806d232eda","condition":"full-information","relevant_dimensions":["wings","pattern"],"bee_group":{"antennae":"X","wings":"2","pattern":"D","legs":"X"},"action":"harvest","summary":"good-harvest","bonus":1.1600000000000013},{"rt":1691.8999999761581,"stimulus":"\n                    <p><b>Action: <em>harvest</em></b></p>\n                    <p>This is the bee that you just saw.</p>\n                    <img src=\"bees-with-color/bee-A1SF.svg\" width=\"200\">\n                    <p><span class=\"greenText\"><b>Successful harvest!</b></span><br>Your pay has increased by $0.02. Your bonus pay is now $0.64.</p>\n            ","response":0,"trial_type":"html-button-response","trial_index":26,"time_elapsed":265295,"internal_node_id":"0.0-4.0-1.9","subject_id":"61542045f27b876c93207ad0","study_id":"60edd13110225f80f9f3709b","session_id":"6196c3d92fb1cf806d232eda","condition":"full-information","relevant_dimensions":["wings","pattern"],"bee_group":{"antennae":"X","wings":"2","pattern":"D","legs":"X"},"bonus":1.1600000000000013},{"rt":2353.600000023842,"stimulus":"bees-with-color/bee-A2DF.svg","response":0,"trial_type":"image-button-response","trial_index":27,"time_elapsed":267654,"internal_node_id":"0.0-4.0-0.10","subject_id":"61542045f27b876c93207ad0","study_id":"60edd13110225f80f9f3709b","session_id":"6196c3d92fb1cf806d232eda","condition":"full-information","relevant_dimensions":["wings","pattern"],"bee_group":{"antennae":"X","wings":"2","pattern":"D","legs":"X"},"action":"harvest","summary":"bad-harvest","bonus":1.1600000000000013},{"rt":1371.0999999642372,"stimulus":"\n                    <p><b>Action: <em>harvest</em></b></p>\n                    <p>This is the bee that you just saw.</p>\n                    <img src=\"bees-with-color/bee-A2DF.svg\" width=\"200\">\n                    <p><span class=\"redText\">Bad choice, the bee was angry.</span><br><b>You have been stung!</b><br>Your pay has been decreased by $0.10. Your bonus pay is now $0.54.</p>\n            ","response":0,"trial_type":"html-button-response","trial_index":28,"time_elapsed":269030,"internal_node_id":"0.0-4.0-1.10","subject_id":"61542045f27b876c93207ad0","study_id":"60edd13110225f80f9f3709b","session_id":"6196c3d92fb1cf806d232eda","condition":"full-information","relevant_dimensions":["wings","pattern"],"bee_group":{"antennae":"X","wings":"2","pattern":"D","legs":"X"},"bonus":1.1600000000000013},{"rt":1827.300000011921,"stimulus":"bees-with-color/bee-B1SF.svg","response":0,"trial_type":"image-button-response","trial_index":29,"time_elapsed":270863,"internal_node_id":"0.0-4.0-0.11","subject_id":"61542045f27b876c93207ad0","study_id":"60edd13110225f80f9f3709b","session_id":"6196c3d92fb1cf806d232eda","condition":"full-information","relevant_dimensions":["wings","pattern"],"bee_group":{"antennae":"X","wings":"2","pattern":"D","legs":"X"},"action":"harvest","summary":"good-harvest","bonus":1.1600000000000013},{"rt":762.9000000357628,"stimulus":"\n                    <p><b>Action: <em>harvest</em></b></p>\n                    <p>This is the bee that you just saw.</p>\n                    <img src=\"bees-with-color/bee-B1SF.svg\" width=\"200\">\n                    <p><span class=\"greenText\"><b>Successful harvest!</b></span><br>Your pay has increased by $0.02. Your bonus pay is now $0.56.</p>\n            ","response":0,"trial_type":"html-button-response","trial_index":30,"time_elapsed":271631,"internal_node_id":"0.0-4.0-1.11","subject_id":"61542045f27b876c93207ad0","study_id":"60edd13110225f80f9f3709b","session_id":"6196c3d92fb1cf806d232eda","condition":"full-information","relevant_dimensions":["wings","pattern"],"bee_group":{"antennae":"X","wings":"2","pattern":"D","legs":"X"},"bonus":1.1600000000000013},{"rt":1651.5,"stimulus":"bees-with-color/bee-B2DM.svg","response":1,"trial_type":"image-button-response","trial_index":31,"time_elapsed":273286,"internal_node_id":"0.0-4.0-0.12","subject_id":"61542045f27b876c93207ad0","study_id":"60edd13110225f80f9f3709b","session_id":"6196c3d92fb1cf806d232eda","condition":"full-information","relevant_dimensions":["wings","pattern"],"bee_group":{"antennae":"X","wings":"2","pattern":"D","legs":"X"},"action":"avoid","summary":"good-avoid","bonus":1.1600000000000013},{"rt":963.5,"stimulus":"\n                    <p><b>Action: <em>avoid</em></b></p>\n                    <p>This is the bee that you just saw.</p>\n                    <img src=\"bees-with-color/bee-B2DM.svg\" width=\"200\">\n                    <p><span class=\"greenText\">Good choice!</span>  This bee would have stung you.<br>Your bonus pay is unchanged, and remains at $0.56.</p>\n            ","response":0,"trial_type":"html-button-response","trial_index":32,"time_elapsed":274254,"internal_node_id":"0.0-4.0-1.12","subject_id":"61542045f27b876c93207ad0","study_id":"60edd13110225f80f9f3709b","session_id":"6196c3d92fb1cf806d232eda","condition":"full-information","relevant_dimensions":["wings","pattern"],"bee_group":{"antennae":"X","wings":"2","pattern":"D","legs":"X"},"bonus":1.1600000000000013},{"rt":1538.699999988079,"stimulus":"bees-with-color/bee-A1DM.svg","response":0,"trial_type":"image-button-response","trial_index":33,"time_elapsed":275798,"internal_node_id":"0.0-4.0-0.13","subject_id":"61542045f27b876c93207ad0","study_id":"60edd13110225f80f9f3709b","session_id":"6196c3d92fb1cf806d232eda","condition":"full-information","relevant_dimensions":["wings","pattern"],"bee_group":{"antennae":"X","wings":"2","pattern":"D","legs":"X"},"action":"harvest","summary":"good-harvest","bonus":1.1600000000000013},{"rt":1227.5999999642372,"stimulus":"\n                    <p><b>Action: <em>harvest</em></b></p>\n                    <p>This is the bee that you just saw.</p>\n                    <img src=\"bees-with-color/bee-A1DM.svg\" width=\"200\">\n                    <p><span class=\"greenText\"><b>Successful harvest!</b></span><br>Your pay has increased by $0.02. Your bonus pay is now $0.58.</p>\n            ","response":0,"trial_type":"html-button-response","trial_index":34,"time_elapsed":277030,"internal_node_id":"0.0-4.0-1.13","subject_id":"61542045f27b876c93207ad0","study_id":"60edd13110225f80f9f3709b","session_id":"6196c3d92fb1cf806d232eda","condition":"full-information","relevant_dimensions":["wings","pattern"],"bee_group":{"antennae":"X","wings":"2","pattern":"D","legs":"X"},"bonus":1.1600000000000013},{"rt":1524.199999988079,"stimulus":"bees-with-color/bee-B1SM.svg","response":0,"trial_type":"image-button-response","trial_index":35,"time_elapsed":278558,"internal_node_id":"0.0-4.0-0.14","subject_id":"61542045f27b876c93207ad0","study_id":"60edd13110225f80f9f3709b","session_id":"6196c3d92fb1cf806d232eda","condition":"full-information","relevant_dimensions":["wings","pattern"],"bee_group":{"antennae":"X","wings":"2","pattern":"D","legs":"X"},"action":"harvest","summary":"good-harvest","bonus":1.1600000000000013},{"rt":716,"stimulus":"\n                    <p><b>Action: <em>harvest</em></b></p>\n                    <p>This is the bee that you just saw.</p>\n                    <img src=\"bees-with-color/bee-B1SM.svg\" width=\"200\">\n                    <p><span class=\"greenText\"><b>Successful harvest!</b></span><br>Your pay has increased by $0.02. Your bonus pay is now $0.60.</p>\n            ","response":0,"trial_type":"html-button-response","trial_index":36,"time_elapsed":279279,"internal_node_id":"0.0-4.0-1.14","subject_id":"61542045f27b876c93207ad0","study_id":"60edd13110225f80f9f3709b","session_id":"6196c3d92fb1cf806d232eda","condition":"full-information","relevant_dimensions":["wings","pattern"],"bee_group":{"antennae":"X","wings":"2","pattern":"D","legs":"X"},"bonus":1.1600000000000013},{"rt":1994.0999999642372,"stimulus":"bees-with-color/bee-A2SM.svg","response":1,"trial_type":"image-button-response","trial_index":37,"time_elapsed":281278,"internal_node_id":"0.0-4.0-0.15","subject_id":"61542045f27b876c93207ad0","study_id":"60edd13110225f80f9f3709b","session_id":"6196c3d92fb1cf806d232eda","condition":"full-information","relevant_dimensions":["wings","pattern"],"bee_group":{"antennae":"X","wings":"2","pattern":"D","legs":"X"},"action":"avoid","summary":"bad-avoid","bonus":1.1600000000000013},{"rt":7314,"stimulus":"\n                    <p><b>Action: <em>avoid</em></b></p>\n                    <p>This is the bee that you just saw.</p>\n                    <img src=\"bees-with-color/bee-A2SM.svg\" width=\"200\">\n                    <p><span class=\"redText\">Bad choice,</span> the bee was friendly.<br>Your bonus pay is unchanged, and remains at $0.60.</p>\n            ","response":0,"trial_type":"html-button-response","trial_index":38,"time_elapsed":288598,"internal_node_id":"0.0-4.0-1.15","subject_id":"61542045f27b876c93207ad0","study_id":"60edd13110225f80f9f3709b","session_id":"6196c3d92fb1cf806d232eda","condition":"full-information","relevant_dimensions":["wings","pattern"],"bee_group":{"antennae":"X","wings":"2","pattern":"D","legs":"X"},"bonus":1.1600000000000013},{"rt":1305.5999999642372,"stimulus":"bees-with-color/bee-B1SM.svg","response":0,"trial_type":"image-button-response","trial_index":39,"time_elapsed":289910,"internal_node_id":"0.0-4.0-0.16","subject_id":"61542045f27b876c93207ad0","study_id":"60edd13110225f80f9f3709b","session_id":"6196c3d92fb1cf806d232eda","condition":"full-information","relevant_dimensions":["wings","pattern"],"bee_group":{"antennae":"X","wings":"2","pattern":"D","legs":"X"},"action":"harvest","summary":"good-harvest","bonus":1.1600000000000013},{"rt":875.3000000119209,"stimulus":"\n                    <p><b>Action: <em>harvest</em></b></p>\n                    <p>This is the bee that you just saw.</p>\n                    <img src=\"bees-with-color/bee-B1SM.svg\" width=\"200\">\n                    <p><span class=\"greenText\"><b>Successful harvest!</b></span><br>Your pay has increased by $0.02. Your bonus pay is now $0.62.</p>\n            ","response":0,"trial_type":"html-button-response","trial_index":40,"time_elapsed":290790,"internal_node_id":"0.0-4.0-1.16","subject_id":"61542045f27b876c93207ad0","study_id":"60edd13110225f80f9f3709b","session_id":"6196c3d92fb1cf806d232eda","condition":"full-information","relevant_dimensions":["wings","pattern"],"bee_group":{"antennae":"X","wings":"2","pattern":"D","legs":"X"},"bonus":1.1600000000000013},{"rt":1180,"stimulus":"bees-with-color/bee-A2DF.svg","response":0,"trial_type":"image-button-response","trial_index":41,"time_elapsed":291974,"internal_node_id":"0.0-4.0-0.17","subject_id":"61542045f27b876c93207ad0","study_id":"60edd13110225f80f9f3709b","session_id":"6196c3d92fb1cf806d232eda","condition":"full-information","relevant_dimensions":["wings","pattern"],"bee_group":{"antennae":"X","wings":"2","pattern":"D","legs":"X"},"action":"harvest","summary":"bad-harvest","bonus":1.1600000000000013},{"rt":1667.5,"stimulus":"\n                    <p><b>Action: <em>harvest</em></b></p>\n                    <p>This is the bee that you just saw.</p>\n                    <img src=\"bees-with-color/bee-A2DF.svg\" width=\"200\">\n                    <p><span class=\"redText\">Bad choice, the bee was angry.</span><br><b>You have been stung!</b><br>Your pay has been decreased by $0.10. Your bonus pay is now $0.52.</p>\n            ","response":0,"trial_type":"html-button-response","trial_index":42,"time_elapsed":293646,"internal_node_id":"0.0-4.0-1.17","subject_id":"61542045f27b876c93207ad0","study_id":"60edd13110225f80f9f3709b","session_id":"6196c3d92fb1cf806d232eda","condition":"full-information","relevant_dimensions":["wings","pattern"],"bee_group":{"antennae":"X","wings":"2","pattern":"D","legs":"X"},"bonus":1.1600000000000013},{"rt":1251.9000000357628,"stimulus":"bees-with-color/bee-A2SM.svg","response":0,"trial_type":"image-button-response","trial_index":43,"time_elapsed":294902,"internal_node_id":"0.0-4.0-0.18","subject_id":"61542045f27b876c93207ad0","study_id":"60edd13110225f80f9f3709b","session_id":"6196c3d92fb1cf806d232eda","condition":"full-information","relevant_dimensions":["wings","pattern"],"bee_group":{"antennae":"X","wings":"2","pattern":"D","legs":"X"},"action":"harvest","summary":"good-harvest","bonus":1.1600000000000013},{"rt":971.0999999642372,"stimulus":"\n                    <p><b>Action: <em>harvest</em></b></p>\n                    <p>This is the bee that you just saw.</p>\n                    <img src=\"bees-with-color/bee-A2SM.svg\" width=\"200\">\n                    <p><span class=\"greenText\"><b>Successful harvest!</b></span><br>Your pay has increased by $0.02. Your bonus pay is now $0.54.</p>\n            ","response":0,"trial_type":"html-button-response","trial_index":44,"time_elapsed":295878,"internal_node_id":"0.0-4.0-1.18","subject_id":"61542045f27b876c93207ad0","study_id":"60edd13110225f80f9f3709b","session_id":"6196c3d92fb1cf806d232eda","condition":"full-information","relevant_dimensions":["wings","pattern"],"bee_group":{"antennae":"X","wings":"2","pattern":"D","legs":"X"},"bonus":1.1600000000000013},{"rt":3011.800000011921,"stimulus":"bees-with-color/bee-A1DM.svg","response":0,"trial_type":"image-button-response","trial_index":45,"time_elapsed":298894,"internal_node_id":"0.0-4.0-0.19","subject_id":"61542045f27b876c93207ad0","study_id":"60edd13110225f80f9f3709b","session_id":"6196c3d92fb1cf806d232eda","condition":"full-information","relevant_dimensions":["wings","pattern"],"bee_group":{"antennae":"X","wings":"2","pattern":"D","legs":"X"},"action":"harvest","summary":"good-harvest","bonus":1.1600000000000013},{"rt":794.7000000476837,"stimulus":"\n                    <p><b>Action: <em>harvest</em></b></p>\n                    <p>This is the bee that you just saw.</p>\n                    <img src=\"bees-with-color/bee-A1DM.svg\" width=\"200\">\n                    <p><span class=\"greenText\"><b>Successful harvest!</b></span><br>Your pay has increased by $0.02. Your bonus pay is now $0.56.</p>\n            ","response":0,"trial_type":"html-button-response","trial_index":46,"time_elapsed":299694,"internal_node_id":"0.0-4.0-1.19","subject_id":"61542045f27b876c93207ad0","study_id":"60edd13110225f80f9f3709b","session_id":"6196c3d92fb1cf806d232eda","condition":"full-information","relevant_dimensions":["wings","pattern"],"bee_group":{"antennae":"X","wings":"2","pattern":"D","legs":"X"},"bonus":1.1600000000000013},{"rt":1466.199999988079,"stimulus":"bees-with-color/bee-A1DF.svg","response":0,"trial_type":"image-button-response","trial_index":47,"time_elapsed":301167,"internal_node_id":"0.0-4.0-0.20","subject_id":"61542045f27b876c93207ad0","study_id":"60edd13110225f80f9f3709b","session_id":"6196c3d92fb1cf806d232eda","condition":"full-information","relevant_dimensions":["wings","pattern"],"bee_group":{"antennae":"X","wings":"2","pattern":"D","legs":"X"},"action":"harvest","summary":"good-harvest","bonus":1.1600000000000013},{"rt":745,"stimulus":"\n                    <p><b>Action: <em>harvest</em></b></p>\n                    <p>This is the bee that you just saw.</p>\n                    <img src=\"bees-with-color/bee-A1DF.svg\" width=\"200\">\n                    <p><span class=\"greenText\"><b>Successful harvest!</b></span><br>Your pay has increased by $0.02. Your bonus pay is now $0.58.</p>\n            ","response":0,"trial_type":"html-button-response","trial_index":48,"time_elapsed":301918,"internal_node_id":"0.0-4.0-1.20","subject_id":"61542045f27b876c93207ad0","study_id":"60edd13110225f80f9f3709b","session_id":"6196c3d92fb1cf806d232eda","condition":"full-information","relevant_dimensions":["wings","pattern"],"bee_group":{"antennae":"X","wings":"2","pattern":"D","legs":"X"},"bonus":1.1600000000000013},{"rt":3146.899999976158,"stimulus":"bees-with-color/bee-B2DM.svg","response":1,"trial_type":"image-button-response","trial_index":49,"time_elapsed":305070,"internal_node_id":"0.0-4.0-0.21","subject_id":"61542045f27b876c93207ad0","study_id":"60edd13110225f80f9f3709b","session_id":"6196c3d92fb1cf806d232eda","condition":"full-information","relevant_dimensions":["wings","pattern"],"bee_group":{"antennae":"X","wings":"2","pattern":"D","legs":"X"},"action":"avoid","summary":"good-avoid","bonus":1.1600000000000013},{"rt":1586.800000011921,"stimulus":"\n                    <p><b>Action: <em>avoid</em></b></p>\n                    <p>This is the bee that you just saw.</p>\n                    <img src=\"bees-with-color/bee-B2DM.svg\" width=\"200\">\n                    <p><span class=\"greenText\">Good choice!</span>  This bee would have stung you.<br>Your bonus pay is unchanged, and remains at $0.58.</p>\n            ","response":0,"trial_type":"html-button-response","trial_index":50,"time_elapsed":306662,"internal_node_id":"0.0-4.0-1.21","subject_id":"61542045f27b876c93207ad0","study_id":"60edd13110225f80f9f3709b","session_id":"6196c3d92fb1cf806d232eda","condition":"full-information","relevant_dimensions":["wings","pattern"],"bee_group":{"antennae":"X","wings":"2","pattern":"D","legs":"X"},"bonus":1.1600000000000013},{"rt":5329.5,"stimulus":"bees-with-color/bee-A1SF.svg","response":0,"trial_type":"image-button-response","trial_index":51,"time_elapsed":311997,"internal_node_id":"0.0-4.0-0.22","subject_id":"61542045f27b876c93207ad0","study_id":"60edd13110225f80f9f3709b","session_id":"6196c3d92fb1cf806d232eda","condition":"full-information","relevant_dimensions":["wings","pattern"],"bee_group":{"antennae":"X","wings":"2","pattern":"D","legs":"X"},"action":"harvest","summary":"good-harvest","bonus":1.1600000000000013},{"rt":756.2999999523163,"stimulus":"\n                    <p><b>Action: <em>harvest</em></b></p>\n                    <p>This is the bee that you just saw.</p>\n                    <img src=\"bees-with-color/bee-A1SF.svg\" width=\"200\">\n                    <p><span class=\"greenText\"><b>Successful harvest!</b></span><br>Your pay has increased by $0.02. Your bonus pay is now $0.60.</p>\n            ","response":0,"trial_type":"html-button-response","trial_index":52,"time_elapsed":312758,"internal_node_id":"0.0-4.0-1.22","subject_id":"61542045f27b876c93207ad0","study_id":"60edd13110225f80f9f3709b","session_id":"6196c3d92fb1cf806d232eda","condition":"full-information","relevant_dimensions":["wings","pattern"],"bee_group":{"antennae":"X","wings":"2","pattern":"D","legs":"X"},"bonus":1.1600000000000013},{"rt":2787.300000011921,"stimulus":"bees-with-color/bee-B2SM.svg","response":1,"trial_type":"image-button-response","trial_index":53,"time_elapsed":315550,"internal_node_id":"0.0-4.0-0.23","subject_id":"61542045f27b876c93207ad0","study_id":"60edd13110225f80f9f3709b","session_id":"6196c3d92fb1cf806d232eda","condition":"full-information","relevant_dimensions":["wings","pattern"],"bee_group":{"antennae":"X","wings":"2","pattern":"D","legs":"X"},"action":"avoid","summary":"bad-avoid","bonus":1.1600000000000013},{"rt":817.5999999642372,"stimulus":"\n                    <p><b>Action: <em>avoid</em></b></p>\n                    <p>This is the bee that you just saw.</p>\n                    <img src=\"bees-with-color/bee-B2SM.svg\" width=\"200\">\n                    <p><span class=\"redText\">Bad choice,</span> the bee was friendly.<br>Your bonus pay is unchanged, and remains at $0.60.</p>\n            ","response":0,"trial_type":"html-button-response","trial_index":54,"time_elapsed":316374,"internal_node_id":"0.0-4.0-1.23","subject_id":"61542045f27b876c93207ad0","study_id":"60edd13110225f80f9f3709b","session_id":"6196c3d92fb1cf806d232eda","condition":"full-information","relevant_dimensions":["wings","pattern"],"bee_group":{"antennae":"X","wings":"2","pattern":"D","legs":"X"},"bonus":1.1600000000000013},{"rt":1388.5,"stimulus":"bees-with-color/bee-B1SF.svg","response":0,"trial_type":"image-button-response","trial_index":55,"time_elapsed":317766,"internal_node_id":"0.0-4.0-0.24","subject_id":"61542045f27b876c93207ad0","study_id":"60edd13110225f80f9f3709b","session_id":"6196c3d92fb1cf806d232eda","condition":"full-information","relevant_dimensions":["wings","pattern"],"bee_group":{"antennae":"X","wings":"2","pattern":"D","legs":"X"},"action":"harvest","summary":"good-harvest","bonus":1.1600000000000013},{"rt":675.8999999761581,"stimulus":"\n                    <p><b>Action: <em>harvest</em></b></p>\n                    <p>This is the bee that you just saw.</p>\n                    <img src=\"bees-with-color/bee-B1SF.svg\" width=\"200\">\n                    <p><span class=\"greenText\"><b>Successful harvest!</b></span><br>Your pay has increased by $0.02. Your bonus pay is now $0.62.</p>\n            ","response":0,"trial_type":"html-button-response","trial_index":56,"time_elapsed":318445,"internal_node_id":"0.0-4.0-1.24","subject_id":"61542045f27b876c93207ad0","study_id":"60edd13110225f80f9f3709b","session_id":"6196c3d92fb1cf806d232eda","condition":"full-information","relevant_dimensions":["wings","pattern"],"bee_group":{"antennae":"X","wings":"2","pattern":"D","legs":"X"},"bonus":1.1600000000000013},{"rt":1244.4000000357628,"stimulus":"bees-with-color/bee-A2SF.svg","response":0,"trial_type":"image-button-response","trial_index":57,"time_elapsed":319693,"internal_node_id":"0.0-4.0-0.25","subject_id":"61542045f27b876c93207ad0","study_id":"60edd13110225f80f9f3709b","session_id":"6196c3d92fb1cf806d232eda","condition":"full-information","relevant_dimensions":["wings","pattern"],"bee_group":{"antennae":"X","wings":"2","pattern":"D","legs":"X"},"action":"harvest","summary":"good-harvest","bonus":1.1600000000000013},{"rt":740.2000000476837,"stimulus":"\n                    <p><b>Action: <em>harvest</em></b></p>\n                    <p>This is the bee that you just saw.</p>\n                    <img src=\"bees-with-color/bee-A2SF.svg\" width=\"200\">\n                    <p><span class=\"greenText\"><b>Successful harvest!</b></span><br>Your pay has increased by $0.02. Your bonus pay is now $0.64.</p>\n            ","response":0,"trial_type":"html-button-response","trial_index":58,"time_elapsed":320437,"internal_node_id":"0.0-4.0-1.25","subject_id":"61542045f27b876c93207ad0","study_id":"60edd13110225f80f9f3709b","session_id":"6196c3d92fb1cf806d232eda","condition":"full-information","relevant_dimensions":["wings","pattern"],"bee_group":{"antennae":"X","wings":"2","pattern":"D","legs":"X"},"bonus":1.1600000000000013},{"rt":1300.699999988079,"stimulus":"bees-with-color/bee-A1SM.svg","response":0,"trial_type":"image-button-response","trial_index":59,"time_elapsed":321742,"internal_node_id":"0.0-4.0-0.26","subject_id":"61542045f27b876c93207ad0","study_id":"60edd13110225f80f9f3709b","session_id":"6196c3d92fb1cf806d232eda","condition":"full-information","relevant_dimensions":["wings","pattern"],"bee_group":{"antennae":"X","wings":"2","pattern":"D","legs":"X"},"action":"harvest","summary":"good-harvest","bonus":1.1600000000000013},{"rt":1042.699999988079,"stimulus":"\n                    <p><b>Action: <em>harvest</em></b></p>\n                    <p>This is the bee that you just saw.</p>\n                    <img src=\"bees-with-color/bee-A1SM.svg\" width=\"200\">\n                    <p><span class=\"greenText\"><b>Successful harvest!</b></span><br>Your pay has increased by $0.02. Your bonus pay is now $0.66.</p>\n            ","response":0,"trial_type":"html-button-response","trial_index":60,"time_elapsed":322791,"internal_node_id":"0.0-4.0-1.26","subject_id":"61542045f27b876c93207ad0","study_id":"60edd13110225f80f9f3709b","session_id":"6196c3d92fb1cf806d232eda","condition":"full-information","relevant_dimensions":["wings","pattern"],"bee_group":{"antennae":"X","wings":"2","pattern":"D","legs":"X"},"bonus":1.1600000000000013},{"rt":2184.099999964237,"stimulus":"bees-with-color/bee-B1DM.svg","response":0,"trial_type":"image-button-response","trial_index":61,"time_elapsed":324981,"internal_node_id":"0.0-4.0-0.27","subject_id":"61542045f27b876c93207ad0","study_id":"60edd13110225f80f9f3709b","session_id":"6196c3d92fb1cf806d232eda","condition":"full-information","relevant_dimensions":["wings","pattern"],"bee_group":{"antennae":"X","wings":"2","pattern":"D","legs":"X"},"action":"harvest","summary":"good-harvest","bonus":1.1600000000000013},{"rt":707.8000000119209,"stimulus":"\n                    <p><b>Action: <em>harvest</em></b></p>\n                    <p>This is the bee that you just saw.</p>\n                    <img src=\"bees-with-color/bee-B1DM.svg\" width=\"200\">\n                    <p><span class=\"greenText\"><b>Successful harvest!</b></span><br>Your pay has increased by $0.02. Your bonus pay is now $0.68.</p>\n            ","response":0,"trial_type":"html-button-response","trial_index":62,"time_elapsed":325693,"internal_node_id":"0.0-4.0-1.27","subject_id":"61542045f27b876c93207ad0","study_id":"60edd13110225f80f9f3709b","session_id":"6196c3d92fb1cf806d232eda","condition":"full-information","relevant_dimensions":["wings","pattern"],"bee_group":{"antennae":"X","wings":"2","pattern":"D","legs":"X"},"bonus":1.1600000000000013},{"rt":2283.400000035763,"stimulus":"bees-with-color/bee-B2DF.svg","response":0,"trial_type":"image-button-response","trial_index":63,"time_elapsed":327981,"internal_node_id":"0.0-4.0-0.28","subject_id":"61542045f27b876c93207ad0","study_id":"60edd13110225f80f9f3709b","session_id":"6196c3d92fb1cf806d232eda","condition":"full-information","relevant_dimensions":["wings","pattern"],"bee_group":{"antennae":"X","wings":"2","pattern":"D","legs":"X"},"action":"harvest","summary":"bad-harvest","bonus":1.1600000000000013},{"rt":1091.5999999642372,"stimulus":"\n                    <p><b>Action: <em>harvest</em></b></p>\n                    <p>This is the bee that you just saw.</p>\n                    <img src=\"bees-with-color/bee-B2DF.svg\" width=\"200\">\n                    <p><span class=\"redText\">Bad choice, the bee was angry.</span><br><b>You have been stung!</b><br>Your pay has been decreased by $0.10. Your bonus pay is now $0.58.</p>\n            ","response":0,"trial_type":"html-button-response","trial_index":64,"time_elapsed":329077,"internal_node_id":"0.0-4.0-1.28","subject_id":"61542045f27b876c93207ad0","study_id":"60edd13110225f80f9f3709b","session_id":"6196c3d92fb1cf806d232eda","condition":"full-information","relevant_dimensions":["wings","pattern"],"bee_group":{"antennae":"X","wings":"2","pattern":"D","legs":"X"},"bonus":1.1600000000000013},{"rt":1730.1000000238419,"stimulus":"bees-with-color/bee-B2SF.svg","response":0,"trial_type":"image-button-response","trial_index":65,"time_elapsed":330813,"internal_node_id":"0.0-4.0-0.29","subject_id":"61542045f27b876c93207ad0","study_id":"60edd13110225f80f9f3709b","session_id":"6196c3d92fb1cf806d232eda","condition":"full-information","relevant_dimensions":["wings","pattern"],"bee_group":{"antennae":"X","wings":"2","pattern":"D","legs":"X"},"action":"harvest","summary":"good-harvest","bonus":1.1600000000000013},{"rt":811.3999999761581,"stimulus":"\n                    <p><b>Action: <em>harvest</em></b></p>\n                    <p>This is the bee that you just saw.</p>\n                    <img src=\"bees-with-color/bee-B2SF.svg\" width=\"200\">\n                    <p><span class=\"greenText\"><b>Successful harvest!</b></span><br>Your pay has increased by $0.02. Your bonus pay is now $0.60.</p>\n            ","response":0,"trial_type":"html-button-response","trial_index":66,"time_elapsed":331629,"internal_node_id":"0.0-4.0-1.29","subject_id":"61542045f27b876c93207ad0","study_id":"60edd13110225f80f9f3709b","session_id":"6196c3d92fb1cf806d232eda","condition":"full-information","relevant_dimensions":["wings","pattern"],"bee_group":{"antennae":"X","wings":"2","pattern":"D","legs":"X"},"bonus":1.1600000000000013},{"rt":1980.3999999761581,"stimulus":"bees-with-color/bee-A2DM.svg","response":0,"trial_type":"image-button-response","trial_index":67,"time_elapsed":333613,"internal_node_id":"0.0-4.0-0.30","subject_id":"61542045f27b876c93207ad0","study_id":"60edd13110225f80f9f3709b","session_id":"6196c3d92fb1cf806d232eda","condition":"full-information","relevant_dimensions":["wings","pattern"],"bee_group":{"antennae":"X","wings":"2","pattern":"D","legs":"X"},"action":"harvest","summary":"bad-harvest","bonus":1.1600000000000013},{"rt":1395.4000000357628,"stimulus":"\n                    <p><b>Action: <em>harvest</em></b></p>\n                    <p>This is the bee that you just saw.</p>\n                    <img src=\"bees-with-color/bee-A2DM.svg\" width=\"200\">\n                    <p><span class=\"redText\">Bad choice, the bee was angry.</span><br><b>You have been stung!</b><br>Your pay has been decreased by $0.10. Your bonus pay is now $0.50.</p>\n            ","response":0,"trial_type":"html-button-response","trial_index":68,"time_elapsed":335014,"internal_node_id":"0.0-4.0-1.30","subject_id":"61542045f27b876c93207ad0","study_id":"60edd13110225f80f9f3709b","session_id":"6196c3d92fb1cf806d232eda","condition":"full-information","relevant_dimensions":["wings","pattern"],"bee_group":{"antennae":"X","wings":"2","pattern":"D","legs":"X"},"bonus":1.1600000000000013},{"rt":1434.1000000238419,"stimulus":"bees-with-color/bee-B1DF.svg","response":0,"trial_type":"image-button-response","trial_index":69,"time_elapsed":336453,"internal_node_id":"0.0-4.0-0.31","subject_id":"61542045f27b876c93207ad0","study_id":"60edd13110225f80f9f3709b","session_id":"6196c3d92fb1cf806d232eda","condition":"full-information","relevant_dimensions":["wings","pattern"],"bee_group":{"antennae":"X","wings":"2","pattern":"D","legs":"X"},"action":"harvest","summary":"good-harvest","bonus":1.1600000000000013},{"rt":627.3000000119209,"stimulus":"\n                    <p><b>Action: <em>harvest</em></b></p>\n                    <p>This is the bee that you just saw.</p>\n                    <img src=\"bees-with-color/bee-B1DF.svg\" width=\"200\">\n                    <p><span class=\"greenText\"><b>Successful harvest!</b></span><br>Your pay has increased by $0.02. Your bonus pay is now $0.52.</p>\n            ","response":0,"trial_type":"html-button-response","trial_index":70,"time_elapsed":337085,"internal_node_id":"0.0-4.0-1.31","subject_id":"61542045f27b876c93207ad0","study_id":"60edd13110225f80f9f3709b","session_id":"6196c3d92fb1cf806d232eda","condition":"full-information","relevant_dimensions":["wings","pattern"],"bee_group":{"antennae":"X","wings":"2","pattern":"D","legs":"X"},"bonus":1.1600000000000013},{"rt":1211.9000000357628,"stimulus":"bees-with-color/bee-A1DM.svg","response":0,"trial_type":"image-button-response","trial_index":71,"time_elapsed":338301,"internal_node_id":"0.0-4.0-0.32","subject_id":"61542045f27b876c93207ad0","study_id":"60edd13110225f80f9f3709b","session_id":"6196c3d92fb1cf806d232eda","condition":"full-information","relevant_dimensions":["wings","pattern"],"bee_group":{"antennae":"X","wings":"2","pattern":"D","legs":"X"},"action":"harvest","summary":"good-harvest","bonus":1.1600000000000013},{"rt":658.6999999880791,"stimulus":"\n                    <p><b>Action: <em>harvest</em></b></p>\n                    <p>This is the bee that you just saw.</p>\n                    <img src=\"bees-with-color/bee-A1DM.svg\" width=\"200\">\n                    <p><span class=\"greenText\"><b>Successful harvest!</b></span><br>Your pay has increased by $0.02. Your bonus pay is now $0.54.</p>\n            ","response":0,"trial_type":"html-button-response","trial_index":72,"time_elapsed":338965,"internal_node_id":"0.0-4.0-1.32","subject_id":"61542045f27b876c93207ad0","study_id":"60edd13110225f80f9f3709b","session_id":"6196c3d92fb1cf806d232eda","condition":"full-information","relevant_dimensions":["wings","pattern"],"bee_group":{"antennae":"X","wings":"2","pattern":"D","legs":"X"},"bonus":1.1600000000000013},{"rt":2364.100000023842,"stimulus":"bees-with-color/bee-B2SM.svg","response":0,"trial_type":"image-button-response","trial_index":73,"time_elapsed":341333,"internal_node_id":"0.0-4.0-0.33","subject_id":"61542045f27b876c93207ad0","study_id":"60edd13110225f80f9f3709b","session_id":"6196c3d92fb1cf806d232eda","condition":"full-information","relevant_dimensions":["wings","pattern"],"bee_group":{"antennae":"X","wings":"2","pattern":"D","legs":"X"},"action":"harvest","summary":"good-harvest","bonus":1.1600000000000013},{"rt":707.1000000238419,"stimulus":"\n                    <p><b>Action: <em>harvest</em></b></p>\n                    <p>This is the bee that you just saw.</p>\n                    <img src=\"bees-with-color/bee-B2SM.svg\" width=\"200\">\n                    <p><span class=\"greenText\"><b>Successful harvest!</b></span><br>Your pay has increased by $0.02. Your bonus pay is now $0.56.</p>\n            ","response":0,"trial_type":"html-button-response","trial_index":74,"time_elapsed":342045,"internal_node_id":"0.0-4.0-1.33","subject_id":"61542045f27b876c93207ad0","study_id":"60edd13110225f80f9f3709b","session_id":"6196c3d92fb1cf806d232eda","condition":"full-information","relevant_dimensions":["wings","pattern"],"bee_group":{"antennae":"X","wings":"2","pattern":"D","legs":"X"},"bonus":1.1600000000000013},{"rt":1499.5,"stimulus":"bees-with-color/bee-B1DF.svg","response":0,"trial_type":"image-button-response","trial_index":75,"time_elapsed":343549,"internal_node_id":"0.0-4.0-0.34","subject_id":"61542045f27b876c93207ad0","study_id":"60edd13110225f80f9f3709b","session_id":"6196c3d92fb1cf806d232eda","condition":"full-information","relevant_dimensions":["wings","pattern"],"bee_group":{"antennae":"X","wings":"2","pattern":"D","legs":"X"},"action":"harvest","summary":"good-harvest","bonus":1.1600000000000013},{"rt":739.3000000119209,"stimulus":"\n                    <p><b>Action: <em>harvest</em></b></p>\n                    <p>This is the bee that you just saw.</p>\n                    <img src=\"bees-with-color/bee-B1DF.svg\" width=\"200\">\n                    <p><span class=\"greenText\"><b>Successful harvest!</b></span><br>Your pay has increased by $0.02. Your bonus pay is now $0.58.</p>\n            ","response":0,"trial_type":"html-button-response","trial_index":76,"time_elapsed":344293,"internal_node_id":"0.0-4.0-1.34","subject_id":"61542045f27b876c93207ad0","study_id":"60edd13110225f80f9f3709b","session_id":"6196c3d92fb1cf806d232eda","condition":"full-information","relevant_dimensions":["wings","pattern"],"bee_group":{"antennae":"X","wings":"2","pattern":"D","legs":"X"},"bonus":1.1600000000000013},{"rt":2722.399999976158,"stimulus":"bees-with-color/bee-B2DM.svg","response":1,"trial_type":"image-button-response","trial_index":77,"time_elapsed":347021,"internal_node_id":"0.0-4.0-0.35","subject_id":"61542045f27b876c93207ad0","study_id":"60edd13110225f80f9f3709b","session_id":"6196c3d92fb1cf806d232eda","condition":"full-information","relevant_dimensions":["wings","pattern"],"bee_group":{"antennae":"X","wings":"2","pattern":"D","legs":"X"},"action":"avoid","summary":"good-avoid","bonus":1.1600000000000013},{"rt":834.8000000119209,"stimulus":"\n                    <p><b>Action: <em>avoid</em></b></p>\n                    <p>This is the bee that you just saw.</p>\n                    <img src=\"bees-with-color/bee-B2DM.svg\" width=\"200\">\n                    <p><span class=\"greenText\">Good choice!</span>  This bee would have stung you.<br>Your bonus pay is unchanged, and remains at $0.58.</p>\n            ","response":0,"trial_type":"html-button-response","trial_index":78,"time_elapsed":347861,"internal_node_id":"0.0-4.0-1.35","subject_id":"61542045f27b876c93207ad0","study_id":"60edd13110225f80f9f3709b","session_id":"6196c3d92fb1cf806d232eda","condition":"full-information","relevant_dimensions":["wings","pattern"],"bee_group":{"antennae":"X","wings":"2","pattern":"D","legs":"X"},"bonus":1.1600000000000013},{"rt":1026,"stimulus":"bees-with-color/bee-B1SF.svg","response":0,"trial_type":"image-button-response","trial_index":79,"time_elapsed":348894,"internal_node_id":"0.0-4.0-0.36","subject_id":"61542045f27b876c93207ad0","study_id":"60edd13110225f80f9f3709b","session_id":"6196c3d92fb1cf806d232eda","condition":"full-information","relevant_dimensions":["wings","pattern"],"bee_group":{"antennae":"X","wings":"2","pattern":"D","legs":"X"},"action":"harvest","summary":"good-harvest","bonus":1.1600000000000013},{"rt":714.8999999761581,"stimulus":"\n                    <p><b>Action: <em>harvest</em></b></p>\n                    <p>This is the bee that you just saw.</p>\n                    <img src=\"bees-with-color/bee-B1SF.svg\" width=\"200\">\n                    <p><span class=\"greenText\"><b>Successful harvest!</b></span><br>Your pay has increased by $0.02. Your bonus pay is now $0.60.</p>\n            ","response":0,"trial_type":"html-button-response","trial_index":80,"time_elapsed":349614,"internal_node_id":"0.0-4.0-1.36","subject_id":"61542045f27b876c93207ad0","study_id":"60edd13110225f80f9f3709b","session_id":"6196c3d92fb1cf806d232eda","condition":"full-information","relevant_dimensions":["wings","pattern"],"bee_group":{"antennae":"X","wings":"2","pattern":"D","legs":"X"},"bonus":1.1600000000000013},{"rt":1574.800000011921,"stimulus":"bees-with-color/bee-A1SF.svg","response":0,"trial_type":"image-button-response","trial_index":81,"time_elapsed":351198,"internal_node_id":"0.0-4.0-0.37","subject_id":"61542045f27b876c93207ad0","study_id":"60edd13110225f80f9f3709b","session_id":"6196c3d92fb1cf806d232eda","condition":"full-information","relevant_dimensions":["wings","pattern"],"bee_group":{"antennae":"X","wings":"2","pattern":"D","legs":"X"},"action":"harvest","summary":"good-harvest","bonus":1.1600000000000013},{"rt":762.6000000238419,"stimulus":"\n                    <p><b>Action: <em>harvest</em></b></p>\n                    <p>This is the bee that you just saw.</p>\n                    <img src=\"bees-with-color/bee-A1SF.svg\" width=\"200\">\n                    <p><span class=\"greenText\"><b>Successful harvest!</b></span><br>Your pay has increased by $0.02. Your bonus pay is now $0.62.</p>\n            ","response":0,"trial_type":"html-button-response","trial_index":82,"time_elapsed":351966,"internal_node_id":"0.0-4.0-1.37","subject_id":"61542045f27b876c93207ad0","study_id":"60edd13110225f80f9f3709b","session_id":"6196c3d92fb1cf806d232eda","condition":"full-information","relevant_dimensions":["wings","pattern"],"bee_group":{"antennae":"X","wings":"2","pattern":"D","legs":"X"},"bonus":1.1600000000000013},{"rt":3804.599999964237,"stimulus":"bees-with-color/bee-A2DM.svg","response":1,"trial_type":"image-button-response","trial_index":83,"time_elapsed":355773,"internal_node_id":"0.0-4.0-0.38","subject_id":"61542045f27b876c93207ad0","study_id":"60edd13110225f80f9f3709b","session_id":"6196c3d92fb1cf806d232eda","condition":"full-information","relevant_dimensions":["wings","pattern"],"bee_group":{"antennae":"X","wings":"2","pattern":"D","legs":"X"},"action":"avoid","summary":"good-avoid","bonus":1.1600000000000013},{"rt":652.1999999880791,"stimulus":"\n                    <p><b>Action: <em>avoid</em></b></p>\n                    <p>This is the bee that you just saw.</p>\n                    <img src=\"bees-with-color/bee-A2DM.svg\" width=\"200\">\n                    <p><span class=\"greenText\">Good choice!</span>  This bee would have stung you.<br>Your bonus pay is unchanged, and remains at $0.62.</p>\n            ","response":0,"trial_type":"html-button-response","trial_index":84,"time_elapsed":356429,"internal_node_id":"0.0-4.0-1.38","subject_id":"61542045f27b876c93207ad0","study_id":"60edd13110225f80f9f3709b","session_id":"6196c3d92fb1cf806d232eda","condition":"full-information","relevant_dimensions":["wings","pattern"],"bee_group":{"antennae":"X","wings":"2","pattern":"D","legs":"X"},"bonus":1.1600000000000013},{"rt":1580.5999999642372,"stimulus":"bees-with-color/bee-A1DF.svg","response":0,"trial_type":"image-button-response","trial_index":85,"time_elapsed":358015,"internal_node_id":"0.0-4.0-0.39","subject_id":"61542045f27b876c93207ad0","study_id":"60edd13110225f80f9f3709b","session_id":"6196c3d92fb1cf806d232eda","condition":"full-information","relevant_dimensions":["wings","pattern"],"bee_group":{"antennae":"X","wings":"2","pattern":"D","legs":"X"},"action":"harvest","summary":"good-harvest","bonus":1.1600000000000013},{"rt":745.9000000357628,"stimulus":"\n                    <p><b>Action: <em>harvest</em></b></p>\n                    <p>This is the bee that you just saw.</p>\n                    <img src=\"bees-with-color/bee-A1DF.svg\" width=\"200\">\n                    <p><span class=\"greenText\"><b>Successful harvest!</b></span><br>Your pay has increased by $0.02. Your bonus pay is now $0.64.</p>\n            ","response":0,"trial_type":"html-button-response","trial_index":86,"time_elapsed":358767,"internal_node_id":"0.0-4.0-1.39","subject_id":"61542045f27b876c93207ad0","study_id":"60edd13110225f80f9f3709b","session_id":"6196c3d92fb1cf806d232eda","condition":"full-information","relevant_dimensions":["wings","pattern"],"bee_group":{"antennae":"X","wings":"2","pattern":"D","legs":"X"},"bonus":1.1600000000000013},{"rt":1272.5,"stimulus":"bees-with-color/bee-B1SM.svg","response":0,"trial_type":"image-button-response","trial_index":87,"time_elapsed":360046,"internal_node_id":"0.0-4.0-0.40","subject_id":"61542045f27b876c93207ad0","study_id":"60edd13110225f80f9f3709b","session_id":"6196c3d92fb1cf806d232eda","condition":"full-information","relevant_dimensions":["wings","pattern"],"bee_group":{"antennae":"X","wings":"2","pattern":"D","legs":"X"},"action":"harvest","summary":"good-harvest","bonus":1.1600000000000013},{"rt":739.9000000357628,"stimulus":"\n                    <p><b>Action: <em>harvest</em></b></p>\n                    <p>This is the bee that you just saw.</p>\n                    <img src=\"bees-with-color/bee-B1SM.svg\" width=\"200\">\n                    <p><span class=\"greenText\"><b>Successful harvest!</b></span><br>Your pay has increased by $0.02. Your bonus pay is now $0.66.</p>\n            ","response":0,"trial_type":"html-button-response","trial_index":88,"time_elapsed":360789,"internal_node_id":"0.0-4.0-1.40","subject_id":"61542045f27b876c93207ad0","study_id":"60edd13110225f80f9f3709b","session_id":"6196c3d92fb1cf806d232eda","condition":"full-information","relevant_dimensions":["wings","pattern"],"bee_group":{"antennae":"X","wings":"2","pattern":"D","legs":"X"},"bonus":1.1600000000000013},{"rt":1140.800000011921,"stimulus":"bees-with-color/bee-A2DF.svg","response":0,"trial_type":"image-button-response","trial_index":89,"time_elapsed":361934,"internal_node_id":"0.0-4.0-0.41","subject_id":"61542045f27b876c93207ad0","study_id":"60edd13110225f80f9f3709b","session_id":"6196c3d92fb1cf806d232eda","condition":"full-information","relevant_dimensions":["wings","pattern"],"bee_group":{"antennae":"X","wings":"2","pattern":"D","legs":"X"},"action":"harvest","summary":"bad-harvest","bonus":1.1600000000000013},{"rt":7307.400000035763,"stimulus":"\n                    <p><b>Action: <em>harvest</em></b></p>\n                    <p>This is the bee that you just saw.</p>\n                    <img src=\"bees-with-color/bee-A2DF.svg\" width=\"200\">\n                    <p><span class=\"redText\">Bad choice, the bee was angry.</span><br><b>You have been stung!</b><br>Your pay has been decreased by $0.10. Your bonus pay is now $0.56.</p>\n            ","response":0,"trial_type":"html-button-response","trial_index":90,"time_elapsed":369245,"internal_node_id":"0.0-4.0-1.41","subject_id":"61542045f27b876c93207ad0","study_id":"60edd13110225f80f9f3709b","session_id":"6196c3d92fb1cf806d232eda","condition":"full-information","relevant_dimensions":["wings","pattern"],"bee_group":{"antennae":"X","wings":"2","pattern":"D","legs":"X"},"bonus":1.1600000000000013},{"rt":2538.2999999523163,"stimulus":"bees-with-color/bee-A2SM.svg","response":0,"trial_type":"image-button-response","trial_index":91,"time_elapsed":371789,"internal_node_id":"0.0-4.0-0.42","subject_id":"61542045f27b876c93207ad0","study_id":"60edd13110225f80f9f3709b","session_id":"6196c3d92fb1cf806d232eda","condition":"full-information","relevant_dimensions":["wings","pattern"],"bee_group":{"antennae":"X","wings":"2","pattern":"D","legs":"X"},"action":"harvest","summary":"good-harvest","bonus":1.1600000000000013},{"rt":739.6999999880791,"stimulus":"\n                    <p><b>Action: <em>harvest</em></b></p>\n                    <p>This is the bee that you just saw.</p>\n                    <img src=\"bees-with-color/bee-A2SM.svg\" width=\"200\">\n                    <p><span class=\"greenText\"><b>Successful harvest!</b></span><br>Your pay has increased by $0.02. Your bonus pay is now $0.58.</p>\n            ","response":0,"trial_type":"html-button-response","trial_index":92,"time_elapsed":372533,"internal_node_id":"0.0-4.0-1.42","subject_id":"61542045f27b876c93207ad0","study_id":"60edd13110225f80f9f3709b","session_id":"6196c3d92fb1cf806d232eda","condition":"full-information","relevant_dimensions":["wings","pattern"],"bee_group":{"antennae":"X","wings":"2","pattern":"D","legs":"X"},"bonus":1.1600000000000013},{"rt":988.5,"stimulus":"bees-with-color/bee-B2DF.svg","response":0,"trial_type":"image-button-response","trial_index":93,"time_elapsed":373525,"internal_node_id":"0.0-4.0-0.43","subject_id":"61542045f27b876c93207ad0","study_id":"60edd13110225f80f9f3709b","session_id":"6196c3d92fb1cf806d232eda","condition":"full-information","relevant_dimensions":["wings","pattern"],"bee_group":{"antennae":"X","wings":"2","pattern":"D","legs":"X"},"action":"harvest","summary":"bad-harvest","bonus":1.1600000000000013},{"rt":771.1999999880791,"stimulus":"\n                    <p><b>Action: <em>harvest</em></b></p>\n                    <p>This is the bee that you just saw.</p>\n                    <img src=\"bees-with-color/bee-B2DF.svg\" width=\"200\">\n                    <p><span class=\"redText\">Bad choice, the bee was angry.</span><br><b>You have been stung!</b><br>Your pay has been decreased by $0.10. Your bonus pay is now $0.48.</p>\n            ","response":0,"trial_type":"html-button-response","trial_index":94,"time_elapsed":374301,"internal_node_id":"0.0-4.0-1.43","subject_id":"61542045f27b876c93207ad0","study_id":"60edd13110225f80f9f3709b","session_id":"6196c3d92fb1cf806d232eda","condition":"full-information","relevant_dimensions":["wings","pattern"],"bee_group":{"antennae":"X","wings":"2","pattern":"D","legs":"X"},"bonus":1.1600000000000013},{"rt":740,"stimulus":"bees-with-color/bee-B2SF.svg","response":0,"trial_type":"image-button-response","trial_index":95,"time_elapsed":375045,"internal_node_id":"0.0-4.0-0.44","subject_id":"61542045f27b876c93207ad0","study_id":"60edd13110225f80f9f3709b","session_id":"6196c3d92fb1cf806d232eda","condition":"full-information","relevant_dimensions":["wings","pattern"],"bee_group":{"antennae":"X","wings":"2","pattern":"D","legs":"X"},"action":"harvest","summary":"good-harvest","bonus":1.1600000000000013},{"rt":723.6999999880791,"stimulus":"\n                    <p><b>Action: <em>harvest</em></b></p>\n                    <p>This is the bee that you just saw.</p>\n                    <img src=\"bees-with-color/bee-B2SF.svg\" width=\"200\">\n                    <p><span class=\"greenText\"><b>Successful harvest!</b></span><br>Your pay has increased by $0.02. Your bonus pay is now $0.50.</p>\n            ","response":0,"trial_type":"html-button-response","trial_index":96,"time_elapsed":375773,"internal_node_id":"0.0-4.0-1.44","subject_id":"61542045f27b876c93207ad0","study_id":"60edd13110225f80f9f3709b","session_id":"6196c3d92fb1cf806d232eda","condition":"full-information","relevant_dimensions":["wings","pattern"],"bee_group":{"antennae":"X","wings":"2","pattern":"D","legs":"X"},"bonus":1.1600000000000013},{"rt":940,"stimulus":"bees-with-color/bee-A1SM.svg","response":0,"trial_type":"image-button-response","trial_index":97,"time_elapsed":376717,"internal_node_id":"0.0-4.0-0.45","subject_id":"61542045f27b876c93207ad0","study_id":"60edd13110225f80f9f3709b","session_id":"6196c3d92fb1cf806d232eda","condition":"full-information","relevant_dimensions":["wings","pattern"],"bee_group":{"antennae":"X","wings":"2","pattern":"D","legs":"X"},"action":"harvest","summary":"good-harvest","bonus":1.1600000000000013},{"rt":1163.199999988079,"stimulus":"\n                    <p><b>Action: <em>harvest</em></b></p>\n                    <p>This is the bee that you just saw.</p>\n                    <img src=\"bees-with-color/bee-A1SM.svg\" width=\"200\">\n                    <p><span class=\"greenText\"><b>Successful harvest!</b></span><br>Your pay has increased by $0.02. Your bonus pay is now $0.52.</p>\n            ","response":0,"trial_type":"html-button-response","trial_index":98,"time_elapsed":377885,"internal_node_id":"0.0-4.0-1.45","subject_id":"61542045f27b876c93207ad0","study_id":"60edd13110225f80f9f3709b","session_id":"6196c3d92fb1cf806d232eda","condition":"full-information","relevant_dimensions":["wings","pattern"],"bee_group":{"antennae":"X","wings":"2","pattern":"D","legs":"X"},"bonus":1.1600000000000013},{"rt":3565.900000035763,"stimulus":"bees-with-color/bee-B1DM.svg","response":0,"trial_type":"image-button-response","trial_index":99,"time_elapsed":381455,"internal_node_id":"0.0-4.0-0.46","subject_id":"61542045f27b876c93207ad0","study_id":"60edd13110225f80f9f3709b","session_id":"6196c3d92fb1cf806d232eda","condition":"full-information","relevant_dimensions":["wings","pattern"],"bee_group":{"antennae":"X","wings":"2","pattern":"D","legs":"X"},"action":"harvest","summary":"good-harvest","bonus":1.1600000000000013},{"rt":673.3000000119209,"stimulus":"\n                    <p><b>Action: <em>harvest</em></b></p>\n                    <p>This is the bee that you just saw.</p>\n                    <img src=\"bees-with-color/bee-B1DM.svg\" width=\"200\">\n                    <p><span class=\"greenText\"><b>Successful harvest!</b></span><br>Your pay has increased by $0.02. Your bonus pay is now $0.54.</p>\n            ","response":0,"trial_type":"html-button-response","trial_index":100,"time_elapsed":382133,"internal_node_id":"0.0-4.0-1.46","subject_id":"61542045f27b876c93207ad0","study_id":"60edd13110225f80f9f3709b","session_id":"6196c3d92fb1cf806d232eda","condition":"full-information","relevant_dimensions":["wings","pattern"],"bee_group":{"antennae":"X","wings":"2","pattern":"D","legs":"X"},"bonus":1.1600000000000013},{"rt":1705.5,"stimulus":"bees-with-color/bee-A2SF.svg","response":0,"trial_type":"image-button-response","trial_index":101,"time_elapsed":383846,"internal_node_id":"0.0-4.0-0.47","subject_id":"61542045f27b876c93207ad0","study_id":"60edd13110225f80f9f3709b","session_id":"6196c3d92fb1cf806d232eda","condition":"full-information","relevant_dimensions":["wings","pattern"],"bee_group":{"antennae":"X","wings":"2","pattern":"D","legs":"X"},"action":"harvest","summary":"good-harvest","bonus":1.1600000000000013},{"rt":618.8999999761581,"stimulus":"\n                    <p><b>Action: <em>harvest</em></b></p>\n                    <p>This is the bee that you just saw.</p>\n                    <img src=\"bees-with-color/bee-A2SF.svg\" width=\"200\">\n                    <p><span class=\"greenText\"><b>Successful harvest!</b></span><br>Your pay has increased by $0.02. Your bonus pay is now $0.56.</p>\n            ","response":0,"trial_type":"html-button-response","trial_index":102,"time_elapsed":384469,"internal_node_id":"0.0-4.0-1.47","subject_id":"61542045f27b876c93207ad0","study_id":"60edd13110225f80f9f3709b","session_id":"6196c3d92fb1cf806d232eda","condition":"full-information","relevant_dimensions":["wings","pattern"],"bee_group":{"antennae":"X","wings":"2","pattern":"D","legs":"X"},"bonus":1.1600000000000013},{"rt":971.2999999523163,"stimulus":"bees-with-color/bee-B2DF.svg","response":0,"trial_type":"image-button-response","trial_index":103,"time_elapsed":385445,"internal_node_id":"0.0-4.0-0.48","subject_id":"61542045f27b876c93207ad0","study_id":"60edd13110225f80f9f3709b","session_id":"6196c3d92fb1cf806d232eda","condition":"full-information","relevant_dimensions":["wings","pattern"],"bee_group":{"antennae":"X","wings":"2","pattern":"D","legs":"X"},"action":"harvest","summary":"bad-harvest","bonus":1.1600000000000013},{"rt":6179.199999988079,"stimulus":"\n                    <p><b>Action: <em>harvest</em></b></p>\n                    <p>This is the bee that you just saw.</p>\n                    <img src=\"bees-with-color/bee-B2DF.svg\" width=\"200\">\n                    <p><span class=\"redText\">Bad choice, the bee was angry.</span><br><b>You have been stung!</b><br>Your pay has been decreased by $0.10. Your bonus pay is now $0.46.</p>\n            ","response":0,"trial_type":"html-button-response","trial_index":104,"time_elapsed":391629,"internal_node_id":"0.0-4.0-1.48","subject_id":"61542045f27b876c93207ad0","study_id":"60edd13110225f80f9f3709b","session_id":"6196c3d92fb1cf806d232eda","condition":"full-information","relevant_dimensions":["wings","pattern"],"bee_group":{"antennae":"X","wings":"2","pattern":"D","legs":"X"},"bonus":1.1600000000000013},{"rt":1105.3999999761581,"stimulus":"bees-with-color/bee-A1DF.svg","response":0,"trial_type":"image-button-response","trial_index":105,"time_elapsed":392741,"internal_node_id":"0.0-4.0-0.49","subject_id":"61542045f27b876c93207ad0","study_id":"60edd13110225f80f9f3709b","session_id":"6196c3d92fb1cf806d232eda","condition":"full-information","relevant_dimensions":["wings","pattern"],"bee_group":{"antennae":"X","wings":"2","pattern":"D","legs":"X"},"action":"harvest","summary":"good-harvest","bonus":1.1600000000000013},{"rt":570.8000000119209,"stimulus":"\n                    <p><b>Action: <em>harvest</em></b></p>\n                    <p>This is the bee that you just saw.</p>\n                    <img src=\"bees-with-color/bee-A1DF.svg\" width=\"200\">\n                    <p><span class=\"greenText\"><b>Successful harvest!</b></span><br>Your pay has increased by $0.02. Your bonus pay is now $0.48.</p>\n            ","response":0,"trial_type":"html-button-response","trial_index":106,"time_elapsed":393317,"internal_node_id":"0.0-4.0-1.49","subject_id":"61542045f27b876c93207ad0","study_id":"60edd13110225f80f9f3709b","session_id":"6196c3d92fb1cf806d232eda","condition":"full-information","relevant_dimensions":["wings","pattern"],"bee_group":{"antennae":"X","wings":"2","pattern":"D","legs":"X"},"bonus":1.1600000000000013},{"rt":1635.6000000238419,"stimulus":"bees-with-color/bee-B1DM.svg","response":0,"trial_type":"image-button-response","trial_index":107,"time_elapsed":394957,"internal_node_id":"0.0-4.0-0.50","subject_id":"61542045f27b876c93207ad0","study_id":"60edd13110225f80f9f3709b","session_id":"6196c3d92fb1cf806d232eda","condition":"full-information","relevant_dimensions":["wings","pattern"],"bee_group":{"antennae":"X","wings":"2","pattern":"D","legs":"X"},"action":"harvest","summary":"good-harvest","bonus":1.1600000000000013},{"rt":618.6999999880791,"stimulus":"\n                    <p><b>Action: <em>harvest</em></b></p>\n                    <p>This is the bee that you just saw.</p>\n                    <img src=\"bees-with-color/bee-B1DM.svg\" width=\"200\">\n                    <p><span class=\"greenText\"><b>Successful harvest!</b></span><br>Your pay has increased by $0.02. Your bonus pay is now $0.50.</p>\n            ","response":0,"trial_type":"html-button-response","trial_index":108,"time_elapsed":395581,"internal_node_id":"0.0-4.0-1.50","subject_id":"61542045f27b876c93207ad0","study_id":"60edd13110225f80f9f3709b","session_id":"6196c3d92fb1cf806d232eda","condition":"full-information","relevant_dimensions":["wings","pattern"],"bee_group":{"antennae":"X","wings":"2","pattern":"D","legs":"X"},"bonus":1.1600000000000013},{"rt":2083.300000011921,"stimulus":"bees-with-color/bee-B2DM.svg","response":1,"trial_type":"image-button-response","trial_index":109,"time_elapsed":397669,"internal_node_id":"0.0-4.0-0.51","subject_id":"61542045f27b876c93207ad0","study_id":"60edd13110225f80f9f3709b","session_id":"6196c3d92fb1cf806d232eda","condition":"full-information","relevant_dimensions":["wings","pattern"],"bee_group":{"antennae":"X","wings":"2","pattern":"D","legs":"X"},"action":"avoid","summary":"good-avoid","bonus":1.1600000000000013},{"rt":738.8000000119209,"stimulus":"\n                    <p><b>Action: <em>avoid</em></b></p>\n                    <p>This is the bee that you just saw.</p>\n                    <img src=\"bees-with-color/bee-B2DM.svg\" width=\"200\">\n                    <p><span class=\"greenText\">Good choice!</span>  This bee would have stung you.<br>Your bonus pay is unchanged, and remains at $0.50.</p>\n            ","response":0,"trial_type":"html-button-response","trial_index":110,"time_elapsed":398413,"internal_node_id":"0.0-4.0-1.51","subject_id":"61542045f27b876c93207ad0","study_id":"60edd13110225f80f9f3709b","session_id":"6196c3d92fb1cf806d232eda","condition":"full-information","relevant_dimensions":["wings","pattern"],"bee_group":{"antennae":"X","wings":"2","pattern":"D","legs":"X"},"bonus":1.1600000000000013},{"rt":4355.5,"stimulus":"bees-with-color/bee-B2SF.svg","response":0,"trial_type":"image-button-response","trial_index":111,"time_elapsed":402774,"internal_node_id":"0.0-4.0-0.52","subject_id":"61542045f27b876c93207ad0","study_id":"60edd13110225f80f9f3709b","session_id":"6196c3d92fb1cf806d232eda","condition":"full-information","relevant_dimensions":["wings","pattern"],"bee_group":{"antennae":"X","wings":"2","pattern":"D","legs":"X"},"action":"harvest","summary":"good-harvest","bonus":1.1600000000000013},{"rt":704.5,"stimulus":"\n                    <p><b>Action: <em>harvest</em></b></p>\n                    <p>This is the bee that you just saw.</p>\n                    <img src=\"bees-with-color/bee-B2SF.svg\" width=\"200\">\n                    <p><span class=\"greenText\"><b>Successful harvest!</b></span><br>Your pay has increased by $0.02. Your bonus pay is now $0.52.</p>\n            ","response":0,"trial_type":"html-button-response","trial_index":112,"time_elapsed":403484,"internal_node_id":"0.0-4.0-1.52","subject_id":"61542045f27b876c93207ad0","study_id":"60edd13110225f80f9f3709b","session_id":"6196c3d92fb1cf806d232eda","condition":"full-information","relevant_dimensions":["wings","pattern"],"bee_group":{"antennae":"X","wings":"2","pattern":"D","legs":"X"},"bonus":1.1600000000000013},{"rt":2058.099999964237,"stimulus":"bees-with-color/bee-B2SM.svg","response":1,"trial_type":"image-button-response","trial_index":113,"time_elapsed":405548,"internal_node_id":"0.0-4.0-0.53","subject_id":"61542045f27b876c93207ad0","study_id":"60edd13110225f80f9f3709b","session_id":"6196c3d92fb1cf806d232eda","condition":"full-information","relevant_dimensions":["wings","pattern"],"bee_group":{"antennae":"X","wings":"2","pattern":"D","legs":"X"},"action":"avoid","summary":"bad-avoid","bonus":1.1600000000000013},{"rt":755.6999999880791,"stimulus":"\n                    <p><b>Action: <em>avoid</em></b></p>\n                    <p>This is the bee that you just saw.</p>\n                    <img src=\"bees-with-color/bee-B2SM.svg\" width=\"200\">\n                    <p><span class=\"redText\">Bad choice,</span> the bee was friendly.<br>Your bonus pay is unchanged, and remains at $0.52.</p>\n            ","response":0,"trial_type":"html-button-response","trial_index":114,"time_elapsed":406308,"internal_node_id":"0.0-4.0-1.53","subject_id":"61542045f27b876c93207ad0","study_id":"60edd13110225f80f9f3709b","session_id":"6196c3d92fb1cf806d232eda","condition":"full-information","relevant_dimensions":["wings","pattern"],"bee_group":{"antennae":"X","wings":"2","pattern":"D","legs":"X"},"bonus":1.1600000000000013},{"rt":1347.9000000357628,"stimulus":"bees-with-color/bee-A2SF.svg","response":0,"trial_type":"image-button-response","trial_index":115,"time_elapsed":407660,"internal_node_id":"0.0-4.0-0.54","subject_id":"61542045f27b876c93207ad0","study_id":"60edd13110225f80f9f3709b","session_id":"6196c3d92fb1cf806d232eda","condition":"full-information","relevant_dimensions":["wings","pattern"],"bee_group":{"antennae":"X","wings":"2","pattern":"D","legs":"X"},"action":"harvest","summary":"good-harvest","bonus":1.1600000000000013},{"rt":651.8000000119209,"stimulus":"\n                    <p><b>Action: <em>harvest</em></b></p>\n                    <p>This is the bee that you just saw.</p>\n                    <img src=\"bees-with-color/bee-A2SF.svg\" width=\"200\">\n                    <p><span class=\"greenText\"><b>Successful harvest!</b></span><br>Your pay has increased by $0.02. Your bonus pay is now $0.54.</p>\n            ","response":0,"trial_type":"html-button-response","trial_index":116,"time_elapsed":408316,"internal_node_id":"0.0-4.0-1.54","subject_id":"61542045f27b876c93207ad0","study_id":"60edd13110225f80f9f3709b","session_id":"6196c3d92fb1cf806d232eda","condition":"full-information","relevant_dimensions":["wings","pattern"],"bee_group":{"antennae":"X","wings":"2","pattern":"D","legs":"X"},"bonus":1.1600000000000013},{"rt":924.6000000238419,"stimulus":"bees-with-color/bee-B1SF.svg","response":0,"trial_type":"image-button-response","trial_index":117,"time_elapsed":409245,"internal_node_id":"0.0-4.0-0.55","subject_id":"61542045f27b876c93207ad0","study_id":"60edd13110225f80f9f3709b","session_id":"6196c3d92fb1cf806d232eda","condition":"full-information","relevant_dimensions":["wings","pattern"],"bee_group":{"antennae":"X","wings":"2","pattern":"D","legs":"X"},"action":"harvest","summary":"good-harvest","bonus":1.1600000000000013},{"rt":659.8000000119209,"stimulus":"\n                    <p><b>Action: <em>harvest</em></b></p>\n                    <p>This is the bee that you just saw.</p>\n                    <img src=\"bees-with-color/bee-B1SF.svg\" width=\"200\">\n                    <p><span class=\"greenText\"><b>Successful harvest!</b></span><br>Your pay has increased by $0.02. Your bonus pay is now $0.56.</p>\n            ","response":0,"trial_type":"html-button-response","trial_index":118,"time_elapsed":409909,"internal_node_id":"0.0-4.0-1.55","subject_id":"61542045f27b876c93207ad0","study_id":"60edd13110225f80f9f3709b","session_id":"6196c3d92fb1cf806d232eda","condition":"full-information","relevant_dimensions":["wings","pattern"],"bee_group":{"antennae":"X","wings":"2","pattern":"D","legs":"X"},"bonus":1.1600000000000013},{"rt":1724.699999988079,"stimulus":"bees-with-color/bee-A1DM.svg","response":0,"trial_type":"image-button-response","trial_index":119,"time_elapsed":411637,"internal_node_id":"0.0-4.0-0.56","subject_id":"61542045f27b876c93207ad0","study_id":"60edd13110225f80f9f3709b","session_id":"6196c3d92fb1cf806d232eda","condition":"full-information","relevant_dimensions":["wings","pattern"],"bee_group":{"antennae":"X","wings":"2","pattern":"D","legs":"X"},"action":"harvest","summary":"good-harvest","bonus":1.1600000000000013},{"rt":579.9000000357628,"stimulus":"\n                    <p><b>Action: <em>harvest</em></b></p>\n                    <p>This is the bee that you just saw.</p>\n                    <img src=\"bees-with-color/bee-A1DM.svg\" width=\"200\">\n                    <p><span class=\"greenText\"><b>Successful harvest!</b></span><br>Your pay has increased by $0.02. Your bonus pay is now $0.58.</p>\n            ","response":0,"trial_type":"html-button-response","trial_index":120,"time_elapsed":412222,"internal_node_id":"0.0-4.0-1.56","subject_id":"61542045f27b876c93207ad0","study_id":"60edd13110225f80f9f3709b","session_id":"6196c3d92fb1cf806d232eda","condition":"full-information","relevant_dimensions":["wings","pattern"],"bee_group":{"antennae":"X","wings":"2","pattern":"D","legs":"X"},"bonus":1.1600000000000013},{"rt":2771.300000011921,"stimulus":"bees-with-color/bee-A2DF.svg","response":1,"trial_type":"image-button-response","trial_index":121,"time_elapsed":414997,"internal_node_id":"0.0-4.0-0.57","subject_id":"61542045f27b876c93207ad0","study_id":"60edd13110225f80f9f3709b","session_id":"6196c3d92fb1cf806d232eda","condition":"full-information","relevant_dimensions":["wings","pattern"],"bee_group":{"antennae":"X","wings":"2","pattern":"D","legs":"X"},"action":"avoid","summary":"good-avoid","bonus":1.1600000000000013},{"rt":7156.5,"stimulus":"\n                    <p><b>Action: <em>avoid</em></b></p>\n                    <p>This is the bee that you just saw.</p>\n                    <img src=\"bees-with-color/bee-A2DF.svg\" width=\"200\">\n                    <p><span class=\"greenText\">Good choice!</span>  This bee would have stung you.<br>Your bonus pay is unchanged, and remains at $0.58.</p>\n            ","response":0,"trial_type":"html-button-response","trial_index":122,"time_elapsed":422158,"internal_node_id":"0.0-4.0-1.57","subject_id":"61542045f27b876c93207ad0","study_id":"60edd13110225f80f9f3709b","session_id":"6196c3d92fb1cf806d232eda","condition":"full-information","relevant_dimensions":["wings","pattern"],"bee_group":{"antennae":"X","wings":"2","pattern":"D","legs":"X"},"bonus":1.1600000000000013},{"rt":1648.9000000357628,"stimulus":"bees-with-color/bee-A1SF.svg","response":0,"trial_type":"image-button-response","trial_index":123,"time_elapsed":423813,"internal_node_id":"0.0-4.0-0.58","subject_id":"61542045f27b876c93207ad0","study_id":"60edd13110225f80f9f3709b","session_id":"6196c3d92fb1cf806d232eda","condition":"full-information","relevant_dimensions":["wings","pattern"],"bee_group":{"antennae":"X","wings":"2","pattern":"D","legs":"X"},"action":"harvest","summary":"good-harvest","bonus":1.1600000000000013},{"rt":795.6999999880791,"stimulus":"\n                    <p><b>Action: <em>harvest</em></b></p>\n                    <p>This is the bee that you just saw.</p>\n                    <img src=\"bees-with-color/bee-A1SF.svg\" width=\"200\">\n                    <p><span class=\"greenText\"><b>Successful harvest!</b></span><br>Your pay has increased by $0.02. Your bonus pay is now $0.60.</p>\n            ","response":0,"trial_type":"html-button-response","trial_index":124,"time_elapsed":424613,"internal_node_id":"0.0-4.0-1.58","subject_id":"61542045f27b876c93207ad0","study_id":"60edd13110225f80f9f3709b","session_id":"6196c3d92fb1cf806d232eda","condition":"full-information","relevant_dimensions":["wings","pattern"],"bee_group":{"antennae":"X","wings":"2","pattern":"D","legs":"X"},"bonus":1.1600000000000013},{"rt":940.1999999880791,"stimulus":"bees-with-color/bee-B1SM.svg","response":0,"trial_type":"image-button-response","trial_index":125,"time_elapsed":425557,"internal_node_id":"0.0-4.0-0.59","subject_id":"61542045f27b876c93207ad0","study_id":"60edd13110225f80f9f3709b","session_id":"6196c3d92fb1cf806d232eda","condition":"full-information","relevant_dimensions":["wings","pattern"],"bee_group":{"antennae":"X","wings":"2","pattern":"D","legs":"X"},"action":"harvest","summary":"good-harvest","bonus":1.1600000000000013},{"rt":652.5,"stimulus":"\n                    <p><b>Action: <em>harvest</em></b></p>\n                    <p>This is the bee that you just saw.</p>\n                    <img src=\"bees-with-color/bee-B1SM.svg\" width=\"200\">\n                    <p><span class=\"greenText\"><b>Successful harvest!</b></span><br>Your pay has increased by $0.02. Your bonus pay is now $0.62.</p>\n            ","response":0,"trial_type":"html-button-response","trial_index":126,"time_elapsed":426214,"internal_node_id":"0.0-4.0-1.59","subject_id":"61542045f27b876c93207ad0","study_id":"60edd13110225f80f9f3709b","session_id":"6196c3d92fb1cf806d232eda","condition":"full-information","relevant_dimensions":["wings","pattern"],"bee_group":{"antennae":"X","wings":"2","pattern":"D","legs":"X"},"bonus":1.1600000000000013},{"rt":1579.0999999642372,"stimulus":"bees-with-color/bee-A2DM.svg","response":1,"trial_type":"image-button-response","trial_index":127,"time_elapsed":427797,"internal_node_id":"0.0-4.0-0.60","subject_id":"61542045f27b876c93207ad0","study_id":"60edd13110225f80f9f3709b","session_id":"6196c3d92fb1cf806d232eda","condition":"full-information","relevant_dimensions":["wings","pattern"],"bee_group":{"antennae":"X","wings":"2","pattern":"D","legs":"X"},"action":"avoid","summary":"good-avoid","bonus":1.1600000000000013},{"rt":9435.100000023842,"stimulus":"\n                    <p><b>Action: <em>avoid</em></b></p>\n                    <p>This is the bee that you just saw.</p>\n                    <img src=\"bees-with-color/bee-A2DM.svg\" width=\"200\">\n                    <p><span class=\"greenText\">Good choice!</span>  This bee would have stung you.<br>Your bonus pay is unchanged, and remains at $0.62.</p>\n            ","response":0,"trial_type":"html-button-response","trial_index":128,"time_elapsed":437236,"internal_node_id":"0.0-4.0-1.60","subject_id":"61542045f27b876c93207ad0","study_id":"60edd13110225f80f9f3709b","session_id":"6196c3d92fb1cf806d232eda","condition":"full-information","relevant_dimensions":["wings","pattern"],"bee_group":{"antennae":"X","wings":"2","pattern":"D","legs":"X"},"bonus":1.1600000000000013},{"rt":2946.699999988079,"stimulus":"bees-with-color/bee-B1DF.svg","response":0,"trial_type":"image-button-response","trial_index":129,"time_elapsed":440188,"internal_node_id":"0.0-4.0-0.61","subject_id":"61542045f27b876c93207ad0","study_id":"60edd13110225f80f9f3709b","session_id":"6196c3d92fb1cf806d232eda","condition":"full-information","relevant_dimensions":["wings","pattern"],"bee_group":{"antennae":"X","wings":"2","pattern":"D","legs":"X"},"action":"harvest","summary":"good-harvest","bonus":1.1600000000000013},{"rt":730.6000000238419,"stimulus":"\n                    <p><b>Action: <em>harvest</em></b></p>\n                    <p>This is the bee that you just saw.</p>\n                    <img src=\"bees-with-color/bee-B1DF.svg\" width=\"200\">\n                    <p><span class=\"greenText\"><b>Successful harvest!</b></span><br>Your pay has increased by $0.02. Your bonus pay is now $0.64.</p>\n            ","response":0,"trial_type":"html-button-response","trial_index":130,"time_elapsed":440925,"internal_node_id":"0.0-4.0-1.61","subject_id":"61542045f27b876c93207ad0","study_id":"60edd13110225f80f9f3709b","session_id":"6196c3d92fb1cf806d232eda","condition":"full-information","relevant_dimensions":["wings","pattern"],"bee_group":{"antennae":"X","wings":"2","pattern":"D","legs":"X"},"bonus":1.1600000000000013},{"rt":1707.3999999761581,"stimulus":"bees-with-color/bee-A1SM.svg","response":0,"trial_type":"image-button-response","trial_index":131,"time_elapsed":442636,"internal_node_id":"0.0-4.0-0.62","subject_id":"61542045f27b876c93207ad0","study_id":"60edd13110225f80f9f3709b","session_id":"6196c3d92fb1cf806d232eda","condition":"full-information","relevant_dimensions":["wings","pattern"],"bee_group":{"antennae":"X","wings":"2","pattern":"D","legs":"X"},"action":"harvest","summary":"good-harvest","bonus":1.1600000000000013},{"rt":779.6000000238419,"stimulus":"\n                    <p><b>Action: <em>harvest</em></b></p>\n                    <p>This is the bee that you just saw.</p>\n                    <img src=\"bees-with-color/bee-A1SM.svg\" width=\"200\">\n                    <p><span class=\"greenText\"><b>Successful harvest!</b></span><br>Your pay has increased by $0.02. Your bonus pay is now $0.66.</p>\n            ","response":0,"trial_type":"html-button-response","trial_index":132,"time_elapsed":443420,"internal_node_id":"0.0-4.0-1.62","subject_id":"61542045f27b876c93207ad0","study_id":"60edd13110225f80f9f3709b","session_id":"6196c3d92fb1cf806d232eda","condition":"full-information","relevant_dimensions":["wings","pattern"],"bee_group":{"antennae":"X","wings":"2","pattern":"D","legs":"X"},"bonus":1.1600000000000013},{"rt":2298.5,"stimulus":"bees-with-color/bee-A2SM.svg","response":0,"trial_type":"image-button-response","trial_index":133,"time_elapsed":445725,"internal_node_id":"0.0-4.0-0.63","subject_id":"61542045f27b876c93207ad0","study_id":"60edd13110225f80f9f3709b","session_id":"6196c3d92fb1cf806d232eda","condition":"full-information","relevant_dimensions":["wings","pattern"],"bee_group":{"antennae":"X","wings":"2","pattern":"D","legs":"X"},"action":"harvest","summary":"good-harvest","bonus":1.1600000000000013},{"rt":818.8999999761581,"stimulus":"\n                    <p><b>Action: <em>harvest</em></b></p>\n                    <p>This is the bee that you just saw.</p>\n                    <img src=\"bees-with-color/bee-A2SM.svg\" width=\"200\">\n                    <p><span class=\"greenText\"><b>Successful harvest!</b></span><br>Your pay has increased by $0.02. Your bonus pay is now $0.68.</p>\n            ","response":0,"trial_type":"html-button-response","trial_index":134,"time_elapsed":446549,"internal_node_id":"0.0-4.0-1.63","subject_id":"61542045f27b876c93207ad0","study_id":"60edd13110225f80f9f3709b","session_id":"6196c3d92fb1cf806d232eda","condition":"full-information","relevant_dimensions":["wings","pattern"],"bee_group":{"antennae":"X","wings":"2","pattern":"D","legs":"X"},"bonus":1.1600000000000013},{"rt":10525.099999964237,"stimulus":"You have completed the first part of this experiment.<br><br>You will now begin a shorter second part, in which you will receive no feedback.<br>The same rules regarding bonus pay apply.<br><br>Press any key to begin.","response":" ","trial_type":"html-keyboard-response","trial_index":135,"time_elapsed":457079,"internal_node_id":"0.0-5.0","subject_id":"61542045f27b876c93207ad0","study_id":"60edd13110225f80f9f3709b","session_id":"6196c3d92fb1cf806d232eda","condition":"full-information","relevant_dimensions":["wings","pattern"],"bee_group":{"antennae":"X","wings":"2","pattern":"D","legs":"X"},"bonus":1.1600000000000013},{"rt":4110.900000035763,"stimulus":"bees-with-color/bee-A1DM.svg","response":0,"trial_type":"image-button-response","trial_index":136,"time_elapsed":461212,"internal_node_id":"0.0-6.0-0.0","subject_id":"61542045f27b876c93207ad0","study_id":"60edd13110225f80f9f3709b","session_id":"6196c3d92fb1cf806d232eda","condition":"full-information","relevant_dimensions":["wings","pattern"],"bee_group":{"antennae":"X","wings":"2","pattern":"D","legs":"X"},"bonus":1.1600000000000013},{"rt":1135.9000000357628,"stimulus":"bees-with-color/bee-B1SF.svg","response":0,"trial_type":"image-button-response","trial_index":137,"time_elapsed":462357,"internal_node_id":"0.0-6.0-0.1","subject_id":"61542045f27b876c93207ad0","study_id":"60edd13110225f80f9f3709b","session_id":"6196c3d92fb1cf806d232eda","condition":"full-information","relevant_dimensions":["wings","pattern"],"bee_group":{"antennae":"X","wings":"2","pattern":"D","legs":"X"},"bonus":1.1600000000000013},{"rt":1608.8999999761581,"stimulus":"bees-with-color/bee-B1DM.svg","response":0,"trial_type":"image-button-response","trial_index":138,"time_elapsed":463972,"internal_node_id":"0.0-6.0-0.2","subject_id":"61542045f27b876c93207ad0","study_id":"60edd13110225f80f9f3709b","session_id":"6196c3d92fb1cf806d232eda","condition":"full-information","relevant_dimensions":["wings","pattern"],"bee_group":{"antennae":"X","wings":"2","pattern":"D","legs":"X"},"bonus":1.1600000000000013},{"rt":1072.7999999523163,"stimulus":"bees-with-color/bee-B1SM.svg","response":0,"trial_type":"image-button-response","trial_index":139,"time_elapsed":465052,"internal_node_id":"0.0-6.0-0.3","subject_id":"61542045f27b876c93207ad0","study_id":"60edd13110225f80f9f3709b","session_id":"6196c3d92fb1cf806d232eda","condition":"full-information","relevant_dimensions":["wings","pattern"],"bee_group":{"antennae":"X","wings":"2","pattern":"D","legs":"X"},"bonus":1.1600000000000013},{"rt":1104.9000000357628,"stimulus":"bees-with-color/bee-A1SF.svg","response":0,"trial_type":"image-button-response","trial_index":140,"time_elapsed":466164,"internal_node_id":"0.0-6.0-0.4","subject_id":"61542045f27b876c93207ad0","study_id":"60edd13110225f80f9f3709b","session_id":"6196c3d92fb1cf806d232eda","condition":"full-information","relevant_dimensions":["wings","pattern"],"bee_group":{"antennae":"X","wings":"2","pattern":"D","legs":"X"},"bonus":1.1600000000000013},{"rt":1249.2999999523163,"stimulus":"bees-with-color/bee-A1SM.svg","response":0,"trial_type":"image-button-response","trial_index":141,"time_elapsed":467420,"internal_node_id":"0.0-6.0-0.5","subject_id":"61542045f27b876c93207ad0","study_id":"60edd13110225f80f9f3709b","session_id":"6196c3d92fb1cf806d232eda","condition":"full-information","relevant_dimensions":["wings","pattern"],"bee_group":{"antennae":"X","wings":"2","pattern":"D","legs":"X"},"bonus":1.1600000000000013},{"rt":1432.2999999523163,"stimulus":"bees-with-color/bee-A2DF.svg","response":1,"trial_type":"image-button-response","trial_index":142,"time_elapsed":468861,"internal_node_id":"0.0-6.0-0.6","subject_id":"61542045f27b876c93207ad0","study_id":"60edd13110225f80f9f3709b","session_id":"6196c3d92fb1cf806d232eda","condition":"full-information","relevant_dimensions":["wings","pattern"],"bee_group":{"antennae":"X","wings":"2","pattern":"D","legs":"X"},"bonus":1.1600000000000013},{"rt":2280.899999976158,"stimulus":"bees-with-color/bee-B2DF.svg","response":1,"trial_type":"image-button-response","trial_index":143,"time_elapsed":471150,"internal_node_id":"0.0-6.0-0.7","subject_id":"61542045f27b876c93207ad0","study_id":"60edd13110225f80f9f3709b","session_id":"6196c3d92fb1cf806d232eda","condition":"full-information","relevant_dimensions":["wings","pattern"],"bee_group":{"antennae":"X","wings":"2","pattern":"D","legs":"X"},"bonus":1.1600000000000013},{"rt":3631.100000023842,"stimulus":"bees-with-color/bee-A2DM.svg","response":1,"trial_type":"image-button-response","trial_index":144,"time_elapsed":474789,"internal_node_id":"0.0-6.0-0.8","subject_id":"61542045f27b876c93207ad0","study_id":"60edd13110225f80f9f3709b","session_id":"6196c3d92fb1cf806d232eda","condition":"full-information","relevant_dimensions":["wings","pattern"],"bee_group":{"antennae":"X","wings":"2","pattern":"D","legs":"X"},"bonus":1.1600000000000013},{"rt":978.6000000238419,"stimulus":"bees-with-color/bee-B1DF.svg","response":0,"trial_type":"image-button-response","trial_index":145,"time_elapsed":475773,"internal_node_id":"0.0-6.0-0.9","subject_id":"61542045f27b876c93207ad0","study_id":"60edd13110225f80f9f3709b","session_id":"6196c3d92fb1cf806d232eda","condition":"full-information","relevant_dimensions":["wings","pattern"],"bee_group":{"antennae":"X","wings":"2","pattern":"D","legs":"X"},"bonus":1.1600000000000013},{"rt":690.2000000476837,"stimulus":"bees-with-color/bee-A1DF.svg","response":0,"trial_type":"image-button-response","trial_index":146,"time_elapsed":476469,"internal_node_id":"0.0-6.0-0.10","subject_id":"61542045f27b876c93207ad0","study_id":"60edd13110225f80f9f3709b","session_id":"6196c3d92fb1cf806d232eda","condition":"full-information","relevant_dimensions":["wings","pattern"],"bee_group":{"antennae":"X","wings":"2","pattern":"D","legs":"X"},"bonus":1.1600000000000013},{"rt":1313.6000000238419,"stimulus":"bees-with-color/bee-A2SM.svg","response":0,"trial_type":"image-button-response","trial_index":147,"time_elapsed":477789,"internal_node_id":"0.0-6.0-0.11","subject_id":"61542045f27b876c93207ad0","study_id":"60edd13110225f80f9f3709b","session_id":"6196c3d92fb1cf806d232eda","condition":"full-information","relevant_dimensions":["wings","pattern"],"bee_group":{"antennae":"X","wings":"2","pattern":"D","legs":"X"},"bonus":1.1600000000000013},{"rt":1249.8999999761581,"stimulus":"bees-with-color/bee-B2SM.svg","response":0,"trial_type":"image-button-response","trial_index":148,"time_elapsed":479045,"internal_node_id":"0.0-6.0-0.12","subject_id":"61542045f27b876c93207ad0","study_id":"60edd13110225f80f9f3709b","session_id":"6196c3d92fb1cf806d232eda","condition":"full-information","relevant_dimensions":["wings","pattern"],"bee_group":{"antennae":"X","wings":"2","pattern":"D","legs":"X"},"bonus":1.1600000000000013},{"rt":1530.4000000357628,"stimulus":"bees-with-color/bee-B2SF.svg","response":0,"trial_type":"image-button-response","trial_index":149,"time_elapsed":480581,"internal_node_id":"0.0-6.0-0.13","subject_id":"61542045f27b876c93207ad0","study_id":"60edd13110225f80f9f3709b","session_id":"6196c3d92fb1cf806d232eda","condition":"full-information","relevant_dimensions":["wings","pattern"],"bee_group":{"antennae":"X","wings":"2","pattern":"D","legs":"X"},"bonus":1.1600000000000013},{"rt":1649,"stimulus":"bees-with-color/bee-B2DM.svg","response":1,"trial_type":"image-button-response","trial_index":150,"time_elapsed":482237,"internal_node_id":"0.0-6.0-0.14","subject_id":"61542045f27b876c93207ad0","study_id":"60edd13110225f80f9f3709b","session_id":"6196c3d92fb1cf806d232eda","condition":"full-information","relevant_dimensions":["wings","pattern"],"bee_group":{"antennae":"X","wings":"2","pattern":"D","legs":"X"},"bonus":1.1600000000000013},{"rt":1650.6000000238419,"stimulus":"bees-with-color/bee-A2SF.svg","response":0,"trial_type":"image-button-response","trial_index":151,"time_elapsed":483893,"internal_node_id":"0.0-6.0-0.15","subject_id":"61542045f27b876c93207ad0","study_id":"60edd13110225f80f9f3709b","session_id":"6196c3d92fb1cf806d232eda","condition":"full-information","relevant_dimensions":["wings","pattern"],"bee_group":{"antennae":"X","wings":"2","pattern":"D","legs":"X"},"bonus":1.1600000000000013},{"rt":1433.699999988079,"stimulus":"bees-with-color/bee-B1SF.svg","response":0,"trial_type":"image-button-response","trial_index":152,"time_elapsed":485333,"internal_node_id":"0.0-6.0-0.16","subject_id":"61542045f27b876c93207ad0","study_id":"60edd13110225f80f9f3709b","session_id":"6196c3d92fb1cf806d232eda","condition":"full-information","relevant_dimensions":["wings","pattern"],"bee_group":{"antennae":"X","wings":"2","pattern":"D","legs":"X"},"bonus":1.1600000000000013},{"rt":2426,"stimulus":"bees-with-color/bee-B1DM.svg","response":0,"trial_type":"image-button-response","trial_index":153,"time_elapsed":487764,"internal_node_id":"0.0-6.0-0.17","subject_id":"61542045f27b876c93207ad0","study_id":"60edd13110225f80f9f3709b","session_id":"6196c3d92fb1cf806d232eda","condition":"full-information","relevant_dimensions":["wings","pattern"],"bee_group":{"antennae":"X","wings":"2","pattern":"D","legs":"X"},"bonus":1.1600000000000013},{"rt":963.1999999880791,"stimulus":"bees-with-color/bee-B1SM.svg","response":0,"trial_type":"image-button-response","trial_index":154,"time_elapsed":488733,"internal_node_id":"0.0-6.0-0.18","subject_id":"61542045f27b876c93207ad0","study_id":"60edd13110225f80f9f3709b","session_id":"6196c3d92fb1cf806d232eda","condition":"full-information","relevant_dimensions":["wings","pattern"],"bee_group":{"antennae":"X","wings":"2","pattern":"D","legs":"X"},"bonus":1.1600000000000013},{"rt":1611.3999999761581,"stimulus":"bees-with-color/bee-A2SM.svg","response":0,"trial_type":"image-button-response","trial_index":155,"time_elapsed":490348,"internal_node_id":"0.0-6.0-0.19","subject_id":"61542045f27b876c93207ad0","study_id":"60edd13110225f80f9f3709b","session_id":"6196c3d92fb1cf806d232eda","condition":"full-information","relevant_dimensions":["wings","pattern"],"bee_group":{"antennae":"X","wings":"2","pattern":"D","legs":"X"},"bonus":1.1600000000000013},{"rt":1651.0999999642372,"stimulus":"bees-with-color/bee-B2DM.svg","response":1,"trial_type":"image-button-response","trial_index":156,"time_elapsed":492005,"internal_node_id":"0.0-6.0-0.20","subject_id":"61542045f27b876c93207ad0","study_id":"60edd13110225f80f9f3709b","session_id":"6196c3d92fb1cf806d232eda","condition":"full-information","relevant_dimensions":["wings","pattern"],"bee_group":{"antennae":"X","wings":"2","pattern":"D","legs":"X"},"bonus":1.1600000000000013},{"rt":5283.300000011921,"stimulus":"bees-with-color/bee-A1DF.svg","response":