[{"success":true,"trial_type":"fullscreen","trial_index":0,"time_elapsed":3262,"internal_node_id":"0.0-0.0","subject_id":"613e18e92e4ed15176362aa2","study_id":"6197b3f67c2b5cd3b6d9596a","session_id":"6197b9f038bfc1bd00b4788d","condition":"contingent","relevant_dimensions":["antennae","legs"],"bee_group":{"antennae":"B","wings":"X","pattern":"X","legs":"M"},"bonus":0.7400000000000007},{"success":true,"timeout":false,"failed_images":[],"failed_audio":[],"failed_video":[],"trial_type":"preload","trial_index":1,"time_elapsed":3562,"internal_node_id":"0.0-1.0","subject_id":"613e18e92e4ed15176362aa2","study_id":"6197b3f67c2b5cd3b6d9596a","session_id":"6197b9f038bfc1bd00b4788d","condition":"contingent","relevant_dimensions":["antennae","legs"],"bee_group":{"antennae":"B","wings":"X","pattern":"X","legs":"M"},"bonus":0.7400000000000007},{"rt":2168.5,"stimulus":"Welcome! Press any key to begin.","response":" ","trial_type":"html-keyboard-response","trial_index":2,"time_elapsed":5733,"internal_node_id":"0.0-2.0","subject_id":"613e18e92e4ed15176362aa2","study_id":"6197b3f67c2b5cd3b6d9596a","session_id":"6197b9f038bfc1bd00b4788d","condition":"contingent","relevant_dimensions":["antennae","legs"],"bee_group":{"antennae":"B","wings":"X","pattern":"X","legs":"M"},"bonus":0.7400000000000007},{"view_history":[{"page_index":0,"viewing_time":1615.800000011921},{"page_index":1,"viewing_time":8232.5},{"page_index":2,"viewing_time":6153.699999988079},{"page_index":3,"viewing_time":5551.800000011921},{"page_index":4,"viewing_time":2888.5999999940395},{"page_index":5,"viewing_time":3669.7999999821186},{"page_index":6,"viewing_time":1270.5},{"page_index":7,"viewing_time":1473.9000000059605},{"page_index":8,"viewing_time":183.80000001192093},{"page_index":9,"viewing_time":412.40000000596046},{"page_index":10,"viewing_time":313.5},{"page_index":11,"viewing_time":1629.7999999821186},{"page_index":12,"viewing_time":1001.5999999940395},{"page_index":13,"viewing_time":1085.2000000178814},{"page_index":14,"viewing_time":1229.0999999940395}],"rt":36713.30000001192,"trial_type":"instructions","trial_index":3,"time_elapsed":42449,"internal_node_id":"0.0-3.0-0.0","subject_id":"613e18e92e4ed15176362aa2","study_id":"6197b3f67c2b5cd3b6d9596a","session_id":"6197b9f038bfc1bd00b4788d","condition":"contingent","relevant_dimensions":["antennae","legs"],"bee_group":{"antennae":"B","wings":"X","pattern":"X","legs":"M"},"bonus":0.7400000000000007},{"rt":5876.4000000059605,"response":{"Q0":["Two or six legs","Stripes or spots on body","Single or double wings","Antennae or no antennae"]},"question_order":[0],"trial_type":"survey-multi-select","trial_index":4,"time_elapsed":48348,"internal_node_id":"0.0-3.0-1.0","subject_id":"613e18e92e4ed15176362aa2","study_id":"6197b3f67c2b5cd3b6d9596a","session_id":"6197b9f038bfc1bd00b4788d","condition":"contingent","relevant_dimensions":["antennae","legs"],"bee_group":{"antennae":"B","wings":"X","pattern":"X","legs":"M"},"correct":true,"bonus":0.7400000000000007},{"rt":7733.5,"response":{"Q1":"No.","Q2":"Based on the four features of the bee.","Q3":"You do not learn if it was friendly or dangerous, and do not alter your bonus."},"question_order":[0,1,2],"trial_type":"survey-multi-choice","trial_index":5,"time_elapsed":56104,"internal_node_id":"0.0-3.0-2.0","subject_id":"613e18e92e4ed15176362aa2","study_id":"6197b3f67c2b5cd3b6d9596a","session_id":"6197b9f038bfc1bd00b4788d","condition":"contingent","relevant_dimensions":["antennae","legs"],"bee_group":{"antennae":"B","wings":"X","pattern":"X","legs":"M"},"correct":true,"bonus":0.7400000000000007},{"rt":2579.199999988079,"stimulus":"<p>Congrats, you got everything right<br>When you're ready, click the button below to continue to the experiment.</p>","response":0,"trial_type":"html-button-response","trial_index":6,"time_elapsed":58703,"internal_node_id":"0.0-3.0-3.0","subject_id":"613e18e92e4ed15176362aa2","study_id":"6197b3f67c2b5cd3b6d9596a","session_id":"6197b9f038bfc1bd00b4788d","condition":"contingent","relevant_dimensions":["antennae","legs"],"bee_group":{"antennae":"B","wings":"X","pattern":"X","legs":"M"},"bonus":0.7400000000000007},{"rt":6134.5999999940395,"stimulus":"bees-with-color/bee-A1DF.svg","response":1,"trial_type":"image-button-response","trial_index":7,"time_elapsed":64850,"internal_node_id":"0.0-4.0-0.0","subject_id":"613e18e92e4ed15176362aa2","study_id":"6197b3f67c2b5cd3b6d9596a","session_id":"6197b9f038bfc1bd00b4788d","condition":"contingent","relevant_dimensions":["antennae","legs"],"bee_group":{"antennae":"B","wings":"X","pattern":"X","legs":"M"},"action":"avoid","summary":"bad-avoid","bonus":0.7400000000000007},{"rt":4710.9000000059605,"stimulus":"\n                    <p><b>Action: <em>avoid</em></b></p>\n                    <p>This is the bee that you just saw.</p>\n                    <img src=\"bees-with-color/bee-A1DF.svg\" width=\"200\">\n                    <p><br>Your bonus pay is unchanged, and remains at $0.54.</p>\n            ","response":0,"trial_type":"html-button-response","trial_index":8,"time_elapsed":69573,"internal_node_id":"0.0-4.0-1.0","subject_id":"613e18e92e4ed15176362aa2","study_id":"6197b3f67c2b5cd3b6d9596a","session_id":"6197b9f038bfc1bd00b4788d","condition":"contingent","relevant_dimensions":["antennae","legs"],"bee_group":{"antennae":"B","wings":"X","pattern":"X","legs":"M"},"bonus":0.7400000000000007},{"rt":4575,"stimulus":"bees-with-color/bee-A1SF.svg","response":0,"trial_type":"image-button-response","trial_index":9,"time_elapsed":74158,"internal_node_id":"0.0-4.0-0.1","subject_id":"613e18e92e4ed15176362aa2","study_id":"6197b3f67c2b5cd3b6d9596a","session_id":"6197b9f038bfc1bd00b4788d","condition":"contingent","relevant_dimensions":["antennae","legs"],"bee_group":{"antennae":"B","wings":"X","pattern":"X","legs":"M"},"action":"harvest","summary":"good-harvest","bonus":0.7400000000000007},{"rt":5212.299999982119,"stimulus":"\n                    <p><b>Action: <em>harvest</em></b></p>\n                    <p>This is the bee that you just saw.</p>\n                    <img src=\"bees-with-color/bee-A1SF.svg\" width=\"200\">\n                    <p><span class=\"greenText\"><b>Successful harvest!</b></span><br>Your pay has increased by $0.02. Your bonus pay is now $0.56.</p>\n            ","response":0,"trial_type":"html-button-response","trial_index":10,"time_elapsed":79377,"internal_node_id":"0.0-4.0-1.1","subject_id":"613e18e92e4ed15176362aa2","study_id":"6197b3f67c2b5cd3b6d9596a","session_id":"6197b9f038bfc1bd00b4788d","condition":"contingent","relevant_dimensions":["antennae","legs"],"bee_group":{"antennae":"B","wings":"X","pattern":"X","legs":"M"},"bonus":0.7400000000000007},{"rt":2426.699999988079,"stimulus":"bees-with-color/bee-B2DM.svg","response":1,"trial_type":"image-button-response","trial_index":11,"time_elapsed":81812,"internal_node_id":"0.0-4.0-0.2","subject_id":"613e18e92e4ed15176362aa2","study_id":"6197b3f67c2b5cd3b6d9596a","session_id":"6197b9f038bfc1bd00b4788d","condition":"contingent","relevant_dimensions":["antennae","legs"],"bee_group":{"antennae":"B","wings":"X","pattern":"X","legs":"M"},"action":"avoid","summary":"good-avoid","bonus":0.7400000000000007},{"rt":1605.5,"stimulus":"\n                    <p><b>Action: <em>avoid</em></b></p>\n                    <p>This is the bee that you just saw.</p>\n                    <img src=\"bees-with-color/bee-B2DM.svg\" width=\"200\">\n                    <p><br>Your bonus pay is unchanged, and remains at $0.56.</p>\n            ","response":0,"trial_type":"html-button-response","trial_index":12,"time_elapsed":83424,"internal_node_id":"0.0-4.0-1.2","subject_id":"613e18e92e4ed15176362aa2","study_id":"6197b3f67c2b5cd3b6d9596a","session_id":"6197b9f038bfc1bd00b4788d","condition":"contingent","relevant_dimensions":["antennae","legs"],"bee_group":{"antennae":"B","wings":"X","pattern":"X","legs":"M"},"bonus":0.7400000000000007},{"rt":2698.0999999940395,"stimulus":"bees-with-color/bee-A2SF.svg","response":0,"trial_type":"image-button-response","trial_index":13,"time_elapsed":86131,"internal_node_id":"0.0-4.0-0.3","subject_id":"613e18e92e4ed15176362aa2","study_id":"6197b3f67c2b5cd3b6d9596a","session_id":"6197b9f038bfc1bd00b4788d","condition":"contingent","relevant_dimensions":["antennae","legs"],"bee_group":{"antennae":"B","wings":"X","pattern":"X","legs":"M"},"action":"harvest","summary":"good-harvest","bonus":0.7400000000000007},{"rt":1901.2999999821186,"stimulus":"\n                    <p><b>Action: <em>harvest</em></b></p>\n                    <p>This is the bee that you just saw.</p>\n                    <img src=\"bees-with-color/bee-A2SF.svg\" width=\"200\">\n                    <p><span class=\"greenText\"><b>Successful harvest!</b></span><br>Your pay has increased by $0.02. Your bonus pay is now $0.58.</p>\n            ","response":0,"trial_type":"html-button-response","trial_index":14,"time_elapsed":88039,"internal_node_id":"0.0-4.0-1.3","subject_id":"613e18e92e4ed15176362aa2","study_id":"6197b3f67c2b5cd3b6d9596a","session_id":"6197b9f038bfc1bd00b4788d","condition":"contingent","relevant_dimensions":["antennae","legs"],"bee_group":{"antennae":"B","wings":"X","pattern":"X","legs":"M"},"bonus":0.7400000000000007},{"rt":2645.699999988079,"stimulus":"bees-with-color/bee-A2DM.svg","response":1,"trial_type":"image-button-response","trial_index":15,"time_elapsed":90692,"internal_node_id":"0.0-4.0-0.4","subject_id":"613e18e92e4ed15176362aa2","study_id":"6197b3f67c2b5cd3b6d9596a","session_id":"6197b9f038bfc1bd00b4788d","condition":"contingent","relevant_dimensions":["antennae","legs"],"bee_group":{"antennae":"B","wings":"X","pattern":"X","legs":"M"},"action":"avoid","summary":"bad-avoid","bonus":0.7400000000000007},{"rt":1101.0999999940395,"stimulus":"\n                    <p><b>Action: <em>avoid</em></b></p>\n                    <p>This is the bee that you just saw.</p>\n                    <img src=\"bees-with-color/bee-A2DM.svg\" width=\"200\">\n                    <p><br>Your bonus pay is unchanged, and remains at $0.58.</p>\n            ","response":0,"trial_type":"html-button-response","trial_index":16,"time_elapsed":91800,"internal_node_id":"0.0-4.0-1.4","subject_id":"613e18e92e4ed15176362aa2","study_id":"6197b3f67c2b5cd3b6d9596a","session_id":"6197b9f038bfc1bd00b4788d","condition":"contingent","relevant_dimensions":["antennae","legs"],"bee_group":{"antennae":"B","wings":"X","pattern":"X","legs":"M"},"bonus":0.7400000000000007},{"rt":3111.5999999940395,"stimulus":"bees-with-color/bee-B2SM.svg","response":1,"trial_type":"image-button-response","trial_index":17,"time_elapsed":94919,"internal_node_id":"0.0-4.0-0.5","subject_id":"613e18e92e4ed15176362aa2","study_id":"6197b3f67c2b5cd3b6d9596a","session_id":"6197b9f038bfc1bd00b4788d","condition":"contingent","relevant_dimensions":["antennae","legs"],"bee_group":{"antennae":"B","wings":"X","pattern":"X","legs":"M"},"action":"avoid","summary":"good-avoid","bonus":0.7400000000000007},{"rt":1638.7999999821186,"stimulus":"\n                    <p><b>Action: <em>avoid</em></b></p>\n                    <p>This is the bee that you just saw.</p>\n                    <img src=\"bees-with-color/bee-B2SM.svg\" width=\"200\">\n                    <p><br>Your bonus pay is unchanged, and remains at $0.58.</p>\n            ","response":0,"trial_type":"html-button-response","trial_index":18,"time_elapsed":96564,"internal_node_id":"0.0-4.0-1.5","subject_id":"613e18e92e4ed15176362aa2","study_id":"6197b3f67c2b5cd3b6d9596a","session_id":"6197b9f038bfc1bd00b4788d","condition":"contingent","relevant_dimensions":["antennae","legs"],"bee_group":{"antennae":"B","wings":"X","pattern":"X","legs":"M"},"bonus":0.7400000000000007},{"rt":1635.0999999940395,"stimulus":"bees-with-color/bee-B1DF.svg","response":1,"trial_type":"image-button-response","trial_index":19,"time_elapsed":98208,"internal_node_id":"0.0-4.0-0.6","subject_id":"613e18e92e4ed15176362aa2","study_id":"6197b3f67c2b5cd3b6d9596a","session_id":"6197b9f038bfc1bd00b4788d","condition":"contingent","relevant_dimensions":["antennae","legs"],"bee_group":{"antennae":"B","wings":"X","pattern":"X","legs":"M"},"action":"avoid","summary":"bad-avoid","bonus":0.7400000000000007},{"rt":2535.9000000059605,"stimulus":"\n                    <p><b>Action: <em>avoid</em></b></p>\n                    <p>This is the bee that you just saw.</p>\n                    <img src=\"bees-with-color/bee-B1DF.svg\" width=\"200\">\n                    <p><br>Your bonus pay is unchanged, and remains at $0.58.</p>\n            ","response":0,"trial_type":"html-button-response","trial_index":20,"time_elapsed":100751,"internal_node_id":"0.0-4.0-1.6","subject_id":"613e18e92e4ed15176362aa2","study_id":"6197b3f67c2b5cd3b6d9596a","session_id":"6197b9f038bfc1bd00b4788d","condition":"contingent","relevant_dimensions":["antennae","legs"],"bee_group":{"antennae":"B","wings":"X","pattern":"X","legs":"M"},"bonus":0.7400000000000007},{"rt":2486.7000000178814,"stimulus":"bees-with-color/bee-B2SF.svg","response":0,"trial_type":"image-button-response","trial_index":21,"time_elapsed":103244,"internal_node_id":"0.0-4.0-0.7","subject_id":"613e18e92e4ed15176362aa2","study_id":"6197b3f67c2b5cd3b6d9596a","session_id":"6197b9f038bfc1bd00b4788d","condition":"contingent","relevant_dimensions":["antennae","legs"],"bee_group":{"antennae":"B","wings":"X","pattern":"X","legs":"M"},"action":"harvest","summary":"good-harvest","bonus":0.7400000000000007},{"rt":3595.4000000059605,"stimulus":"\n                    <p><b>Action: <em>harvest</em></b></p>\n                    <p>This is the bee that you just saw.</p>\n                    <img src=\"bees-with-color/bee-B2SF.svg\" width=\"200\">\n                    <p><span class=\"greenText\"><b>Successful harvest!</b></span><br>Your pay has increased by $0.02. Your bonus pay is now $0.60.</p>\n            ","response":0,"trial_type":"html-button-response","trial_index":22,"time_elapsed":106845,"internal_node_id":"0.0-4.0-1.7","subject_id":"613e18e92e4ed15176362aa2","study_id":"6197b3f67c2b5cd3b6d9596a","session_id":"6197b9f038bfc1bd00b4788d","condition":"contingent","relevant_dimensions":["antennae","legs"],"bee_group":{"antennae":"B","wings":"X","pattern":"X","legs":"M"},"bonus":0.7400000000000007},{"rt":2153.300000011921,"stimulus":"bees-with-color/bee-B1DM.svg","response":1,"trial_type":"image-button-response","trial_index":23,"time_elapsed":109006,"internal_node_id":"0.0-4.0-0.8","subject_id":"613e18e92e4ed15176362aa2","study_id":"6197b3f67c2b5cd3b6d9596a","session_id":"6197b9f038bfc1bd00b4788d","condition":"contingent","relevant_dimensions":["antennae","legs"],"bee_group":{"antennae":"B","wings":"X","pattern":"X","legs":"M"},"action":"avoid","summary":"good-avoid","bonus":0.7400000000000007},{"rt":1280.7000000178814,"stimulus":"\n                    <p><b>Action: <em>avoid</em></b></p>\n                    <p>This is the bee that you just saw.</p>\n                    <img src=\"bees-with-color/bee-B1DM.svg\" width=\"200\">\n                    <p><br>Your bonus pay is unchanged, and remains at $0.60.</p>\n            ","response":0,"trial_type":"html-button-response","trial_index":24,"time_elapsed":110291,"internal_node_id":"0.0-4.0-1.8","subject_id":"613e18e92e4ed15176362aa2","study_id":"6197b3f67c2b5cd3b6d9596a","session_id":"6197b9f038bfc1bd00b4788d","condition":"contingent","relevant_dimensions":["antennae","legs"],"bee_group":{"antennae":"B","wings":"X","pattern":"X","legs":"M"},"bonus":0.7400000000000007},{"rt":3441.7000000178814,"stimulus":"bees-with-color/bee-A1SM.svg","response":1,"trial_type":"image-button-response","trial_index":25,"time_elapsed":113738,"internal_node_id":"0.0-4.0-0.9","subject_id":"613e18e92e4ed15176362aa2","study_id":"6197b3f67c2b5cd3b6d9596a","session_id":"6197b9f038bfc1bd00b4788d","condition":"contingent","relevant_dimensions":["antennae","legs"],"bee_group":{"antennae":"B","wings":"X","pattern":"X","legs":"M"},"action":"avoid","summary":"bad-avoid","bonus":0.7400000000000007},{"rt":1434.1000000238419,"stimulus":"\n                    <p><b>Action: <em>avoid</em></b></p>\n                    <p>This is the bee that you just saw.</p>\n                    <img src=\"bees-with-color/bee-A1SM.svg\" width=\"200\">\n                    <p><br>Your bonus pay is unchanged, and remains at $0.60.</p>\n            ","response":0,"trial_type":"html-button-response","trial_index":26,"time_elapsed":115177,"internal_node_id":"0.0-4.0-1.9","subject_id":"613e18e92e4ed15176362aa2","study_id":"6197b3f67c2b5cd3b6d9596a","session_id":"6197b9f038bfc1bd00b4788d","condition":"contingent","relevant_dimensions":["antennae","legs"],"bee_group":{"antennae":"B","wings":"X","pattern":"X","legs":"M"},"bonus":0.7400000000000007},{"rt":1490.5,"stimulus":"bees-with-color/bee-A2DF.svg","response":1,"trial_type":"image-button-response","trial_index":27,"time_elapsed":116674,"internal_node_id":"0.0-4.0-0.10","subject_id":"613e18e92e4ed15176362aa2","study_id":"6197b3f67c2b5cd3b6d9596a","session_id":"6197b9f038bfc1bd00b4788d","condition":"contingent","relevant_dimensions":["antennae","legs"],"bee_group":{"antennae":"B","wings":"X","pattern":"X","legs":"M"},"action":"avoid","summary":"bad-avoid","bonus":0.7400000000000007},{"rt":711.9000000059605,"stimulus":"\n                    <p><b>Action: <em>avoid</em></b></p>\n                    <p>This is the bee that you just saw.</p>\n                    <img src=\"bees-with-color/bee-A2DF.svg\" width=\"200\">\n                    <p><br>Your bonus pay is unchanged, and remains at $0.60.</p>\n            ","response":0,"trial_type":"html-button-response","trial_index":28,"time_elapsed":117393,"internal_node_id":"0.0-4.0-1.10","subject_id":"613e18e92e4ed15176362aa2","study_id":"6197b3f67c2b5cd3b6d9596a","session_id":"6197b9f038bfc1bd00b4788d","condition":"contingent","relevant_dimensions":["antennae","legs"],"bee_group":{"antennae":"B","wings":"X","pattern":"X","legs":"M"},"bonus":0.7400000000000007},{"rt":2073.5,"stimulus":"bees-with-color/bee-A1DM.svg","response":1,"trial_type":"image-button-response","trial_index":29,"time_elapsed":119472,"internal_node_id":"0.0-4.0-0.11","subject_id":"613e18e92e4ed15176362aa2","study_id":"6197b3f67c2b5cd3b6d9596a","session_id":"6197b9f038bfc1bd00b4788d","condition":"contingent","relevant_dimensions":["antennae","legs"],"bee_group":{"antennae":"B","wings":"X","pattern":"X","legs":"M"},"action":"avoid","summary":"bad-avoid","bonus":0.7400000000000007},{"rt":1025.2000000178814,"stimulus":"\n                    <p><b>Action: <em>avoid</em></b></p>\n                    <p>This is the bee that you just saw.</p>\n                    <img src=\"bees-with-color/bee-A1DM.svg\" width=\"200\">\n                    <p><br>Your bonus pay is unchanged, and remains at $0.60.</p>\n            ","response":0,"trial_type":"html-button-response","trial_index":30,"time_elapsed":120503,"internal_node_id":"0.0-4.0-1.11","subject_id":"613e18e92e4ed15176362aa2","study_id":"6197b3f67c2b5cd3b6d9596a","session_id":"6197b9f038bfc1bd00b4788d","condition":"contingent","relevant_dimensions":["antennae","legs"],"bee_group":{"antennae":"B","wings":"X","pattern":"X","legs":"M"},"bonus":0.7400000000000007},{"rt":1402.800000011921,"stimulus":"bees-with-color/bee-B2DF.svg","response":1,"trial_type":"image-button-response","trial_index":31,"time_elapsed":121911,"internal_node_id":"0.0-4.0-0.12","subject_id":"613e18e92e4ed15176362aa2","study_id":"6197b3f67c2b5cd3b6d9596a","session_id":"6197b9f038bfc1bd00b4788d","condition":"contingent","relevant_dimensions":["antennae","legs"],"bee_group":{"antennae":"B","wings":"X","pattern":"X","legs":"M"},"action":"avoid","summary":"bad-avoid","bonus":0.7400000000000007},{"rt":1093.9000000059605,"stimulus":"\n                    <p><b>Action: <em>avoid</em></b></p>\n                    <p>This is the bee that you just saw.</p>\n                    <img src=\"bees-with-color/bee-B2DF.svg\" width=\"200\">\n                    <p><br>Your bonus pay is unchanged, and remains at $0.60.</p>\n            ","response":0,"trial_type":"html-button-response","trial_index":32,"time_elapsed":123010,"internal_node_id":"0.0-4.0-1.12","subject_id":"613e18e92e4ed15176362aa2","study_id":"6197b3f67c2b5cd3b6d9596a","session_id":"6197b9f038bfc1bd00b4788d","condition":"contingent","relevant_dimensions":["antennae","legs"],"bee_group":{"antennae":"B","wings":"X","pattern":"X","legs":"M"},"bonus":0.7400000000000007},{"rt":2772,"stimulus":"bees-with-color/bee-B1SM.svg","response":1,"trial_type":"image-button-response","trial_index":33,"time_elapsed":125786,"internal_node_id":"0.0-4.0-0.13","subject_id":"613e18e92e4ed15176362aa2","study_id":"6197b3f67c2b5cd3b6d9596a","session_id":"6197b9f038bfc1bd00b4788d","condition":"contingent","relevant_dimensions":["antennae","legs"],"bee_group":{"antennae":"B","wings":"X","pattern":"X","legs":"M"},"action":"avoid","summary":"good-avoid","bonus":0.7400000000000007},{"rt":919.5,"stimulus":"\n                    <p><b>Action: <em>avoid</em></b></p>\n                    <p>This is the bee that you just saw.</p>\n                    <img src=\"bees-with-color/bee-B1SM.svg\" width=\"200\">\n                    <p><br>Your bonus pay is unchanged, and remains at $0.60.</p>\n            ","response":0,"trial_type":"html-button-response","trial_index":34,"time_elapsed":126711,"internal_node_id":"0.0-4.0-1.13","subject_id":"613e18e92e4ed15176362aa2","study_id":"6197b3f67c2b5cd3b6d9596a","session_id":"6197b9f038bfc1bd00b4788d","condition":"contingent","relevant_dimensions":["antennae","legs"],"bee_group":{"antennae":"B","wings":"X","pattern":"X","legs":"M"},"bonus":0.7400000000000007},{"rt":1582.6000000238419,"stimulus":"bees-with-color/bee-B1SF.svg","response":0,"trial_type":"image-button-response","trial_index":35,"time_elapsed":128300,"internal_node_id":"0.0-4.0-0.14","subject_id":"613e18e92e4ed15176362aa2","study_id":"6197b3f67c2b5cd3b6d9596a","session_id":"6197b9f038bfc1bd00b4788d","condition":"contingent","relevant_dimensions":["antennae","legs"],"bee_group":{"antennae":"B","wings":"X","pattern":"X","legs":"M"},"action":"harvest","summary":"good-harvest","bonus":0.7400000000000007},{"rt":1325.7000000178814,"stimulus":"\n                    <p><b>Action: <em>harvest</em></b></p>\n                    <p>This is the bee that you just saw.</p>\n                    <img src=\"bees-with-color/bee-B1SF.svg\" width=\"200\">\n                    <p><span class=\"greenText\"><b>Successful harvest!</b></span><br>Your pay has increased by $0.02. Your bonus pay is now $0.62.</p>\n            ","response":0,"trial_type":"html-button-response","trial_index":36,"time_elapsed":129631,"internal_node_id":"0.0-4.0-1.14","subject_id":"613e18e92e4ed15176362aa2","study_id":"6197b3f67c2b5cd3b6d9596a","session_id":"6197b9f038bfc1bd00b4788d","condition":"contingent","relevant_dimensions":["antennae","legs"],"bee_group":{"antennae":"B","wings":"X","pattern":"X","legs":"M"},"bonus":0.7400000000000007},{"rt":8643.800000011921,"stimulus":"bees-with-color/bee-A2SM.svg","response":0,"trial_type":"image-button-response","trial_index":37,"time_elapsed":138282,"internal_node_id":"0.0-4.0-0.15","subject_id":"613e18e92e4ed15176362aa2","study_id":"6197b3f67c2b5cd3b6d9596a","session_id":"6197b9f038bfc1bd00b4788d","condition":"contingent","relevant_dimensions":["antennae","legs"],"bee_group":{"antennae":"B","wings":"X","pattern":"X","legs":"M"},"action":"harvest","summary":"good-harvest","bonus":0.7400000000000007},{"rt":4007.800000011921,"stimulus":"\n                    <p><b>Action: <em>harvest</em></b></p>\n                    <p>This is the bee that you just saw.</p>\n                    <img src=\"bees-with-color/bee-A2SM.svg\" width=\"200\">\n                    <p><span class=\"greenText\"><b>Successful harvest!</b></span><br>Your pay has increased by $0.02. Your bonus pay is now $0.64.</p>\n            ","response":0,"trial_type":"html-button-response","trial_index":38,"time_elapsed":142295,"internal_node_id":"0.0-4.0-1.15","subject_id":"613e18e92e4ed15176362aa2","study_id":"6197b3f67c2b5cd3b6d9596a","session_id":"6197b9f038bfc1bd00b4788d","condition":"contingent","relevant_dimensions":["antennae","legs"],"bee_group":{"antennae":"B","wings":"X","pattern":"X","legs":"M"},"bonus":0.7400000000000007},{"rt":3279.7000000178814,"stimulus":"bees-with-color/bee-A1SM.svg","response":0,"trial_type":"image-button-response","trial_index":39,"time_elapsed":145582,"internal_node_id":"0.0-4.0-0.16","subject_id":"613e18e92e4ed15176362aa2","study_id":"6197b3f67c2b5cd3b6d9596a","session_id":"6197b9f038bfc1bd00b4788d","condition":"contingent","relevant_dimensions":["antennae","legs"],"bee_group":{"antennae":"B","wings":"X","pattern":"X","legs":"M"},"action":"harvest","summary":"good-harvest","bonus":0.7400000000000007},{"rt":1126.1000000238419,"stimulus":"\n                    <p><b>Action: <em>harvest</em></b></p>\n                    <p>This is the bee that you just saw.</p>\n                    <img src=\"bees-with-color/bee-A1SM.svg\" width=\"200\">\n                    <p><span class=\"greenText\"><b>Successful harvest!</b></span><br>Your pay has increased by $0.02. Your bonus pay is now $0.66.</p>\n            ","response":0,"trial_type":"html-button-response","trial_index":40,"time_elapsed":146714,"internal_node_id":"0.0-4.0-1.16","subject_id":"613e18e92e4ed15176362aa2","study_id":"6197b3f67c2b5cd3b6d9596a","session_id":"6197b9f038bfc1bd00b4788d","condition":"contingent","relevant_dimensions":["antennae","legs"],"bee_group":{"antennae":"B","wings":"X","pattern":"X","legs":"M"},"bonus":0.7400000000000007},{"rt":1637.0999999940395,"stimulus":"bees-with-color/bee-A1DM.svg","response":1,"trial_type":"image-button-response","trial_index":41,"time_elapsed":148357,"internal_node_id":"0.0-4.0-0.17","subject_id":"613e18e92e4ed15176362aa2","study_id":"6197b3f67c2b5cd3b6d9596a","session_id":"6197b9f038bfc1bd00b4788d","condition":"contingent","relevant_dimensions":["antennae","legs"],"bee_group":{"antennae":"B","wings":"X","pattern":"X","legs":"M"},"action":"avoid","summary":"bad-avoid","bonus":0.7400000000000007},{"rt":1406.300000011921,"stimulus":"\n                    <p><b>Action: <em>avoid</em></b></p>\n                    <p>This is the bee that you just saw.</p>\n                    <img src=\"bees-with-color/bee-A1DM.svg\" width=\"200\">\n                    <p><br>Your bonus pay is unchanged, and remains at $0.66.</p>\n            ","response":0,"trial_type":"html-button-response","trial_index":42,"time_elapsed":149771,"internal_node_id":"0.0-4.0-1.17","subject_id":"613e18e92e4ed15176362aa2","study_id":"6197b3f67c2b5cd3b6d9596a","session_id":"6197b9f038bfc1bd00b4788d","condition":"contingent","relevant_dimensions":["antennae","legs"],"bee_group":{"antennae":"B","wings":"X","pattern":"X","legs":"M"},"bonus":0.7400000000000007},{"rt":1821.3999999761581,"stimulus":"bees-with-color/bee-B1DM.svg","response":1,"trial_type":"image-button-response","trial_index":43,"time_elapsed":151598,"internal_node_id":"0.0-4.0-0.18","subject_id":"613e18e92e4ed15176362aa2","study_id":"6197b3f67c2b5cd3b6d9596a","session_id":"6197b9f038bfc1bd00b4788d","condition":"contingent","relevant_dimensions":["antennae","legs"],"bee_group":{"antennae":"B","wings":"X","pattern":"X","legs":"M"},"action":"avoid","summary":"good-avoid","bonus":0.7400000000000007},{"rt":965.4000000059605,"stimulus":"\n                    <p><b>Action: <em>avoid</em></b></p>\n                    <p>This is the bee that you just saw.</p>\n                    <img src=\"bees-with-color/bee-B1DM.svg\" width=\"200\">\n                    <p><br>Your bonus pay is unchanged, and remains at $0.66.</p>\n            ","response":0,"trial_type":"html-button-response","trial_index":44,"time_elapsed":152570,"internal_node_id":"0.0-4.0-1.18","subject_id":"613e18e92e4ed15176362aa2","study_id":"6197b3f67c2b5cd3b6d9596a","session_id":"6197b9f038bfc1bd00b4788d","condition":"contingent","relevant_dimensions":["antennae","legs"],"bee_group":{"antennae":"B","wings":"X","pattern":"X","legs":"M"},"bonus":0.7400000000000007},{"rt":1429.4000000059605,"stimulus":"bees-with-color/bee-B1SM.svg","response":0,"trial_type":"image-button-response","trial_index":45,"time_elapsed":154006,"internal_node_id":"0.0-4.0-0.19","subject_id":"613e18e92e4ed15176362aa2","study_id":"6197b3f67c2b5cd3b6d9596a","session_id":"6197b9f038bfc1bd00b4788d","condition":"contingent","relevant_dimensions":["antennae","legs"],"bee_group":{"antennae":"B","wings":"X","pattern":"X","legs":"M"},"action":"harvest","summary":"bad-harvest","bonus":0.7400000000000007},{"rt":3387.4000000059605,"stimulus":"\n                    <p><b>Action: <em>harvest</em></b></p>\n                    <p>This is the bee that you just saw.</p>\n                    <img src=\"bees-with-color/bee-B1SM.svg\" width=\"200\">\n                    <p><span class=\"redText\">Bad choice, the bee was angry.</span><br><b>You have been stung!</b><br>Your pay has been decreased by $0.10. Your bonus pay is now $0.56.</p>\n            ","response":0,"trial_type":"html-button-response","trial_index":46,"time_elapsed":157400,"internal_node_id":"0.0-4.0-1.19","subject_id":"613e18e92e4ed15176362aa2","study_id":"6197b3f67c2b5cd3b6d9596a","session_id":"6197b9f038bfc1bd00b4788d","condition":"contingent","relevant_dimensions":["antennae","legs"],"bee_group":{"antennae":"B","wings":"X","pattern":"X","legs":"M"},"bonus":0.7400000000000007},{"rt":2278,"stimulus":"bees-with-color/bee-B2DF.svg","response":0,"trial_type":"image-button-response","trial_index":47,"time_elapsed":159686,"internal_node_id":"0.0-4.0-0.20","subject_id":"613e18e92e4ed15176362aa2","study_id":"6197b3f67c2b5cd3b6d9596a","session_id":"6197b9f038bfc1bd00b4788d","condition":"contingent","relevant_dimensions":["antennae","legs"],"bee_group":{"antennae":"B","wings":"X","pattern":"X","legs":"M"},"action":"harvest","summary":"good-harvest","bonus":0.7400000000000007},{"rt":1354.5999999940395,"stimulus":"\n                    <p><b>Action: <em>harvest</em></b></p>\n                    <p>This is the bee that you just saw.</p>\n                    <img src=\"bees-with-color/bee-B2DF.svg\" width=\"200\">\n                    <p><span class=\"greenText\"><b>Successful harvest!</b></span><br>Your pay has increased by $0.02. Your bonus pay is now $0.58.</p>\n            ","response":0,"trial_type":"html-button-response","trial_index":48,"time_elapsed":161047,"internal_node_id":"0.0-4.0-1.20","subject_id":"613e18e92e4ed15176362aa2","study_id":"6197b3f67c2b5cd3b6d9596a","session_id":"6197b9f038bfc1bd00b4788d","condition":"contingent","relevant_dimensions":["antennae","legs"],"bee_group":{"antennae":"B","wings":"X","pattern":"X","legs":"M"},"bonus":0.7400000000000007},{"rt":1834,"stimulus":"bees-with-color/bee-B2SF.svg","response":0,"trial_type":"image-button-response","trial_index":49,"time_elapsed":162888,"internal_node_id":"0.0-4.0-0.21","subject_id":"613e18e92e4ed15176362aa2","study_id":"6197b3f67c2b5cd3b6d9596a","session_id":"6197b9f038bfc1bd00b4788d","condition":"contingent","relevant_dimensions":["antennae","legs"],"bee_group":{"antennae":"B","wings":"X","pattern":"X","legs":"M"},"action":"harvest","summary":"good-harvest","bonus":0.7400000000000007},{"rt":1293.0999999940395,"stimulus":"\n                    <p><b>Action: <em>harvest</em></b></p>\n                    <p>This is the bee that you just saw.</p>\n                    <img src=\"bees-with-color/bee-B2SF.svg\" width=\"200\">\n                    <p><span class=\"greenText\"><b>Successful harvest!</b></span><br>Your pay has increased by $0.02. Your bonus pay is now $0.60.</p>\n            ","response":0,"trial_type":"html-button-response","trial_index":50,"time_elapsed":164187,"internal_node_id":"0.0-4.0-1.21","subject_id":"613e18e92e4ed15176362aa2","study_id":"6197b3f67c2b5cd3b6d9596a","session_id":"6197b9f038bfc1bd00b4788d","condition":"contingent","relevant_dimensions":["antennae","legs"],"bee_group":{"antennae":"B","wings":"X","pattern":"X","legs":"M"},"bonus":0.7400000000000007},{"rt":1187,"stimulus":"bees-with-color/bee-A1DF.svg","response":1,"trial_type":"image-button-response","trial_index":51,"time_elapsed":165381,"internal_node_id":"0.0-4.0-0.22","subject_id":"613e18e92e4ed15176362aa2","study_id":"6197b3f67c2b5cd3b6d9596a","session_id":"6197b9f038bfc1bd00b4788d","condition":"contingent","relevant_dimensions":["antennae","legs"],"bee_group":{"antennae":"B","wings":"X","pattern":"X","legs":"M"},"action":"avoid","summary":"bad-avoid","bonus":0.7400000000000007},{"rt":1099.9000000059605,"stimulus":"\n                    <p><b>Action: <em>avoid</em></b></p>\n                    <p>This is the bee that you just saw.</p>\n                    <img src=\"bees-with-color/bee-A1DF.svg\" width=\"200\">\n                    <p><br>Your bonus pay is unchanged, and remains at $0.60.</p>\n            ","response":0,"trial_type":"html-button-response","trial_index":52,"time_elapsed":166489,"internal_node_id":"0.0-4.0-1.22","subject_id":"613e18e92e4ed15176362aa2","study_id":"6197b3f67c2b5cd3b6d9596a","session_id":"6197b9f038bfc1bd00b4788d","condition":"contingent","relevant_dimensions":["antennae","legs"],"bee_group":{"antennae":"B","wings":"X","pattern":"X","legs":"M"},"bonus":0.7400000000000007},{"rt":1802.4000000059605,"stimulus":"bees-with-color/bee-A2DF.svg","response":1,"trial_type":"image-button-response","trial_index":53,"time_elapsed":168300,"internal_node_id":"0.0-4.0-0.23","subject_id":"613e18e92e4ed15176362aa2","study_id":"6197b3f67c2b5cd3b6d9596a","session_id":"6197b9f038bfc1bd00b4788d","condition":"contingent","relevant_dimensions":["antennae","legs"],"bee_group":{"antennae":"B","wings":"X","pattern":"X","legs":"M"},"action":"avoid","summary":"bad-avoid","bonus":0.7400000000000007},{"rt":1331.7000000178814,"stimulus":"\n                    <p><b>Action: <em>avoid</em></b></p>\n                    <p>This is the bee that you just saw.</p>\n                    <img src=\"bees-with-color/bee-A2DF.svg\" width=\"200\">\n                    <p><br>Your bonus pay is unchanged, and remains at $0.60.</p>\n            ","response":0,"trial_type":"html-button-response","trial_index":54,"time_elapsed":169638,"internal_node_id":"0.0-4.0-1.23","subject_id":"613e18e92e4ed15176362aa2","study_id":"6197b3f67c2b5cd3b6d9596a","session_id":"6197b9f038bfc1bd00b4788d","condition":"contingent","relevant_dimensions":["antennae","legs"],"bee_group":{"antennae":"B","wings":"X","pattern":"X","legs":"M"},"bonus":0.7400000000000007},{"rt":2080.9000000059605,"stimulus":"bees-with-color/bee-A2SF.svg","response":0,"trial_type":"image-button-response","trial_index":55,"time_elapsed":171724,"internal_node_id":"0.0-4.0-0.24","subject_id":"613e18e92e4ed15176362aa2","study_id":"6197b3f67c2b5cd3b6d9596a","session_id":"6197b9f038bfc1bd00b4788d","condition":"contingent","relevant_dimensions":["antennae","legs"],"bee_group":{"antennae":"B","wings":"X","pattern":"X","legs":"M"},"action":"harvest","summary":"good-harvest","bonus":0.7400000000000007},{"rt":1063.0999999940395,"stimulus":"\n                    <p><b>Action: <em>harvest</em></b></p>\n                    <p>This is the bee that you just saw.</p>\n                    <img src=\"bees-with-color/bee-A2SF.svg\" width=\"200\">\n                    <p><span class=\"greenText\"><b>Successful harvest!</b></span><br>Your pay has increased by $0.02. Your bonus pay is now $0.62.</p>\n            ","response":0,"trial_type":"html-button-response","trial_index":56,"time_elapsed":172796,"internal_node_id":"0.0-4.0-1.24","subject_id":"613e18e92e4ed15176362aa2","study_id":"6197b3f67c2b5cd3b6d9596a","session_id":"6197b9f038bfc1bd00b4788d","condition":"contingent","relevant_dimensions":["antennae","legs"],"bee_group":{"antennae":"B","wings":"X","pattern":"X","legs":"M"},"bonus":0.7400000000000007},{"rt":2138.7999999821186,"stimulus":"bees-with-color/bee-B1SF.svg","response":0,"trial_type":"image-button-response","trial_index":57,"time_elapsed":174941,"internal_node_id":"0.0-4.0-0.25","subject_id":"613e18e92e4ed15176362aa2","study_id":"6197b3f67c2b5cd3b6d9596a","session_id":"6197b9f038bfc1bd00b4788d","condition":"contingent","relevant_dimensions":["antennae","legs"],"bee_group":{"antennae":"B","wings":"X","pattern":"X","legs":"M"},"action":"harvest","summary":"good-harvest","bonus":0.7400000000000007},{"rt":1088.1000000238419,"stimulus":"\n                    <p><b>Action: <em>harvest</em></b></p>\n                    <p>This is the bee that you just saw.</p>\n                    <img src=\"bees-with-color/bee-B1SF.svg\" width=\"200\">\n                    <p><span class=\"greenText\"><b>Successful harvest!</b></span><br>Your pay has increased by $0.02. Your bonus pay is now $0.64.</p>\n            ","response":0,"trial_type":"html-button-response","trial_index":58,"time_elapsed":176034,"internal_node_id":"0.0-4.0-1.25","subject_id":"613e18e92e4ed15176362aa2","study_id":"6197b3f67c2b5cd3b6d9596a","session_id":"6197b9f038bfc1bd00b4788d","condition":"contingent","relevant_dimensions":["antennae","legs"],"bee_group":{"antennae":"B","wings":"X","pattern":"X","legs":"M"},"bonus":0.7400000000000007},{"rt":1425,"stimulus":"bees-with-color/bee-B1DF.svg","response":1,"trial_type":"image-button-response","trial_index":59,"time_elapsed":177464,"internal_node_id":"0.0-4.0-0.26","subject_id":"613e18e92e4ed15176362aa2","study_id":"6197b3f67c2b5cd3b6d9596a","session_id":"6197b9f038bfc1bd00b4788d","condition":"contingent","relevant_dimensions":["antennae","legs"],"bee_group":{"antennae":"B","wings":"X","pattern":"X","legs":"M"},"action":"avoid","summary":"bad-avoid","bonus":0.7400000000000007},{"rt":1287.5999999940395,"stimulus":"\n                    <p><b>Action: <em>avoid</em></b></p>\n                    <p>This is the bee that you just saw.</p>\n                    <img src=\"bees-with-color/bee-B1DF.svg\" width=\"200\">\n                    <p><br>Your bonus pay is unchanged, and remains at $0.64.</p>\n            ","response":0,"trial_type":"html-button-response","trial_index":60,"time_elapsed":178757,"internal_node_id":"0.0-4.0-1.26","subject_id":"613e18e92e4ed15176362aa2","study_id":"6197b3f67c2b5cd3b6d9596a","session_id":"6197b9f038bfc1bd00b4788d","condition":"contingent","relevant_dimensions":["antennae","legs"],"bee_group":{"antennae":"B","wings":"X","pattern":"X","legs":"M"},"bonus":0.7400000000000007},{"rt":1591,"stimulus":"bees-with-color/bee-A2DM.svg","response":1,"trial_type":"image-button-response","trial_index":61,"time_elapsed":180354,"internal_node_id":"0.0-4.0-0.27","subject_id":"613e18e92e4ed15176362aa2","study_id":"6197b3f67c2b5cd3b6d9596a","session_id":"6197b9f038bfc1bd00b4788d","condition":"contingent","relevant_dimensions":["antennae","legs"],"bee_group":{"antennae":"B","wings":"X","pattern":"X","legs":"M"},"action":"avoid","summary":"bad-avoid","bonus":0.7400000000000007},{"rt":789.1999999880791,"stimulus":"\n                    <p><b>Action: <em>avoid</em></b></p>\n                    <p>This is the bee that you just saw.</p>\n                    <img src=\"bees-with-color/bee-A2DM.svg\" width=\"200\">\n                    <p><br>Your bonus pay is unchanged, and remains at $0.64.</p>\n            ","response":0,"trial_type":"html-button-response","trial_index":62,"time_elapsed":181149,"internal_node_id":"0.0-4.0-1.27","subject_id":"613e18e92e4ed15176362aa2","study_id":"6197b3f67c2b5cd3b6d9596a","session_id":"6197b9f038bfc1bd00b4788d","condition":"contingent","relevant_dimensions":["antennae","legs"],"bee_group":{"antennae":"B","wings":"X","pattern":"X","legs":"M"},"bonus":0.7400000000000007},{"rt":1701,"stimulus":"bees-with-color/bee-B2SM.svg","response":0,"trial_type":"image-button-response","trial_index":63,"time_elapsed":182854,"internal_node_id":"0.0-4.0-0.28","subject_id":"613e18e92e4ed15176362aa2","study_id":"6197b3f67c2b5cd3b6d9596a","session_id":"6197b9f038bfc1bd00b4788d","condition":"contingent","relevant_dimensions":["antennae","legs"],"bee_group":{"antennae":"B","wings":"X","pattern":"X","legs":"M"},"action":"harvest","summary":"bad-harvest","bonus":0.7400000000000007},{"rt":3561.2999999821186,"stimulus":"\n                    <p><b>Action: <em>harvest</em></b></p>\n                    <p>This is the bee that you just saw.</p>\n                    <img src=\"bees-with-color/bee-B2SM.svg\" width=\"200\">\n                    <p><span class=\"redText\">Bad choice, the bee was angry.</span><br><b>You have been stung!</b><br>Your pay has been decreased by $0.10. Your bonus pay is now $0.54.</p>\n            ","response":0,"trial_type":"html-button-response","trial_index":64,"time_elapsed":186420,"internal_node_id":"0.0-4.0-1.28","subject_id":"613e18e92e4ed15176362aa2","study_id":"6197b3f67c2b5cd3b6d9596a","session_id":"6197b9f038bfc1bd00b4788d","condition":"contingent","relevant_dimensions":["antennae","legs"],"bee_group":{"antennae":"B","wings":"X","pattern":"X","legs":"M"},"bonus":0.7400000000000007},{"rt":3064.0999999940395,"stimulus":"bees-with-color/bee-A1SF.svg","response":0,"trial_type":"image-button-response","trial_index":65,"time_elapsed":189488,"internal_node_id":"0.0-4.0-0.29","subject_id":"613e18e92e4ed15176362aa2","study_id":"6197b3f67c2b5cd3b6d9596a","session_id":"6197b9f038bfc1bd00b4788d","condition":"contingent","relevant_dimensions":["antennae","legs"],"bee_group":{"antennae":"B","wings":"X","pattern":"X","legs":"M"},"action":"harvest","summary":"good-harvest","bonus":0.7400000000000007},{"rt":933.0999999940395,"stimulus":"\n                    <p><b>Action: <em>harvest</em></b></p>\n                    <p>This is the bee that you just saw.</p>\n                    <img src=\"bees-with-color/bee-A1SF.svg\" width=\"200\">\n                    <p><span class=\"greenText\"><b>Successful harvest!</b></span><br>Your pay has increased by $0.02. Your bonus pay is now $0.56.</p>\n            ","response":0,"trial_type":"html-button-response","trial_index":66,"time_elapsed":190427,"internal_node_id":"0.0-4.0-1.29","subject_id":"613e18e92e4ed15176362aa2","study_id":"6197b3f67c2b5cd3b6d9596a","session_id":"6197b9f038bfc1bd00b4788d","condition":"contingent","relevant_dimensions":["antennae","legs"],"bee_group":{"antennae":"B","wings":"X","pattern":"X","legs":"M"},"bonus":0.7400000000000007},{"rt":1619.300000011921,"stimulus":"bees-with-color/bee-A2SM.svg","response":0,"trial_type":"image-button-response","trial_index":67,"time_elapsed":192050,"internal_node_id":"0.0-4.0-0.30","subject_id":"613e18e92e4ed15176362aa2","study_id":"6197b3f67c2b5cd3b6d9596a","session_id":"6197b9f038bfc1bd00b4788d","condition":"contingent","relevant_dimensions":["antennae","legs"],"bee_group":{"antennae":"B","wings":"X","pattern":"X","legs":"M"},"action":"harvest","summary":"good-harvest","bonus":0.7400000000000007},{"rt":720.6999999880791,"stimulus":"\n                    <p><b>Action: <em>harvest</em></b></p>\n                    <p>This is the bee that you just saw.</p>\n                    <img src=\"bees-with-color/bee-A2SM.svg\" width=\"200\">\n                    <p><span class=\"greenText\"><b>Successful harvest!</b></span><br>Your pay has increased by $0.02. Your bonus pay is now $0.58.</p>\n            ","response":0,"trial_type":"html-button-response","trial_index":68,"time_elapsed":192777,"internal_node_id":"0.0-4.0-1.30","subject_id":"613e18e92e4ed15176362aa2","study_id":"6197b3f67c2b5cd3b6d9596a","session_id":"6197b9f038bfc1bd00b4788d","condition":"contingent","relevant_dimensions":["antennae","legs"],"bee_group":{"antennae":"B","wings":"X","pattern":"X","legs":"M"},"bonus":0.7400000000000007},{"rt":1007.3000000119209,"stimulus":"bees-with-color/bee-B2DM.svg","response":1,"trial_type":"image-button-response","trial_index":69,"time_elapsed":193792,"internal_node_id":"0.0-4.0-0.31","subject_id":"613e18e92e4ed15176362aa2","study_id":"6197b3f67c2b5cd3b6d9596a","session_id":"6197b9f038bfc1bd00b4788d","condition":"contingent","relevant_dimensions":["antennae","legs"],"bee_group":{"antennae":"B","wings":"X","pattern":"X","legs":"M"},"action":"avoid","summary":"good-avoid","bonus":0.7400000000000007},{"rt":1026.699999988079,"stimulus":"\n                    <p><b>Action: <em>avoid</em></b></p>\n                    <p>This is the bee that you just saw.</p>\n                    <img src=\"bees-with-color/bee-B2DM.svg\" width=\"200\">\n                    <p><br>Your bonus pay is unchanged, and remains at $0.58.</p>\n            ","response":0,"trial_type":"html-button-response","trial_index":70,"time_elapsed":194824,"internal_node_id":"0.0-4.0-1.31","subject_id":"613e18e92e4ed15176362aa2","study_id":"6197b3f67c2b5cd3b6d9596a","session_id":"6197b9f038bfc1bd00b4788d","condition":"contingent","relevant_dimensions":["antennae","legs"],"bee_group":{"antennae":"B","wings":"X","pattern":"X","legs":"M"},"bonus":0.7400000000000007},{"rt":1883.5,"stimulus":"bees-with-color/bee-A2DF.svg","response":1,"trial_type":"image-button-response","trial_index":71,"time_elapsed":196713,"internal_node_id":"0.0-4.0-0.32","subject_id":"613e18e92e4ed15176362aa2","study_id":"6197b3f67c2b5cd3b6d9596a","session_id":"6197b9f038bfc1bd00b4788d","condition":"contingent","relevant_dimensions":["antennae","legs"],"bee_group":{"antennae":"B","wings":"X","pattern":"X","legs":"M"},"action":"avoid","summary":"bad-avoid","bonus":0.7400000000000007},{"rt":788.0999999940395,"stimulus":"\n                    <p><b>Action: <em>avoid</em></b></p>\n                    <p>This is the bee that you just saw.</p>\n                    <img src=\"bees-with-color/bee-A2DF.svg\" width=\"200\">\n                    <p><br>Your bonus pay is unchanged, and remains at $0.58.</p>\n            ","response":0,"trial_type":"html-button-response","trial_index":72,"time_elapsed":197508,"internal_node_id":"0.0-4.0-1.32","subject_id":"613e18e92e4ed15176362aa2","study_id":"6197b3f67c2b5cd3b6d9596a","session_id":"6197b9f038bfc1bd00b4788d","condition":"contingent","relevant_dimensions":["antennae","legs"],"bee_group":{"antennae":"B","wings":"X","pattern":"X","legs":"M"},"bonus":0.7400000000000007},{"rt":1141.199999988079,"stimulus":"bees-with-color/bee-A1DM.svg","response":1,"trial_type":"image-button-response","trial_index":73,"time_elapsed":198654,"internal_node_id":"0.0-4.0-0.33","subject_id":"613e18e92e4ed15176362aa2","study_id":"6197b3f67c2b5cd3b6d9596a","session_id":"6197b9f038bfc1bd00b4788d","condition":"contingent","relevant_dimensions":["antennae","legs"],"bee_group":{"antennae":"B","wings":"X","pattern":"X","legs":"M"},"action":"avoid","summary":"bad-avoid","bonus":0.7400000000000007},{"rt":681.9000000059605,"stimulus":"\n                    <p><b>Action: <em>avoid</em></b></p>\n                    <p>This is the bee that you just saw.</p>\n                    <img src=\"bees-with-color/bee-A1DM.svg\" width=\"200\">\n                    <p><br>Your bonus pay is unchanged, and remains at $0.58.</p>\n            ","response":0,"trial_type":"html-button-response","trial_index":74,"time_elapsed":199342,"internal_node_id":"0.0-4.0-1.33","subject_id":"613e18e92e4ed15176362aa2","study_id":"6197b3f67c2b5cd3b6d9596a","session_id":"6197b9f038bfc1bd00b4788d","condition":"contingent","relevant_dimensions":["antennae","legs"],"bee_group":{"antennae":"B","wings":"X","pattern":"X","legs":"M"},"bonus":0.7400000000000007},{"rt":1271.7000000178814,"stimulus":"bees-with-color/bee-B2SM.svg","response":1,"trial_type":"image-button-response","trial_index":75,"time_elapsed":200619,"internal_node_id":"0.0-4.0-0.34","subject_id":"613e18e92e4ed15176362aa2","study_id":"6197b3f67c2b5cd3b6d9596a","session_id":"6197b9f038bfc1bd00b4788d","condition":"contingent","relevant_dimensions":["antennae","legs"],"bee_group":{"antennae":"B","wings":"X","pattern":"X","legs":"M"},"action":"avoid","summary":"good-avoid","bonus":0.7400000000000007},{"rt":643.0999999940395,"stimulus":"\n                    <p><b>Action: <em>avoid</em></b></p>\n                    <p>This is the bee that you just saw.</p>\n                    <img src=\"bees-with-color/bee-B2SM.svg\" width=\"200\">\n                    <p><br>Your bonus pay is unchanged, and remains at $0.58.</p>\n            ","response":0,"trial_type":"html-button-response","trial_index":76,"time_elapsed":201268,"internal_node_id":"0.0-4.0-1.34","subject_id":"613e18e92e4ed15176362aa2","study_id":"6197b3f67c2b5cd3b6d9596a","session_id":"6197b9f038bfc1bd00b4788d","condition":"contingent","relevant_dimensions":["antennae","legs"],"bee_group":{"antennae":"B","wings":"X","pattern":"X","legs":"M"},"bonus":0.7400000000000007},{"rt":2455.9000000059605,"stimulus":"bees-with-color/bee-A1SF.svg","response":0,"trial_type":"image-button-response","trial_index":77,"time_elapsed":203729,"internal_node_id":"0.0-4.0-0.35","subject_id":"613e18e92e4ed15176362aa2","study_id":"6197b3f67c2b5cd3b6d9596a","session_id":"6197b9f038bfc1bd00b4788d","condition":"contingent","relevant_dimensions":["antennae","legs"],"bee_group":{"antennae":"B","wings":"X","pattern":"X","legs":"M"},"action":"harvest","summary":"good-harvest","bonus":0.7400000000000007},{"rt":1201.199999988079,"stimulus":"\n                    <p><b>Action: <em>harvest</em></b></p>\n                    <p>This is the bee that you just saw.</p>\n                    <img src=\"bees-with-color/bee-A1SF.svg\" width=\"200\">\n                    <p><span class=\"greenText\"><b>Successful harvest!</b></span><br>Your pay has increased by $0.02. Your bonus pay is now $0.60.</p>\n            ","response":0,"trial_type":"html-button-response","trial_index":78,"time_elapsed":204937,"internal_node_id":"0.0-4.0-1.35","subject_id":"613e18e92e4ed15176362aa2","study_id":"6197b3f67c2b5cd3b6d9596a","session_id":"6197b9f038bfc1bd00b4788d","condition":"contingent","relevant_dimensions":["antennae","legs"],"bee_group":{"antennae":"B","wings":"X","pattern":"X","legs":"M"},"bonus":0.7400000000000007},{"rt":1095.0999999940395,"stimulus":"bees-with-color/bee-B2DF.svg","response":1,"trial_type":"image-button-response","trial_index":79,"time_elapsed":206038,"internal_node_id":"0.0-4.0-0.36","subject_id":"613e18e92e4ed15176362aa2","study_id":"6197b3f67c2b5cd3b6d9596a","session_id":"6197b9f038bfc1bd00b4788d","condition":"contingent","relevant_dimensions":["antennae","legs"],"bee_group":{"antennae":"B","wings":"X","pattern":"X","legs":"M"},"action":"avoid","summary":"bad-avoid","bonus":0.7400000000000007},{"rt":995,"stimulus":"\n                    <p><b>Action: <em>avoid</em></b></p>\n                    <p>This is the bee that you just saw.</p>\n                    <img src=\"bees-with-color/bee-B2DF.svg\" width=\"200\">\n                    <p><br>Your bonus pay is unchanged, and remains at $0.60.</p>\n            ","response":0,"trial_type":"html-button-response","trial_index":80,"time_elapsed":207040,"internal_node_id":"0.0-4.0-1.36","subject_id":"613e18e92e4ed15176362aa2","study_id":"6197b3f67c2b5cd3b6d9596a","session_id":"6197b9f038bfc1bd00b4788d","condition":"contingent","relevant_dimensions":["antennae","legs"],"bee_group":{"antennae":"B","wings":"X","pattern":"X","legs":"M"},"bonus":0.7400000000000007},{"rt":3976.0999999940395,"stimulus":"bees-with-color/bee-A2SM.svg","response":0,"trial_type":"image-button-response","trial_index":81,"time_elapsed":211022,"internal_node_id":"0.0-4.0-0.37","subject_id":"613e18e92e4ed15176362aa2","study_id":"6197b3f67c2b5cd3b6d9596a","session_id":"6197b9f038bfc1bd00b4788d","condition":"contingent","relevant_dimensions":["antennae","legs"],"bee_group":{"antennae":"B","wings":"X","pattern":"X","legs":"M"},"action":"harvest","summary":"good-harvest","bonus":0.7400000000000007},{"rt":1368.5,"stimulus":"\n                    <p><b>Action: <em>harvest</em></b></p>\n                    <p>This is the bee that you just saw.</p>\n                    <img src=\"bees-with-color/bee-A2SM.svg\" width=\"200\">\n                    <p><span class=\"greenText\"><b>Successful harvest!</b></span><br>Your pay has increased by $0.02. Your bonus pay is now $0.62.</p>\n            ","response":0,"trial_type":"html-button-response","trial_index":82,"time_elapsed":212398,"internal_node_id":"0.0-4.0-1.37","subject_id":"613e18e92e4ed15176362aa2","study_id":"6197b3f67c2b5cd3b6d9596a","session_id":"6197b9f038bfc1bd00b4788d","condition":"contingent","relevant_dimensions":["antennae","legs"],"bee_group":{"antennae":"B","wings":"X","pattern":"X","legs":"M"},"bonus":0.7400000000000007},{"rt":3004,"stimulus":"bees-with-color/bee-B1DM.svg","response":1,"trial_type":"image-button-response","trial_index":83,"time_elapsed":215409,"internal_node_id":"0.0-4.0-0.38","subject_id":"613e18e92e4ed15176362aa2","study_id":"6197b3f67c2b5cd3b6d9596a","session_id":"6197b9f038bfc1bd00b4788d","condition":"contingent","relevant_dimensions":["antennae","legs"],"bee_group":{"antennae":"B","wings":"X","pattern":"X","legs":"M"},"action":"avoid","summary":"good-avoid","bonus":0.7400000000000007},{"rt":1053.8999999761581,"stimulus":"\n                    <p><b>Action: <em>avoid</em></b></p>\n                    <p>This is the bee that you just saw.</p>\n                    <img src=\"bees-with-color/bee-B1DM.svg\" width=\"200\">\n                    <p><br>Your bonus pay is unchanged, and remains at $0.62.</p>\n            ","response":0,"trial_type":"html-button-response","trial_index":84,"time_elapsed":216470,"internal_node_id":"0.0-4.0-1.38","subject_id":"613e18e92e4ed15176362aa2","study_id":"6197b3f67c2b5cd3b6d9596a","session_id":"6197b9f038bfc1bd00b4788d","condition":"contingent","relevant_dimensions":["antennae","legs"],"bee_group":{"antennae":"B","wings":"X","pattern":"X","legs":"M"},"bonus":0.7400000000000007},{"rt":1071.699999988079,"stimulus":"bees-with-color/bee-A1DF.svg","response":1,"trial_type":"image-button-response","trial_index":85,"time_elapsed":217550,"internal_node_id":"0.0-4.0-0.39","subject_id":"613e18e92e4ed15176362aa2","study_id":"6197b3f67c2b5cd3b6d9596a","session_id":"6197b9f038bfc1bd00b4788d","condition":"contingent","relevant_dimensions":["antennae","legs"],"bee_group":{"antennae":"B","wings":"X","pattern":"X","legs":"M"},"action":"avoid","summary":"bad-avoid","bonus":0.7400000000000007},{"rt":581.4000000059605,"stimulus":"\n                    <p><b>Action: <em>avoid</em></b></p>\n                    <p>This is the bee that you just saw.</p>\n                    <img src=\"bees-with-color/bee-A1DF.svg\" width=\"200\">\n                    <p><br>Your bonus pay is unchanged, and remains at $0.62.</p>\n            ","response":0,"trial_type":"html-button-response","trial_index":86,"time_elapsed":218138,"internal_node_id":"0.0-4.0-1.39","subject_id":"613e18e92e4ed15176362aa2","study_id":"6197b3f67c2b5cd3b6d9596a","session_id":"6197b9f038bfc1bd00b4788d","condition":"contingent","relevant_dimensions":["antennae","legs"],"bee_group":{"antennae":"B","wings":"X","pattern":"X","legs":"M"},"bonus":0.7400000000000007},{"rt":1018.7000000178814,"stimulus":"bees-with-color/bee-B2DM.svg","response":1,"trial_type":"image-button-response","trial_index":87,"time_elapsed":219162,"internal_node_id":"0.0-4.0-0.40","subject_id":"613e18e92e4ed15176362aa2","study_id":"6197b3f67c2b5cd3b6d9596a","session_id":"6197b9f038bfc1bd00b4788d","condition":"contingent","relevant_dimensions":["antennae","legs"],"bee_group":{"antennae":"B","wings":"X","pattern":"X","legs":"M"},"action":"avoid","summary":"good-avoid","bonus":0.7400000000000007},{"rt":633.5999999940395,"stimulus":"\n                    <p><b>Action: <em>avoid</em></b></p>\n                    <p>This is the bee that you just saw.</p>\n                    <img src=\"bees-with-color/bee-B2DM.svg\" width=\"200\">\n                    <p><br>Your bonus pay is unchanged, and remains at $0.62.</p>\n            ","response":0,"trial_type":"html-button-response","trial_index":88,"time_elapsed":219802,"internal_node_id":"0.0-4.0-1.40","subject_id":"613e18e92e4ed15176362aa2","study_id":"6197b3f67c2b5cd3b6d9596a","session_id":"6197b9f038bfc1bd00b4788d","condition":"contingent","relevant_dimensions":["antennae","legs"],"bee_group":{"antennae":"B","wings":"X","pattern":"X","legs":"M"},"bonus":0.7400000000000007},{"rt":861,"stimulus":"bees-with-color/bee-B1DF.svg","response":1,"trial_type":"image-button-response","trial_index":89,"time_elapsed":220668,"internal_node_id":"0.0-4.0-0.41","subject_id":"613e18e92e4ed15176362aa2","study_id":"6197b3f67c2b5cd3b6d9596a","session_id":"6197b9f038bfc1bd00b4788d","condition":"contingent","relevant_dimensions":["antennae","legs"],"bee_group":{"antennae":"B","wings":"X","pattern":"X","legs":"M"},"action":"avoid","summary":"bad-avoid","bonus":0.7400000000000007},{"rt":1000.6000000238419,"stimulus":"\n                    <p><b>Action: <em>avoid</em></b></p>\n                    <p>This is the bee that you just saw.</p>\n                    <img src=\"bees-with-color/bee-B1DF.svg\" width=\"200\">\n                    <p><br>Your bonus pay is unchanged, and remains at $0.62.</p>\n            ","response":0,"trial_type":"html-button-response","trial_index":90,"time_elapsed":221676,"internal_node_id":"0.0-4.0-1.41","subject_id":"613e18e92e4ed15176362aa2","study_id":"6197b3f67c2b5cd3b6d9596a","session_id":"6197b9f038bfc1bd00b4788d","condition":"contingent","relevant_dimensions":["antennae","legs"],"bee_group":{"antennae":"B","wings":"X","pattern":"X","legs":"M"},"bonus":0.7400000000000007},{"rt":2534,"stimulus":"bees-with-color/bee-B1SF.svg","response":0,"trial_type":"image-button-response","trial_index":91,"time_elapsed":224216,"internal_node_id":"0.0-4.0-0.42","subject_id":"613e18e92e4ed15176362aa2","study_id":"6197b3f67c2b5cd3b6d9596a","session_id":"6197b9f038bfc1bd00b4788d","condition":"contingent","relevant_dimensions":["antennae","legs"],"bee_group":{"antennae":"B","wings":"X","pattern":"X","legs":"M"},"action":"harvest","summary":"good-harvest","bonus":0.7400000000000007},{"rt":2123.0999999940395,"stimulus":"\n                    <p><b>Action: <em>harvest</em></b></p>\n                    <p>This is the bee that you just saw.</p>\n                    <img src=\"bees-with-color/bee-B1SF.svg\" width=\"200\">\n                    <p><span class=\"greenText\"><b>Successful harvest!</b></span><br>Your pay has increased by $0.02. Your bonus pay is now $0.64.</p>\n            ","response":0,"trial_type":"html-button-response","trial_index":92,"time_elapsed":226345,"internal_node_id":"0.0-4.0-1.42","subject_id":"613e18e92e4ed15176362aa2","study_id":"6197b3f67c2b5cd3b6d9596a","session_id":"6197b9f038bfc1bd00b4788d","condition":"contingent","relevant_dimensions":["antennae","legs"],"bee_group":{"antennae":"B","wings":"X","pattern":"X","legs":"M"},"bonus":0.7400000000000007},{"rt":1844.0999999940395,"stimulus":"bees-with-color/bee-A2SF.svg","response":0,"trial_type":"image-button-response","trial_index":93,"time_elapsed":228197,"internal_node_id":"0.0-4.0-0.43","subject_id":"613e18e92e4ed15176362aa2","study_id":"6197b3f67c2b5cd3b6d9596a","session_id":"6197b9f038bfc1bd00b4788d","condition":"contingent","relevant_dimensions":["antennae","legs"],"bee_group":{"antennae":"B","wings":"X","pattern":"X","legs":"M"},"action":"harvest","summary":"good-harvest","bonus":0.7400000000000007},{"rt":1062.2000000178814,"stimulus":"\n                    <p><b>Action: <em>harvest</em></b></p>\n                    <p>This is the bee that you just saw.</p>\n                    <img src=\"bees-with-color/bee-A2SF.svg\" width=\"200\">\n                    <p><span class=\"greenText\"><b>Successful harvest!</b></span><br>Your pay has increased by $0.02. Your bonus pay is now $0.66.</p>\n            ","response":0,"trial_type":"html-button-response","trial_index":94,"time_elapsed":229267,"internal_node_id":"0.0-4.0-1.43","subject_id":"613e18e92e4ed15176362aa2","study_id":"6197b3f67c2b5cd3b6d9596a","session_id":"6197b9f038bfc1bd00b4788d","condition":"contingent","relevant_dimensions":["antennae","legs"],"bee_group":{"antennae":"B","wings":"X","pattern":"X","legs":"M"},"bonus":0.7400000000000007},{"rt":5795.5,"stimulus":"bees-with-color/bee-A1SM.svg","response":0,"trial_type":"image-button-response","trial_index":95,"time_elapsed":235069,"internal_node_id":"0.0-4.0-0.44","subject_id":"613e18e92e4ed15176362aa2","study_id":"6197b3f67c2b5cd3b6d9596a","session_id":"6197b9f038bfc1bd00b4788d","condition":"contingent","relevant_dimensions":["antennae","legs"],"bee_group":{"antennae":"B","wings":"X","pattern":"X","legs":"M"},"action":"harvest","summary":"good-harvest","bonus":0.7400000000000007},{"rt":1093.5999999940395,"stimulus":"\n                    <p><b>Action: <em>harvest</em></b></p>\n                    <p>This is the bee that you just saw.</p>\n                    <img src=\"bees-with-color/bee-A1SM.svg\" width=\"200\">\n                    <p><span class=\"greenText\"><b>Successful harvest!</b></span><br>Your pay has increased by $0.02. Your bonus pay is now $0.68.</p>\n            ","response":0,"trial_type":"html-button-response","trial_index":96,"time_elapsed":236169,"internal_node_id":"0.0-4.0-1.44","subject_id":"613e18e92e4ed15176362aa2","study_id":"6197b3f67c2b5cd3b6d9596a","session_id":"6197b9f038bfc1bd00b4788d","condition":"contingent","relevant_dimensions":["antennae","legs"],"bee_group":{"antennae":"B","wings":"X","pattern":"X","legs":"M"},"bonus":0.7400000000000007},{"rt":2194.7999999821186,"stimulus":"bees-with-color/bee-B1SM.svg","response":0,"trial_type":"image-button-response","trial_index":97,"time_elapsed":238370,"internal_node_id":"0.0-4.0-0.45","subject_id":"613e18e92e4ed15176362aa2","study_id":"6197b3f67c2b5cd3b6d9596a","session_id":"6197b9f038bfc1bd00b4788d","condition":"contingent","relevant_dimensions":["antennae","legs"],"bee_group":{"antennae":"B","wings":"X","pattern":"X","legs":"M"},"action":"harvest","summary":"bad-harvest","bonus":0.7400000000000007},{"rt":1523.4000000059605,"stimulus":"\n                    <p><b>Action: <em>harvest</em></b></p>\n                    <p>This is the bee that you just saw.</p>\n                    <img src=\"bees-with-color/bee-B1SM.svg\" width=\"200\">\n                    <p><span class=\"redText\">Bad choice, the bee was angry.</span><br><b>You have been stung!</b><br>Your pay has been decreased by $0.10. Your bonus pay is now $0.58.</p>\n            ","response":0,"trial_type":"html-button-response","trial_index":98,"time_elapsed":239899,"internal_node_id":"0.0-4.0-1.45","subject_id":"613e18e92e4ed15176362aa2","study_id":"6197b3f67c2b5cd3b6d9596a","session_id":"6197b9f038bfc1bd00b4788d","condition":"contingent","relevant_dimensions":["antennae","legs"],"bee_group":{"antennae":"B","wings":"X","pattern":"X","legs":"M"},"bonus":0.7400000000000007},{"rt":3304.300000011921,"stimulus":"bees-with-color/bee-B2SF.svg","response":0,"trial_type":"image-button-response","trial_index":99,"time_elapsed":243209,"internal_node_id":"0.0-4.0-0.46","subject_id":"613e18e92e4ed15176362aa2","study_id":"6197b3f67c2b5cd3b6d9596a","session_id":"6197b9f038bfc1bd00b4788d","condition":"contingent","relevant_dimensions":["antennae","legs"],"bee_group":{"antennae":"B","wings":"X","pattern":"X","legs":"M"},"action":"harvest","summary":"good-harvest","bonus":0.7400000000000007},{"rt":1638.0999999940395,"stimulus":"\n                    <p><b>Action: <em>harvest</em></b></p>\n                    <p>This is the bee that you just saw.</p>\n                    <img src=\"bees-with-color/bee-B2SF.svg\" width=\"200\">\n                    <p><span class=\"greenText\"><b>Successful harvest!</b></span><br>Your pay has increased by $0.02. Your bonus pay is now $0.60.</p>\n            ","response":0,"trial_type":"html-button-response","trial_index":100,"time_elapsed":244852,"internal_node_id":"0.0-4.0-1.46","subject_id":"613e18e92e4ed15176362aa2","study_id":"6197b3f67c2b5cd3b6d9596a","session_id":"6197b9f038bfc1bd00b4788d","condition":"contingent","relevant_dimensions":["antennae","legs"],"bee_group":{"antennae":"B","wings":"X","pattern":"X","legs":"M"},"bonus":0.7400000000000007},{"rt":1102.5,"stimulus":"bees-with-color/bee-A2DM.svg","response":1,"trial_type":"image-button-response","trial_index":101,"time_elapsed":245961,"internal_node_id":"0.0-4.0-0.47","subject_id":"613e18e92e4ed15176362aa2","study_id":"6197b3f67c2b5cd3b6d9596a","session_id":"6197b9f038bfc1bd00b4788d","condition":"contingent","relevant_dimensions":["antennae","legs"],"bee_group":{"antennae":"B","wings":"X","pattern":"X","legs":"M"},"action":"avoid","summary":"bad-avoid","bonus":0.7400000000000007},{"rt":1308.6000000238419,"stimulus":"\n                    <p><b>Action: <em>avoid</em></b></p>\n                    <p>This is the bee that you just saw.</p>\n                    <img src=\"bees-with-color/bee-A2DM.svg\" width=\"200\">\n                    <p><br>Your bonus pay is unchanged, and remains at $0.60.</p>\n            ","response":0,"trial_type":"html-button-response","trial_index":102,"time_elapsed":247275,"internal_node_id":"0.0-4.0-1.47","subject_id":"613e18e92e4ed15176362aa2","study_id":"6197b3f67c2b5cd3b6d9596a","session_id":"6197b9f038bfc1bd00b4788d","condition":"contingent","relevant_dimensions":["antennae","legs"],"bee_group":{"antennae":"B","wings":"X","pattern":"X","legs":"M"},"bonus":0.7400000000000007},{"rt":3822.300000011921,"stimulus":"bees-with-color/bee-B2SM.svg","response":1,"trial_type":"image-button-response","trial_index":103,"time_elapsed":251103,"internal_node_id":"0.0-4.0-0.48","subject_id":"613e18e92e4ed15176362aa2","study_id":"6197b3f67c2b5cd3b6d9596a","session_id":"6197b9f038bfc1bd00b4788d","condition":"contingent","relevant_dimensions":["antennae","legs"],"bee_group":{"antennae":"B","wings":"X","pattern":"X","legs":"M"},"action":"avoid","summary":"good-avoid","bonus":0.7400000000000007},{"rt":2182.9000000059605,"stimulus":"\n                    <p><b>Action: <em>avoid</em></b></p>\n                    <p>This is the bee that you just saw.</p>\n                    <img src=\"bees-with-color/bee-B2SM.svg\" width=\"200\">\n                    <p><br>Your bonus pay is unchanged, and remains at $0.60.</p>\n            ","response":0,"trial_type":"html-button-response","trial_index":104,"time_elapsed":253291,"internal_node_id":"0.0-4.0-1.48","subject_id":"613e18e92e4ed15176362aa2","study_id":"6197b3f67c2b5cd3b6d9596a","session_id":"6197b9f038bfc1bd00b4788d","condition":"contingent","relevant_dimensions":["antennae","legs"],"bee_group":{"antennae":"B","wings":"X","pattern":"X","legs":"M"},"bonus":0.7400000000000007},{"rt":1168.300000011921,"stimulus":"bees-with-color/bee-A1DM.svg","response":1,"trial_type":"image-button-response","trial_index":105,"time_elapsed":254466,"internal_node_id":"0.0-4.0-0.49","subject_id":"613e18e92e4ed15176362aa2","study_id":"6197b3f67c2b5cd3b6d9596a","session_id":"6197b9f038bfc1bd00b4788d","condition":"contingent","relevant_dimensions":["antennae","legs"],"bee_group":{"antennae":"B","wings":"X","pattern":"X","legs":"M"},"action":"avoid","summary":"bad-avoid","bonus":0.7400000000000007},{"rt":1054.5,"stimulus":"\n                    <p><b>Action: <em>avoid</em></b></p>\n                    <p>This is the bee that you just saw.</p>\n                    <img src=\"bees-with-color/bee-A1DM.svg\" width=\"200\">\n                    <p><br>Your bonus pay is unchanged, and remains at $0.60.</p>\n            ","response":0,"trial_type":"html-button-response","trial_index":106,"time_elapsed":255526,"internal_node_id":"0.0-4.0-1.49","subject_id":"613e18e92e4ed15176362aa2","study_id":"6197b3f67c2b5cd3b6d9596a","session_id":"6197b9f038bfc1bd00b4788d","condition":"contingent","relevant_dimensions":["antennae","legs"],"bee_group":{"antennae":"B","wings":"X","pattern":"X","legs":"M"},"bonus":0.7400000000000007},{"rt":2289.5,"stimulus":"bees-with-color/bee-B2SF.svg","response":1,"trial_type":"image-button-response","trial_index":107,"time_elapsed":257821,"internal_node_id":"0.0-4.0-0.50","subject_id":"613e18e92e4ed15176362aa2","study_id":"6197b3f67c2b5cd3b6d9596a","session_id":"6197b9f038bfc1bd00b4788d","condition":"contingent","relevant_dimensions":["antennae","legs"],"bee_group":{"antennae":"B","wings":"X","pattern":"X","legs":"M"},"action":"avoid","summary":"bad-avoid","bonus":0.7400000000000007},{"rt":1138.199999988079,"stimulus":"\n                    <p><b>Action: <em>avoid</em></b></p>\n                    <p>This is the bee that you just saw.</p>\n                    <img src=\"bees-with-color/bee-B2SF.svg\" width=\"200\">\n                    <p><br>Your bonus pay is unchanged, and remains at $0.60.</p>\n            ","response":0,"trial_type":"html-button-response","trial_index":108,"time_elapsed":258966,"internal_node_id":"0.0-4.0-1.50","subject_id":"613e18e92e4ed15176362aa2","study_id":"6197b3f67c2b5cd3b6d9596a","session_id":"6197b9f038bfc1bd00b4788d","condition":"contingent","relevant_dimensions":["antennae","legs"],"bee_group":{"antennae":"B","wings":"X","pattern":"X","legs":"M"},"bonus":0.7400000000000007},{"rt":1213.5,"stimulus":"bees-with-color/bee-A2DM.svg","response":1,"trial_type":"image-button-response","trial_index":109,"time_elapsed":260186,"internal_node_id":"0.0-4.0-0.51","subject_id":"613e18e92e4ed15176362aa2","study_id":"6197b3f67c2b5cd3b6d9596a","session_id":"6197b9f038bfc1bd00b4788d","condition":"contingent","relevant_dimensions":["antennae","legs"],"bee_group":{"antennae":"B","wings":"X","pattern":"X","legs":"M"},"action":"avoid","summary":"bad-avoid","bonus":0.7400000000000007},{"rt":579.5,"stimulus":"\n                    <p><b>Action: <em>avoid</em></b></p>\n                    <p>This is the bee that you just saw.</p>\n                    <img src=\"bees-with-color/bee-A2DM.svg\" width=\"200\">\n                    <p><br>Your bonus pay is unchanged, and remains at $0.60.</p>\n            ","response":0,"trial_type":"html-button-response","trial_index":110,"time_elapsed":260772,"internal_node_id":"0.0-4.0-1.51","subject_id":"613e18e92e4ed15176362aa2","study_id":"6197b3f67c2b5cd3b6d9596a","session_id":"6197b9f038bfc1bd00b4788d","condition":"contingent","relevant_dimensions":["antennae","legs"],"bee_group":{"antennae":"B","wings":"X","pattern":"X","legs":"M"},"bonus":0.7400000000000007},{"rt":1989.5999999940395,"stimulus":"bees-with-color/bee-A2SM.svg","response":0,"trial_type":"image-button-response","trial_index":111,"time_elapsed":262768,"internal_node_id":"0.0-4.0-0.52","subject_id":"613e18e92e4ed15176362aa2","study_id":"6197b3f67c2b5cd3b6d9596a","session_id":"6197b9f038bfc1bd00b4788d","condition":"contingent","relevant_dimensions":["antennae","legs"],"bee_group":{"antennae":"B","wings":"X","pattern":"X","legs":"M"},"action":"harvest","summary":"good-harvest","bonus":0.7400000000000007},{"rt":896,"stimulus":"\n                    <p><b>Action: <em>harvest</em></b></p>\n                    <p>This is the bee that you just saw.</p>\n                    <img src=\"bees-with-color/bee-A2SM.svg\" width=\"200\">\n                    <p><span class=\"greenText\"><b>Successful harvest!</b></span><br>Your pay has increased by $0.02. Your bonus pay is now $0.62.</p>\n            ","response":0,"trial_type":"html-button-response","trial_index":112,"time_elapsed":263669,"internal_node_id":"0.0-4.0-1.52","subject_id":"613e18e92e4ed15176362aa2","study_id":"6197b3f67c2b5cd3b6d9596a","session_id":"6197b9f038bfc1bd00b4788d","condition":"contingent","relevant_dimensions":["antennae","legs"],"bee_group":{"antennae":"B","wings":"X","pattern":"X","legs":"M"},"bonus":0.7400000000000007},{"rt":1616.0999999940395,"stimulus":"bees-with-color/bee-A1SF.svg","response":0,"trial_type":"image-button-response","trial_index":113,"time_elapsed":265290,"internal_node_id":"0.0-4.0-0.53","subject_id":"613e18e92e4ed15176362aa2","study_id":"6197b3f67c2b5cd3b6d9596a","session_id":"6197b9f038bfc1bd00b4788d","condition":"contingent","relevant_dimensions":["antennae","legs"],"bee_group":{"antennae":"B","wings":"X","pattern":"X","legs":"M"},"action":"harvest","summary":"good-harvest","bonus":0.7400000000000007},{"rt":1373.300000011921,"stimulus":"\n                    <p><b>Action: <em>harvest</em></b></p>\n                    <p>This is the bee that you just saw.</p>\n                    <img src=\"bees-with-color/bee-A1SF.svg\" width=\"200\">\n                    <p><span class=\"greenText\"><b>Successful harvest!</b></span><br>Your pay has increased by $0.02. Your bonus pay is now $0.64.</p>\n            ","response":0,"trial_type":"html-button-response","trial_index":114,"time_elapsed":266669,"internal_node_id":"0.0-4.0-1.53","subject_id":"613e18e92e4ed15176362aa2","study_id":"6197b3f67c2b5cd3b6d9596a","session_id":"6197b9f038bfc1bd00b4788d","condition":"contingent","relevant_dimensions":["antennae","legs"],"bee_group":{"antennae":"B","wings":"X","pattern":"X","legs":"M"},"bonus":0.7400000000000007},{"rt":1119.7999999821186,"stimulus":"bees-with-color/bee-B2DM.svg","response":1,"trial_type":"image-button-response","trial_index":115,"time_elapsed":267796,"internal_node_id":"0.0-4.0-0.54","subject_id":"613e18e92e4ed15176362aa2","study_id":"6197b3f67c2b5cd3b6d9596a","session_id":"6197b9f038bfc1bd00b4788d","condition":"contingent","relevant_dimensions":["antennae","legs"],"bee_group":{"antennae":"B","wings":"X","pattern":"X","legs":"M"},"action":"avoid","summary":"good-avoid","bonus":0.7400000000000007},{"rt":1043.6000000238419,"stimulus":"\n                    <p><b>Action: <em>avoid</em></b></p>\n                    <p>This is the bee that you just saw.</p>\n                    <img src=\"bees-with-color/bee-B2DM.svg\" width=\"200\">\n                    <p><br>Your bonus pay is unchanged, and remains at $0.64.</p>\n            ","response":0,"trial_type":"html-button-response","trial_index":116,"time_elapsed":268846,"internal_node_id":"0.0-4.0-1.54","subject_id":"613e18e92e4ed15176362aa2","study_id":"6197b3f67c2b5cd3b6d9596a","session_id":"6197b9f038bfc1bd00b4788d","condition":"contingent","relevant_dimensions":["antennae","legs"],"bee_group":{"antennae":"B","wings":"X","pattern":"X","legs":"M"},"bonus":0.7400000000000007},{"rt":1051.699999988079,"stimulus":"bees-with-color/bee-B1DF.svg","response":1,"trial_type":"image-button-response","trial_index":117,"time_elapsed":269904,"internal_node_id":"0.0-4.0-0.55","subject_id":"613e18e92e4ed15176362aa2","study_id":"6197b3f67c2b5cd3b6d9596a","session_id":"6197b9f038bfc1bd00b4788d","condition":"contingent","relevant_dimensions":["antennae","legs"],"bee_group":{"antennae":"B","wings":"X","pattern":"X","legs":"M"},"action":"avoid","summary":"bad-avoid","bonus":0.7400000000000007},{"rt":707.2999999821186,"stimulus":"\n                    <p><b>Action: <em>avoid</em></b></p>\n                    <p>This is the bee that you just saw.</p>\n                    <img src=\"bees-with-color/bee-B1DF.svg\" width=\"200\">\n                    <p><br>Your bonus pay is unchanged, and remains at $0.64.</p>\n            ","response":0,"trial_type":"html-button-response","trial_index":118,"time_elapsed":270618,"internal_node_id":"0.0-4.0-1.55","subject_id":"613e18e92e4ed15176362aa2","study_id":"6197b3f67c2b5cd3b6d9596a","session_id":"6197b9f038bfc1bd00b4788d","condition":"contingent","relevant_dimensions":["antennae","legs"],"bee_group":{"antennae":"B","wings":"X","pattern":"X","legs":"M"},"bonus":0.7400000000000007},{"rt":2332.100000023842,"stimulus":"bees-with-color/bee-B1SM.svg","response":1,"trial_type":"image-button-response","trial_index":119,"time_elapsed":272956,"internal_node_id":"0.0-4.0-0.56","subject_id":"613e18e92e4ed15176362aa2","study_id":"6197b3f67c2b5cd3b6d9596a","session_id":"6197b9f038bfc1bd00b4788d","condition":"contingent","relevant_dimensions":["antennae","legs"],"bee_group":{"antennae":"B","wings":"X","pattern":"X","legs":"M"},"action":"avoid","summary":"good-avoid","bonus":0.7400000000000007},{"rt":2224.7999999821186,"stimulus":"\n                    <p><b>Action: <em>avoid</em></b></p>\n                    <p>This is the bee that you just saw.</p>\n                    <img src=\"bees-with-color/bee-B1SM.svg\" width=\"200\">\n                    <p><br>Your bonus pay is unchanged, and remains at $0.64.</p>\n            ","response":0,"trial_type":"html-button-response","trial_index":120,"time_elapsed":275187,"internal_node_id":"0.0-4.0-1.56","subject_id":"613e18e92e4ed15176362aa2","study_id":"6197b3f67c2b5cd3b6d9596a","session_id":"6197b9f038bfc1bd00b4788d","condition":"contingent","relevant_dimensions":["antennae","legs"],"bee_group":{"antennae":"B","wings":"X","pattern":"X","legs":"M"},"bonus":0.7400000000000007},{"rt":2478.5,"stimulus":"bees-with-color/bee-B1SF.svg","response":0,"trial_type":"image-button-response","trial_index":121,"time_elapsed":277672,"internal_node_id":"0.0-4.0-0.57","subject_id":"613e18e92e4ed15176362aa2","study_id":"6197b3f67c2b5cd3b6d9596a","session_id":"6197b9f038bfc1bd00b4788d","condition":"contingent","relevant_dimensions":["antennae","legs"],"bee_group":{"antennae":"B","wings":"X","pattern":"X","legs":"M"},"action":"harvest","summary":"good-harvest","bonus":0.7400000000000007},{"rt":995.3999999761581,"stimulus":"\n                    <p><b>Action: <em>harvest</em></b></p>\n                    <p>This is the bee that you just saw.</p>\n                    <img src=\"bees-with-color/bee-B1SF.svg\" width=\"200\">\n                    <p><span class=\"greenText\"><b>Successful harvest!</b></span><br>Your pay has increased by $0.02. Your bonus pay is now $0.66.</p>\n            ","response":0,"trial_type":"html-button-response","trial_index":122,"time_elapsed":278673,"internal_node_id":"0.0-4.0-1.57","subject_id":"613e18e92e4ed15176362aa2","study_id":"6197b3f67c2b5cd3b6d9596a","session_id":"6197b9f038bfc1bd00b4788d","condition":"contingent","relevant_dimensions":["antennae","legs"],"bee_group":{"antennae":"B","wings":"X","pattern":"X","legs":"M"},"bonus":0.7400000000000007},{"rt":1127.9000000059605,"stimulus":"bees-with-color/bee-A1DF.svg","response":1,"trial_type":"image-button-response","trial_index":123,"time_elapsed":279806,"internal_node_id":"0.0-4.0-0.58","subject_id":"613e18e92e4ed15176362aa2","study_id":"6197b3f67c2b5cd3b6d9596a","session_id":"6197b9f038bfc1bd00b4788d","condition":"contingent","relevant_dimensions":["antennae","legs"],"bee_group":{"antennae":"B","wings":"X","pattern":"X","legs":"M"},"action":"avoid","summary":"bad-avoid","bonus":0.7400000000000007},{"rt":726,"stimulus":"\n                    <p><b>Action: <em>avoid</em></b></p>\n                    <p>This is the bee that you just saw.</p>\n                    <img src=\"bees-with-color/bee-A1DF.svg\" width=\"200\">\n                    <p><br>Your bonus pay is unchanged, and remains at $0.66.</p>\n            ","response":0,"trial_type":"html-button-response","trial_index":124,"time_elapsed":280536,"internal_node_id":"0.0-4.0-1.58","subject_id":"613e18e92e4ed15176362aa2","study_id":"6197b3f67c2b5cd3b6d9596a","session_id":"6197b9f038bfc1bd00b4788d","condition":"contingent","relevant_dimensions":["antennae","legs"],"bee_group":{"antennae":"B","wings":"X","pattern":"X","legs":"M"},"bonus":0.7400000000000007},{"rt":3552.2999999821186,"stimulus":"bees-with-color/bee-A2SF.svg","response":0,"trial_type":"image-button-response","trial_index":125,"time_elapsed":284094,"internal_node_id":"0.0-4.0-0.59","subject_id":"613e18e92e4ed15176362aa2","study_id":"6197b3f67c2b5cd3b6d9596a","session_id":"6197b9f038bfc1bd00b4788d","condition":"contingent","relevant_dimensions":["antennae","legs"],"bee_group":{"antennae":"B","wings":"X","pattern":"X","legs":"M"},"action":"harvest","summary":"good-harvest","bonus":0.7400000000000007},{"rt":960.8999999761581,"stimulus":"\n                    <p><b>Action: <em>harvest</em></b></p>\n                    <p>This is the bee that you just saw.</p>\n                    <img src=\"bees-with-color/bee-A2SF.svg\" width=\"200\">\n                    <p><span class=\"greenText\"><b>Successful harvest!</b></span><br>Your pay has increased by $0.02. Your bonus pay is now $0.68.</p>\n            ","response":0,"trial_type":"html-button-response","trial_index":126,"time_elapsed":285062,"internal_node_id":"0.0-4.0-1.59","subject_id":"613e18e92e4ed15176362aa2","study_id":"6197b3f67c2b5cd3b6d9596a","session_id":"6197b9f038bfc1bd00b4788d","condition":"contingent","relevant_dimensions":["antennae","legs"],"bee_group":{"antennae":"B","wings":"X","pattern":"X","legs":"M"},"bonus":0.7400000000000007},{"rt":1115.0999999940395,"stimulus":"bees-with-color/bee-A2DF.svg","response":1,"trial_type":"image-button-response","trial_index":127,"time_elapsed":286186,"internal_node_id":"0.0-4.0-0.60","subject_id":"613e18e92e4ed15176362aa2","study_id":"6197b3f67c2b5cd3b6d9596a","session_id":"6197b9f038bfc1bd00b4788d","condition":"contingent","relevant_dimensions":["antennae","legs"],"bee_group":{"antennae":"B","wings":"X","pattern":"X","legs":"M"},"action":"avoid","summary":"bad-avoid","bonus":0.7400000000000007},{"rt":1023.6999999880791,"stimulus":"\n                    <p><b>Action: <em>avoid</em></b></p>\n                    <p>This is the bee that you just saw.</p>\n                    <img src=\"bees-with-color/bee-A2DF.svg\" width=\"200\">\n                    <p><br>Your bonus pay is unchanged, and remains at $0.68.</p>\n            ","response":0,"trial_type":"html-button-response","trial_index":128,"time_elapsed":287217,"internal_node_id":"0.0-4.0-1.60","subject_id":"613e18e92e4ed15176362aa2","study_id":"6197b3f67c2b5cd3b6d9596a","session_id":"6197b9f038bfc1bd00b4788d","condition":"contingent","relevant_dimensions":["antennae","legs"],"bee_group":{"antennae":"B","wings":"X","pattern":"X","legs":"M"},"bonus":0.7400000000000007},{"rt":4145.200000017881,"stimulus":"bees-with-color/bee-A1SM.svg","response":0,"trial_type":"image-button-response","trial_index":129,"time_elapsed":291368,"internal_node_id":"0.0-4.0-0.61","subject_id":"613e18e92e4ed15176362aa2","study_id":"6197b3f67c2b5cd3b6d9596a","session_id":"6197b9f038bfc1bd00b4788d","condition":"contingent","relevant_dimensions":["antennae","legs"],"bee_group":{"antennae":"B","wings":"X","pattern":"X","legs":"M"},"action":"harvest","summary":"good-harvest","bonus":0.7400000000000007},{"rt":1149.7000000178814,"stimulus":"\n                    <p><b>Action: <em>harvest</em></b></p>\n                    <p>This is the bee that you just saw.</p>\n                    <img src=\"bees-with-color/bee-A1SM.svg\" width=\"200\">\n                    <p><span class=\"greenText\"><b>Successful harvest!</b></span><br>Your pay has increased by $0.02. Your bonus pay is now $0.70.</p>\n            ","response":0,"trial_type":"html-button-response","trial_index":130,"time_elapsed":292523,"internal_node_id":"0.0-4.0-1.61","subject_id":"613e18e92e4ed15176362aa2","study_id":"6197b3f67c2b5cd3b6d9596a","session_id":"6197b9f038bfc1bd00b4788d","condition":"contingent","relevant_dimensions":["antennae","legs"],"bee_group":{"antennae":"B","wings":"X","pattern":"X","legs":"M"},"bonus":0.7400000000000007},{"rt":2075.899999976158,"stimulus":"bees-with-color/bee-B1DM.svg","response":1,"trial_type":"image-button-response","trial_index":131,"time_elapsed":294606,"internal_node_id":"0.0-4.0-0.62","subject_id":"613e18e92e4ed15176362aa2","study_id":"6197b3f67c2b5cd3b6d9596a","session_id":"6197b9f038bfc1bd00b4788d","condition":"contingent","relevant_dimensions":["antennae","legs"],"bee_group":{"antennae":"B","wings":"X","pattern":"X","legs":"M"},"action":"avoid","summary":"good-avoid","bonus":0.7400000000000007},{"rt":1078.5999999940395,"stimulus":"\n                    <p><b>Action: <em>avoid</em></b></p>\n                    <p>This is the bee that you just saw.</p>\n                    <img src=\"bees-with-color/bee-B1DM.svg\" width=\"200\">\n                    <p><br>Your bonus pay is unchanged, and remains at $0.70.</p>\n            ","response":0,"trial_type":"html-button-response","trial_index":132,"time_elapsed":295690,"internal_node_id":"0.0-4.0-1.62","subject_id":"613e18e92e4ed15176362aa2","study_id":"6197b3f67c2b5cd3b6d9596a","session_id":"6197b9f038bfc1bd00b4788d","condition":"contingent","relevant_dimensions":["antennae","legs"],"bee_group":{"antennae":"B","wings":"X","pattern":"X","legs":"M"},"bonus":0.7400000000000007},{"rt":1180.6000000238419,"stimulus":"bees-with-color/bee-B2DF.svg","response":1,"trial_type":"image-button-response","trial_index":133,"time_elapsed":296877,"internal_node_id":"0.0-4.0-0.63","subject_id":"613e18e92e4ed15176362aa2","study_id":"6197b3f67c2b5cd3b6d9596a","session_id":"6197b9f038bfc1bd00b4788d","condition":"contingent","relevant_dimensions":["antennae","legs"],"bee_group":{"antennae":"B","wings":"X","pattern":"X","legs":"M"},"action":"avoid","summary":"bad-avoid","bonus":0.7400000000000007},{"rt":685,"stimulus":"\n                    <p><b>Action: <em>avoid</em></b></p>\n                    <p>This is the bee that you just saw.</p>\n                    <img src=\"bees-with-color/bee-B2DF.svg\" width=\"200\">\n                    <p><br>Your bonus pay is unchanged, and remains at $0.70.</p>\n            ","response":0,"trial_type":"html-button-response","trial_index":134,"time_elapsed":297567,"internal_node_id":"0.0-4.0-1.63","subject_id":"613e18e92e4ed15176362aa2","study_id":"6197b3f67c2b5cd3b6d9596a","session_id":"6197b9f038bfc1bd00b4788d","condition":"contingent","relevant_dimensions":["antennae","legs"],"bee_group":{"antennae":"B","wings":"X","pattern":"X","legs":"M"},"bonus":0.7400000000000007},{"rt":7867.299999982119,"stimulus":"You have completed the first part of this experiment.<br><br>You will now begin a shorter second part, in which you will receive no feedback.<br>The same rules regarding bonus pay apply.<br><br>Press any key to begin.","response":" ","trial_type":"html-keyboard-response","trial_index":135,"time_elapsed":305440,"internal_node_id":"0.0-5.0","subject_id":"613e18e92e4ed15176362aa2","study_id":"6197b3f67c2b5cd3b6d9596a","session_id":"6197b9f038bfc1bd00b4788d","condition":"contingent","relevant_dimensions":["antennae","legs"],"bee_group":{"antennae":"B","wings":"X","pattern":"X","legs":"M"},"bonus":0.7400000000000007},{"rt":7787.200000017881,"stimulus":"bees-with-color/bee-A1DM.svg","response":0,"trial_type":"image-button-response","trial_index":136,"time_elapsed":313295,"internal_node_id":"0.0-6.0-0.0","subject_id":"613e18e92e4ed15176362aa2","study_id":"6197b3f67c2b5cd3b6d9596a","session_id":"6197b9f038bfc1bd00b4788d","condition":"contingent","relevant_dimensions":["antennae","legs"],"bee_group":{"antennae":"B","wings":"X","pattern":"X","legs":"M"},"bonus":0.7400000000000007},{"rt":3059.7000000178814,"stimulus":"bees-with-color/bee-B2DF.svg","response":1,"trial_type":"image-button-response","trial_index":137,"time_elapsed":316364,"internal_node_id":"0.0-6.0-0.1","subject_id":"613e18e92e4ed15176362aa2","study_id":"6197b3f67c2b5cd3b6d9596a","session_id":"6197b9f038bfc1bd00b4788d","condition":"contingent","relevant_dimensions":["antennae","legs"],"bee_group":{"antennae":"B","wings":"X","pattern":"X","legs":"M"},"bonus":0.7400000000000007},{"rt":1705.2999999821186,"stimulus":"bees-with-color/bee-B2SM.svg","response":1,"trial_type":"image-button-response","trial_index":138,"time_elapsed":318078,"internal_node_id":"0.0-6.0-0.2","subject_id":"613e18e92e4ed15176362aa2","study_id":"6197b3f67c2b5cd3b6d9596a","session_id":"6197b9f038bfc1bd00b4788d","condition":"contingent","relevant_dimensions":["antennae","legs"],"bee_group":{"antennae":"B","wings":"X","pattern":"X","legs":"M"},"bonus":0.7400000000000007},{"rt":1399.4000000059605,"stimulus":"bees-with-color/bee-A1SF.svg","response":0,"trial_type":"image-button-response","trial_index":139,"time_elapsed":319486,"internal_node_id":"0.0-6.0-0.3","subject_id":"613e18e92e4ed15176362aa2","study_id":"6197b3f67c2b5cd3b6d9596a","session_id":"6197b9f038bfc1bd00b4788d","condition":"contingent","relevant_dimensions":["antennae","legs"],"bee_group":{"antennae":"B","wings":"X","pattern":"X","legs":"M"},"bonus":0.7400000000000007},{"rt":945.8000000119209,"stimulus":"bees-with-color/bee-A2DF.svg","response":1,"trial_type":"image-button-response","trial_index":140,"time_elapsed":320439,"internal_node_id":"0.0-6.0-0.4","subject_id":"613e18e92e4ed15176362aa2","study_id":"6197b3f67c2b5cd3b6d9596a","session_id":"6197b9f038bfc1bd00b4788d","condition":"contingent","relevant_dimensions":["antennae","legs"],"bee_group":{"antennae":"B","wings":"X","pattern":"X","legs":"M"},"bonus":0.7400000000000007},{"rt":539.7999999821186,"stimulus":"bees-with-color/bee-A2DM.svg","response":1,"trial_type":"image-button-response","trial_index":141,"time_elapsed":320986,"internal_node_id":"0.0-6.0-0.5","subject_id":"613e18e92e4ed15176362aa2","study_id":"6197b3f67c2b5cd3b6d9596a","session_id":"6197b9f038bfc1bd00b4788d","condition":"contingent","relevant_dimensions":["antennae","legs"],"bee_group":{"antennae":"B","wings":"X","pattern":"X","legs":"M"},"bonus":0.7400000000000007},{"rt":576.4000000059605,"stimulus":"bees-with-color/bee-B2DM.svg","response":1,"trial_type":"image-button-response","trial_index":142,"time_elapsed":321571,"internal_node_id":"0.0-6.0-0.6","subject_id":"613e18e92e4ed15176362aa2","study_id":"6197b3f67c2b5cd3b6d9596a","session_id":"6197b9f038bfc1bd00b4788d","condition":"contingent","relevant_dimensions":["antennae","legs"],"bee_group":{"antennae":"B","wings":"X","pattern":"X","legs":"M"},"bonus":0.7400000000000007},{"rt":646.8999999761581,"stimulus":"bees-with-color/bee-A1DF.svg","response":1,"trial_type":"image-button-response","trial_index":143,"time_elapsed":322225,"internal_node_id":"0.0-6.0-0.7","subject_id":"613e18e92e4ed15176362aa2","study_id":"6197b3f67c2b5cd3b6d9596a","session_id":"6197b9f038bfc1bd00b4788d","condition":"contingent","relevant_dimensions":["antennae","legs"],"bee_group":{"antennae":"B","wings":"X","pattern":"X","legs":"M"},"bonus":0.7400000000000007},{"rt":667.4000000059605,"stimulus":"bees-with-color/bee-B1DM.svg","response":1,"trial_type":"image-button-response","trial_index":144,"time_elapsed":322902,"internal_node_id":"0.0-6.0-0.8","subject_id":"613e18e92e4ed15176362aa2","study_id":"6197b3f67c2b5cd3b6d9596a","session_id":"6197b9f038bfc1bd00b4788d","condition":"contingent","relevant_dimensions":["antennae","legs"],"bee_group":{"antennae":"B","wings":"X","pattern":"X","legs":"M"},"bonus":0.7400000000000007},{"rt":4574.9000000059605,"stimulus":"bees-with-color/bee-A2SM.svg","response":1,"trial_type":"image-button-response","trial_index":145,"time_elapsed":327485,"internal_node_id":"0.0-6.0-0.9","subject_id":"613e18e92e4ed15176362aa2","study_id":"6197b3f67c2b5cd3b6d9596a","session_id":"6197b9f038bfc1bd00b4788d","condition":"contingent","relevant_dimensions":["antennae","legs"],"bee_group":{"antennae":"B","wings":"X","pattern":"X","legs":"M"},"bonus":0.7400000000000007},{"rt":860.9000000059605,"stimulus":"bees-with-color/bee-B1DF.svg","response":1,"trial_type":"image-button-response","trial_index":146,"time_elapsed":328354,"internal_node_id":"0.0-6.0-0.10","subject_id":"613e18e92e4ed15176362aa2","study_id":"6197b3f67c2b5cd3b6d9596a","session_id":"6197b9f038bfc1bd00b4788d","condition":"contingent","relevant_dimensions":["antennae","legs"],"bee_group":{"antennae":"B","wings":"X","pattern":"X","legs":"M"},"bonus":0.7400000000000007},{"rt":1276.5999999940395,"stimulus":"bees-with-color/bee-B1SF.svg","response":1,"trial_type":"image-button-response","trial_index":147,"time_elapsed":329637,"internal_node_id":"0.0-6.0-0.11","subject_id":"613e18e92e4ed15176362aa2","study_id":"6197b3f67c2b5cd3b6d9596a","session_id":"6197b9f038bfc1bd00b4788d","condition":"contingent","relevant_dimensions":["antennae","legs"],"bee_group":{"antennae":"B","wings":"X","pattern":"X","legs":"M"},"bonus":0.7400000000000007},{"rt":1538.800000011921,"stimulus":"bees-with-color/bee-A2SF.svg","response":0,"trial_type":"image-button-response","trial_index":148,"time_elapsed":331184,"internal_node_id":"0.0-6.0-0.12","subject_id":"613e18e92e4ed15176362aa2","study_id":"6197b3f67c2b5cd3b6d9596a","session_id":"6197b9f038bfc1bd00b4788d","condition":"contingent","relevant_dimensions":["antennae","legs"],"bee_group":{"antennae":"B","wings":"X","pattern":"X","legs":"M"},"bonus":0.7400000000000007},{"rt":2690.5999999940395,"stimulus":"bees-with-color/bee-B1SM.svg","response":1,"trial_type":"image-button-response","trial_index":149,"time_elapsed":333883,"internal_node_id":"0.0-6.0-0.13","subject_id":"613e18e92e4ed15176362aa2","study_id":"6197b3f67c2b5cd3b6d9596a","session_id":"6197b9f038bfc1bd00b4788d","condition":"contingent","relevant_dimensions":["antennae","legs"],"bee_group":{"antennae":"B","wings":"X","pattern":"X","legs":"M"},"bonus":0.7400000000000007},{"rt":1660.5999999940395,"stimulus":"bees-with-color/bee-B2SF.svg","response":1,"trial_type":"image-button-response","trial_index":150,"time_elapsed":335552,"internal_node_id":"0.0-6.0-0.14","subject_id":"613e18e92e4ed15176362aa2","study_id":"6197b3f67c2b5cd3b6d9596a","session_id":"6197b9f038bfc1bd00b4788d","condition":"contingent","relevant_dimensions":["antennae","legs"],"bee_group":{"antennae":"B","wings":"X","pattern":"X","legs":"M"},"bonus":0.7400000000000007},{"rt":2806.899999976158,"stimulus":"bees-with-color/bee-A1SM.svg","response":0,"trial_type":"image-button-response","trial_index":151,"time_elapsed":338366,"internal_node_id":"0.0-6.0-0.15","subject_id":"613e18e92e4ed15176362aa2","study_id":"6197b3f67c2b5cd3b6d9596a","session_id":"6197b9f038bfc1bd00b4788d","condition":"contingent","relevant_dimensions":["antennae","legs"],"bee_group":{"antennae":"B","wings":"X","pattern":"X","legs":"M"},"bonus":0.7400000000000007},{"rt":4551.800000011921,"stimulus":"bees-with-color/bee-B2SF.svg","response":1,"trial_type":"image-button-response","trial_index":152,"time_elapsed":342925,"internal_node_id":"0.0-6.0-0.16","subject_id":"613e18e92e4ed15176362aa2","study_id":"6197b3f67c2b5cd3b6d9596a","session_id":"6197b9f038bfc1bd00b4788d","condition":"contingent","relevant_dimensions":["antennae","legs"],"bee_group":{"antennae":"B","wings":"X","pattern":"X","legs":"M"},"bonus":0.7400000000000007},{"rt":776.7000000178814,"stimulus":"bees-with-color/bee-B2DM.svg","response":1,"trial_type":"image-button-response","trial_index":153,"time_elapsed":343709,"internal_node_id":"0.0-6.0-0.17","subject_id":"613e18e92e4ed15176362aa2","study_id":"6197b3f67c2b5cd3b6d9596a","session_id":"6197b9f038bfc1bd00b4788d","condition":"contingent","relevant_dimensions":["antennae","legs"],"bee_group":{"antennae":"B","wings":"X","pattern":"X","legs":"M"},"bonus":0.7400000000000007},{"rt":1136.300000011921,"stimulus":"bees-with-color/bee-A1SM.svg","response":0,"trial_type":"image-button-response","trial_index":154,"time_elapsed":344852,"internal_node_id":"0.0-6.0-0.18","subject_id":"613e18e92e4ed15176362aa2","study_id":"6197b3f67c2b5cd3b6d9596a","session_id":"6197b9f038bfc1bd00b4788d","condition":"contingent","relevant_dimensions":["antennae","legs"],"bee_group":{"antennae":"B","wings":"X","pattern":"X","legs":"M"},"bonus":0.7400000000000007},{"rt":1936.800000011921,"stimulus":"bees-with-color/bee-B2DF.svg","response":1,"trial_type":"image-button-response","trial_index":155,"time_elapsed":346795,"internal_node_id":"0.0-6.0-0.19","subject_id":"613e18e92e4ed15176362aa2","study_id":"6197b3f67c2b5cd3b6d9596a","session_id":"6197b9f038bfc1bd00b4788d","condition":"contingent","relevant_dimensions":["antennae","legs"],"bee_group":{"antennae":"B","wings":"X","pattern":"X","legs":"M"},"bonus":0.7400000000000007},{"rt":1302.5999999940395,"stimulus":"bees-with-color/bee-A2SF.svg","response":0,"trial_type":"image-button-response","trial_index":156,"time_elapsed":348103,"internal_node_id":"0.0-6.0-0.20","subject_id":"613e18e92e4ed15176362aa2","study_id":"6197b3f67c2b5cd3b6d9596a","session_id":"6197b9f038bfc1bd00b4788d","condition":"contingent","relevant_dimensions":["antennae","legs"],"bee_group":{"antennae":"B","wings":"X","pattern":"X","legs":"M"},"bonus":0.7400000000000007},{"rt":1099.9000000059605,"stimulus":"bees-with-color/bee-B1DM.svg","response":1,"trial_type":"image-button-response","trial_index":157,"time_elapsed":349210,"internal_node_id":"0.0-6.0-0.21","subject_id":"613e18e92e4ed15176362aa2","study_id":"6197b3f67c2b5cd3b6d9596a","session_id":"6197b9f038bfc1bd00b4788d","condition":"contingent","relevant_dimensions":["antennae","legs"],"bee_group":{"antennae":"B","wings":"X","pattern":"X","legs":"M"},"bonus":0.7400000000000007},{"rt":1562.9000000059605,"stimulus":"bees-with-color/bee-A2DM.svg","response":1,"trial_type":"image-button-response","trial_index":158,"time_elapsed":350779,"internal_node_id":"0.0-6.0-0.22","subject_id":"613e18e92e4ed15176362aa2","study_id":"6197b3f67c2b5cd3b6d9596a","session_id":"6197b9f038bfc1bd00b4788d","condition":"contingent","relevant_dimensions":["antennae","legs"],"bee_group":{"antennae":"B","wings":"X","pattern":"X","legs":"M"},"bonus":0.7400000000000007},{"rt":754.5,"stimulus":"bees-with-color/bee-B1DF.svg","response":1,"trial_type":"image-button-response","trial_index":159,"time_elapsed":351541,"internal_node_id":"0.0-6.0-0.23","subject_id":"613e18e92e4ed15176362aa2","study_id":"6197b3f67c2b5cd3b6d9596a","session_id":"6197b9f038bfc1bd00b4788d","condition":"contingent","relevant_dimensions":["antennae","legs"],"bee_group":{"antennae":"B","wings":"X","pattern":"X","legs":"M"},"bonus":0.7400000000000007},{"rt":1492.800000011921,"stimulus":"bees-with-color/bee-A2DF.svg","response":1,"trial_type":"image-button-response","trial_index":160,"time_elapsed":353041,"internal_node_id":"0.0-6.0-0.24","subject_id":"613e18e92e4ed15176362aa2","study_id":"6197b3f67c2b5cd3b6d9596a","session_id":"6197b9f038bfc1bd00b4788d","condition":"contingent","relevant_dimensions":["antennae","legs"],"bee_group":{"antennae":"B","wings":"X","pattern":"X","legs":"M"},"bonus":0.7400000000000007},{"rt":2869.2999999821186,"stimulus":"bees-with-color/bee-B1SM.svg","response":0,"trial_type":"image-button-response","trial_index":161,"time_elapsed":355917,"internal_node_id":"0.0-6.0-0.25","subject_id":"613e18e92e4ed15176362aa2","study_id":"6197b3f67c2b5cd3b6d9596a","session_id":"6197b9f038bfc1bd00b4788d","condition":"contingent","relevant_dimensions":["antennae","legs"],"bee_group":{"antennae":"B","wings":"X","pattern":"X","legs":"M"},"bonus":0.7400000000000007},{"rt":2076.800000011921,"stimulus":"bees-with-color/bee-A1DM.svg","response":1,"trial_type":"image-button-response","trial_index":162,"time_elapsed":358001,"internal_node_id":"0.0-6.0-0.26","subject_id":"613e18e92e4ed15176362aa2","study_id":"6197b3f67c2b5cd3b6d9596a","session_id":"6197b9f038bfc1bd00b4788d","condition":"contingent","relevant_dimensions":["antennae","legs"],"bee_group":{"antennae":"B","wings":"X","pattern":"X","legs":"M"},"bonus":0.7400000000000007},{"rt":4614.9000000059605,"stimulus":"bees-with-color/bee-A2SM.svg","response":1,"trial_type":"image-button-response","trial_index":163,"time_elapsed":362623,"internal_node_id":"0.0-6.0-0.27","subject_id":"613e18e92e4ed15176362aa2","study_id":"6197b3f67c2b5cd3b6d9596a","session_id":"6197b9f038bfc1bd00b4788d","condition":"contingent","relevant_dimensions":["antennae","legs"],"bee_group":{"antennae":"B","wings":"X","pattern":"X","legs":"M"},"bonus":0.7400000000000007},{"rt":792.0999999940395,"stimulus":"bees-with-color/bee-A1DF.svg","response":1,"trial_type":"image-button-response","trial_index":164,"time_elapsed":363423,"internal_node_id":"0.0-6.0-0.28","subject_id":"613e18e92e4ed15176362aa2","study_id":"6197b3f67c2b5cd3b6d9596a","session_id":"6197b9f038bfc1bd00b4788d","condition":"contingent","relevant_dimensions":["antennae","legs"],"bee_group":{"antennae":"B","wings":"X","pattern":"X","legs":"M"},"bonus":0.7400000000000007},{"rt":1201.9000000059605,"stimulus":"bees-with-color/bee-B2SM.svg","response":1,"trial_type":"image-button-response","trial_index":165,"time_elapsed":364632,"internal_node_id":"0.0-6.0-0.29","subject_id":"613e18e92e4ed15176362aa2","study_id":"6197b3f67c2b5cd3b6d9596a"