[{"success":true,"trial_type":"fullscreen","trial_index":0,"time_elapsed":13182,"internal_node_id":"0.0-0.0","subject_id":"5c2ad18570d93a000121ad4c","study_id":"6197b3f67c2b5cd3b6d9596a","session_id":"619be58fff58d980ad11bfc1","condition":"full-information","relevant_dimensions":["antennae","pattern"],"bee_group":{"antennae":"B","wings":"X","pattern":"D","legs":"X"},"bonus":0.5000000000000007},{"success":true,"timeout":false,"failed_images":[],"failed_audio":[],"failed_video":[],"trial_type":"preload","trial_index":1,"time_elapsed":15334,"internal_node_id":"0.0-1.0","subject_id":"5c2ad18570d93a000121ad4c","study_id":"6197b3f67c2b5cd3b6d9596a","session_id":"619be58fff58d980ad11bfc1","condition":"full-information","relevant_dimensions":["antennae","pattern"],"bee_group":{"antennae":"B","wings":"X","pattern":"D","legs":"X"},"bonus":0.5000000000000007},{"rt":2125.5,"stimulus":"Welcome! Press any key to begin.","response":"arrowright","trial_type":"html-keyboard-response","trial_index":2,"time_elapsed":17460,"internal_node_id":"0.0-2.0","subject_id":"5c2ad18570d93a000121ad4c","study_id":"6197b3f67c2b5cd3b6d9596a","session_id":"619be58fff58d980ad11bfc1","condition":"full-information","relevant_dimensions":["antennae","pattern"],"bee_group":{"antennae":"B","wings":"X","pattern":"D","legs":"X"},"bonus":0.5000000000000007},{"view_history":[{"page_index":0,"viewing_time":3048.2999999821186},{"page_index":1,"viewing_time":5440.800000011921},{"page_index":2,"viewing_time":6821},{"page_index":3,"viewing_time":5640},{"page_index":4,"viewing_time":2933.199999988079},{"page_index":5,"viewing_time":2932.800000011921},{"page_index":6,"viewing_time":6413.9000000059605},{"page_index":7,"viewing_time":3068.9000000059605},{"page_index":8,"viewing_time":2516.899999976158},{"page_index":9,"viewing_time":3042.4000000059605},{"page_index":10,"viewing_time":1805.800000011921},{"page_index":11,"viewing_time":5187},{"page_index":12,"viewing_time":6974.9000000059605},{"page_index":13,"viewing_time":1028.0999999940395},{"page_index":14,"viewing_time":1417.7999999821186}],"rt":58272,"trial_type":"instructions","trial_index":3,"time_elapsed":75732,"internal_node_id":"0.0-3.0-0.0","subject_id":"5c2ad18570d93a000121ad4c","study_id":"6197b3f67c2b5cd3b6d9596a","session_id":"619be58fff58d980ad11bfc1","condition":"full-information","relevant_dimensions":["antennae","pattern"],"bee_group":{"antennae":"B","wings":"X","pattern":"D","legs":"X"},"bonus":0.5000000000000007},{"rt":9027.300000011921,"response":{"Q0":["Two or six legs","Stripes or spots on body","Single or double wings","Antennae or no antennae"]},"question_order":[0],"trial_type":"survey-multi-select","trial_index":4,"time_elapsed":84762,"internal_node_id":"0.0-3.0-1.0","subject_id":"5c2ad18570d93a000121ad4c","study_id":"6197b3f67c2b5cd3b6d9596a","session_id":"619be58fff58d980ad11bfc1","condition":"full-information","relevant_dimensions":["antennae","pattern"],"bee_group":{"antennae":"B","wings":"X","pattern":"D","legs":"X"},"correct":true,"bonus":0.5000000000000007},{"rt":15573.40000000596,"response":{"Q1":"No.","Q2":"Based on the four features of the bee.","Q3":"You learn if it was friendly or dangerous, but do not alter your bonus."},"question_order":[0,1,2],"trial_type":"survey-multi-choice","trial_index":5,"time_elapsed":100336,"internal_node_id":"0.0-3.0-2.0","subject_id":"5c2ad18570d93a000121ad4c","study_id":"6197b3f67c2b5cd3b6d9596a","session_id":"619be58fff58d980ad11bfc1","condition":"full-information","relevant_dimensions":["antennae","pattern"],"bee_group":{"antennae":"B","wings":"X","pattern":"D","legs":"X"},"correct":true,"bonus":0.5000000000000007},{"rt":1622,"stimulus":"<p>Congrats, you got everything right<br>When you're ready, click the button below to continue to the experiment.</p>","response":0,"trial_type":"html-button-response","trial_index":6,"time_elapsed":101960,"internal_node_id":"0.0-3.0-3.0","subject_id":"5c2ad18570d93a000121ad4c","study_id":"6197b3f67c2b5cd3b6d9596a","session_id":"619be58fff58d980ad11bfc1","condition":"full-information","relevant_dimensions":["antennae","pattern"],"bee_group":{"antennae":"B","wings":"X","pattern":"D","legs":"X"},"bonus":0.5000000000000007},{"rt":3779.0999999940395,"stimulus":"bees-with-color/bee-A2SF.svg","response":1,"trial_type":"image-button-response","trial_index":7,"time_elapsed":105740,"internal_node_id":"0.0-4.0-0.0","subject_id":"5c2ad18570d93a000121ad4c","study_id":"6197b3f67c2b5cd3b6d9596a","session_id":"619be58fff58d980ad11bfc1","condition":"full-information","relevant_dimensions":["antennae","pattern"],"bee_group":{"antennae":"B","wings":"X","pattern":"D","legs":"X"},"action":"avoid","summary":"bad-avoid","bonus":0.5000000000000007},{"rt":4381.799999982119,"stimulus":"\n                    <p><b>Action: <em>avoid</em></b></p>\n                    <p>This is the bee that you just saw.</p>\n                    <img src=\"bees-with-color/bee-A2SF.svg\" width=\"200\">\n                    <p><span class=\"redText\">Bad choice,</span> the bee was friendly.<br>Your bonus pay is unchanged, and remains at $0.54.</p>\n            ","response":0,"trial_type":"html-button-response","trial_index":8,"time_elapsed":110124,"internal_node_id":"0.0-4.0-1.0","subject_id":"5c2ad18570d93a000121ad4c","study_id":"6197b3f67c2b5cd3b6d9596a","session_id":"619be58fff58d980ad11bfc1","condition":"full-information","relevant_dimensions":["antennae","pattern"],"bee_group":{"antennae":"B","wings":"X","pattern":"D","legs":"X"},"bonus":0.5000000000000007},{"rt":2752.2000000178814,"stimulus":"bees-with-color/bee-B1SM.svg","response":1,"trial_type":"image-button-response","trial_index":9,"time_elapsed":112877,"internal_node_id":"0.0-4.0-0.1","subject_id":"5c2ad18570d93a000121ad4c","study_id":"6197b3f67c2b5cd3b6d9596a","session_id":"619be58fff58d980ad11bfc1","condition":"full-information","relevant_dimensions":["antennae","pattern"],"bee_group":{"antennae":"B","wings":"X","pattern":"D","legs":"X"},"action":"avoid","summary":"bad-avoid","bonus":0.5000000000000007},{"rt":1498.9000000059605,"stimulus":"\n                    <p><b>Action: <em>avoid</em></b></p>\n                    <p>This is the bee that you just saw.</p>\n                    <img src=\"bees-with-color/bee-B1SM.svg\" width=\"200\">\n                    <p><span class=\"redText\">Bad choice,</span> the bee was friendly.<br>Your bonus pay is unchanged, and remains at $0.54.</p>\n            ","response":0,"trial_type":"html-button-response","trial_index":10,"time_elapsed":114378,"internal_node_id":"0.0-4.0-1.1","subject_id":"5c2ad18570d93a000121ad4c","study_id":"6197b3f67c2b5cd3b6d9596a","session_id":"619be58fff58d980ad11bfc1","condition":"full-information","relevant_dimensions":["antennae","pattern"],"bee_group":{"antennae":"B","wings":"X","pattern":"D","legs":"X"},"bonus":0.5000000000000007},{"rt":1016.9000000059605,"stimulus":"bees-with-color/bee-A1SM.svg","response":0,"trial_type":"image-button-response","trial_index":11,"time_elapsed":115396,"internal_node_id":"0.0-4.0-0.2","subject_id":"5c2ad18570d93a000121ad4c","study_id":"6197b3f67c2b5cd3b6d9596a","session_id":"619be58fff58d980ad11bfc1","condition":"full-information","relevant_dimensions":["antennae","pattern"],"bee_group":{"antennae":"B","wings":"X","pattern":"D","legs":"X"},"action":"harvest","summary":"good-harvest","bonus":0.5000000000000007},{"rt":1326.9000000059605,"stimulus":"\n                    <p><b>Action: <em>harvest</em></b></p>\n                    <p>This is the bee that you just saw.</p>\n                    <img src=\"bees-with-color/bee-A1SM.svg\" width=\"200\">\n                    <p><span class=\"greenText\"><b>Successful harvest!</b></span><br>Your pay has increased by $0.02. Your bonus pay is now $0.56.</p>\n            ","response":0,"trial_type":"html-button-response","trial_index":12,"time_elapsed":116724,"internal_node_id":"0.0-4.0-1.2","subject_id":"5c2ad18570d93a000121ad4c","study_id":"6197b3f67c2b5cd3b6d9596a","session_id":"619be58fff58d980ad11bfc1","condition":"full-information","relevant_dimensions":["antennae","pattern"],"bee_group":{"antennae":"B","wings":"X","pattern":"D","legs":"X"},"bonus":0.5000000000000007},{"rt":1439.1000000238419,"stimulus":"bees-with-color/bee-A1SF.svg","response":0,"trial_type":"image-button-response","trial_index":13,"time_elapsed":118164,"internal_node_id":"0.0-4.0-0.3","subject_id":"5c2ad18570d93a000121ad4c","study_id":"6197b3f67c2b5cd3b6d9596a","session_id":"619be58fff58d980ad11bfc1","condition":"full-information","relevant_dimensions":["antennae","pattern"],"bee_group":{"antennae":"B","wings":"X","pattern":"D","legs":"X"},"action":"harvest","summary":"good-harvest","bonus":0.5000000000000007},{"rt":748.9000000059605,"stimulus":"\n                    <p><b>Action: <em>harvest</em></b></p>\n                    <p>This is the bee that you just saw.</p>\n                    <img src=\"bees-with-color/bee-A1SF.svg\" width=\"200\">\n                    <p><span class=\"greenText\"><b>Successful harvest!</b></span><br>Your pay has increased by $0.02. Your bonus pay is now $0.58.</p>\n            ","response":0,"trial_type":"html-button-response","trial_index":14,"time_elapsed":118914,"internal_node_id":"0.0-4.0-1.3","subject_id":"5c2ad18570d93a000121ad4c","study_id":"6197b3f67c2b5cd3b6d9596a","session_id":"619be58fff58d980ad11bfc1","condition":"full-information","relevant_dimensions":["antennae","pattern"],"bee_group":{"antennae":"B","wings":"X","pattern":"D","legs":"X"},"bonus":0.5000000000000007},{"rt":1428.8999999761581,"stimulus":"bees-with-color/bee-B1DM.svg","response":1,"trial_type":"image-button-response","trial_index":15,"time_elapsed":120343,"internal_node_id":"0.0-4.0-0.4","subject_id":"5c2ad18570d93a000121ad4c","study_id":"6197b3f67c2b5cd3b6d9596a","session_id":"619be58fff58d980ad11bfc1","condition":"full-information","relevant_dimensions":["antennae","pattern"],"bee_group":{"antennae":"B","wings":"X","pattern":"D","legs":"X"},"action":"avoid","summary":"good-avoid","bonus":0.5000000000000007},{"rt":1349,"stimulus":"\n                    <p><b>Action: <em>avoid</em></b></p>\n                    <p>This is the bee that you just saw.</p>\n                    <img src=\"bees-with-color/bee-B1DM.svg\" width=\"200\">\n                    <p><span class=\"greenText\">Good choice!</span>  This bee would have stung you.<br>Your bonus pay is unchanged, and remains at $0.58.</p>\n            ","response":0,"trial_type":"html-button-response","trial_index":16,"time_elapsed":121693,"internal_node_id":"0.0-4.0-1.4","subject_id":"5c2ad18570d93a000121ad4c","study_id":"6197b3f67c2b5cd3b6d9596a","session_id":"619be58fff58d980ad11bfc1","condition":"full-information","relevant_dimensions":["antennae","pattern"],"bee_group":{"antennae":"B","wings":"X","pattern":"D","legs":"X"},"bonus":0.5000000000000007},{"rt":2141.300000011921,"stimulus":"bees-with-color/bee-A2DF.svg","response":1,"trial_type":"image-button-response","trial_index":17,"time_elapsed":123836,"internal_node_id":"0.0-4.0-0.5","subject_id":"5c2ad18570d93a000121ad4c","study_id":"6197b3f67c2b5cd3b6d9596a","session_id":"619be58fff58d980ad11bfc1","condition":"full-information","relevant_dimensions":["antennae","pattern"],"bee_group":{"antennae":"B","wings":"X","pattern":"D","legs":"X"},"action":"avoid","summary":"bad-avoid","bonus":0.5000000000000007},{"rt":631.8999999761581,"stimulus":"\n                    <p><b>Action: <em>avoid</em></b></p>\n                    <p>This is the bee that you just saw.</p>\n                    <img src=\"bees-with-color/bee-A2DF.svg\" width=\"200\">\n                    <p><span class=\"redText\">Bad choice,</span> the bee was friendly.<br>Your bonus pay is unchanged, and remains at $0.58.</p>\n            ","response":0,"trial_type":"html-button-response","trial_index":18,"time_elapsed":124469,"internal_node_id":"0.0-4.0-1.5","subject_id":"5c2ad18570d93a000121ad4c","study_id":"6197b3f67c2b5cd3b6d9596a","session_id":"619be58fff58d980ad11bfc1","condition":"full-information","relevant_dimensions":["antennae","pattern"],"bee_group":{"antennae":"B","wings":"X","pattern":"D","legs":"X"},"bonus":0.5000000000000007},{"rt":1326.5999999940395,"stimulus":"bees-with-color/bee-A1DM.svg","response":1,"trial_type":"image-button-response","trial_index":19,"time_elapsed":125797,"internal_node_id":"0.0-4.0-0.6","subject_id":"5c2ad18570d93a000121ad4c","study_id":"6197b3f67c2b5cd3b6d9596a","session_id":"619be58fff58d980ad11bfc1","condition":"full-information","relevant_dimensions":["antennae","pattern"],"bee_group":{"antennae":"B","wings":"X","pattern":"D","legs":"X"},"action":"avoid","summary":"bad-avoid","bonus":0.5000000000000007},{"rt":709.7999999821186,"stimulus":"\n                    <p><b>Action: <em>avoid</em></b></p>\n                    <p>This is the bee that you just saw.</p>\n                    <img src=\"bees-with-color/bee-A1DM.svg\" width=\"200\">\n                    <p><span class=\"redText\">Bad choice,</span> the bee was friendly.<br>Your bonus pay is unchanged, and remains at $0.58.</p>\n            ","response":0,"trial_type":"html-button-response","trial_index":20,"time_elapsed":126507,"internal_node_id":"0.0-4.0-1.6","subject_id":"5c2ad18570d93a000121ad4c","study_id":"6197b3f67c2b5cd3b6d9596a","session_id":"619be58fff58d980ad11bfc1","condition":"full-information","relevant_dimensions":["antennae","pattern"],"bee_group":{"antennae":"B","wings":"X","pattern":"D","legs":"X"},"bonus":0.5000000000000007},{"rt":1966.300000011921,"stimulus":"bees-with-color/bee-B2DM.svg","response":0,"trial_type":"image-button-response","trial_index":21,"time_elapsed":128475,"internal_node_id":"0.0-4.0-0.7","subject_id":"5c2ad18570d93a000121ad4c","study_id":"6197b3f67c2b5cd3b6d9596a","session_id":"619be58fff58d980ad11bfc1","condition":"full-information","relevant_dimensions":["antennae","pattern"],"bee_group":{"antennae":"B","wings":"X","pattern":"D","legs":"X"},"action":"harvest","summary":"bad-harvest","bonus":0.5000000000000007},{"rt":967.7999999821186,"stimulus":"\n                    <p><b>Action: <em>harvest</em></b></p>\n                    <p>This is the bee that you just saw.</p>\n                    <img src=\"bees-with-color/bee-B2DM.svg\" width=\"200\">\n                    <p><span class=\"redText\">Bad choice, the bee was angry.</span><br><b>You have been stung!</b><br>Your pay has been decreased by $0.10. Your bonus pay is now $0.48.</p>\n            ","response":0,"trial_type":"html-button-response","trial_index":22,"time_elapsed":129444,"internal_node_id":"0.0-4.0-1.7","subject_id":"5c2ad18570d93a000121ad4c","study_id":"6197b3f67c2b5cd3b6d9596a","session_id":"619be58fff58d980ad11bfc1","condition":"full-information","relevant_dimensions":["antennae","pattern"],"bee_group":{"antennae":"B","wings":"X","pattern":"D","legs":"X"},"bonus":0.5000000000000007},{"rt":656.5999999940395,"stimulus":"bees-with-color/bee-B1SF.svg","response":0,"trial_type":"image-button-response","trial_index":23,"time_elapsed":130102,"internal_node_id":"0.0-4.0-0.8","subject_id":"5c2ad18570d93a000121ad4c","study_id":"6197b3f67c2b5cd3b6d9596a","session_id":"619be58fff58d980ad11bfc1","condition":"full-information","relevant_dimensions":["antennae","pattern"],"bee_group":{"antennae":"B","wings":"X","pattern":"D","legs":"X"},"action":"harvest","summary":"good-harvest","bonus":0.5000000000000007},{"rt":599.4000000059605,"stimulus":"\n                    <p><b>Action: <em>harvest</em></b></p>\n                    <p>This is the bee that you just saw.</p>\n                    <img src=\"bees-with-color/bee-B1SF.svg\" width=\"200\">\n                    <p><span class=\"greenText\"><b>Successful harvest!</b></span><br>Your pay has increased by $0.02. Your bonus pay is now $0.50.</p>\n            ","response":0,"trial_type":"html-button-response","trial_index":24,"time_elapsed":130702,"internal_node_id":"0.0-4.0-1.8","subject_id":"5c2ad18570d93a000121ad4c","study_id":"6197b3f67c2b5cd3b6d9596a","session_id":"619be58fff58d980ad11bfc1","condition":"full-information","relevant_dimensions":["antennae","pattern"],"bee_group":{"antennae":"B","wings":"X","pattern":"D","legs":"X"},"bonus":0.5000000000000007},{"rt":1099.7999999821186,"stimulus":"bees-with-color/bee-B1DF.svg","response":0,"trial_type":"image-button-response","trial_index":25,"time_elapsed":131803,"internal_node_id":"0.0-4.0-0.9","subject_id":"5c2ad18570d93a000121ad4c","study_id":"6197b3f67c2b5cd3b6d9596a","session_id":"619be58fff58d980ad11bfc1","condition":"full-information","relevant_dimensions":["antennae","pattern"],"bee_group":{"antennae":"B","wings":"X","pattern":"D","legs":"X"},"action":"harvest","summary":"bad-harvest","bonus":0.5000000000000007},{"rt":716,"stimulus":"\n                    <p><b>Action: <em>harvest</em></b></p>\n                    <p>This is the bee that you just saw.</p>\n                    <img src=\"bees-with-color/bee-B1DF.svg\" width=\"200\">\n                    <p><span class=\"redText\">Bad choice, the bee was angry.</span><br><b>You have been stung!</b><br>Your pay has been decreased by $0.10. Your bonus pay is now $0.40.</p>\n            ","response":0,"trial_type":"html-button-response","trial_index":26,"time_elapsed":132520,"internal_node_id":"0.0-4.0-1.9","subject_id":"5c2ad18570d93a000121ad4c","study_id":"6197b3f67c2b5cd3b6d9596a","session_id":"619be58fff58d980ad11bfc1","condition":"full-information","relevant_dimensions":["antennae","pattern"],"bee_group":{"antennae":"B","wings":"X","pattern":"D","legs":"X"},"bonus":0.5000000000000007},{"rt":861,"stimulus":"bees-with-color/bee-A2SM.svg","response":0,"trial_type":"image-button-response","trial_index":27,"time_elapsed":133381,"internal_node_id":"0.0-4.0-0.10","subject_id":"5c2ad18570d93a000121ad4c","study_id":"6197b3f67c2b5cd3b6d9596a","session_id":"619be58fff58d980ad11bfc1","condition":"full-information","relevant_dimensions":["antennae","pattern"],"bee_group":{"antennae":"B","wings":"X","pattern":"D","legs":"X"},"action":"harvest","summary":"good-harvest","bonus":0.5000000000000007},{"rt":607.9000000059605,"stimulus":"\n                    <p><b>Action: <em>harvest</em></b></p>\n                    <p>This is the bee that you just saw.</p>\n                    <img src=\"bees-with-color/bee-A2SM.svg\" width=\"200\">\n                    <p><span class=\"greenText\"><b>Successful harvest!</b></span><br>Your pay has increased by $0.02. Your bonus pay is now $0.42.</p>\n            ","response":0,"trial_type":"html-button-response","trial_index":28,"time_elapsed":133990,"internal_node_id":"0.0-4.0-1.10","subject_id":"5c2ad18570d93a000121ad4c","study_id":"6197b3f67c2b5cd3b6d9596a","session_id":"619be58fff58d980ad11bfc1","condition":"full-information","relevant_dimensions":["antennae","pattern"],"bee_group":{"antennae":"B","wings":"X","pattern":"D","legs":"X"},"bonus":0.5000000000000007},{"rt":1531.2999999821186,"stimulus":"bees-with-color/bee-B2DF.svg","response":1,"trial_type":"image-button-response","trial_index":29,"time_elapsed":135523,"internal_node_id":"0.0-4.0-0.11","subject_id":"5c2ad18570d93a000121ad4c","study_id":"6197b3f67c2b5cd3b6d9596a","session_id":"619be58fff58d980ad11bfc1","condition":"full-information","relevant_dimensions":["antennae","pattern"],"bee_group":{"antennae":"B","wings":"X","pattern":"D","legs":"X"},"action":"avoid","summary":"good-avoid","bonus":0.5000000000000007},{"rt":737.5,"stimulus":"\n                    <p><b>Action: <em>avoid</em></b></p>\n                    <p>This is the bee that you just saw.</p>\n                    <img src=\"bees-with-color/bee-B2DF.svg\" width=\"200\">\n                    <p><span class=\"greenText\">Good choice!</span>  This bee would have stung you.<br>Your bonus pay is unchanged, and remains at $0.42.</p>\n            ","response":0,"trial_type":"html-button-response","trial_index":30,"time_elapsed":136261,"internal_node_id":"0.0-4.0-1.11","subject_id":"5c2ad18570d93a000121ad4c","study_id":"6197b3f67c2b5cd3b6d9596a","session_id":"619be58fff58d980ad11bfc1","condition":"full-information","relevant_dimensions":["antennae","pattern"],"bee_group":{"antennae":"B","wings":"X","pattern":"D","legs":"X"},"bonus":0.5000000000000007},{"rt":1257,"stimulus":"bees-with-color/bee-A2DM.svg","response":1,"trial_type":"image-button-response","trial_index":31,"time_elapsed":137518,"internal_node_id":"0.0-4.0-0.12","subject_id":"5c2ad18570d93a000121ad4c","study_id":"6197b3f67c2b5cd3b6d9596a","session_id":"619be58fff58d980ad11bfc1","condition":"full-information","relevant_dimensions":["antennae","pattern"],"bee_group":{"antennae":"B","wings":"X","pattern":"D","legs":"X"},"action":"avoid","summary":"bad-avoid","bonus":0.5000000000000007},{"rt":614.3000000119209,"stimulus":"\n                    <p><b>Action: <em>avoid</em></b></p>\n                    <p>This is the bee that you just saw.</p>\n                    <img src=\"bees-with-color/bee-A2DM.svg\" width=\"200\">\n                    <p><span class=\"redText\">Bad choice,</span> the bee was friendly.<br>Your bonus pay is unchanged, and remains at $0.42.</p>\n            ","response":0,"trial_type":"html-button-response","trial_index":32,"time_elapsed":138134,"internal_node_id":"0.0-4.0-1.12","subject_id":"5c2ad18570d93a000121ad4c","study_id":"6197b3f67c2b5cd3b6d9596a","session_id":"619be58fff58d980ad11bfc1","condition":"full-information","relevant_dimensions":["antennae","pattern"],"bee_group":{"antennae":"B","wings":"X","pattern":"D","legs":"X"},"bonus":0.5000000000000007},{"rt":1342,"stimulus":"bees-with-color/bee-B2SM.svg","response":1,"trial_type":"image-button-response","trial_index":33,"time_elapsed":139476,"internal_node_id":"0.0-4.0-0.13","subject_id":"5c2ad18570d93a000121ad4c","study_id":"6197b3f67c2b5cd3b6d9596a","session_id":"619be58fff58d980ad11bfc1","condition":"full-information","relevant_dimensions":["antennae","pattern"],"bee_group":{"antennae":"B","wings":"X","pattern":"D","legs":"X"},"action":"avoid","summary":"bad-avoid","bonus":0.5000000000000007},{"rt":546,"stimulus":"\n                    <p><b>Action: <em>avoid</em></b></p>\n                    <p>This is the bee that you just saw.</p>\n                    <img src=\"bees-with-color/bee-B2SM.svg\" width=\"200\">\n                    <p><span class=\"redText\">Bad choice,</span> the bee was friendly.<br>Your bonus pay is unchanged, and remains at $0.42.</p>\n            ","response":0,"trial_type":"html-button-response","trial_index":34,"time_elapsed":140023,"internal_node_id":"0.0-4.0-1.13","subject_id":"5c2ad18570d93a000121ad4c","study_id":"6197b3f67c2b5cd3b6d9596a","session_id":"619be58fff58d980ad11bfc1","condition":"full-information","relevant_dimensions":["antennae","pattern"],"bee_group":{"antennae":"B","wings":"X","pattern":"D","legs":"X"},"bonus":0.5000000000000007},{"rt":894.9000000059605,"stimulus":"bees-with-color/bee-A1DF.svg","response":0,"trial_type":"image-button-response","trial_index":35,"time_elapsed":140919,"internal_node_id":"0.0-4.0-0.14","subject_id":"5c2ad18570d93a000121ad4c","study_id":"6197b3f67c2b5cd3b6d9596a","session_id":"619be58fff58d980ad11bfc1","condition":"full-information","relevant_dimensions":["antennae","pattern"],"bee_group":{"antennae":"B","wings":"X","pattern":"D","legs":"X"},"action":"harvest","summary":"good-harvest","bonus":0.5000000000000007},{"rt":810.5999999940395,"stimulus":"\n                    <p><b>Action: <em>harvest</em></b></p>\n                    <p>This is the bee that you just saw.</p>\n                    <img src=\"bees-with-color/bee-A1DF.svg\" width=\"200\">\n                    <p><span class=\"greenText\"><b>Successful harvest!</b></span><br>Your pay has increased by $0.02. Your bonus pay is now $0.44.</p>\n            ","response":0,"trial_type":"html-button-response","trial_index":36,"time_elapsed":141731,"internal_node_id":"0.0-4.0-1.14","subject_id":"5c2ad18570d93a000121ad4c","study_id":"6197b3f67c2b5cd3b6d9596a","session_id":"619be58fff58d980ad11bfc1","condition":"full-information","relevant_dimensions":["antennae","pattern"],"bee_group":{"antennae":"B","wings":"X","pattern":"D","legs":"X"},"bonus":0.5000000000000007},{"rt":862.9000000059605,"stimulus":"bees-with-color/bee-B2SF.svg","response":0,"trial_type":"image-button-response","trial_index":37,"time_elapsed":142594,"internal_node_id":"0.0-4.0-0.15","subject_id":"5c2ad18570d93a000121ad4c","study_id":"6197b3f67c2b5cd3b6d9596a","session_id":"619be58fff58d980ad11bfc1","condition":"full-information","relevant_dimensions":["antennae","pattern"],"bee_group":{"antennae":"B","wings":"X","pattern":"D","legs":"X"},"action":"harvest","summary":"good-harvest","bonus":0.5000000000000007},{"rt":720.0999999940395,"stimulus":"\n                    <p><b>Action: <em>harvest</em></b></p>\n                    <p>This is the bee that you just saw.</p>\n                    <img src=\"bees-with-color/bee-B2SF.svg\" width=\"200\">\n                    <p><span class=\"greenText\"><b>Successful harvest!</b></span><br>Your pay has increased by $0.02. Your bonus pay is now $0.46.</p>\n            ","response":0,"trial_type":"html-button-response","trial_index":38,"time_elapsed":143315,"internal_node_id":"0.0-4.0-1.15","subject_id":"5c2ad18570d93a000121ad4c","study_id":"6197b3f67c2b5cd3b6d9596a","session_id":"619be58fff58d980ad11bfc1","condition":"full-information","relevant_dimensions":["antennae","pattern"],"bee_group":{"antennae":"B","wings":"X","pattern":"D","legs":"X"},"bonus":0.5000000000000007},{"rt":902.9000000059605,"stimulus":"bees-with-color/bee-A2SF.svg","response":0,"trial_type":"image-button-response","trial_index":39,"time_elapsed":144219,"internal_node_id":"0.0-4.0-0.16","subject_id":"5c2ad18570d93a000121ad4c","study_id":"6197b3f67c2b5cd3b6d9596a","session_id":"619be58fff58d980ad11bfc1","condition":"full-information","relevant_dimensions":["antennae","pattern"],"bee_group":{"antennae":"B","wings":"X","pattern":"D","legs":"X"},"action":"harvest","summary":"good-harvest","bonus":0.5000000000000007},{"rt":546.1999999880791,"stimulus":"\n                    <p><b>Action: <em>harvest</em></b></p>\n                    <p>This is the bee that you just saw.</p>\n                    <img src=\"bees-with-color/bee-A2SF.svg\" width=\"200\">\n                    <p><span class=\"greenText\"><b>Successful harvest!</b></span><br>Your pay has increased by $0.02. Your bonus pay is now $0.48.</p>\n            ","response":0,"trial_type":"html-button-response","trial_index":40,"time_elapsed":144766,"internal_node_id":"0.0-4.0-1.16","subject_id":"5c2ad18570d93a000121ad4c","study_id":"6197b3f67c2b5cd3b6d9596a","session_id":"619be58fff58d980ad11bfc1","condition":"full-information","relevant_dimensions":["antennae","pattern"],"bee_group":{"antennae":"B","wings":"X","pattern":"D","legs":"X"},"bonus":0.5000000000000007},{"rt":1304,"stimulus":"bees-with-color/bee-B2DF.svg","response":0,"trial_type":"image-button-response","trial_index":41,"time_elapsed":146071,"internal_node_id":"0.0-4.0-0.17","subject_id":"5c2ad18570d93a000121ad4c","study_id":"6197b3f67c2b5cd3b6d9596a","session_id":"619be58fff58d980ad11bfc1","condition":"full-information","relevant_dimensions":["antennae","pattern"],"bee_group":{"antennae":"B","wings":"X","pattern":"D","legs":"X"},"action":"harvest","summary":"bad-harvest","bonus":0.5000000000000007},{"rt":864.0999999940395,"stimulus":"\n                    <p><b>Action: <em>harvest</em></b></p>\n                    <p>This is the bee that you just saw.</p>\n                    <img src=\"bees-with-color/bee-B2DF.svg\" width=\"200\">\n                    <p><span class=\"redText\">Bad choice, the bee was angry.</span><br><b>You have been stung!</b><br>Your pay has been decreased by $0.10. Your bonus pay is now $0.38.</p>\n            ","response":0,"trial_type":"html-button-response","trial_index":42,"time_elapsed":146936,"internal_node_id":"0.0-4.0-1.17","subject_id":"5c2ad18570d93a000121ad4c","study_id":"6197b3f67c2b5cd3b6d9596a","session_id":"619be58fff58d980ad11bfc1","condition":"full-information","relevant_dimensions":["antennae","pattern"],"bee_group":{"antennae":"B","wings":"X","pattern":"D","legs":"X"},"bonus":0.5000000000000007},{"rt":1137,"stimulus":"bees-with-color/bee-B1SM.svg","response":1,"trial_type":"image-button-response","trial_index":43,"time_elapsed":148074,"internal_node_id":"0.0-4.0-0.18","subject_id":"5c2ad18570d93a000121ad4c","study_id":"6197b3f67c2b5cd3b6d9596a","session_id":"619be58fff58d980ad11bfc1","condition":"full-information","relevant_dimensions":["antennae","pattern"],"bee_group":{"antennae":"B","wings":"X","pattern":"D","legs":"X"},"action":"avoid","summary":"bad-avoid","bonus":0.5000000000000007},{"rt":644.0999999940395,"stimulus":"\n                    <p><b>Action: <em>avoid</em></b></p>\n                    <p>This is the bee that you just saw.</p>\n                    <img src=\"bees-with-color/bee-B1SM.svg\" width=\"200\">\n                    <p><span class=\"redText\">Bad choice,</span> the bee was friendly.<br>Your bonus pay is unchanged, and remains at $0.38.</p>\n            ","response":0,"trial_type":"html-button-response","trial_index":44,"time_elapsed":148719,"internal_node_id":"0.0-4.0-1.18","subject_id":"5c2ad18570d93a000121ad4c","study_id":"6197b3f67c2b5cd3b6d9596a","session_id":"619be58fff58d980ad11bfc1","condition":"full-information","relevant_dimensions":["antennae","pattern"],"bee_group":{"antennae":"B","wings":"X","pattern":"D","legs":"X"},"bonus":0.5000000000000007},{"rt":1396.0999999940395,"stimulus":"bees-with-color/bee-A1DM.svg","response":0,"trial_type":"image-button-response","trial_index":45,"time_elapsed":150116,"internal_node_id":"0.0-4.0-0.19","subject_id":"5c2ad18570d93a000121ad4c","study_id":"6197b3f67c2b5cd3b6d9596a","session_id":"619be58fff58d980ad11bfc1","condition":"full-information","relevant_dimensions":["antennae","pattern"],"bee_group":{"antennae":"B","wings":"X","pattern":"D","legs":"X"},"action":"harvest","summary":"good-harvest","bonus":0.5000000000000007},{"rt":746,"stimulus":"\n                    <p><b>Action: <em>harvest</em></b></p>\n                    <p>This is the bee that you just saw.</p>\n                    <img src=\"bees-with-color/bee-A1DM.svg\" width=\"200\">\n                    <p><span class=\"greenText\"><b>Successful harvest!</b></span><br>Your pay has increased by $0.02. Your bonus pay is now $0.40.</p>\n            ","response":0,"trial_type":"html-button-response","trial_index":46,"time_elapsed":150864,"internal_node_id":"0.0-4.0-1.19","subject_id":"5c2ad18570d93a000121ad4c","study_id":"6197b3f67c2b5cd3b6d9596a","session_id":"619be58fff58d980ad11bfc1","condition":"full-information","relevant_dimensions":["antennae","pattern"],"bee_group":{"antennae":"B","wings":"X","pattern":"D","legs":"X"},"bonus":0.5000000000000007},{"rt":1153.9000000059605,"stimulus":"bees-with-color/bee-A2DM.svg","response":0,"trial_type":"image-button-response","trial_index":47,"time_elapsed":152018,"internal_node_id":"0.0-4.0-0.20","subject_id":"5c2ad18570d93a000121ad4c","study_id":"6197b3f67c2b5cd3b6d9596a","session_id":"619be58fff58d980ad11bfc1","condition":"full-information","relevant_dimensions":["antennae","pattern"],"bee_group":{"antennae":"B","wings":"X","pattern":"D","legs":"X"},"action":"harvest","summary":"good-harvest","bonus":0.5000000000000007},{"rt":656,"stimulus":"\n                    <p><b>Action: <em>harvest</em></b></p>\n                    <p>This is the bee that you just saw.</p>\n                    <img src=\"bees-with-color/bee-A2DM.svg\" width=\"200\">\n                    <p><span class=\"greenText\"><b>Successful harvest!</b></span><br>Your pay has increased by $0.02. Your bonus pay is now $0.42.</p>\n            ","response":0,"trial_type":"html-button-response","trial_index":48,"time_elapsed":152675,"internal_node_id":"0.0-4.0-1.20","subject_id":"5c2ad18570d93a000121ad4c","study_id":"6197b3f67c2b5cd3b6d9596a","session_id":"619be58fff58d980ad11bfc1","condition":"full-information","relevant_dimensions":["antennae","pattern"],"bee_group":{"antennae":"B","wings":"X","pattern":"D","legs":"X"},"bonus":0.5000000000000007},{"rt":976,"stimulus":"bees-with-color/bee-A1DF.svg","response":0,"trial_type":"image-button-response","trial_index":49,"time_elapsed":153652,"internal_node_id":"0.0-4.0-0.21","subject_id":"5c2ad18570d93a000121ad4c","study_id":"6197b3f67c2b5cd3b6d9596a","session_id":"619be58fff58d980ad11bfc1","condition":"full-information","relevant_dimensions":["antennae","pattern"],"bee_group":{"antennae":"B","wings":"X","pattern":"D","legs":"X"},"action":"harvest","summary":"good-harvest","bonus":0.5000000000000007},{"rt":569.8000000119209,"stimulus":"\n                    <p><b>Action: <em>harvest</em></b></p>\n                    <p>This is the bee that you just saw.</p>\n                    <img src=\"bees-with-color/bee-A1DF.svg\" width=\"200\">\n                    <p><span class=\"greenText\"><b>Successful harvest!</b></span><br>Your pay has increased by $0.02. Your bonus pay is now $0.44.</p>\n            ","response":0,"trial_type":"html-button-response","trial_index":50,"time_elapsed":154223,"internal_node_id":"0.0-4.0-1.21","subject_id":"5c2ad18570d93a000121ad4c","study_id":"6197b3f67c2b5cd3b6d9596a","session_id":"619be58fff58d980ad11bfc1","condition":"full-information","relevant_dimensions":["antennae","pattern"],"bee_group":{"antennae":"B","wings":"X","pattern":"D","legs":"X"},"bonus":0.5000000000000007},{"rt":876.5,"stimulus":"bees-with-color/bee-B1SF.svg","response":0,"trial_type":"image-button-response","trial_index":51,"time_elapsed":155100,"internal_node_id":"0.0-4.0-0.22","subject_id":"5c2ad18570d93a000121ad4c","study_id":"6197b3f67c2b5cd3b6d9596a","session_id":"619be58fff58d980ad11bfc1","condition":"full-information","relevant_dimensions":["antennae","pattern"],"bee_group":{"antennae":"B","wings":"X","pattern":"D","legs":"X"},"action":"harvest","summary":"good-harvest","bonus":0.5000000000000007},{"rt":468.90000000596046,"stimulus":"\n                    <p><b>Action: <em>harvest</em></b></p>\n                    <p>This is the bee that you just saw.</p>\n                    <img src=\"bees-with-color/bee-B1SF.svg\" width=\"200\">\n                    <p><span class=\"greenText\"><b>Successful harvest!</b></span><br>Your pay has increased by $0.02. Your bonus pay is now $0.46.</p>\n            ","response":0,"trial_type":"html-button-response","trial_index":52,"time_elapsed":155570,"internal_node_id":"0.0-4.0-1.22","subject_id":"5c2ad18570d93a000121ad4c","study_id":"6197b3f67c2b5cd3b6d9596a","session_id":"619be58fff58d980ad11bfc1","condition":"full-information","relevant_dimensions":["antennae","pattern"],"bee_group":{"antennae":"B","wings":"X","pattern":"D","legs":"X"},"bonus":0.5000000000000007},{"rt":1128.0999999940395,"stimulus":"bees-with-color/bee-B1DM.svg","response":0,"trial_type":"image-button-response","trial_index":53,"time_elapsed":156699,"internal_node_id":"0.0-4.0-0.23","subject_id":"5c2ad18570d93a000121ad4c","study_id":"6197b3f67c2b5cd3b6d9596a","session_id":"619be58fff58d980ad11bfc1","condition":"full-information","relevant_dimensions":["antennae","pattern"],"bee_group":{"antennae":"B","wings":"X","pattern":"D","legs":"X"},"action":"harvest","summary":"bad-harvest","bonus":0.5000000000000007},{"rt":770.8000000119209,"stimulus":"\n                    <p><b>Action: <em>harvest</em></b></p>\n                    <p>This is the bee that you just saw.</p>\n                    <img src=\"bees-with-color/bee-B1DM.svg\" width=\"200\">\n                    <p><span class=\"redText\">Bad choice, the bee was angry.</span><br><b>You have been stung!</b><br>Your pay has been decreased by $0.10. Your bonus pay is now $0.36.</p>\n            ","response":0,"trial_type":"html-button-response","trial_index":54,"time_elapsed":157471,"internal_node_id":"0.0-4.0-1.23","subject_id":"5c2ad18570d93a000121ad4c","study_id":"6197b3f67c2b5cd3b6d9596a","session_id":"619be58fff58d980ad11bfc1","condition":"full-information","relevant_dimensions":["antennae","pattern"],"bee_group":{"antennae":"B","wings":"X","pattern":"D","legs":"X"},"bonus":0.5000000000000007},{"rt":774.6000000238419,"stimulus":"bees-with-color/bee-A2SM.svg","response":0,"trial_type":"image-button-response","trial_index":55,"time_elapsed":158247,"internal_node_id":"0.0-4.0-0.24","subject_id":"5c2ad18570d93a000121ad4c","study_id":"6197b3f67c2b5cd3b6d9596a","session_id":"619be58fff58d980ad11bfc1","condition":"full-information","relevant_dimensions":["antennae","pattern"],"bee_group":{"antennae":"B","wings":"X","pattern":"D","legs":"X"},"action":"harvest","summary":"good-harvest","bonus":0.5000000000000007},{"rt":636,"stimulus":"\n                    <p><b>Action: <em>harvest</em></b></p>\n                    <p>This is the bee that you just saw.</p>\n                    <img src=\"bees-with-color/bee-A2SM.svg\" width=\"200\">\n                    <p><span class=\"greenText\"><b>Successful harvest!</b></span><br>Your pay has increased by $0.02. Your bonus pay is now $0.38.</p>\n            ","response":0,"trial_type":"html-button-response","trial_index":56,"time_elapsed":158883,"internal_node_id":"0.0-4.0-1.24","subject_id":"5c2ad18570d93a000121ad4c","study_id":"6197b3f67c2b5cd3b6d9596a","session_id":"619be58fff58d980ad11bfc1","condition":"full-information","relevant_dimensions":["antennae","pattern"],"bee_group":{"antennae":"B","wings":"X","pattern":"D","legs":"X"},"bonus":0.5000000000000007},{"rt":1292.0999999940395,"stimulus":"bees-with-color/bee-A1SF.svg","response":0,"trial_type":"image-button-response","trial_index":57,"time_elapsed":160176,"internal_node_id":"0.0-4.0-0.25","subject_id":"5c2ad18570d93a000121ad4c","study_id":"6197b3f67c2b5cd3b6d9596a","session_id":"619be58fff58d980ad11bfc1","condition":"full-information","relevant_dimensions":["antennae","pattern"],"bee_group":{"antennae":"B","wings":"X","pattern":"D","legs":"X"},"action":"harvest","summary":"good-harvest","bonus":0.5000000000000007},{"rt":471,"stimulus":"\n                    <p><b>Action: <em>harvest</em></b></p>\n                    <p>This is the bee that you just saw.</p>\n                    <img src=\"bees-with-color/bee-A1SF.svg\" width=\"200\">\n                    <p><span class=\"greenText\"><b>Successful harvest!</b></span><br>Your pay has increased by $0.02. Your bonus pay is now $0.40.</p>\n            ","response":0,"trial_type":"html-button-response","trial_index":58,"time_elapsed":160648,"internal_node_id":"0.0-4.0-1.25","subject_id":"5c2ad18570d93a000121ad4c","study_id":"6197b3f67c2b5cd3b6d9596a","session_id":"619be58fff58d980ad11bfc1","condition":"full-information","relevant_dimensions":["antennae","pattern"],"bee_group":{"antennae":"B","wings":"X","pattern":"D","legs":"X"},"bonus":0.5000000000000007},{"rt":1138.199999988079,"stimulus":"bees-with-color/bee-B1DF.svg","response":0,"trial_type":"image-button-response","trial_index":59,"time_elapsed":161787,"internal_node_id":"0.0-4.0-0.26","subject_id":"5c2ad18570d93a000121ad4c","study_id":"6197b3f67c2b5cd3b6d9596a","session_id":"619be58fff58d980ad11bfc1","condition":"full-information","relevant_dimensions":["antennae","pattern"],"bee_group":{"antennae":"B","wings":"X","pattern":"D","legs":"X"},"action":"harvest","summary":"bad-harvest","bonus":0.5000000000000007},{"rt":720.0999999940395,"stimulus":"\n                    <p><b>Action: <em>harvest</em></b></p>\n                    <p>This is the bee that you just saw.</p>\n                    <img src=\"bees-with-color/bee-B1DF.svg\" width=\"200\">\n                    <p><span class=\"redText\">Bad choice, the bee was angry.</span><br><b>You have been stung!</b><br>Your pay has been decreased by $0.10. Your bonus pay is now $0.30.</p>\n            ","response":0,"trial_type":"html-button-response","trial_index":60,"time_elapsed":162508,"internal_node_id":"0.0-4.0-1.26","subject_id":"5c2ad18570d93a000121ad4c","study_id":"6197b3f67c2b5cd3b6d9596a","session_id":"619be58fff58d980ad11bfc1","condition":"full-information","relevant_dimensions":["antennae","pattern"],"bee_group":{"antennae":"B","wings":"X","pattern":"D","legs":"X"},"bonus":0.5000000000000007},{"rt":1150,"stimulus":"bees-with-color/bee-A1SM.svg","response":1,"trial_type":"image-button-response","trial_index":61,"time_elapsed":163659,"internal_node_id":"0.0-4.0-0.27","subject_id":"5c2ad18570d93a000121ad4c","study_id":"6197b3f67c2b5cd3b6d9596a","session_id":"619be58fff58d980ad11bfc1","condition":"full-information","relevant_dimensions":["antennae","pattern"],"bee_group":{"antennae":"B","wings":"X","pattern":"D","legs":"X"},"action":"avoid","summary":"bad-avoid","bonus":0.5000000000000007},{"rt":553.1999999880791,"stimulus":"\n                    <p><b>Action: <em>avoid</em></b></p>\n                    <p>This is the bee that you just saw.</p>\n                    <img src=\"bees-with-color/bee-A1SM.svg\" width=\"200\">\n                    <p><span class=\"redText\">Bad choice,</span> the bee was friendly.<br>Your bonus pay is unchanged, and remains at $0.30.</p>\n            ","response":0,"trial_type":"html-button-response","trial_index":62,"time_elapsed":164213,"internal_node_id":"0.0-4.0-1.27","subject_id":"5c2ad18570d93a000121ad4c","study_id":"6197b3f67c2b5cd3b6d9596a","session_id":"619be58fff58d980ad11bfc1","condition":"full-information","relevant_dimensions":["antennae","pattern"],"bee_group":{"antennae":"B","wings":"X","pattern":"D","legs":"X"},"bonus":0.5000000000000007},{"rt":1316.9000000059605,"stimulus":"bees-with-color/bee-B2DM.svg","response":1,"trial_type":"image-button-response","trial_index":63,"time_elapsed":165531,"internal_node_id":"0.0-4.0-0.28","subject_id":"5c2ad18570d93a000121ad4c","study_id":"6197b3f67c2b5cd3b6d9596a","session_id":"619be58fff58d980ad11bfc1","condition":"full-information","relevant_dimensions":["antennae","pattern"],"bee_group":{"antennae":"B","wings":"X","pattern":"D","legs":"X"},"action":"avoid","summary":"good-avoid","bonus":0.5000000000000007},{"rt":644.0999999940395,"stimulus":"\n                    <p><b>Action: <em>avoid</em></b></p>\n                    <p>This is the bee that you just saw.</p>\n                    <img src=\"bees-with-color/bee-B2DM.svg\" width=\"200\">\n                    <p><span class=\"greenText\">Good choice!</span>  This bee would have stung you.<br>Your bonus pay is unchanged, and remains at $0.30.</p>\n            ","response":0,"trial_type":"html-button-response","trial_index":64,"time_elapsed":166176,"internal_node_id":"0.0-4.0-1.28","subject_id":"5c2ad18570d93a000121ad4c","study_id":"6197b3f67c2b5cd3b6d9596a","session_id":"619be58fff58d980ad11bfc1","condition":"full-information","relevant_dimensions":["antennae","pattern"],"bee_group":{"antennae":"B","wings":"X","pattern":"D","legs":"X"},"bonus":0.5000000000000007},{"rt":951.4000000059605,"stimulus":"bees-with-color/bee-B2SM.svg","response":0,"trial_type":"image-button-response","trial_index":65,"time_elapsed":167128,"internal_node_id":"0.0-4.0-0.29","subject_id":"5c2ad18570d93a000121ad4c","study_id":"6197b3f67c2b5cd3b6d9596a","session_id":"619be58fff58d980ad11bfc1","condition":"full-information","relevant_dimensions":["antennae","pattern"],"bee_group":{"antennae":"B","wings":"X","pattern":"D","legs":"X"},"action":"harvest","summary":"good-harvest","bonus":0.5000000000000007},{"rt":592.9000000059605,"stimulus":"\n                    <p><b>Action: <em>harvest</em></b></p>\n                    <p>This is the bee that you just saw.</p>\n                    <img src=\"bees-with-color/bee-B2SM.svg\" width=\"200\">\n                    <p><span class=\"greenText\"><b>Successful harvest!</b></span><br>Your pay has increased by $0.02. Your bonus pay is now $0.32.</p>\n            ","response":0,"trial_type":"html-button-response","trial_index":66,"time_elapsed":167722,"internal_node_id":"0.0-4.0-1.29","subject_id":"5c2ad18570d93a000121ad4c","study_id":"6197b3f67c2b5cd3b6d9596a","session_id":"619be58fff58d980ad11bfc1","condition":"full-information","relevant_dimensions":["antennae","pattern"],"bee_group":{"antennae":"B","wings":"X","pattern":"D","legs":"X"},"bonus":0.5000000000000007},{"rt":1628,"stimulus":"bees-with-color/bee-A2DF.svg","response":1,"trial_type":"image-button-response","trial_index":67,"time_elapsed":169351,"internal_node_id":"0.0-4.0-0.30","subject_id":"5c2ad18570d93a000121ad4c","study_id":"6197b3f67c2b5cd3b6d9596a","session_id":"619be58fff58d980ad11bfc1","condition":"full-information","relevant_dimensions":["antennae","pattern"],"bee_group":{"antennae":"B","wings":"X","pattern":"D","legs":"X"},"action":"avoid","summary":"bad-avoid","bonus":0.5000000000000007},{"rt":524.9000000059605,"stimulus":"\n                    <p><b>Action: <em>avoid</em></b></p>\n                    <p>This is the bee that you just saw.</p>\n                    <img src=\"bees-with-color/bee-A2DF.svg\" width=\"200\">\n                    <p><span class=\"redText\">Bad choice,</span> the bee was friendly.<br>Your bonus pay is unchanged, and remains at $0.32.</p>\n            ","response":0,"trial_type":"html-button-response","trial_index":68,"time_elapsed":169877,"internal_node_id":"0.0-4.0-1.30","subject_id":"5c2ad18570d93a000121ad4c","study_id":"6197b3f67c2b5cd3b6d9596a","session_id":"619be58fff58d980ad11bfc1","condition":"full-information","relevant_dimensions":["antennae","pattern"],"bee_group":{"antennae":"B","wings":"X","pattern":"D","legs":"X"},"bonus":0.5000000000000007},{"rt":700.2999999821186,"stimulus":"bees-with-color/bee-B2SF.svg","response":0,"trial_type":"image-button-response","trial_index":69,"time_elapsed":170579,"internal_node_id":"0.0-4.0-0.31","subject_id":"5c2ad18570d93a000121ad4c","study_id":"6197b3f67c2b5cd3b6d9596a","session_id":"619be58fff58d980ad11bfc1","condition":"full-information","relevant_dimensions":["antennae","pattern"],"bee_group":{"antennae":"B","wings":"X","pattern":"D","legs":"X"},"action":"harvest","summary":"good-harvest","bonus":0.5000000000000007},{"rt":511,"stimulus":"\n                    <p><b>Action: <em>harvest</em></b></p>\n                    <p>This is the bee that you just saw.</p>\n                    <img src=\"bees-with-color/bee-B2SF.svg\" width=\"200\">\n                    <p><span class=\"greenText\"><b>Successful harvest!</b></span><br>Your pay has increased by $0.02. Your bonus pay is now $0.34.</p>\n            ","response":0,"trial_type":"html-button-response","trial_index":70,"time_elapsed":171090,"internal_node_id":"0.0-4.0-1.31","subject_id":"5c2ad18570d93a000121ad4c","study_id":"6197b3f67c2b5cd3b6d9596a","session_id":"619be58fff58d980ad11bfc1","condition":"full-information","relevant_dimensions":["antennae","pattern"],"bee_group":{"antennae":"B","wings":"X","pattern":"D","legs":"X"},"bonus":0.5000000000000007},{"rt":795,"stimulus":"bees-with-color/bee-A1SF.svg","response":0,"trial_type":"image-button-response","trial_index":71,"time_elapsed":171886,"internal_node_id":"0.0-4.0-0.32","subject_id":"5c2ad18570d93a000121ad4c","study_id":"6197b3f67c2b5cd3b6d9596a","session_id":"619be58fff58d980ad11bfc1","condition":"full-information","relevant_dimensions":["antennae","pattern"],"bee_group":{"antennae":"B","wings":"X","pattern":"D","legs":"X"},"action":"harvest","summary":"good-harvest","bonus":0.5000000000000007},{"rt":428,"stimulus":"\n                    <p><b>Action: <em>harvest</em></b></p>\n                    <p>This is the bee that you just saw.</p>\n                    <img src=\"bees-with-color/bee-A1SF.svg\" width=\"200\">\n                    <p><span class=\"greenText\"><b>Successful harvest!</b></span><br>Your pay has increased by $0.02. Your bonus pay is now $0.36.</p>\n            ","response":0,"trial_type":"html-button-response","trial_index":72,"time_elapsed":172315,"internal_node_id":"0.0-4.0-1.32","subject_id":"5c2ad18570d93a000121ad4c","study_id":"6197b3f67c2b5cd3b6d9596a","session_id":"619be58fff58d980ad11bfc1","condition":"full-information","relevant_dimensions":["antennae","pattern"],"bee_group":{"antennae":"B","wings":"X","pattern":"D","legs":"X"},"bonus":0.5000000000000007},{"rt":683.2999999821186,"stimulus":"bees-with-color/bee-B1SF.svg","response":0,"trial_type":"image-button-response","trial_index":73,"time_elapsed":172999,"internal_node_id":"0.0-4.0-0.33","subject_id":"5c2ad18570d93a000121ad4c","study_id":"6197b3f67c2b5cd3b6d9596a","session_id":"619be58fff58d980ad11bfc1","condition":"full-information","relevant_dimensions":["antennae","pattern"],"bee_group":{"antennae":"B","wings":"X","pattern":"D","legs":"X"},"action":"harvest","summary":"good-harvest","bonus":0.5000000000000007},{"rt":475.09999999403954,"stimulus":"\n                    <p><b>Action: <em>harvest</em></b></p>\n                    <p>This is the bee that you just saw.</p>\n                    <img src=\"bees-with-color/bee-B1SF.svg\" width=\"200\">\n                    <p><span class=\"greenText\"><b>Successful harvest!</b></span><br>Your pay has increased by $0.02. Your bonus pay is now $0.38.</p>\n            ","response":0,"trial_type":"html-button-response","trial_index":74,"time_elapsed":173475,"internal_node_id":"0.0-4.0-1.33","subject_id":"5c2ad18570d93a000121ad4c","study_id":"6197b3f67c2b5cd3b6d9596a","session_id":"619be58fff58d980ad11bfc1","condition":"full-information","relevant_dimensions":["antennae","pattern"],"bee_group":{"antennae":"B","wings":"X","pattern":"D","legs":"X"},"bonus":0.5000000000000007},{"rt":765.8000000119209,"stimulus":"bees-with-color/bee-A2SF.svg","response":0,"trial_type":"image-button-response","trial_index":75,"time_elapsed":174242,"internal_node_id":"0.0-4.0-0.34","subject_id":"5c2ad18570d93a000121ad4c","study_id":"6197b3f67c2b5cd3b6d9596a","session_id":"619be58fff58d980ad11bfc1","condition":"full-information","relevant_dimensions":["antennae","pattern"],"bee_group":{"antennae":"B","wings":"X","pattern":"D","legs":"X"},"action":"harvest","summary":"good-harvest","bonus":0.5000000000000007},{"rt":632.5,"stimulus":"\n                    <p><b>Action: <em>harvest</em></b></p>\n                    <p>This is the bee that you just saw.</p>\n                    <img src=\"bees-with-color/bee-A2SF.svg\" width=\"200\">\n                    <p><span class=\"greenText\"><b>Successful harvest!</b></span><br>Your pay has increased by $0.02. Your bonus pay is now $0.40.</p>\n            ","response":0,"trial_type":"html-button-response","trial_index":76,"time_elapsed":174875,"internal_node_id":"0.0-4.0-1.34","subject_id":"5c2ad18570d93a000121ad4c","study_id":"6197b3f67c2b5cd3b6d9596a","session_id":"619be58fff58d980ad11bfc1","condition":"full-information","relevant_dimensions":["antennae","pattern"],"bee_group":{"antennae":"B","wings":"X","pattern":"D","legs":"X"},"bonus":0.5000000000000007},{"rt":1024.0999999940395,"stimulus":"bees-with-color/bee-B2DF.svg","response":0,"trial_type":"image-button-response","trial_index":77,"time_elapsed":175900,"internal_node_id":"0.0-4.0-0.35","subject_id":"5c2ad18570d93a000121ad4c","study_id":"6197b3f67c2b5cd3b6d9596a","session_id":"619be58fff58d980ad11bfc1","condition":"full-information","relevant_dimensions":["antennae","pattern"],"bee_group":{"antennae":"B","wings":"X","pattern":"D","legs":"X"},"action":"harvest","summary":"bad-harvest","bonus":0.5000000000000007},{"rt":734.1999999880791,"stimulus":"\n                    <p><b>Action: <em>harvest</em></b></p>\n                    <p>This is the bee that you just saw.</p>\n                    <img src=\"bees-with-color/bee-B2DF.svg\" width=\"200\">\n                    <p><span class=\"redText\">Bad choice, the bee was angry.</span><br><b>You have been stung!</b><br>Your pay has been decreased by $0.10. Your bonus pay is now $0.30.</p>\n            ","response":0,"trial_type":"html-button-response","trial_index":78,"time_elapsed":176635,"internal_node_id":"0.0-4.0-1.35","subject_id":"5c2ad18570d93a000121ad4c","study_id":"6197b3f67c2b5cd3b6d9596a","session_id":"619be58fff58d980ad11bfc1","condition":"full-information","relevant_dimensions":["antennae","pattern"],"bee_group":{"antennae":"B","wings":"X","pattern":"D","legs":"X"},"bonus":0.5000000000000007},{"rt":639.0999999940395,"stimulus":"bees-with-color/bee-B1SM.svg","response":0,"trial_type":"image-button-response","trial_index":79,"time_elapsed":177275,"internal_node_id":"0.0-4.0-0.36","subject_id":"5c2ad18570d93a000121ad4c","study_id":"6197b3f67c2b5cd3b6d9596a","session_id":"619be58fff58d980ad11bfc1","condition":"full-information","relevant_dimensions":["antennae","pattern"],"bee_group":{"antennae":"B","wings":"X","pattern":"D","legs":"X"},"action":"harvest","summary":"good-harvest","bonus":0.5000000000000007},{"rt":497,"stimulus":"\n                    <p><b>Action: <em>harvest</em></b></p>\n                    <p>This is the bee that you just saw.</p>\n                    <img src=\"bees-with-color/bee-B1SM.svg\" width=\"200\">\n                    <p><span class=\"greenText\"><b>Successful harvest!</b></span><br>Your pay has increased by $0.02. Your bonus pay is now $0.32.</p>\n            ","response":0,"trial_type":"html-button-response","trial_index":80,"time_elapsed":177773,"internal_node_id":"0.0-4.0-1.36","subject_id":"5c2ad18570d93a000121ad4c","study_id":"6197b3f67c2b5cd3b6d9596a","session_id":"619be58fff58d980ad11bfc1","condition":"full-information","relevant_dimensions":["antennae","pattern"],"bee_group":{"antennae":"B","wings":"X","pattern":"D","legs":"X"},"bonus":0.5000000000000007},{"rt":751.1999999880791,"stimulus":"bees-with-color/bee-B1DF.svg","response":0,"trial_type":"image-button-response","trial_index":81,"time_elapsed":178525,"internal_node_id":"0.0-4.0-0.37","subject_id":"5c2ad18570d93a000121ad4c","study_id":"6197b3f67c2b5cd3b6d9596a","session_id":"619be58fff58d980ad11bfc1","condition":"full-information","relevant_dimensions":["antennae","pattern"],"bee_group":{"antennae":"B","wings":"X","pattern":"D","legs":"X"},"action":"harvest","summary":"bad-harvest","bonus":0.5000000000000007},{"rt":710.8000000119209,"stimulus":"\n                    <p><b>Action: <em>harvest</em></b></p>\n                    <p>This is the bee that you just saw.</p>\n                    <img src=\"bees-with-color/bee-B1DF.svg\" width=\"200\">\n                    <p><span class=\"redText\">Bad choice, the bee was angry.</span><br><b>You have been stung!</b><br>Your pay has been decreased by $0.10. Your bonus pay is now $0.22.</p>\n            ","response":0,"trial_type":"html-button-response","trial_index":82,"time_elapsed":179237,"internal_node_id":"0.0-4.0-1.37","subject_id":"5c2ad18570d93a000121ad4c","study_id":"6197b3f67c2b5cd3b6d9596a","session_id":"619be58fff58d980ad11bfc1","condition":"full-information","relevant_dimensions":["antennae","pattern"],"bee_group":{"antennae":"B","wings":"X","pattern":"D","legs":"X"},"bonus":0.5000000000000007},{"rt":1770.5,"stimulus":"bees-with-color/bee-B2SM.svg","response":0,"trial_type":"image-button-response","trial_index":83,"time_elapsed":181008,"internal_node_id":"0.0-4.0-0.38","subject_id":"5c2ad18570d93a000121ad4c","study_id":"6197b3f67c2b5cd3b6d9596a","session_id":"619be58fff58d980ad11bfc1","condition":"full-information","relevant_dimensions":["antennae","pattern"],"bee_group":{"antennae":"B","wings":"X","pattern":"D","legs":"X"},"action":"harvest","summary":"good-harvest","bonus":0.5000000000000007},{"rt":552.1999999880791,"stimulus":"\n                    <p><b>Action: <em>harvest</em></b></p>\n                    <p>This is the bee that you just saw.</p>\n                    <img src=\"bees-with-color/bee-B2SM.svg\" width=\"200\">\n                    <p><span class=\"greenText\"><b>Successful harvest!</b></span><br>Your pay has increased by $0.02. Your bonus pay is now $0.24.</p>\n            ","response":0,"trial_type":"html-button-response","trial_index":84,"time_elapsed":181561,"internal_node_id":"0.0-4.0-1.38","subject_id":"5c2ad18570d93a000121ad4c","study_id":"6197b3f67c2b5cd3b6d9596a","session_id":"619be58fff58d980ad11bfc1","condition":"full-information","relevant_dimensions":["antennae","pattern"],"bee_group":{"antennae":"B","wings":"X","pattern":"D","legs":"X"},"bonus":0.5000000000000007},{"rt":975,"stimulus":"bees-with-color/bee-A2DF.svg","response":1,"trial_type":"image-button-response","trial_index":85,"time_elapsed":182537,"internal_node_id":"0.0-4.0-0.39","subject_id":"5c2ad18570d93a000121ad4c","study_id":"6197b3f67c2b5cd3b6d9596a","session_id":"619be58fff58d980ad11bfc1","condition":"full-information","relevant_dimensions":["antennae","pattern"],"bee_group":{"antennae":"B","wings":"X","pattern":"D","legs":"X"},"action":"avoid","summary":"bad-avoid","bonus":0.5000000000000007},{"rt":507.2000000178814,"stimulus":"\n                    <p><b>Action: <em>avoid</em></b></p>\n                    <p>This is the bee that you just saw.</p>\n                    <img src=\"bees-with-color/bee-A2DF.svg\" width=\"200\">\n                    <p><span class=\"redText\">Bad choice,</span> the bee was friendly.<br>Your bonus pay is unchanged, and remains at $0.24.</p>\n            ","response":0,"trial_type":"html-button-response","trial_index":86,"time_elapsed":183045,"internal_node_id":"0.0-4.0-1.39","subject_id":"5c2ad18570d93a000121ad4c","study_id":"6197b3f67c2b5cd3b6d9596a","session_id":"619be58fff58d980ad11bfc1","condition":"full-information","relevant_dimensions":["antennae","pattern"],"bee_group":{"antennae":"B","wings":"X","pattern":"D","legs":"X"},"bonus":0.5000000000000007},{"rt":926,"stimulus":"bees-with-color/bee-B1DM.svg","response":1,"trial_type":"image-button-response","trial_index":87,"time_elapsed":183972,"internal_node_id":"0.0-4.0-0.40","subject_id":"5c2ad18570d93a000121ad4c","study_id":"6197b3f67c2b5cd3b6d9596a","session_id":"619be58fff58d980ad11bfc1","condition":"full-information","relevant_dimensions":["antennae","pattern"],"bee_group":{"antennae":"B","wings":"X","pattern":"D","legs":"X"},"action":"avoid","summary":"good-avoid","bonus":0.5000000000000007},{"rt":527.9000000059605,"stimulus":"\n                    <p><b>Action: <em>avoid</em></b></p>\n                    <p>This is the bee that you just saw.</p>\n                    <img src=\"bees-with-color/bee-B1DM.svg\" width=\"200\">\n                    <p><span class=\"greenText\">Good choice!</span>  This bee would have stung you.<br>Your bonus pay is unchanged, and remains at $0.24.</p>\n            ","response":0,"trial_type":"html-button-response","trial_index":88,"time_elapsed":184501,"internal_node_id":"0.0-4.0-1.40","subject_id":"5c2ad18570d93a000121ad4c","study_id":"6197b3f67c2b5cd3b6d9596a","session_id":"619be58fff58d980ad11bfc1","condition":"full-information","relevant_dimensions":["antennae","pattern"],"bee_group":{"antennae":"B","wings":"X","pattern":"D","legs":"X"},"bonus":0.5000000000000007},{"rt":685.4000000059605,"stimulus":"bees-with-color/bee-B2SF.svg","response":0,"trial_type":"image-button-response","trial_index":89,"time_elapsed":185187,"internal_node_id":"0.0-4.0-0.41","subject_id":"5c2ad18570d93a000121ad4c","study_id":"6197b3f67c2b5cd3b6d9596a","session_id":"619be58fff58d980ad11bfc1","condition":"full-information","relevant_dimensions":["antennae","pattern"],"bee_group":{"antennae":"B","wings":"X","pattern":"D","legs":"X"},"action":"harvest","summary":"good-harvest","bonus":0.5000000000000007},{"rt":440,"stimulus":"\n                    <p><b>Action: <em>harvest</em></b></p>\n                    <p>This is the bee that you just saw.</p>\n                    <img src=\"bees-with-color/bee-B2SF.svg\" width=\"200\">\n                    <p><span class=\"greenText\"><b>Successful harvest!</b></span><br>Your pay has increased by $0.02. Your bonus pay is now $0.26.</p>\n            ","response":0,"trial_type":"html-button-response","trial_index":90,"time_elapsed":185628,"internal_node_id":"0.0-4.0-1.41","subject_id":"5c2ad18570d93a000121ad4c","study_id":"6197b3f67c2b5cd3b6d9596a","session_id":"619be58fff58d980ad11bfc1","condition":"full-information","relevant_dimensions":["antennae","pattern"],"bee_group":{"antennae":"B","wings":"X","pattern":"D","legs":"X"},"bonus":0.5000000000000007},{"rt":1315,"stimulus":"bees-with-color/bee-A1DM.svg","response":1,"trial_type":"image-button-response","trial_index":91,"time_elapsed":186944,"internal_node_id":"0.0-4.0-0.42","subject_id":"5c2ad18570d93a000121ad4c","study_id":"6197b3f67c2b5cd3b6d9596a","session_id":"619be58fff58d980ad11bfc1","condition":"full-information","relevant_dimensions":["antennae","pattern"],"bee_group":{"antennae":"B","wings":"X","pattern":"D","legs":"X"},"action":"avoid","summary":"bad-avoid","bonus":0.5000000000000007},{"rt":523,"stimulus":"\n                    <p><b>Action: <em>avoid</em></b></p>\n                    <p>This is the bee that you just saw.</p>\n                    <img src=\"bees-with-color/bee-A1DM.svg\" width=\"200\">\n                    <p><span class=\"redText\">Bad choice,</span> the bee was friendly.<br>Your bonus pay is unchanged, and remains at $0.26.</p>\n            ","response":0,"trial_type":"html-button-response","trial_index":92,"time_elapsed":187468,"internal_node_id":"0.0-4.0-1.42","subject_id":"5c2ad18570d93a000121ad4c","study_id":"6197b3f67c2b5cd3b6d9596a","session_id":"619be58fff58d980ad11bfc1","condition":"full-information","relevant_dimensions":["antennae","pattern"],"bee_group":{"antennae":"B","wings":"X","pattern":"D","legs":"X"},"bonus":0.5000000000000007},{"rt":773,"stimulus":"bees-with-color/bee-A2SM.svg","response":0,"trial_type":"image-button-response","trial_index":93,"time_elapsed":188242,"internal_node_id":"0.0-4.0-0.43","subject_id":"5c2ad18570d93a000121ad4c","study_id":"6197b3f67c2b5cd3b6d9596a","session_id":"619be58fff58d980ad11bfc1","condition":"full-information","relevant_dimensions":["antennae","pattern"],"bee_group":{"antennae":"B","wings":"X","pattern":"D","legs":"X"},"action":"harvest","summary":"good-harvest","bonus":0.5000000000000007},{"rt":532.0999999940395,"stimulus":"\n                    <p><b>Action: <em>harvest</em></b></p>\n                    <p>This is the bee that you just saw.</p>\n                    <img src=\"bees-with-color/bee-A2SM.svg\" width=\"200\">\n                    <p><span class=\"greenText\"><b>Successful harvest!</b></span><br>Your pay has increased by $0.02. Your bonus pay is now $0.28.</p>\n            ","response":0,"trial_type":"html-button-response","trial_index":94,"time_elapsed":188775,"internal_node_id":"0.0-4.0-1.43","subject_id":"5c2ad18570d93a000121ad4c","study_id":"6197b3f67c2b5cd3b6d9596a","session_id":"619be58fff58d980ad11bfc1","condition":"full-information","relevant_dimensions":["antennae","pattern"],"bee_group":{"antennae":"B","wings":"X","pattern":"D","legs":"X"},"bonus":0.5000000000000007},{"rt":905,"stimulus":"bees-with-color/bee-B2DM.svg","response":1,"trial_type":"image-button-response","trial_index":95,"time_elapsed":189681,"internal_node_id":"0.0-4.0-0.44","subject_id":"5c2ad18570d93a000121ad4c","study_id":"6197b3f67c2b5cd3b6d9596a","session_id":"619be58fff58d980ad11bfc1","condition":"full-information","relevant_dimensions":["antennae","pattern"],"bee_group":{"antennae":"B","wings":"X","pattern":"D","legs":"X"},"action":"avoid","summary":"good-avoid","bonus":0.5000000000000007},{"rt":506,"stimulus":"\n                    <p><b>Action: <em>avoid</em></b></p>\n                    <p>This is the bee that you just saw.</p>\n                    <img src=\"bees-with-color/bee-B2DM.svg\" width=\"200\">\n                    <p><span class=\"greenText\">Good choice!</span>  This bee would have stung you.<br>Your bonus pay is unchanged, and remains at $0.28.</p>\n            ","response":0,"trial_type":"html-button-response","trial_index":96,"time_elapsed":190188,"internal_node_id":"0.0-4.0-1.44","subject_id":"5c2ad18570d93a000121ad4c","study_id":"6197b3f67c2b5cd3b6d9596a","session_id":"619be58fff58d980ad11bfc1","condition":"full-information","relevant_dimensions":["antennae","pattern"],"bee_group":{"antennae":"B","wings":"X","pattern":"D","legs":"X"},"bonus":0.5000000000000007},{"rt":724.1999999880791,"stimulus":"bees-with-color/bee-A1SM.svg","response":0,"trial_type":"image-button-response","trial_index":97,"time_elapsed":190913,"internal_node_id":"0.0-4.0-0.45","subject_id":"5c2ad18570d93a000121ad4c","study_id":"6197b3f67c2b5cd3b6d9596a","session_id":"619be58fff58d980ad11bfc1","condition":"full-information","relevant_dimensions":["antennae","pattern"],"bee_group":{"antennae":"B","wings":"X","pattern":"D","legs":"X"},"action":"harvest","summary":"good-harvest","bonus":0.5000000000000007},{"rt":558.1999999880791,"stimulus":"\n                    <p><b>Action: <em>harvest</em></b></p>\n                    <p>This is the bee that you just saw.</p>\n                    <img src=\"bees-with-color/bee-A1SM.svg\" width=\"200\">\n                    <p><span class=\"greenText\"><b>Successful harvest!</b></span><br>Your pay has increased by $0.02. Your bonus pay is now $0.30.</p>\n            ","response":0,"trial_type":"html-button-response","trial_index":98,"time_elapsed":191472,"internal_node_id":"0.0-4.0-1.45","subject_id":"5c2ad18570d93a000121ad4c","study_id":"6197b3f67c2b5cd3b6d9596a","session_id":"619be58fff58d980ad11bfc1","condition":"full-information","relevant_dimensions":["antennae","pattern"],"bee_group":{"antennae":"B","wings":"X","pattern":"D","legs":"X"},"bonus":0.5000000000000007},{"rt":1236.9000000059605,"stimulus":"bees-with-color/bee-A1DF.svg","response":1,"trial_type":"image-button-response","trial_index":99,"time_elapsed":192710,"internal_node_id":"0.0-4.0-0.46","subject_id":"5c2ad18570d93a000121ad4c","study_id":"6197b3f67c2b5cd3b6d9596a","session_id":"619be58fff58d980ad11bfc1","condition":"full-information","relevant_dimensions":["antennae","pattern"],"bee_group":{"antennae":"B","wings":"X","pattern":"D","legs":"X"},"action":"avoid","summary":"bad-avoid","bonus":0.5000000000000007},{"rt":515.0999999940395,"stimulus":"\n                    <p><b>Action: <em>avoid</em></b></p>\n                    <p>This is the bee that you just saw.</p>\n                    <img src=\"bees-with-color/bee-A1DF.svg\" width=\"200\">\n                    <p><span class=\"redText\">Bad choice,</span> the bee was friendly.<br>Your bonus pay is unchanged, and remains at $0.30.</p>\n            ","response":0,"trial_type":"html-button-response","trial_index":100,"time_elapsed":193226,"internal_node_id":"0.0-4.0-1.46","subject_id":"5c2ad18570d93a000121ad4c","study_id":"6197b3f67c2b5cd3b6d9596a","session_id":"619be58fff58d980ad11bfc1","condition":"full-information","relevant_dimensions":["antennae","pattern"],"bee_group":{"antennae":"B","wings":"X","pattern":"D","legs":"X"},"bonus":0.5000000000000007},{"rt":851.1999999880791,"stimulus":"bees-with-color/bee-A2DM.svg","response":0,"trial_type":"image-button-response","trial_index":101,"time_elapsed":194078,"internal_node_id":"0.0-4.0-0.47","subject_id":"5c2ad18570d93a000121ad4c","study_id":"6197b3f67c2b5cd3b6d9596a","session_id":"619be58fff58d980ad11bfc1","condition":"full-information","relevant_dimensions":["antennae","pattern"],"bee_group":{"antennae":"B","wings":"X","pattern":"D","legs":"X"},"action":"harvest","summary":"good-harvest","bonus":0.5000000000000007},{"rt":531.9000000059605,"stimulus":"\n                    <p><b>Action: <em>harvest</em></b></p>\n                    <p>This is the bee that you just saw.</p>\n                    <img src=\"bees-with-color/bee-A2DM.svg\" width=\"200\">\n                    <p><span class=\"greenText\"><b>Successful harvest!</b></span><br>Your pay has increased by $0.02. Your bonus pay is now $0.32.</p>\n            ","response":0,"trial_type":"html-button-response","trial_index":102,"time_elapsed":194611,"internal_node_id":"0.0-4.0-1.47","subject_id":"5c2ad18570d93a000121ad4c","study_id":"6197b3f67c2b5cd3b6d9596a","session_id":"619be58fff58d980ad11bfc1","condition":"full-information","relevant_dimensions":["antennae","pattern"],"bee_group":{"antennae":"B","wings":"X","pattern":"D","legs":"X"},"bonus":0.5000000000000007},{"rt":662.6000000238419,"stimulus":"bees-with-color/bee-A1SM.svg","response":0,"trial_type":"image-button-response","trial_index":103,"time_elapsed":195274,"internal_node_id":"0.0-4.0-0.48","subject_id":"5c2ad18570d93a000121ad4c","study_id":"6197b3f67c2b5cd3b6d9596a","session_id":"619be58fff58d980ad11bfc1","condition":"full-information","relevant_dimensions":["antennae","pattern"],"bee_group":{"antennae":"B","wings":"X","pattern":"D","legs":"X"},"action":"harvest","summary":"good-harvest","bonus":0.5000000000000007},{"rt":506.69999998807907,"stimulus":"\n                    <p><b>Action: <em>harvest</em></b></p>\n                    <p>This is the bee that you just saw.</p>\n                    <img src=\"bees-with-color/bee-A1SM.svg\" width=\"200\">\n                    <p><span class=\"greenText\"><b>Successful harvest!</b></span><br>Your pay has increased by $0.02. Your bonus pay is now $0.34.</p>\n            ","response":0,"trial_type":"html-button-response","trial_index":104,"time_elapsed":195782,"internal_node_id":"0.0-4.0-1.48","subject_id":"5c2ad18570d93a000121ad4c","study_id":"6197b3f67c2b5cd3b6d9596a","session_id":"619be58fff58d980ad11bfc1","condition":"full-information","relevant_dimensions":["antennae","pattern"],"bee_group":{"antennae":"B","wings":"X","pattern":"D","legs":"X"},"bonus":0.5000000000000007},{"rt":744.1999999880791,"stimulus":"bees-with-color/bee-A1SF.svg","response":0,"trial_type":"image-button-response","trial_index":105,"time_elapsed":196527,"internal_node_id":"0.0-4.0-0.49","subject_id":"5c2ad18570d93a000121ad4c","study_id":"6197b3f67c2b5cd3b6d9596a","session_id":"619be58fff58d980ad11bfc1","condition":"full-information","relevant_dimensions":["antennae","pattern"],"bee_group":{"antennae":"B","wings":"X","pattern":"D","legs":"X"},"action":"harvest","summary":"good-harvest","bonus":0.5000000000000007},{"rt":441.69999998807907,"stimulus":"\n                    <p><b>Action: <em>harvest</em></b></p>\n                    <p>This is the bee that you just saw.</p>\n                    <img src=\"bees-with-color/bee-A1SF.svg\" width=\"200\">\n                    <p><span class=\"greenText\"><b>Successful harvest!</b></span><br>Your pay has increased by $0.02. Your bonus pay is now $0.36.</p>\n            ","response":0,"trial_type":"html-button-response","trial_index":106,"time_elapsed":196970,"internal_node_id":"0.0-4.0-1.49","subject_id":"5c2ad18570d93a000121ad4c","study_id":"6197b3f67c2b5cd3b6d9596a","session_id":"619be58fff58d980ad11bfc1","condition":"full-information","relevant_dimensions":["antennae","pattern"],"bee_group":{"antennae":"B","wings":"X","pattern":"D","legs":"X"},"bonus":0.5000000000000007},{"rt":1153.4000000059605,"stimulus":"bees-with-color/bee-B1SM.svg","response":1,"trial_type":"image-button-response","trial_index":107,"time_elapsed":198124,"internal_node_id":"0.0-4.0-0.50","subject_id":"5c2ad18570d93a000121ad4c","study_id":"6197b3f67c2b5cd3b6d9596a","session_id":"619be58fff58d980ad11bfc1","condition":"full-information","relevant_dimensions":["antennae","pattern"],"bee_group":{"antennae":"B","wings":"X","pattern":"D","legs":"X"},"action":"avoid","summary":"bad-avoid","bonus":0.5000000000000007},{"rt":579.2999999821186,"stimulus":"\n                    <p><b>Action: <em>avoid</em></b></p>\n                    <p>This is the bee that you just saw.</p>\n                    <img src=\"bees-with-color/bee-B1SM.svg\" width=\"200\">\n                    <p><span class=\"redText\">Bad choice,</span> the bee was friendly.<br>Your bonus pay is unchanged, and remains at $0.36.</p>\n            ","response":0,"trial_type":"html-button-response","trial_index":108,"time_elapsed":198704,"internal_node_id":"0.0-4.0-1.50","subject_id":"5c2ad18570d93a000121ad4c","study_id":"6197b3f67c2b5cd3b6d9596a","session_id":"619be58fff58d980ad11bfc1","condition":"full-information","relevant_dimensions":["antennae","pattern"],"bee_group":{"antennae":"B","wings":"X","pattern":"D","legs":"X"},"bonus":0.5000000000000007},{"rt":923.0999999940395,"stimulus":"bees-with-color/bee-A2DM.svg","response":1,"trial_type":"image-button-response","trial_index":109,"time_elapsed":199628,"internal_node_id":"0.0-4.0-0.51","subject_id":"5c2ad18570d93a000121ad4c","study_id":"6197b3f67c2b5cd3b6d9596a","session_id":"619be58fff58d980ad11bfc1","condition":"full-information","relevant_dimensions":["antennae","pattern"],"bee_group":{"antennae":"B","wings":"X","pattern":"D","legs":"X"},"action":"avoid","summary":"bad-avoid","bonus":0.5000000000000007},{"rt":350,"stimulus":"\n                    <p><b>Action: <em>avoid</em></b></p>\n                    <p>This is the bee that you just saw.</p>\n                    <img src=\"bees-with-color/bee-A2DM.svg\" width=\"200\">\n                    <p><span class=\"redText\">Bad choice,</span> the bee was friendly.<br>Your bonus pay is unchanged, and remains at $0.36.</p>\n            ","response":0,"trial_type":"html-button-response","trial_index":110,"time_elapsed":199979,"internal_node_id":"0.0-4.0-1.51","subject_id":"5c2ad18570d93a000121ad4c","study_id":"6197b3f67c2b5cd3b6d9596a","session_id":"619be58fff58d980ad11bfc1","condition":"full-information","relevant_dimensions":["antennae","pattern"],"bee_group":{"antennae":"B","wings":"X","pattern":"D","legs":"X"},"bonus":0.5000000000000007},{"rt":633,"stimulus":"bees-with-color/bee-A2SF.svg","response":0,"trial_type":"image-button-response","trial_index":111,"time_elapsed":200613,"internal_node_id":"0.0-4.0-0.52","subject_id":"5c2ad18570d93a000121ad4c","study_id":"6197b3f67c2b5cd3b6d9596a","session_id":"619be58fff58d980ad11bfc1","condition":"full-information","relevant_dimensions":["antennae","pattern"],"bee_group":{"antennae":"B","wings":"X","pattern":"D","legs":"X"},"action":"harvest","summary":"good-harvest","bonus":0.5000000000000007},{"rt":471,"stimulus":"\n                    <p><b>Action: <em>harvest</em></b></p>\n                    <p>This is the bee that you just saw.</p>\n                    <img src=\"bees-with-color/bee-A2SF.svg\" width=\"200\">\n                    <p><span class=\"greenText\"><b>Successful harvest!</b></span><br>Your pay has increased by $0.02. Your bonus pay is now $0.38.</p>\n            ","response":0,"trial_type":"html-button-response","trial_index":112,"time_elapsed":201085,"internal_node_id":"0.0-4.0-1.52","subject_id":"5c2ad18570d93a000121ad4c","study_id":"6197b3f67c2b5cd3b6d9596a","session_id":"619be58fff58d980ad11bfc1","condition":"full-information","relevant_dimensions":["antennae","pattern"],"bee_group":{"antennae":"B","wings":"X","pattern":"D","legs":"X"},"bonus":0.5000000000000007},{"rt":935.0999999940395,"stimulus":"bees-with-color/bee-A2DF.svg","response":1,"trial_type":"image-button-response","trial_index":113,"time_elapsed":202021,"internal_node_id":"0.0-4.0-0.53","subject_id":"5c2ad18570d93a000121ad4c","study_id":"6197b3f67c2b5cd3b6d9596a","session_id":"619be58fff58d980ad11bfc1","condition":"full-information","relevant_dimensions":["antennae","pattern"],"bee_group":{"antennae":"B","wings":"X","pattern":"D","legs":"X"},"action":"avoid","summary":"bad-avoid","bonus":0.5000000000000007},{"rt":590.0999999940395,"stimulus":"\n                    <p><b>Action: <em>avoid</em></b></p>\n                    <p>This is the bee that you just saw.</p>\n                    <img src=\"bees-with-color/bee-A2DF.svg\" width=\"200\">\n                    <p><span class=\"redText\">Bad choice,</span> the bee was friendly.<br>Your bonus pay is unchanged, and remains at $0.38.</p>\n            ","response":0,"trial_type":"html-button-response","trial_index":114,"time_elapsed":202612,"internal_node_id":"0.0-4.0-1.53","subject_id":"5c2ad18570d93a000121ad4c","study_id":"6197b3f67c2b5cd3b6d9596a","session_id":"619be58fff58d980ad11bfc1","condition":"full-information","relevant_dimensions":["antennae","pattern"],"bee_group":{"antennae":"B","wings":"X","pattern":"D","legs":"X"},"bonus":0.5000000000000007},{"rt":789,"stimulus":"bees-with-color/bee-B1DM.svg","response":0,"trial_type":"image-button-response","trial_index":115,"time_elapsed":203402,"internal_node_id":"0.0-4.0-0.54","subject_id":"5c2ad18570d93a000121ad4c","study_id":"6197b3f67c2b5cd3b6d9596a","session_id":"619be58fff58d980ad11bfc1","condition":"full-information","relevant_dimensions":["antennae","pattern"],"bee_group":{"antennae":"B","wings":"X","pattern":"D","legs":"X"},"action":"harvest","summary":"bad-harvest","bonus":0.5000000000000007},{"rt":641.5999999940395,"stimulus":"\n                    <p><b>Action: <em>harvest</em></b></p>\n                    <p>This is the bee that you just saw.</p>\n                    <img src=\"bees-with-color/bee-B1DM.svg\" width=\"200\">\n                    <p><span class=\"redText\">Bad choice, the bee was angry.</span><br><b>You have been stung!</b><br>Your pay has been decreased by $0.10. Your bonus pay is now $0.28.</p>\n            ","response":0,"trial_type":"html-button-response","trial_index":116,"time_elapsed":204045,"internal_node_id":"0.0-4.0-1.54","subject_id":"5c2ad18570d93a000121ad4c","study_id":"6197b3f67c2b5cd3b6d9596a","session_id":"619be58fff58d980ad11bfc1","condition":"full-information","relevant_dimensions":["antennae","pattern"],"bee_group":{"antennae":"B","wings":"X","pattern":"D","legs":"X"},"bonus":0.5000000000000007},{"rt":531.1999999880791,"stimulus":"bees-with-color/bee-B1DF.svg","response":0,"trial_type":"image-button-response","trial_index":117,"time_elapsed":204577,"internal_node_id":"0.0-4.0-0.55","subject_id":"5c2ad18570d93a000121ad4c","study_id":"6197b3f67c2b5cd3b6d9596a","session_id":"619be58fff58d980ad11bfc1","condition":"full-information","relevant_dimensions":["antennae","pattern"],"bee_group":{"antennae":"B","wings":"X","pattern":"D","legs":"X"},"action":"harvest","summary":"bad-harvest","bonus":0.5000000000000007},{"rt":534.1999999880791,"stimulus":"\n                    <p><b>Action: <em>harvest</em></b></p>\n                    <p>This is the bee that you just saw.</p>\n                    <img src=\"bees-with-color/bee-B1DF.svg\" width=\"200\">\n                    <p><span class=\"redText\">Bad choice, the bee was angry.</span><br><b>You have been stung!</b><br>Your pay has been decreased by $0.10. Your bonus pay is now $0.18.</p>\n            ","response":0,"trial_type":"html-button-response","trial_index":118,"time_elapsed":205112,"internal_node_id":"0.0-4.0-1.55","subject_id":"5c2ad18570d93a000121ad4c","study_id":"6197b3f67c2b5cd3b6d9596a","session_id":"619be58fff58d980ad11bfc1","condition":"full-information","relevant_dimensions":["antennae","pattern"],"bee_group":{"antennae":"B","wings":"X","pattern":"D","legs":"X"},"bonus":0.5000000000000007},{"rt":646.1999999880791,"stimulus":"bees-with-color/bee-B2DM.svg","response":0,"trial_type":"image-button-response","trial_index":119,"time_elapsed":205759,"internal_node_id":"0.0-4.0-0.56","subject_id":"5c2ad18570d93a000121ad4c","study_id":"6197b3f67c2b5cd3b6d9596a","session_id":"619be58fff58d980ad11bfc1","condition":"full-information","relevant_dimensions":["antennae","pattern"],"bee_group":{"antennae":"B","wings":"X","pattern":"D","legs":"X"},"action":"harvest","summary":"bad-harvest","bonus":0.5000000000000007},{"rt":966,"stimulus":"\n                    <p><b>Action: <em>harvest</em></b></p>\n                    <p>This is the bee that you just saw.</p>\n                    <img src=\"bees-with-color/bee-B2DM.svg\" width=\"200\">\n                    <p><span class=\"redText\">Bad choice, the bee was angry.</span><br><b>You have been stung!</b><br>Your pay has been decreased by $0.10. Your bonus pay is now $0.08.</p>\n            ","response":0,"trial_type":"html-button-response","trial_index":120,"time_elapsed":206726,"internal_node_id":"0.0-4.0-1.56","subject_id":"5c2ad18570d93a000121ad4c","study_id":"6197b3f67c2b5cd3b6d9596a","session_id":"619be58fff58d980ad11bfc1","condition":"full-information","relevant_dimensions":["antennae","pattern"],"bee_group":{"antennae":"B","wings":"X","pattern":"D","legs":"X"},"bonus":0.5000000000000007},{"rt":1092.300000011921,"stimulus":"bees-with-color/bee-A1DF.svg","response":1,"trial_type":"image-button-response","trial_index":121,"time_elapsed":207819,"internal_node_id":"0.0-4.0-0.57","subject_id":"5c2ad18570d93a000121ad4c","study_id":"6197b3f67c2b5cd3b6d9596a","session_id":"619be58fff58d980ad11bfc1","condition":"full-information","relevant_dimensions":["antennae","pattern"],"bee_group":{"antennae":"B","wings":"X","pattern":"D","legs":"X"},"action":"avoid","summary":"bad-avoid","bonus":0.5000000000000007},{"rt":470.90000000596046,"stimulus":"\n                    <p><b>Action: <em>avoid</em></b></p>\n                    <p>This is the bee that you just saw.</p>\n                    <img src=\"bees-with-color/bee-A1DF.svg\" width=\"200\">\n                    <p><span class=\"redText\">Bad choice,</span> the bee was friendly.<br>Your bonus pay is unchanged, and remains at $0.08.</p>\n            ","response":0,"trial_type":"html-button-response","trial_index":122,"time_elapsed":208291,"internal_node_id":"0.0-4.0-1.57","subject_id":"5c2ad18570d93a000121ad4c","study_id":"6197b3f67c2b5cd3b6d9596a","session_id":"619be58fff58d980ad11bfc1","condition":"full-information","relevant_dimensions":["antennae","pattern"],"bee_group":{"antennae":"B","wings":"X","pattern":"D","legs":"X"},"bonus":0.5000000000000007},{"rt":623.1999999880791,"stimulus":"bees-with-color/bee-B1SF.svg","response":0,"trial_type":"image-button-response","trial_index":123,"time_elapsed":208915,"internal_node_id":"0.0-4.0-0.58","subject_id":"5c2ad18570d93a000121ad4c","study_id":"6197b3f67c2b5cd3b6d9596a","session_id":"619be58fff58d980ad11bfc1","condition":"full-information","relevant_dimensions":["antennae","pattern"],"bee_group":{"antennae":"B","wings":"X","pattern":"D","legs":"X"},"action":"harvest","summary":"good-harvest","bonus":0.5000000000000007},{"rt":401,"stimulus":"\n                    <p><b>Action: <em>harvest</em></b></p>\n                    <p>This is the bee that you just saw.</p>\n                    <img src=\"bees-with-color/bee-B1SF.svg\" width=\"200\">\n                    <p><span class=\"greenText\"><b>Successful harvest!</b></span><br>Your pay has increased by $0.02. Your bonus pay is now $0.10.</p>\n            ","response":0,"trial_type":"html-button-response","trial_index":124,"time_elapsed":209317,"internal_node_id":"0.0-4.0-1.58","subject_id":"5c2ad18570d93a000121ad4c","study_id":"6197b3f67c2b5cd3b6d9596a","session_id":"619be58fff58d980ad11bfc1","condition":"full-information","relevant_dimensions":["antennae","pattern"],"bee_group":{"antennae":"B","wings":"X","pattern":"D","legs":"X"},"bonus":0.5000000000000007},{"rt":802.1999999880791,"stimulus":"bees-with-color/bee-B2SF.svg","response":0,"trial_type":"image-button-response","trial_index":125,"time_elapsed":210120,"internal_node_id":"0.0-4.0-0.59","subject_id":"5c2ad18570d93a000121ad4c","study_id":"6197b3f67c2b5cd3b6d9596a","session_id":"619be58fff58d980ad11bfc1","condition":"full-information","relevant_dimensions":["antennae","pattern"],"bee_group":{"antennae":"B","wings":"X","pattern":"D","legs":"X"},"action":"harvest","summary":"good-harvest","bonus":0.5000000000000007},{"rt":370,"stimulus":"\n                    <p><b>Action: <em>harvest</em></b></p>\n                    <p>This is the bee that you just saw.</p>\n                    <img src=\"bees-with-color/bee-B2SF.svg\" width=\"200\">\n                    <p><span class=\"greenText\"><b>Successful harvest!</b></span><br>Your pay has increased by $0.02. Your bonus pay is now $0.12.</p>\n            ","response":0,"trial_type":"html-button-response","trial_index":126,"time_elapsed":210491,"internal_node_id":"0.0-4.0-1.59","subject_id":"5c2ad18570d93a000121ad4c","study_id":"6197b3f67c2b5cd3b6d9596a","session_id":"619be58fff58d980ad11bfc1","condition":"full-information","relevant_dimensions":["antennae","pattern"],"bee_group":{"antennae":"B","wings":"X","pattern":"D","legs":"X"},"bonus":0.5000000000000007},{"rt":944,"stimulus":"bees-with-color/bee-A1DM.svg","response":0,"trial_type":"image-button-response","trial_index":127,"time_elapsed":211436,"internal_node_id":"0.0-4.0-0.60","subject_id":"5c2ad18570d93a000121ad4c","study_id":"6197b3f67c2b5cd3b6d9596a","session_id":"619be58fff58d980ad11bfc1","condition":"full-information","relevant_dimensions":["antennae","pattern"],"bee_group":{"antennae":"B","wings":"X","pattern":"D","legs":"X"},"action":"harvest","summary":"good-harvest","bonus":0.5000000000000007},{"rt":537.1999999880791,"stimulus":"\n                    <p><b>Action: <em>harvest</em></b></p>\n                    <p>This is the bee that you just saw.</p>\n                    <img src=\"bees-with-color/bee-A1DM.svg\" width=\"200\">\n                    <p><span class=\"greenText\"><b>Successful harvest!</b></span><br>Your pay has increased by $0.02. Your bonus pay is now $0.14.</p>\n            ","response":0,"trial_type":"html-button-response","trial_index":128,"time_elapsed":211974,"internal_node_id":"0.0-4.0-1.60","subject_id":"5c2ad18570d93a000121ad4c","study_id":"6197b3f67c2b5cd3b6d9596a","session_id":"619be58fff58d980ad11bfc1","condition":"full-information","relevant_dimensions":["antennae","pattern"],"bee_group":{"antennae":"B","wings":"X","pattern":"D","legs":"X"},"bonus":0.5000000000000007},{"rt":1371.2999999821186,"stimulus":"bees-with-color/bee-B2DF.svg","response":1,"trial_type":"image-button-response","trial_index":129,"time_elapsed":213346,"internal_node_id":"0.0-4.0-0.61","subject_id":"5c2ad18570d93a000121ad4c","study_id":"6197b3f67c2b5cd3b6d9596a","session_id":"619be58fff58d980ad11bfc1","condition":"full-information","relevant_dimensions":["antennae","pattern"],"bee_group":{"antennae":"B","wings":"X","pattern":"D","legs":"X"},"action":"avoid","summary":"good-avoid","bonus":0.5000000000000007},{"rt":510.09999999403954,"stimulus":"\n                    <p><b>Action: <em>avoid</em></b></p>\n                    <p>This is the bee that you just saw.</p>\n                    <img src=\"bees-with-color/bee-B2DF.svg\" width=\"200\">\n                    <p><span class=\"greenText\">Good choice!</span>  This bee would have stung you.<br>Your bonus pay is unchanged, and remains at $0.14.</p>\n            ","response":0,"trial_type":"html-button-response","trial_index":130,"time_elapsed":213857,"internal_node_id":"0.0-4.0-1.61","subject_id":"5c2ad18570d93a000121ad4c","study_id":"6197b3f67c2b5cd3b6d9596a","session_id":"619be58fff58d980ad11bfc1","condition":"full-information","relevant_dimensions":["antennae","pattern"],"bee_group":{"antennae":"B","wings":"X","pattern":"D","legs":"X"},"bonus":0.5000000000000007},{"rt":718.1999999880791,"stimulus":"bees-with-color/bee-A2SM.svg","response":0,"trial_type":"image-button-response","trial_index":131,"time_elapsed":214576,"internal_node_id":"0.0-4.0-0.62","subject_id":"5c2ad18570d93a000121ad4c","study_id":"6197b3f67c2b5cd3b6d9596a","session_id":"619be58fff58d980ad11bfc1","condition":"full-information","relevant_dimensions":["antennae","pattern"],"bee_group":{"antennae":"B","wings":"X","pattern":"D","legs":"X"},"action":"harvest","summary":"good-harvest","bonus":0.5000000000000007},{"rt":446.80000001192093,"stimulus":"\n                    <p><b>Action: <em>harvest</em></b></p>\n                    <p>This is the bee that you just saw.</p>\n                    <img src=\"bees-with-color/bee-A2SM.svg\" width=\"200\">\n                    <p><span class=\"greenText\"><b>Successful harvest!</b></span><br>Your pay has increased by $0.02. Your bonus pay is now $0.16.</p>\n            ","response":0,"trial_type":"html-button-response","trial_index":132,"time_elapsed":215024,"internal_node_id":"0.0-4.0-1.62","subject_id":"5c2ad18570d93a000121ad4c","study_id":"6197b3f67c2b5cd3b6d9596a","session_id":"619be58fff58d980ad11bfc1","condition":"full-information","relevant_dimensions":["antennae","pattern"],"bee_group":{"antennae":"B","wings":"X","pattern":"D","legs":"X"},"bonus":0.5000000000000007},{"rt":537.3000000119209,"stimulus":"bees-with-color/bee-B2SM.svg","response":0,"trial_type":"image-button-response","trial_index":133,"time_elapsed":215562,"internal_node_id":"0.0-4.0-0.63","subject_id":"5c2ad18570d93a000121ad4c","study_id":"6197b3f67c2b5cd3b6d9596a","session_id":"619be58fff58d980ad11bfc1","condition":"full-information","relevant_dimensions":["antennae","pattern"],"bee_group":{"antennae":"B","wings":"X","pattern":"D","legs":"X"},"action":"harvest","summary":"good-harvest","bonus":0.5000000000000007},{"rt":418.19999998807907,"stimulus":"\n                    <p><b>Action: <em>harvest</em></b></p>\n                    <p>This is the bee that you just saw.</p>\n                    <img src=\"bees-with-color/bee-B2SM.svg\" width=\"200\">\n                    <p><span class=\"greenText\"><b>Successful harvest!</b></span><br>Your pay has increased by $0.02. Your bonus pay is now $0.18.</p>\n            ","response":0,"trial_type":"html-button-response","trial_index":134,"time_elapsed":215981,"internal_node_id":"0.0-4.0-1.63","subject_id":"5c2ad18570d93a000121ad4c","study_id":"6197b3f67c2b5cd3b6d9596a","session_id":"619be58fff58d980ad11bfc1","condition":"full-information","relevant_dimensions":["antennae","pattern"],"bee_group":{"antennae":"B","wings":"X","pattern":"D","legs":"X"},"bonus":0.5000000000000007},{"rt":4193.300000011921,"stimulus":"You have completed the first part of this experiment.<br><br>You will now begin a shorter second part, in which you will receive no feedback.<br>The same rules regarding bonus pay apply.<br><br>Press any key to begin.","response":"arrowright","trial_type":"html-keyboard-response","trial_index":135,"time_elapsed":220175,"internal_node_id":"0.0-5.0","subject_id":"5c2ad18570d93a000121ad4c","study_id":"6197b3f67c2b5cd3b6d9596a","session_id":"619be58fff58d980ad11bfc1","condition":"full-information","relevant_dimensions":["antennae","pattern"],"bee_group":{"antennae":"B","wings":"X","pattern":"D","legs":"X"},"bonus":0.5000000000000007},{"rt":2741,"stimulus":"bees-with-color/bee-B2DF.svg","response":1,"trial_type":"image-button-response","trial_index":136,"time_elapsed":222925,"internal_node_id":"0.0-6.0-0.0","subject_id":"5c2ad18570d93a000121ad4c","study_id":"6197b3f67c2b5cd3b6d9596a","session_id":"619be58fff58d980ad11bfc1","condition":"full-information","relevant_dimensions":["antennae","pattern"],"bee_group":{"antennae":"B","wings":"X","pattern":"D","legs":"X"},"bonus":0.5000000000000007},{"rt":2283.800000011921,"stimulus":"bees-with-color/bee-B2SM.svg","response":0,"trial_type":"image-button-response","trial_index":137,"time_elapsed":225210,"internal_node_id":"0.0-6.0-0.1","subject_id":"5c2ad18570d93a000121ad4c","study_id":"6197b3f67c2b5cd3b6d9596a","session_id":"619be58fff58d980ad11bfc1","condition":"full-information","relevant_dimensions":["antennae","pattern"],"bee_group":{"antennae":"B","wings":"X","pattern":"D","legs":"X"},"bonus":0.5000000000000007},{"rt":1381.5,"stimulus":"bees-with-color/bee-A1SM.svg","response":0,"trial_type":"image-button-response","trial_index":138,"time_elapsed":226593,"internal_node_id":"0.0-6.0-0.2","subject_id":"5c2ad18570d93a000121ad4c","study_id":"6197b3f67c2b5cd3b6d9596a","session_id":"619be58fff58d980ad11bfc1","condition":"full-information","relevant_dimensions":["antennae","pattern"],"bee_group":{"antennae":"B","wings":"X","pattern":"D","legs":"X"},"bonus":0.5000000000000007},{"rt":2897,"stimulus":"bees-with-color/bee-A2DM.svg","response":0,"trial_type":"image-button-response","trial_index":139,"time_elapsed":229491,"internal_node_id":"0.0-6.0-0.3","subject_id":"5c2ad18570d93a000121ad4c","study_id":"6197b3f67c2b5cd3b6d9596a","session_id":"619be58fff58d980ad11bfc1","condition":"full-information","relevant_dimensions":["antennae","pattern"],"bee_group":{"antennae":"B","wings":"X","pattern":"D","legs":"X"},"bonus":0.5000000000000007},{"rt":1788.5999999940395,"stimulus":"bees-with-color/bee-A1DF.svg","response":1,"trial_type":"image-button-response","trial_index":140,"time_elapsed":231281,"internal_node_id":"0.0-6.0-0.4","subject_id":"5c2ad18570d93a000121ad4c","study_id":"6197b3f67c2b5cd3b6d9596a","session_id":"619be58fff58d980ad11bfc1","condition":"full-information","relevant_dimensions":["antennae","pattern"],"bee_group":{"antennae":"B","wings":"X","pattern":"D","legs":"X"},"bonus":0.5000000000000007},{"rt":1169.800000011921,"stimulus":"bees-with-color/bee-B1DF.svg","response":1,"trial_type":"image-button-response","trial_index":141,"time_elapsed":232452,"internal_node_id":"0.0-6.0-0.5","subject_id":"5c2ad18570d93a000121ad4c","study_id":"6197b3f67c2b5cd3b6d9596a","session_id":"619be58fff58d980ad11bfc1","condition":"full-information","relevant_dimensions":["antennae","pattern"],"bee_group":{"antennae":"B","wings":"X","pattern":"D","legs":"X"},"bonus":0.5000000000000007},{"rt":969.9000000059605,"stimulus":"bees-with-color/bee-A1SF.svg","response":0,"trial_type":"image-button-response","trial_index":142,"time_elapsed":233423,"internal_node_id":"0.0-6.0-0.6","subject_id":"5c2ad18570d93a000121ad4c","study_id":"6197b3f67c2b5cd3b6d9596a","session_id":"619be58fff58d980ad11bfc1","condition":"full-information","relevant_dimensions":["antennae","pattern"],"bee_group":{"antennae":"B","wings":"X","pattern":"D","legs":"X"},"bonus":0.5000000000000007},{"rt":3297.9000000059605,"stimulus":"bees-with-color/bee-B1SF.svg","response":0,"trial_type":"image-button-response","trial_index":143,"time_elapsed":236722,"internal_node_id":"0.0-6.0-0.7","subject_id":"5c2ad18570d93a000121ad4c","study_id":"6197b3f67c2b5cd3b6d9596a","session_id":"619be58fff58d980ad11bfc1","condition":"full-information","relevant_dimensions":["antennae","pattern"],"bee_group":{"antennae":"B","wings":"X","pattern":"D","legs":"X"},"bonus":0.5000000000000007},{"rt":1279.5999999940395,"stimulus":"bees-with-color/bee-A2DF.svg","response":1,"trial_type":"image-button-response","trial_index":144,"time_elapsed":238003,"internal_node_id":"0.0-6.0-0.8","subject_id":"5c2ad18570d93a000121ad4c","study_id":"6197b3f67c2b5cd3b6d9596a","session_id":"619be58fff58d980ad11bfc1","condition":"full-information","relevant_dimensions":["antennae","pattern"],"bee_group":{"antennae":"B","wings":"X","pattern":"D","legs":"X"},"bonus":0.5000000000000007},{"rt":950.9000000059605,"stimulus":"bees-with-color/bee-A2SF.svg","response":0,"trial_type":"image-button-response","trial_index":145,"time_elapsed":238955,"internal_node_id":"0.0-6.0-0.9","subject_id":"5c2ad18570d93a000121ad4c","study_id":"6197b3f67c2b5cd3b6d9596a","session_id":"619be58fff58d980ad11bfc1","condition":"full-information","relevant_dimensions":["antennae","pattern"],"bee_group":{"antennae":"B","wings":"X","pattern":"D","legs":"X"},"bonus":0.5000000000000007},{"rt":2165.5999999940395,"stimulus":"bees-with-color/bee-A2SM.svg","response":0,"trial_type":"image-button-response","trial_index":146,"time_elapsed":241122,"internal_node_id":"0.0-6.0-0.10","subject_id":"5c2ad18570d93a000121ad4c","study_id":"6197b3f67c2b5cd3b6d9596a","session_id":"619be58fff58d980ad11bfc1","condition":"full-information","relevant_dimensions":["antennae","pattern"],"bee_group":{"antennae":"B","wings":"X","pattern":"D","legs":"X"},"bonus":0.5000000000000007},{"rt":1327.7000000178814,"stimulus":"bees-with-color/bee-B1SM.svg","response":1,"trial_type":"image-button-response","trial_index":147,"time_elapsed":242451,"internal_node_id":"0.0-6.0-0.11","subject_id":"5c2ad18570d93a000121ad4c","study_id":"6197b3f67c2b5cd3b6d9596a","session_id":"619be58fff58d980ad11bfc1","condition":"full-information","relevant_dimensions":["antennae","pattern"],"bee_group":{"antennae":"B","wings":"X","pattern":"D","legs":"X"},"bonus":0.5000000000000007},{"rt":1282.800000011921,"stimulus":"bees-with-color/bee-B2DM.svg","response":1,"trial_type":"image-button-response","trial_index":148,"time_elapsed":243735,"internal_node_id":"0.0-6.0-0.12","subject_id":"5c2ad18570d93a000121ad4c","study_id":"6197b3f67c2b5cd3b6d9596a","session_id":"619be58fff58d980ad11bfc1","condition":"full-information","relevant_dimensions":["antennae","pattern"],"bee_group":{"antennae":"B","wings":"X","pattern":"D","legs":"X"},"bonus":0.5000000000000007},{"rt":2105.5,"stimulus":"bees-with-color/bee-A1DM.svg","response":1,"trial_type":"image-button-response","trial_index":149,"time_elapsed":245842,"internal_node_id":"0.0-6.0-0.13","subject_id":"5c2ad18570d93a000121ad4c","study_id":"6197b3f67c2b5cd3b6d9596a","session_id":"619be58fff58d980ad11bfc1","condition":"full-information","relevant_dimensions":["antennae","pattern"],"bee_group":{"antennae":"B","wings":"X","pattern":"D","legs":"X"},"bonus":0.5000000000000007},{"rt":1098,"stimulus":"bees-with-color/bee-B2SF.svg","response":0,"trial_type":"image-button-response","trial_index":150,"time_elapsed":246941,"internal_node_id":"0.0-6.0-0.14","subject_id":"5c2ad18570d93a000121ad4c","study_id":"6197b3f67c2b5cd3b6d9596a","session_id":"619be58fff58d980ad11bfc1","condition":"full-information","relevant_dimensions":["antennae","pattern"],"bee_group":{"antennae":"B","wings":"X","pattern":"D","legs":"X"},"bonus":0.5000000000000007},{"rt":867.7000000178814,"stimulus":"bees-with-color/bee-B1DM.svg","response":1,"trial_type":"image-button-response","trial_index":151,"time_elapsed":247810,"internal_node_id":"0.0-6.0-0.15","subject_id":"5c2ad18570d93a000121ad4c","study_id":"6197b3f67c2b5cd3b6d9596a","session_id":"619be58fff58d980ad11bfc1","condition":"full-information","relevant_dimensions":["antennae","pattern"],"bee_group":{"antennae":"B","wings":"X","pattern":"D","legs":"X"},"bonus":0.5000000000000007},{"rt":943.0999999940395,"stimulus":"bees-with-color/bee-B1SF.svg","response":0,"trial_type":"image-button-response","trial_index":152,"time_elapsed":248754,"internal_node_id":"0.0-6.0-0.16","subject_id":"5c2ad18570d93a000121ad4c","study_id":"6197b3f67c2b5cd3b6d9596a","session_id":"619be58fff58d980ad11bfc1","condition":"full-information","relevant_dimensions":["antennae","pattern"],"bee_group":{"antennae":"B","wings":"X","pattern":"D","legs":"X"},"bonus":0.5000000000000007},{"rt":761.7000000178814,"stimulus":"bees-with-color/bee-A2DF.svg","response":1,"trial_type":"image-button-response","trial_index":153,"time_elapsed":249517,"internal_node_id":"0.0-6.0-0.17","subject_id":"5c2ad18570d93a000121ad4c","study_id":"6197b3f67c2b5cd3b6d9596a","session_id":"619be58fff58d980ad11bfc1","condition":"full-information","relevant_dimensions":["antennae","pattern"],"bee_group":{"antennae":"B","wings":"X","pattern":"D","legs":"X"},"bonus":0.5000000000000007},{"rt":1053.9000000059605,"stimulus":"bees-with-color/bee-B1SM.svg","response":0,"trial_type":"image-button-response","trial_index":154,"time_elapsed":250572,"internal_node_id":"0.0-6.0-0.18","subject_id":"5c2ad18570d93a000121ad4c","study_id":"6197b3f67c2b5cd3b6d9596a","session_id":"619be58fff58d980ad11bfc1","condition":"full-information","relevant_dimensions":["antennae","pattern"],"bee_group":{"antennae":"B","wings":"X","pattern":"D","legs":"X"},"bonus":0.5000000000000007},{"rt":1663.800000011921,"stimulus":"bees-with-color/bee-A1SF.svg","response":0,"trial_type":"image-button-response","trial_index":155,"time_elapsed":252237,"internal_node_id":"0.0-6.0-0.19","subject_id":"5c2ad18570d93a000121ad4c","study_id":"6197b3f67c2b5cd3b6d9596a","session_id":"619be58fff58d980ad11bfc1","condition":"full-information","relevant_dimensions":["antennae","pattern"],"bee_group":{"antennae":"B","wings":"X","pattern":"D","legs":"X"},"bonus":0.5000000000000007},{"rt":945.5,"stimulus":"bees-with-color/bee-B1DF.svg","response":1,"trial_type":"image-button-response","trial_index":156,"time_elapsed":253184,"internal_node_id":"0.0-6.0-0.20","subject_id":"5c2ad18570d93a000121ad4c","study_id":"6197b3f67c2b5cd3b6d9596a","session_id":"619be58fff58d980ad11bfc1","condition":"full-information","relevant_dimensions":["antennae","pattern"],"bee_group":{