[{"success":true,"trial_type":"fullscreen","trial_index":0,"time_elapsed":6046,"internal_node_id":"0.0-0.0","subject_id":"602fb33786b077cdbad2d5bb","study_id":"6197b3f67c2b5cd3b6d9596a","session_id":"619bfbdef70cb2f6bd34076a","condition":"full-information","relevant_dimensions":["wings","legs"],"bee_group":{"antennae":"X","wings":"2","pattern":"X","legs":"M"},"bonus":1.1800000000000006},{"success":true,"timeout":false,"failed_images":[],"failed_audio":[],"failed_video":[],"trial_type":"preload","trial_index":1,"time_elapsed":7935,"internal_node_id":"0.0-1.0","subject_id":"602fb33786b077cdbad2d5bb","study_id":"6197b3f67c2b5cd3b6d9596a","session_id":"619bfbdef70cb2f6bd34076a","condition":"full-information","relevant_dimensions":["wings","legs"],"bee_group":{"antennae":"X","wings":"2","pattern":"X","legs":"M"},"bonus":1.1800000000000006},{"rt":2716,"stimulus":"Welcome! Press any key to begin.","response":" ","trial_type":"html-keyboard-response","trial_index":2,"time_elapsed":10653,"internal_node_id":"0.0-2.0","subject_id":"602fb33786b077cdbad2d5bb","study_id":"6197b3f67c2b5cd3b6d9596a","session_id":"619bfbdef70cb2f6bd34076a","condition":"full-information","relevant_dimensions":["wings","legs"],"bee_group":{"antennae":"X","wings":"2","pattern":"X","legs":"M"},"bonus":1.1800000000000006},{"view_history":[{"page_index":0,"viewing_time":5853},{"page_index":1,"viewing_time":30184},{"page_index":2,"viewing_time":31303},{"page_index":3,"viewing_time":22016},{"page_index":4,"viewing_time":26353},{"page_index":5,"viewing_time":21022},{"page_index":6,"viewing_time":46809},{"page_index":7,"viewing_time":10263},{"page_index":8,"viewing_time":16497},{"page_index":9,"viewing_time":10152},{"page_index":10,"viewing_time":8383},{"page_index":11,"viewing_time":14736},{"page_index":12,"viewing_time":34968},{"page_index":13,"viewing_time":33456},{"page_index":14,"viewing_time":5704}],"rt":317699,"trial_type":"instructions","trial_index":3,"time_elapsed":328354,"internal_node_id":"0.0-3.0-0.0","subject_id":"602fb33786b077cdbad2d5bb","study_id":"6197b3f67c2b5cd3b6d9596a","session_id":"619bfbdef70cb2f6bd34076a","condition":"full-information","relevant_dimensions":["wings","legs"],"bee_group":{"antennae":"X","wings":"2","pattern":"X","legs":"M"},"bonus":1.1800000000000006},{"rt":22578,"response":{"Q0":["Two or six legs","Stripes or spots on body","Single or double wings","Antennae or no antennae"]},"question_order":[0],"trial_type":"survey-multi-select","trial_index":4,"time_elapsed":350943,"internal_node_id":"0.0-3.0-1.0","subject_id":"602fb33786b077cdbad2d5bb","study_id":"6197b3f67c2b5cd3b6d9596a","session_id":"619bfbdef70cb2f6bd34076a","condition":"full-information","relevant_dimensions":["wings","legs"],"bee_group":{"antennae":"X","wings":"2","pattern":"X","legs":"M"},"correct":true,"bonus":1.1800000000000006},{"rt":163269,"response":{"Q1":"No.","Q2":"Based on the four features of the bee.","Q3":"You learn if it was friendly or dangerous, but do not alter your bonus."},"question_order":[0,1,2],"trial_type":"survey-multi-choice","trial_index":5,"time_elapsed":514236,"internal_node_id":"0.0-3.0-2.0","subject_id":"602fb33786b077cdbad2d5bb","study_id":"6197b3f67c2b5cd3b6d9596a","session_id":"619bfbdef70cb2f6bd34076a","condition":"full-information","relevant_dimensions":["wings","legs"],"bee_group":{"antennae":"X","wings":"2","pattern":"X","legs":"M"},"correct":true,"bonus":1.1800000000000006},{"rt":7587,"stimulus":"<p>Congrats, you got everything right<br>When you're ready, click the button below to continue to the experiment.</p>","response":0,"trial_type":"html-button-response","trial_index":6,"time_elapsed":521849,"internal_node_id":"0.0-3.0-3.0","subject_id":"602fb33786b077cdbad2d5bb","study_id":"6197b3f67c2b5cd3b6d9596a","session_id":"619bfbdef70cb2f6bd34076a","condition":"full-information","relevant_dimensions":["wings","legs"],"bee_group":{"antennae":"X","wings":"2","pattern":"X","legs":"M"},"bonus":1.1800000000000006},{"rt":4170,"stimulus":"bees-with-color/bee-B2SF.svg","response":0,"trial_type":"image-button-response","trial_index":7,"time_elapsed":526025,"internal_node_id":"0.0-4.0-0.0","subject_id":"602fb33786b077cdbad2d5bb","study_id":"6197b3f67c2b5cd3b6d9596a","session_id":"619bfbdef70cb2f6bd34076a","condition":"full-information","relevant_dimensions":["wings","legs"],"bee_group":{"antennae":"X","wings":"2","pattern":"X","legs":"M"},"action":"harvest","summary":"good-harvest","bonus":1.1800000000000006},{"rt":15566,"stimulus":"\n                    <p><b>Action: <em>harvest</em></b></p>\n                    <p>This is the bee that you just saw.</p>\n                    <img src=\"bees-with-color/bee-B2SF.svg\" width=\"200\">\n                    <p><span class=\"greenText\"><b>Successful harvest!</b></span><br>Your pay has increased by $0.02. Your bonus pay is now $0.56.</p>\n            ","response":0,"trial_type":"html-button-response","trial_index":8,"time_elapsed":541633,"internal_node_id":"0.0-4.0-1.0","subject_id":"602fb33786b077cdbad2d5bb","study_id":"6197b3f67c2b5cd3b6d9596a","session_id":"619bfbdef70cb2f6bd34076a","condition":"full-information","relevant_dimensions":["wings","legs"],"bee_group":{"antennae":"X","wings":"2","pattern":"X","legs":"M"},"bonus":1.1800000000000006},{"rt":3163,"stimulus":"bees-with-color/bee-A2DF.svg","response":1,"trial_type":"image-button-response","trial_index":9,"time_elapsed":544800,"internal_node_id":"0.0-4.0-0.1","subject_id":"602fb33786b077cdbad2d5bb","study_id":"6197b3f67c2b5cd3b6d9596a","session_id":"619bfbdef70cb2f6bd34076a","condition":"full-information","relevant_dimensions":["wings","legs"],"bee_group":{"antennae":"X","wings":"2","pattern":"X","legs":"M"},"action":"avoid","summary":"bad-avoid","bonus":1.1800000000000006},{"rt":20620,"stimulus":"\n                    <p><b>Action: <em>avoid</em></b></p>\n                    <p>This is the bee that you just saw.</p>\n                    <img src=\"bees-with-color/bee-A2DF.svg\" width=\"200\">\n                    <p><span class=\"redText\">Bad choice,</span> the bee was friendly.<br>Your bonus pay is unchanged, and remains at $0.56.</p>\n            ","response":0,"trial_type":"html-button-response","trial_index":10,"time_elapsed":565424,"internal_node_id":"0.0-4.0-1.1","subject_id":"602fb33786b077cdbad2d5bb","study_id":"6197b3f67c2b5cd3b6d9596a","session_id":"619bfbdef70cb2f6bd34076a","condition":"full-information","relevant_dimensions":["wings","legs"],"bee_group":{"antennae":"X","wings":"2","pattern":"X","legs":"M"},"bonus":1.1800000000000006},{"rt":2109,"stimulus":"bees-with-color/bee-B2DM.svg","response":1,"trial_type":"image-button-response","trial_index":11,"time_elapsed":567537,"internal_node_id":"0.0-4.0-0.2","subject_id":"602fb33786b077cdbad2d5bb","study_id":"6197b3f67c2b5cd3b6d9596a","session_id":"619bfbdef70cb2f6bd34076a","condition":"full-information","relevant_dimensions":["wings","legs"],"bee_group":{"antennae":"X","wings":"2","pattern":"X","legs":"M"},"action":"avoid","summary":"good-avoid","bonus":1.1800000000000006},{"rt":11420,"stimulus":"\n                    <p><b>Action: <em>avoid</em></b></p>\n                    <p>This is the bee that you just saw.</p>\n                    <img src=\"bees-with-color/bee-B2DM.svg\" width=\"200\">\n                    <p><span class=\"greenText\">Good choice!</span>  This bee would have stung you.<br>Your bonus pay is unchanged, and remains at $0.56.</p>\n            ","response":0,"trial_type":"html-button-response","trial_index":12,"time_elapsed":578960,"internal_node_id":"0.0-4.0-1.2","subject_id":"602fb33786b077cdbad2d5bb","study_id":"6197b3f67c2b5cd3b6d9596a","session_id":"619bfbdef70cb2f6bd34076a","condition":"full-information","relevant_dimensions":["wings","legs"],"bee_group":{"antennae":"X","wings":"2","pattern":"X","legs":"M"},"bonus":1.1800000000000006},{"rt":4318,"stimulus":"bees-with-color/bee-B2DF.svg","response":0,"trial_type":"image-button-response","trial_index":13,"time_elapsed":583280,"internal_node_id":"0.0-4.0-0.3","subject_id":"602fb33786b077cdbad2d5bb","study_id":"6197b3f67c2b5cd3b6d9596a","session_id":"619bfbdef70cb2f6bd34076a","condition":"full-information","relevant_dimensions":["wings","legs"],"bee_group":{"antennae":"X","wings":"2","pattern":"X","legs":"M"},"action":"harvest","summary":"good-harvest","bonus":1.1800000000000006},{"rt":8317,"stimulus":"\n                    <p><b>Action: <em>harvest</em></b></p>\n                    <p>This is the bee that you just saw.</p>\n                    <img src=\"bees-with-color/bee-B2DF.svg\" width=\"200\">\n                    <p><span class=\"greenText\"><b>Successful harvest!</b></span><br>Your pay has increased by $0.02. Your bonus pay is now $0.58.</p>\n            ","response":0,"trial_type":"html-button-response","trial_index":14,"time_elapsed":591600,"internal_node_id":"0.0-4.0-1.3","subject_id":"602fb33786b077cdbad2d5bb","study_id":"6197b3f67c2b5cd3b6d9596a","session_id":"619bfbdef70cb2f6bd34076a","condition":"full-information","relevant_dimensions":["wings","legs"],"bee_group":{"antennae":"X","wings":"2","pattern":"X","legs":"M"},"bonus":1.1800000000000006},{"rt":2141,"stimulus":"bees-with-color/bee-A2DM.svg","response":1,"trial_type":"image-button-response","trial_index":15,"time_elapsed":593744,"internal_node_id":"0.0-4.0-0.4","subject_id":"602fb33786b077cdbad2d5bb","study_id":"6197b3f67c2b5cd3b6d9596a","session_id":"619bfbdef70cb2f6bd34076a","condition":"full-information","relevant_dimensions":["wings","legs"],"bee_group":{"antennae":"X","wings":"2","pattern":"X","legs":"M"},"action":"avoid","summary":"good-avoid","bonus":1.1800000000000006},{"rt":9365,"stimulus":"\n                    <p><b>Action: <em>avoid</em></b></p>\n                    <p>This is the bee that you just saw.</p>\n                    <img src=\"bees-with-color/bee-A2DM.svg\" width=\"200\">\n                    <p><span class=\"greenText\">Good choice!</span>  This bee would have stung you.<br>Your bonus pay is unchanged, and remains at $0.58.</p>\n            ","response":0,"trial_type":"html-button-response","trial_index":16,"time_elapsed":603112,"internal_node_id":"0.0-4.0-1.4","subject_id":"602fb33786b077cdbad2d5bb","study_id":"6197b3f67c2b5cd3b6d9596a","session_id":"619bfbdef70cb2f6bd34076a","condition":"full-information","relevant_dimensions":["wings","legs"],"bee_group":{"antennae":"X","wings":"2","pattern":"X","legs":"M"},"bonus":1.1800000000000006},{"rt":2310,"stimulus":"bees-with-color/bee-B1SM.svg","response":1,"trial_type":"image-button-response","trial_index":17,"time_elapsed":605424,"internal_node_id":"0.0-4.0-0.5","subject_id":"602fb33786b077cdbad2d5bb","study_id":"6197b3f67c2b5cd3b6d9596a","session_id":"619bfbdef70cb2f6bd34076a","condition":"full-information","relevant_dimensions":["wings","legs"],"bee_group":{"antennae":"X","wings":"2","pattern":"X","legs":"M"},"action":"avoid","summary":"bad-avoid","bonus":1.1800000000000006},{"rt":7460,"stimulus":"\n                    <p><b>Action: <em>avoid</em></b></p>\n                    <p>This is the bee that you just saw.</p>\n                    <img src=\"bees-with-color/bee-B1SM.svg\" width=\"200\">\n                    <p><span class=\"redText\">Bad choice,</span> the bee was friendly.<br>Your bonus pay is unchanged, and remains at $0.58.</p>\n            ","response":0,"trial_type":"html-button-response","trial_index":18,"time_elapsed":612888,"internal_node_id":"0.0-4.0-1.5","subject_id":"602fb33786b077cdbad2d5bb","study_id":"6197b3f67c2b5cd3b6d9596a","session_id":"619bfbdef70cb2f6bd34076a","condition":"full-information","relevant_dimensions":["wings","legs"],"bee_group":{"antennae":"X","wings":"2","pattern":"X","legs":"M"},"bonus":1.1800000000000006},{"rt":2838,"stimulus":"bees-with-color/bee-A2SF.svg","response":0,"trial_type":"image-button-response","trial_index":19,"time_elapsed":615728,"internal_node_id":"0.0-4.0-0.6","subject_id":"602fb33786b077cdbad2d5bb","study_id":"6197b3f67c2b5cd3b6d9596a","session_id":"619bfbdef70cb2f6bd34076a","condition":"full-information","relevant_dimensions":["wings","legs"],"bee_group":{"antennae":"X","wings":"2","pattern":"X","legs":"M"},"action":"harvest","summary":"good-harvest","bonus":1.1800000000000006},{"rt":3620,"stimulus":"\n                    <p><b>Action: <em>harvest</em></b></p>\n                    <p>This is the bee that you just saw.</p>\n                    <img src=\"bees-with-color/bee-A2SF.svg\" width=\"200\">\n                    <p><span class=\"greenText\"><b>Successful harvest!</b></span><br>Your pay has increased by $0.02. Your bonus pay is now $0.60.</p>\n            ","response":0,"trial_type":"html-button-response","trial_index":20,"time_elapsed":619352,"internal_node_id":"0.0-4.0-1.6","subject_id":"602fb33786b077cdbad2d5bb","study_id":"6197b3f67c2b5cd3b6d9596a","session_id":"619bfbdef70cb2f6bd34076a","condition":"full-information","relevant_dimensions":["wings","legs"],"bee_group":{"antennae":"X","wings":"2","pattern":"X","legs":"M"},"bonus":1.1800000000000006},{"rt":3221,"stimulus":"bees-with-color/bee-A1SM.svg","response":0,"trial_type":"image-button-response","trial_index":21,"time_elapsed":622576,"internal_node_id":"0.0-4.0-0.7","subject_id":"602fb33786b077cdbad2d5bb","study_id":"6197b3f67c2b5cd3b6d9596a","session_id":"619bfbdef70cb2f6bd34076a","condition":"full-information","relevant_dimensions":["wings","legs"],"bee_group":{"antennae":"X","wings":"2","pattern":"X","legs":"M"},"action":"harvest","summary":"good-harvest","bonus":1.1800000000000006},{"rt":6662,"stimulus":"\n                    <p><b>Action: <em>harvest</em></b></p>\n                    <p>This is the bee that you just saw.</p>\n                    <img src=\"bees-with-color/bee-A1SM.svg\" width=\"200\">\n                    <p><span class=\"greenText\"><b>Successful harvest!</b></span><br>Your pay has increased by $0.02. Your bonus pay is now $0.62.</p>\n            ","response":0,"trial_type":"html-button-response","trial_index":22,"time_elapsed":629239,"internal_node_id":"0.0-4.0-1.7","subject_id":"602fb33786b077cdbad2d5bb","study_id":"6197b3f67c2b5cd3b6d9596a","session_id":"619bfbdef70cb2f6bd34076a","condition":"full-information","relevant_dimensions":["wings","legs"],"bee_group":{"antennae":"X","wings":"2","pattern":"X","legs":"M"},"bonus":1.1800000000000006},{"rt":2382,"stimulus":"bees-with-color/bee-A2SM.svg","response":1,"trial_type":"image-button-response","trial_index":23,"time_elapsed":631624,"internal_node_id":"0.0-4.0-0.8","subject_id":"602fb33786b077cdbad2d5bb","study_id":"6197b3f67c2b5cd3b6d9596a","session_id":"619bfbdef70cb2f6bd34076a","condition":"full-information","relevant_dimensions":["wings","legs"],"bee_group":{"antennae":"X","wings":"2","pattern":"X","legs":"M"},"action":"avoid","summary":"good-avoid","bonus":1.1800000000000006},{"rt":5222,"stimulus":"\n                    <p><b>Action: <em>avoid</em></b></p>\n                    <p>This is the bee that you just saw.</p>\n                    <img src=\"bees-with-color/bee-A2SM.svg\" width=\"200\">\n                    <p><span class=\"greenText\">Good choice!</span>  This bee would have stung you.<br>Your bonus pay is unchanged, and remains at $0.62.</p>\n            ","response":0,"trial_type":"html-button-response","trial_index":24,"time_elapsed":636848,"internal_node_id":"0.0-4.0-1.8","subject_id":"602fb33786b077cdbad2d5bb","study_id":"6197b3f67c2b5cd3b6d9596a","session_id":"619bfbdef70cb2f6bd34076a","condition":"full-information","relevant_dimensions":["wings","legs"],"bee_group":{"antennae":"X","wings":"2","pattern":"X","legs":"M"},"bonus":1.1800000000000006},{"rt":7550,"stimulus":"bees-with-color/bee-A1SF.svg","response":1,"trial_type":"image-button-response","trial_index":25,"time_elapsed":644400,"internal_node_id":"0.0-4.0-0.9","subject_id":"602fb33786b077cdbad2d5bb","study_id":"6197b3f67c2b5cd3b6d9596a","session_id":"619bfbdef70cb2f6bd34076a","condition":"full-information","relevant_dimensions":["wings","legs"],"bee_group":{"antennae":"X","wings":"2","pattern":"X","legs":"M"},"action":"avoid","summary":"bad-avoid","bonus":1.1800000000000006},{"rt":16276,"stimulus":"\n                    <p><b>Action: <em>avoid</em></b></p>\n                    <p>This is the bee that you just saw.</p>\n                    <img src=\"bees-with-color/bee-A1SF.svg\" width=\"200\">\n                    <p><span class=\"redText\">Bad choice,</span> the bee was friendly.<br>Your bonus pay is unchanged, and remains at $0.62.</p>\n            ","response":0,"trial_type":"html-button-response","trial_index":26,"time_elapsed":660679,"internal_node_id":"0.0-4.0-1.9","subject_id":"602fb33786b077cdbad2d5bb","study_id":"6197b3f67c2b5cd3b6d9596a","session_id":"619bfbdef70cb2f6bd34076a","condition":"full-information","relevant_dimensions":["wings","legs"],"bee_group":{"antennae":"X","wings":"2","pattern":"X","legs":"M"},"bonus":1.1800000000000006},{"rt":3462,"stimulus":"bees-with-color/bee-B1DF.svg","response":1,"trial_type":"image-button-response","trial_index":27,"time_elapsed":664143,"internal_node_id":"0.0-4.0-0.10","subject_id":"602fb33786b077cdbad2d5bb","study_id":"6197b3f67c2b5cd3b6d9596a","session_id":"619bfbdef70cb2f6bd34076a","condition":"full-information","relevant_dimensions":["wings","legs"],"bee_group":{"antennae":"X","wings":"2","pattern":"X","legs":"M"},"action":"avoid","summary":"bad-avoid","bonus":1.1800000000000006},{"rt":8357,"stimulus":"\n                    <p><b>Action: <em>avoid</em></b></p>\n                    <p>This is the bee that you just saw.</p>\n                    <img src=\"bees-with-color/bee-B1DF.svg\" width=\"200\">\n                    <p><span class=\"redText\">Bad choice,</span> the bee was friendly.<br>Your bonus pay is unchanged, and remains at $0.62.</p>\n            ","response":0,"trial_type":"html-button-response","trial_index":28,"time_elapsed":672504,"internal_node_id":"0.0-4.0-1.10","subject_id":"602fb33786b077cdbad2d5bb","study_id":"6197b3f67c2b5cd3b6d9596a","session_id":"619bfbdef70cb2f6bd34076a","condition":"full-information","relevant_dimensions":["wings","legs"],"bee_group":{"antennae":"X","wings":"2","pattern":"X","legs":"M"},"bonus":1.1800000000000006},{"rt":2685,"stimulus":"bees-with-color/bee-A1DF.svg","response":0,"trial_type":"image-button-response","trial_index":29,"time_elapsed":675191,"internal_node_id":"0.0-4.0-0.11","subject_id":"602fb33786b077cdbad2d5bb","study_id":"6197b3f67c2b5cd3b6d9596a","session_id":"619bfbdef70cb2f6bd34076a","condition":"full-information","relevant_dimensions":["wings","legs"],"bee_group":{"antennae":"X","wings":"2","pattern":"X","legs":"M"},"action":"harvest","summary":"good-harvest","bonus":1.1800000000000006},{"rt":2789,"stimulus":"\n                    <p><b>Action: <em>harvest</em></b></p>\n                    <p>This is the bee that you just saw.</p>\n                    <img src=\"bees-with-color/bee-A1DF.svg\" width=\"200\">\n                    <p><span class=\"greenText\"><b>Successful harvest!</b></span><br>Your pay has increased by $0.02. Your bonus pay is now $0.64.</p>\n            ","response":0,"trial_type":"html-button-response","trial_index":30,"time_elapsed":677984,"internal_node_id":"0.0-4.0-1.11","subject_id":"602fb33786b077cdbad2d5bb","study_id":"6197b3f67c2b5cd3b6d9596a","session_id":"619bfbdef70cb2f6bd34076a","condition":"full-information","relevant_dimensions":["wings","legs"],"bee_group":{"antennae":"X","wings":"2","pattern":"X","legs":"M"},"bonus":1.1800000000000006},{"rt":4974,"stimulus":"bees-with-color/bee-A1DM.svg","response":1,"trial_type":"image-button-response","trial_index":31,"time_elapsed":682960,"internal_node_id":"0.0-4.0-0.12","subject_id":"602fb33786b077cdbad2d5bb","study_id":"6197b3f67c2b5cd3b6d9596a","session_id":"619bfbdef70cb2f6bd34076a","condition":"full-information","relevant_dimensions":["wings","legs"],"bee_group":{"antennae":"X","wings":"2","pattern":"X","legs":"M"},"action":"avoid","summary":"bad-avoid","bonus":1.1800000000000006},{"rt":7005,"stimulus":"\n                    <p><b>Action: <em>avoid</em></b></p>\n                    <p>This is the bee that you just saw.</p>\n                    <img src=\"bees-with-color/bee-A1DM.svg\" width=\"200\">\n                    <p><span class=\"redText\">Bad choice,</span> the bee was friendly.<br>Your bonus pay is unchanged, and remains at $0.64.</p>\n            ","response":0,"trial_type":"html-button-response","trial_index":32,"time_elapsed":689968,"internal_node_id":"0.0-4.0-1.12","subject_id":"602fb33786b077cdbad2d5bb","study_id":"6197b3f67c2b5cd3b6d9596a","session_id":"619bfbdef70cb2f6bd34076a","condition":"full-information","relevant_dimensions":["wings","legs"],"bee_group":{"antennae":"X","wings":"2","pattern":"X","legs":"M"},"bonus":1.1800000000000006},{"rt":2397,"stimulus":"bees-with-color/bee-B1SF.svg","response":0,"trial_type":"image-button-response","trial_index":33,"time_elapsed":692367,"internal_node_id":"0.0-4.0-0.13","subject_id":"602fb33786b077cdbad2d5bb","study_id":"6197b3f67c2b5cd3b6d9596a","session_id":"619bfbdef70cb2f6bd34076a","condition":"full-information","relevant_dimensions":["wings","legs"],"bee_group":{"antennae":"X","wings":"2","pattern":"X","legs":"M"},"action":"harvest","summary":"good-harvest","bonus":1.1800000000000006},{"rt":3205,"stimulus":"\n                    <p><b>Action: <em>harvest</em></b></p>\n                    <p>This is the bee that you just saw.</p>\n                    <img src=\"bees-with-color/bee-B1SF.svg\" width=\"200\">\n                    <p><span class=\"greenText\"><b>Successful harvest!</b></span><br>Your pay has increased by $0.02. Your bonus pay is now $0.66.</p>\n            ","response":0,"trial_type":"html-button-response","trial_index":34,"time_elapsed":695576,"internal_node_id":"0.0-4.0-1.13","subject_id":"602fb33786b077cdbad2d5bb","study_id":"6197b3f67c2b5cd3b6d9596a","session_id":"619bfbdef70cb2f6bd34076a","condition":"full-information","relevant_dimensions":["wings","legs"],"bee_group":{"antennae":"X","wings":"2","pattern":"X","legs":"M"},"bonus":1.1800000000000006},{"rt":2229,"stimulus":"bees-with-color/bee-B2SM.svg","response":1,"trial_type":"image-button-response","trial_index":35,"time_elapsed":697807,"internal_node_id":"0.0-4.0-0.14","subject_id":"602fb33786b077cdbad2d5bb","study_id":"6197b3f67c2b5cd3b6d9596a","session_id":"619bfbdef70cb2f6bd34076a","condition":"full-information","relevant_dimensions":["wings","legs"],"bee_group":{"antennae":"X","wings":"2","pattern":"X","legs":"M"},"action":"avoid","summary":"good-avoid","bonus":1.1800000000000006},{"rt":4438,"stimulus":"\n                    <p><b>Action: <em>avoid</em></b></p>\n                    <p>This is the bee that you just saw.</p>\n                    <img src=\"bees-with-color/bee-B2SM.svg\" width=\"200\">\n                    <p><span class=\"greenText\">Good choice!</span>  This bee would have stung you.<br>Your bonus pay is unchanged, and remains at $0.66.</p>\n            ","response":0,"trial_type":"html-button-response","trial_index":36,"time_elapsed":702248,"internal_node_id":"0.0-4.0-1.14","subject_id":"602fb33786b077cdbad2d5bb","study_id":"6197b3f67c2b5cd3b6d9596a","session_id":"619bfbdef70cb2f6bd34076a","condition":"full-information","relevant_dimensions":["wings","legs"],"bee_group":{"antennae":"X","wings":"2","pattern":"X","legs":"M"},"bonus":1.1800000000000006},{"rt":3014,"stimulus":"bees-with-color/bee-B1DM.svg","response":0,"trial_type":"image-button-response","trial_index":37,"time_elapsed":705263,"internal_node_id":"0.0-4.0-0.15","subject_id":"602fb33786b077cdbad2d5bb","study_id":"6197b3f67c2b5cd3b6d9596a","session_id":"619bfbdef70cb2f6bd34076a","condition":"full-information","relevant_dimensions":["wings","legs"],"bee_group":{"antennae":"X","wings":"2","pattern":"X","legs":"M"},"action":"harvest","summary":"good-harvest","bonus":1.1800000000000006},{"rt":3397,"stimulus":"\n                    <p><b>Action: <em>harvest</em></b></p>\n                    <p>This is the bee that you just saw.</p>\n                    <img src=\"bees-with-color/bee-B1DM.svg\" width=\"200\">\n                    <p><span class=\"greenText\"><b>Successful harvest!</b></span><br>Your pay has increased by $0.02. Your bonus pay is now $0.68.</p>\n            ","response":0,"trial_type":"html-button-response","trial_index":38,"time_elapsed":708663,"internal_node_id":"0.0-4.0-1.15","subject_id":"602fb33786b077cdbad2d5bb","study_id":"6197b3f67c2b5cd3b6d9596a","session_id":"619bfbdef70cb2f6bd34076a","condition":"full-information","relevant_dimensions":["wings","legs"],"bee_group":{"antennae":"X","wings":"2","pattern":"X","legs":"M"},"bonus":1.1800000000000006},{"rt":3238,"stimulus":"bees-with-color/bee-A2DM.svg","response":1,"trial_type":"image-button-response","trial_index":39,"time_elapsed":711904,"internal_node_id":"0.0-4.0-0.16","subject_id":"602fb33786b077cdbad2d5bb","study_id":"6197b3f67c2b5cd3b6d9596a","session_id":"619bfbdef70cb2f6bd34076a","condition":"full-information","relevant_dimensions":["wings","legs"],"bee_group":{"antennae":"X","wings":"2","pattern":"X","legs":"M"},"action":"avoid","summary":"good-avoid","bonus":1.1800000000000006},{"rt":7516,"stimulus":"\n                    <p><b>Action: <em>avoid</em></b></p>\n                    <p>This is the bee that you just saw.</p>\n                    <img src=\"bees-with-color/bee-A2DM.svg\" width=\"200\">\n                    <p><span class=\"greenText\">Good choice!</span>  This bee would have stung you.<br>Your bonus pay is unchanged, and remains at $0.68.</p>\n            ","response":0,"trial_type":"html-button-response","trial_index":40,"time_elapsed":719424,"internal_node_id":"0.0-4.0-1.16","subject_id":"602fb33786b077cdbad2d5bb","study_id":"6197b3f67c2b5cd3b6d9596a","session_id":"619bfbdef70cb2f6bd34076a","condition":"full-information","relevant_dimensions":["wings","legs"],"bee_group":{"antennae":"X","wings":"2","pattern":"X","legs":"M"},"bonus":1.1800000000000006},{"rt":2020,"stimulus":"bees-with-color/bee-B2SM.svg","response":1,"trial_type":"image-button-response","trial_index":41,"time_elapsed":721447,"internal_node_id":"0.0-4.0-0.17","subject_id":"602fb33786b077cdbad2d5bb","study_id":"6197b3f67c2b5cd3b6d9596a","session_id":"619bfbdef70cb2f6bd34076a","condition":"full-information","relevant_dimensions":["wings","legs"],"bee_group":{"antennae":"X","wings":"2","pattern":"X","legs":"M"},"action":"avoid","summary":"good-avoid","bonus":1.1800000000000006},{"rt":2302,"stimulus":"\n                    <p><b>Action: <em>avoid</em></b></p>\n                    <p>This is the bee that you just saw.</p>\n                    <img src=\"bees-with-color/bee-B2SM.svg\" width=\"200\">\n                    <p><span class=\"greenText\">Good choice!</span>  This bee would have stung you.<br>Your bonus pay is unchanged, and remains at $0.68.</p>\n            ","response":0,"trial_type":"html-button-response","trial_index":42,"time_elapsed":723751,"internal_node_id":"0.0-4.0-1.17","subject_id":"602fb33786b077cdbad2d5bb","study_id":"6197b3f67c2b5cd3b6d9596a","session_id":"619bfbdef70cb2f6bd34076a","condition":"full-information","relevant_dimensions":["wings","legs"],"bee_group":{"antennae":"X","wings":"2","pattern":"X","legs":"M"},"bonus":1.1800000000000006},{"rt":2454,"stimulus":"bees-with-color/bee-A1SM.svg","response":0,"trial_type":"image-button-response","trial_index":43,"time_elapsed":726207,"internal_node_id":"0.0-4.0-0.18","subject_id":"602fb33786b077cdbad2d5bb","study_id":"6197b3f67c2b5cd3b6d9596a","session_id":"619bfbdef70cb2f6bd34076a","condition":"full-information","relevant_dimensions":["wings","legs"],"bee_group":{"antennae":"X","wings":"2","pattern":"X","legs":"M"},"action":"harvest","summary":"good-harvest","bonus":1.1800000000000006},{"rt":2670,"stimulus":"\n                    <p><b>Action: <em>harvest</em></b></p>\n                    <p>This is the bee that you just saw.</p>\n                    <img src=\"bees-with-color/bee-A1SM.svg\" width=\"200\">\n                    <p><span class=\"greenText\"><b>Successful harvest!</b></span><br>Your pay has increased by $0.02. Your bonus pay is now $0.70.</p>\n            ","response":0,"trial_type":"html-button-response","trial_index":44,"time_elapsed":728879,"internal_node_id":"0.0-4.0-1.18","subject_id":"602fb33786b077cdbad2d5bb","study_id":"6197b3f67c2b5cd3b6d9596a","session_id":"619bfbdef70cb2f6bd34076a","condition":"full-information","relevant_dimensions":["wings","legs"],"bee_group":{"antennae":"X","wings":"2","pattern":"X","legs":"M"},"bonus":1.1800000000000006},{"rt":4325,"stimulus":"bees-with-color/bee-A1SF.svg","response":0,"trial_type":"image-button-response","trial_index":45,"time_elapsed":733208,"internal_node_id":"0.0-4.0-0.19","subject_id":"602fb33786b077cdbad2d5bb","study_id":"6197b3f67c2b5cd3b6d9596a","session_id":"619bfbdef70cb2f6bd34076a","condition":"full-information","relevant_dimensions":["wings","legs"],"bee_group":{"antennae":"X","wings":"2","pattern":"X","legs":"M"},"action":"harvest","summary":"good-harvest","bonus":1.1800000000000006},{"rt":2188,"stimulus":"\n                    <p><b>Action: <em>harvest</em></b></p>\n                    <p>This is the bee that you just saw.</p>\n                    <img src=\"bees-with-color/bee-A1SF.svg\" width=\"200\">\n                    <p><span class=\"greenText\"><b>Successful harvest!</b></span><br>Your pay has increased by $0.02. Your bonus pay is now $0.72.</p>\n            ","response":0,"trial_type":"html-button-response","trial_index":46,"time_elapsed":735398,"internal_node_id":"0.0-4.0-1.19","subject_id":"602fb33786b077cdbad2d5bb","study_id":"6197b3f67c2b5cd3b6d9596a","session_id":"619bfbdef70cb2f6bd34076a","condition":"full-information","relevant_dimensions":["wings","legs"],"bee_group":{"antennae":"X","wings":"2","pattern":"X","legs":"M"},"bonus":1.1800000000000006},{"rt":4640,"stimulus":"bees-with-color/bee-B1DM.svg","response":0,"trial_type":"image-button-response","trial_index":47,"time_elapsed":740039,"internal_node_id":"0.0-4.0-0.20","subject_id":"602fb33786b077cdbad2d5bb","study_id":"6197b3f67c2b5cd3b6d9596a","session_id":"619bfbdef70cb2f6bd34076a","condition":"full-information","relevant_dimensions":["wings","legs"],"bee_group":{"antennae":"X","wings":"2","pattern":"X","legs":"M"},"action":"harvest","summary":"good-harvest","bonus":1.1800000000000006},{"rt":3965,"stimulus":"\n                    <p><b>Action: <em>harvest</em></b></p>\n                    <p>This is the bee that you just saw.</p>\n                    <img src=\"bees-with-color/bee-B1DM.svg\" width=\"200\">\n                    <p><span class=\"greenText\"><b>Successful harvest!</b></span><br>Your pay has increased by $0.02. Your bonus pay is now $0.74.</p>\n            ","response":0,"trial_type":"html-button-response","trial_index":48,"time_elapsed":744007,"internal_node_id":"0.0-4.0-1.20","subject_id":"602fb33786b077cdbad2d5bb","study_id":"6197b3f67c2b5cd3b6d9596a","session_id":"619bfbdef70cb2f6bd34076a","condition":"full-information","relevant_dimensions":["wings","legs"],"bee_group":{"antennae":"X","wings":"2","pattern":"X","legs":"M"},"bonus":1.1800000000000006},{"rt":2510,"stimulus":"bees-with-color/bee-B1SF.svg","response":0,"trial_type":"image-button-response","trial_index":49,"time_elapsed":746519,"internal_node_id":"0.0-4.0-0.21","subject_id":"602fb33786b077cdbad2d5bb","study_id":"6197b3f67c2b5cd3b6d9596a","session_id":"619bfbdef70cb2f6bd34076a","condition":"full-information","relevant_dimensions":["wings","legs"],"bee_group":{"antennae":"X","wings":"2","pattern":"X","legs":"M"},"action":"harvest","summary":"good-harvest","bonus":1.1800000000000006},{"rt":5526,"stimulus":"\n                    <p><b>Action: <em>harvest</em></b></p>\n                    <p>This is the bee that you just saw.</p>\n                    <img src=\"bees-with-color/bee-B1SF.svg\" width=\"200\">\n                    <p><span class=\"greenText\"><b>Successful harvest!</b></span><br>Your pay has increased by $0.02. Your bonus pay is now $0.76.</p>\n            ","response":0,"trial_type":"html-button-response","trial_index":50,"time_elapsed":752047,"internal_node_id":"0.0-4.0-1.21","subject_id":"602fb33786b077cdbad2d5bb","study_id":"6197b3f67c2b5cd3b6d9596a","session_id":"619bfbdef70cb2f6bd34076a","condition":"full-information","relevant_dimensions":["wings","legs"],"bee_group":{"antennae":"X","wings":"2","pattern":"X","legs":"M"},"bonus":1.1800000000000006},{"rt":2558,"stimulus":"bees-with-color/bee-B1SM.svg","response":0,"trial_type":"image-button-response","trial_index":51,"time_elapsed":754607,"internal_node_id":"0.0-4.0-0.22","subject_id":"602fb33786b077cdbad2d5bb","study_id":"6197b3f67c2b5cd3b6d9596a","session_id":"619bfbdef70cb2f6bd34076a","condition":"full-information","relevant_dimensions":["wings","legs"],"bee_group":{"antennae":"X","wings":"2","pattern":"X","legs":"M"},"action":"harvest","summary":"good-harvest","bonus":1.1800000000000006},{"rt":4853,"stimulus":"\n                    <p><b>Action: <em>harvest</em></b></p>\n                    <p>This is the bee that you just saw.</p>\n                    <img src=\"bees-with-color/bee-B1SM.svg\" width=\"200\">\n                    <p><span class=\"greenText\"><b>Successful harvest!</b></span><br>Your pay has increased by $0.02. Your bonus pay is now $0.78.</p>\n            ","response":0,"trial_type":"html-button-response","trial_index":52,"time_elapsed":759462,"internal_node_id":"0.0-4.0-1.22","subject_id":"602fb33786b077cdbad2d5bb","study_id":"6197b3f67c2b5cd3b6d9596a","session_id":"619bfbdef70cb2f6bd34076a","condition":"full-information","relevant_dimensions":["wings","legs"],"bee_group":{"antennae":"X","wings":"2","pattern":"X","legs":"M"},"bonus":1.1800000000000006},{"rt":2590,"stimulus":"bees-with-color/bee-B2SF.svg","response":0,"trial_type":"image-button-response","trial_index":53,"time_elapsed":762055,"internal_node_id":"0.0-4.0-0.23","subject_id":"602fb33786b077cdbad2d5bb","study_id":"6197b3f67c2b5cd3b6d9596a","session_id":"619bfbdef70cb2f6bd34076a","condition":"full-information","relevant_dimensions":["wings","legs"],"bee_group":{"antennae":"X","wings":"2","pattern":"X","legs":"M"},"action":"harvest","summary":"good-harvest","bonus":1.1800000000000006},{"rt":2318,"stimulus":"\n                    <p><b>Action: <em>harvest</em></b></p>\n                    <p>This is the bee that you just saw.</p>\n                    <img src=\"bees-with-color/bee-B2SF.svg\" width=\"200\">\n                    <p><span class=\"greenText\"><b>Successful harvest!</b></span><br>Your pay has increased by $0.02. Your bonus pay is now $0.80.</p>\n            ","response":0,"trial_type":"html-button-response","trial_index":54,"time_elapsed":764375,"internal_node_id":"0.0-4.0-1.23","subject_id":"602fb33786b077cdbad2d5bb","study_id":"6197b3f67c2b5cd3b6d9596a","session_id":"619bfbdef70cb2f6bd34076a","condition":"full-information","relevant_dimensions":["wings","legs"],"bee_group":{"antennae":"X","wings":"2","pattern":"X","legs":"M"},"bonus":1.1800000000000006},{"rt":1557,"stimulus":"bees-with-color/bee-A2SM.svg","response":1,"trial_type":"image-button-response","trial_index":55,"time_elapsed":765935,"internal_node_id":"0.0-4.0-0.24","subject_id":"602fb33786b077cdbad2d5bb","study_id":"6197b3f67c2b5cd3b6d9596a","session_id":"619bfbdef70cb2f6bd34076a","condition":"full-information","relevant_dimensions":["wings","legs"],"bee_group":{"antennae":"X","wings":"2","pattern":"X","legs":"M"},"action":"avoid","summary":"good-avoid","bonus":1.1800000000000006},{"rt":2613,"stimulus":"\n                    <p><b>Action: <em>avoid</em></b></p>\n                    <p>This is the bee that you just saw.</p>\n                    <img src=\"bees-with-color/bee-A2SM.svg\" width=\"200\">\n                    <p><span class=\"greenText\">Good choice!</span>  This bee would have stung you.<br>Your bonus pay is unchanged, and remains at $0.80.</p>\n            ","response":0,"trial_type":"html-button-response","trial_index":56,"time_elapsed":768551,"internal_node_id":"0.0-4.0-1.24","subject_id":"602fb33786b077cdbad2d5bb","study_id":"6197b3f67c2b5cd3b6d9596a","session_id":"619bfbdef70cb2f6bd34076a","condition":"full-information","relevant_dimensions":["wings","legs"],"bee_group":{"antennae":"X","wings":"2","pattern":"X","legs":"M"},"bonus":1.1800000000000006},{"rt":3030,"stimulus":"bees-with-color/bee-A2DF.svg","response":0,"trial_type":"image-button-response","trial_index":57,"time_elapsed":771583,"internal_node_id":"0.0-4.0-0.25","subject_id":"602fb33786b077cdbad2d5bb","study_id":"6197b3f67c2b5cd3b6d9596a","session_id":"619bfbdef70cb2f6bd34076a","condition":"full-information","relevant_dimensions":["wings","legs"],"bee_group":{"antennae":"X","wings":"2","pattern":"X","legs":"M"},"action":"harvest","summary":"good-harvest","bonus":1.1800000000000006},{"rt":1765,"stimulus":"\n                    <p><b>Action: <em>harvest</em></b></p>\n                    <p>This is the bee that you just saw.</p>\n                    <img src=\"bees-with-color/bee-A2DF.svg\" width=\"200\">\n                    <p><span class=\"greenText\"><b>Successful harvest!</b></span><br>Your pay has increased by $0.02. Your bonus pay is now $0.82.</p>\n            ","response":0,"trial_type":"html-button-response","trial_index":58,"time_elapsed":773351,"internal_node_id":"0.0-4.0-1.25","subject_id":"602fb33786b077cdbad2d5bb","study_id":"6197b3f67c2b5cd3b6d9596a","session_id":"619bfbdef70cb2f6bd34076a","condition":"full-information","relevant_dimensions":["wings","legs"],"bee_group":{"antennae":"X","wings":"2","pattern":"X","legs":"M"},"bonus":1.1800000000000006},{"rt":2118,"stimulus":"bees-with-color/bee-A1DM.svg","response":0,"trial_type":"image-button-response","trial_index":59,"time_elapsed":775471,"internal_node_id":"0.0-4.0-0.26","subject_id":"602fb33786b077cdbad2d5bb","study_id":"6197b3f67c2b5cd3b6d9596a","session_id":"619bfbdef70cb2f6bd34076a","condition":"full-information","relevant_dimensions":["wings","legs"],"bee_group":{"antennae":"X","wings":"2","pattern":"X","legs":"M"},"action":"harvest","summary":"good-harvest","bonus":1.1800000000000006},{"rt":2133,"stimulus":"\n                    <p><b>Action: <em>harvest</em></b></p>\n                    <p>This is the bee that you just saw.</p>\n                    <img src=\"bees-with-color/bee-A1DM.svg\" width=\"200\">\n                    <p><span class=\"greenText\"><b>Successful harvest!</b></span><br>Your pay has increased by $0.02. Your bonus pay is now $0.84.</p>\n            ","response":0,"trial_type":"html-button-response","trial_index":60,"time_elapsed":777607,"internal_node_id":"0.0-4.0-1.26","subject_id":"602fb33786b077cdbad2d5bb","study_id":"6197b3f67c2b5cd3b6d9596a","session_id":"619bfbdef70cb2f6bd34076a","condition":"full-information","relevant_dimensions":["wings","legs"],"bee_group":{"antennae":"X","wings":"2","pattern":"X","legs":"M"},"bonus":1.1800000000000006},{"rt":2341,"stimulus":"bees-with-color/bee-B2DF.svg","response":0,"trial_type":"image-button-response","trial_index":61,"time_elapsed":779950,"internal_node_id":"0.0-4.0-0.27","subject_id":"602fb33786b077cdbad2d5bb","study_id":"6197b3f67c2b5cd3b6d9596a","session_id":"619bfbdef70cb2f6bd34076a","condition":"full-information","relevant_dimensions":["wings","legs"],"bee_group":{"antennae":"X","wings":"2","pattern":"X","legs":"M"},"action":"harvest","summary":"good-harvest","bonus":1.1800000000000006},{"rt":2118,"stimulus":"\n                    <p><b>Action: <em>harvest</em></b></p>\n                    <p>This is the bee that you just saw.</p>\n                    <img src=\"bees-with-color/bee-B2DF.svg\" width=\"200\">\n                    <p><span class=\"greenText\"><b>Successful harvest!</b></span><br>Your pay has increased by $0.02. Your bonus pay is now $0.86.</p>\n            ","response":0,"trial_type":"html-button-response","trial_index":62,"time_elapsed":782071,"internal_node_id":"0.0-4.0-1.27","subject_id":"602fb33786b077cdbad2d5bb","study_id":"6197b3f67c2b5cd3b6d9596a","session_id":"619bfbdef70cb2f6bd34076a","condition":"full-information","relevant_dimensions":["wings","legs"],"bee_group":{"antennae":"X","wings":"2","pattern":"X","legs":"M"},"bonus":1.1800000000000006},{"rt":4310,"stimulus":"bees-with-color/bee-B1DF.svg","response":0,"trial_type":"image-button-response","trial_index":63,"time_elapsed":786383,"internal_node_id":"0.0-4.0-0.28","subject_id":"602fb33786b077cdbad2d5bb","study_id":"6197b3f67c2b5cd3b6d9596a","session_id":"619bfbdef70cb2f6bd34076a","condition":"full-information","relevant_dimensions":["wings","legs"],"bee_group":{"antennae":"X","wings":"2","pattern":"X","legs":"M"},"action":"harvest","summary":"good-harvest","bonus":1.1800000000000006},{"rt":1885,"stimulus":"\n                    <p><b>Action: <em>harvest</em></b></p>\n                    <p>This is the bee that you just saw.</p>\n                    <img src=\"bees-with-color/bee-B1DF.svg\" width=\"200\">\n                    <p><span class=\"greenText\"><b>Successful harvest!</b></span><br>Your pay has increased by $0.02. Your bonus pay is now $0.88.</p>\n            ","response":0,"trial_type":"html-button-response","trial_index":64,"time_elapsed":788270,"internal_node_id":"0.0-4.0-1.28","subject_id":"602fb33786b077cdbad2d5bb","study_id":"6197b3f67c2b5cd3b6d9596a","session_id":"619bfbdef70cb2f6bd34076a","condition":"full-information","relevant_dimensions":["wings","legs"],"bee_group":{"antennae":"X","wings":"2","pattern":"X","legs":"M"},"bonus":1.1800000000000006},{"rt":2606,"stimulus":"bees-with-color/bee-B2DM.svg","response":1,"trial_type":"image-button-response","trial_index":65,"time_elapsed":790879,"internal_node_id":"0.0-4.0-0.29","subject_id":"602fb33786b077cdbad2d5bb","study_id":"6197b3f67c2b5cd3b6d9596a","session_id":"619bfbdef70cb2f6bd34076a","condition":"full-information","relevant_dimensions":["wings","legs"],"bee_group":{"antennae":"X","wings":"2","pattern":"X","legs":"M"},"action":"avoid","summary":"good-avoid","bonus":1.1800000000000006},{"rt":2686,"stimulus":"\n                    <p><b>Action: <em>avoid</em></b></p>\n                    <p>This is the bee that you just saw.</p>\n                    <img src=\"bees-with-color/bee-B2DM.svg\" width=\"200\">\n                    <p><span class=\"greenText\">Good choice!</span>  This bee would have stung you.<br>Your bonus pay is unchanged, and remains at $0.88.</p>\n            ","response":0,"trial_type":"html-button-response","trial_index":66,"time_elapsed":793567,"internal_node_id":"0.0-4.0-1.29","subject_id":"602fb33786b077cdbad2d5bb","study_id":"6197b3f67c2b5cd3b6d9596a","session_id":"619bfbdef70cb2f6bd34076a","condition":"full-information","relevant_dimensions":["wings","legs"],"bee_group":{"antennae":"X","wings":"2","pattern":"X","legs":"M"},"bonus":1.1800000000000006},{"rt":2318,"stimulus":"bees-with-color/bee-A2SF.svg","response":0,"trial_type":"image-button-response","trial_index":67,"time_elapsed":795887,"internal_node_id":"0.0-4.0-0.30","subject_id":"602fb33786b077cdbad2d5bb","study_id":"6197b3f67c2b5cd3b6d9596a","session_id":"619bfbdef70cb2f6bd34076a","condition":"full-information","relevant_dimensions":["wings","legs"],"bee_group":{"antennae":"X","wings":"2","pattern":"X","legs":"M"},"action":"harvest","summary":"good-harvest","bonus":1.1800000000000006},{"rt":2645,"stimulus":"\n                    <p><b>Action: <em>harvest</em></b></p>\n                    <p>This is the bee that you just saw.</p>\n                    <img src=\"bees-with-color/bee-A2SF.svg\" width=\"200\">\n                    <p><span class=\"greenText\"><b>Successful harvest!</b></span><br>Your pay has increased by $0.02. Your bonus pay is now $0.90.</p>\n            ","response":0,"trial_type":"html-button-response","trial_index":68,"time_elapsed":798535,"internal_node_id":"0.0-4.0-1.30","subject_id":"602fb33786b077cdbad2d5bb","study_id":"6197b3f67c2b5cd3b6d9596a","session_id":"619bfbdef70cb2f6bd34076a","condition":"full-information","relevant_dimensions":["wings","legs"],"bee_group":{"antennae":"X","wings":"2","pattern":"X","legs":"M"},"bonus":1.1800000000000006},{"rt":3990,"stimulus":"bees-with-color/bee-A1DF.svg","response":0,"trial_type":"image-button-response","trial_index":69,"time_elapsed":802527,"internal_node_id":"0.0-4.0-0.31","subject_id":"602fb33786b077cdbad2d5bb","study_id":"6197b3f67c2b5cd3b6d9596a","session_id":"619bfbdef70cb2f6bd34076a","condition":"full-information","relevant_dimensions":["wings","legs"],"bee_group":{"antennae":"X","wings":"2","pattern":"X","legs":"M"},"action":"harvest","summary":"good-harvest","bonus":1.1800000000000006},{"rt":1982,"stimulus":"\n                    <p><b>Action: <em>harvest</em></b></p>\n                    <p>This is the bee that you just saw.</p>\n                    <img src=\"bees-with-color/bee-A1DF.svg\" width=\"200\">\n                    <p><span class=\"greenText\"><b>Successful harvest!</b></span><br>Your pay has increased by $0.02. Your bonus pay is now $0.92.</p>\n            ","response":0,"trial_type":"html-button-response","trial_index":70,"time_elapsed":804511,"internal_node_id":"0.0-4.0-1.31","subject_id":"602fb33786b077cdbad2d5bb","study_id":"6197b3f67c2b5cd3b6d9596a","session_id":"619bfbdef70cb2f6bd34076a","condition":"full-information","relevant_dimensions":["wings","legs"],"bee_group":{"antennae":"X","wings":"2","pattern":"X","legs":"M"},"bonus":1.1800000000000006},{"rt":4509,"stimulus":"bees-with-color/bee-B1DF.svg","response":0,"trial_type":"image-button-response","trial_index":71,"time_elapsed":809023,"internal_node_id":"0.0-4.0-0.32","subject_id":"602fb33786b077cdbad2d5bb","study_id":"6197b3f67c2b5cd3b6d9596a","session_id":"619bfbdef70cb2f6bd34076a","condition":"full-information","relevant_dimensions":["wings","legs"],"bee_group":{"antennae":"X","wings":"2","pattern":"X","legs":"M"},"action":"harvest","summary":"good-harvest","bonus":1.1800000000000006},{"rt":2053,"stimulus":"\n                    <p><b>Action: <em>harvest</em></b></p>\n                    <p>This is the bee that you just saw.</p>\n                    <img src=\"bees-with-color/bee-B1DF.svg\" width=\"200\">\n                    <p><span class=\"greenText\"><b>Successful harvest!</b></span><br>Your pay has increased by $0.02. Your bonus pay is now $0.94.</p>\n            ","response":0,"trial_type":"html-button-response","trial_index":72,"time_elapsed":811079,"internal_node_id":"0.0-4.0-1.32","subject_id":"602fb33786b077cdbad2d5bb","study_id":"6197b3f67c2b5cd3b6d9596a","session_id":"619bfbdef70cb2f6bd34076a","condition":"full-information","relevant_dimensions":["wings","legs"],"bee_group":{"antennae":"X","wings":"2","pattern":"X","legs":"M"},"bonus":1.1800000000000006},{"rt":3381,"stimulus":"bees-with-color/bee-B1DM.svg","response":0,"trial_type":"image-button-response","trial_index":73,"time_elapsed":814463,"internal_node_id":"0.0-4.0-0.33","subject_id":"602fb33786b077cdbad2d5bb","study_id":"6197b3f67c2b5cd3b6d9596a","session_id":"619bfbdef70cb2f6bd34076a","condition":"full-information","relevant_dimensions":["wings","legs"],"bee_group":{"antennae":"X","wings":"2","pattern":"X","legs":"M"},"action":"harvest","summary":"good-harvest","bonus":1.1800000000000006},{"rt":1997,"stimulus":"\n                    <p><b>Action: <em>harvest</em></b></p>\n                    <p>This is the bee that you just saw.</p>\n                    <img src=\"bees-with-color/bee-B1DM.svg\" width=\"200\">\n                    <p><span class=\"greenText\"><b>Successful harvest!</b></span><br>Your pay has increased by $0.02. Your bonus pay is now $0.96.</p>\n            ","response":0,"trial_type":"html-button-response","trial_index":74,"time_elapsed":816463,"internal_node_id":"0.0-4.0-1.33","subject_id":"602fb33786b077cdbad2d5bb","study_id":"6197b3f67c2b5cd3b6d9596a","session_id":"619bfbdef70cb2f6bd34076a","condition":"full-information","relevant_dimensions":["wings","legs"],"bee_group":{"antennae":"X","wings":"2","pattern":"X","legs":"M"},"bonus":1.1800000000000006},{"rt":2061,"stimulus":"bees-with-color/bee-A2DF.svg","response":0,"trial_type":"image-button-response","trial_index":75,"time_elapsed":818527,"internal_node_id":"0.0-4.0-0.34","subject_id":"602fb33786b077cdbad2d5bb","study_id":"6197b3f67c2b5cd3b6d9596a","session_id":"619bfbdef70cb2f6bd34076a","condition":"full-information","relevant_dimensions":["wings","legs"],"bee_group":{"antennae":"X","wings":"2","pattern":"X","legs":"M"},"action":"harvest","summary":"good-harvest","bonus":1.1800000000000006},{"rt":1357,"stimulus":"\n                    <p><b>Action: <em>harvest</em></b></p>\n                    <p>This is the bee that you just saw.</p>\n                    <img src=\"bees-with-color/bee-A2DF.svg\" width=\"200\">\n                    <p><span class=\"greenText\"><b>Successful harvest!</b></span><br>Your pay has increased by $0.02. Your bonus pay is now $0.98.</p>\n            ","response":0,"trial_type":"html-button-response","trial_index":76,"time_elapsed":819887,"internal_node_id":"0.0-4.0-1.34","subject_id":"602fb33786b077cdbad2d5bb","study_id":"6197b3f67c2b5cd3b6d9596a","session_id":"619bfbdef70cb2f6bd34076a","condition":"full-information","relevant_dimensions":["wings","legs"],"bee_group":{"antennae":"X","wings":"2","pattern":"X","legs":"M"},"bonus":1.1800000000000006},{"rt":2230,"stimulus":"bees-with-color/bee-B2DF.svg","response":0,"trial_type":"image-button-response","trial_index":77,"time_elapsed":822119,"internal_node_id":"0.0-4.0-0.35","subject_id":"602fb33786b077cdbad2d5bb","study_id":"6197b3f67c2b5cd3b6d9596a","session_id":"619bfbdef70cb2f6bd34076a","condition":"full-information","relevant_dimensions":["wings","legs"],"bee_group":{"antennae":"X","wings":"2","pattern":"X","legs":"M"},"action":"harvest","summary":"good-harvest","bonus":1.1800000000000006},{"rt":2661,"stimulus":"\n                    <p><b>Action: <em>harvest</em></b></p>\n                    <p>This is the bee that you just saw.</p>\n                    <img src=\"bees-with-color/bee-B2DF.svg\" width=\"200\">\n                    <p><span class=\"greenText\"><b>Successful harvest!</b></span><br>Your pay has increased by $0.02. Your bonus pay is now $1.00.</p>\n            ","response":0,"trial_type":"html-button-response","trial_index":78,"time_elapsed":824783,"internal_node_id":"0.0-4.0-1.35","subject_id":"602fb33786b077cdbad2d5bb","study_id":"6197b3f67c2b5cd3b6d9596a","session_id":"619bfbdef70cb2f6bd34076a","condition":"full-information","relevant_dimensions":["wings","legs"],"bee_group":{"antennae":"X","wings":"2","pattern":"X","legs":"M"},"bonus":1.1800000000000006},{"rt":1982,"stimulus":"bees-with-color/bee-B2SM.svg","response":1,"trial_type":"image-button-response","trial_index":79,"time_elapsed":826767,"internal_node_id":"0.0-4.0-0.36","subject_id":"602fb33786b077cdbad2d5bb","study_id":"6197b3f67c2b5cd3b6d9596a","session_id":"619bfbdef70cb2f6bd34076a","condition":"full-information","relevant_dimensions":["wings","legs"],"bee_group":{"antennae":"X","wings":"2","pattern":"X","legs":"M"},"action":"avoid","summary":"good-avoid","bonus":1.1800000000000006},{"rt":3415,"stimulus":"\n                    <p><b>Action: <em>avoid</em></b></p>\n                    <p>This is the bee that you just saw.</p>\n                    <img src=\"bees-with-color/bee-B2SM.svg\" width=\"200\">\n                    <p><span class=\"greenText\">Good choice!</span>  This bee would have stung you.<br>Your bonus pay is unchanged, and remains at $1.00.</p>\n            ","response":0,"trial_type":"html-button-response","trial_index":80,"time_elapsed":830183,"internal_node_id":"0.0-4.0-1.36","subject_id":"602fb33786b077cdbad2d5bb","study_id":"6197b3f67c2b5cd3b6d9596a","session_id":"619bfbdef70cb2f6bd34076a","condition":"full-information","relevant_dimensions":["wings","legs"],"bee_group":{"antennae":"X","wings":"2","pattern":"X","legs":"M"},"bonus":1.1800000000000006},{"rt":1973,"stimulus":"bees-with-color/bee-A2DM.svg","response":1,"trial_type":"image-button-response","trial_index":81,"time_elapsed":832159,"internal_node_id":"0.0-4.0-0.37","subject_id":"602fb33786b077cdbad2d5bb","study_id":"6197b3f67c2b5cd3b6d9596a","session_id":"619bfbdef70cb2f6bd34076a","condition":"full-information","relevant_dimensions":["wings","legs"],"bee_group":{"antennae":"X","wings":"2","pattern":"X","legs":"M"},"action":"avoid","summary":"good-avoid","bonus":1.1800000000000006},{"rt":1902,"stimulus":"\n                    <p><b>Action: <em>avoid</em></b></p>\n                    <p>This is the bee that you just saw.</p>\n                    <img src=\"bees-with-color/bee-A2DM.svg\" width=\"200\">\n                    <p><span class=\"greenText\">Good choice!</span>  This bee would have stung you.<br>Your bonus pay is unchanged, and remains at $1.00.</p>\n            ","response":0,"trial_type":"html-button-response","trial_index":82,"time_elapsed":834062,"internal_node_id":"0.0-4.0-1.37","subject_id":"602fb33786b077cdbad2d5bb","study_id":"6197b3f67c2b5cd3b6d9596a","session_id":"619bfbdef70cb2f6bd34076a","condition":"full-information","relevant_dimensions":["wings","legs"],"bee_group":{"antennae":"X","wings":"2","pattern":"X","legs":"M"},"bonus":1.1800000000000006},{"rt":1909,"stimulus":"bees-with-color/bee-A2SF.svg","response":0,"trial_type":"image-button-response","trial_index":83,"time_elapsed":835975,"internal_node_id":"0.0-4.0-0.38","subject_id":"602fb33786b077cdbad2d5bb","study_id":"6197b3f67c2b5cd3b6d9596a","session_id":"619bfbdef70cb2f6bd34076a","condition":"full-information","relevant_dimensions":["wings","legs"],"bee_group":{"antennae":"X","wings":"2","pattern":"X","legs":"M"},"action":"harvest","summary":"good-harvest","bonus":1.1800000000000006},{"rt":1854,"stimulus":"\n                    <p><b>Action: <em>harvest</em></b></p>\n                    <p>This is the bee that you just saw.</p>\n                    <img src=\"bees-with-color/bee-A2SF.svg\" width=\"200\">\n                    <p><span class=\"greenText\"><b>Successful harvest!</b></span><br>Your pay has increased by $0.02. Your bonus pay is now $1.02.</p>\n            ","response":0,"trial_type":"html-button-response","trial_index":84,"time_elapsed":837830,"internal_node_id":"0.0-4.0-1.38","subject_id":"602fb33786b077cdbad2d5bb","study_id":"6197b3f67c2b5cd3b6d9596a","session_id":"619bfbdef70cb2f6bd34076a","condition":"full-information","relevant_dimensions":["wings","legs"],"bee_group":{"antennae":"X","wings":"2","pattern":"X","legs":"M"},"bonus":1.1800000000000006},{"rt":1781,"stimulus":"bees-with-color/bee-A1SM.svg","response":0,"trial_type":"image-button-response","trial_index":85,"time_elapsed":839615,"internal_node_id":"0.0-4.0-0.39","subject_id":"602fb33786b077cdbad2d5bb","study_id":"6197b3f67c2b5cd3b6d9596a","session_id":"619bfbdef70cb2f6bd34076a","condition":"full-information","relevant_dimensions":["wings","legs"],"bee_group":{"antennae":"X","wings":"2","pattern":"X","legs":"M"},"action":"harvest","summary":"good-harvest","bonus":1.1800000000000006},{"rt":1637,"stimulus":"\n                    <p><b>Action: <em>harvest</em></b></p>\n                    <p>This is the bee that you just saw.</p>\n                    <img src=\"bees-with-color/bee-A1SM.svg\" width=\"200\">\n                    <p><span class=\"greenText\"><b>Successful harvest!</b></span><br>Your pay has increased by $0.02. Your bonus pay is now $1.04.</p>\n            ","response":0,"trial_type":"html-button-response","trial_index":86,"time_elapsed":841255,"internal_node_id":"0.0-4.0-1.39","subject_id":"602fb33786b077cdbad2d5bb","study_id":"6197b3f67c2b5cd3b6d9596a","session_id":"619bfbdef70cb2f6bd34076a","condition":"full-information","relevant_dimensions":["wings","legs"],"bee_group":{"antennae":"X","wings":"2","pattern":"X","legs":"M"},"bonus":1.1800000000000006},{"rt":2382,"stimulus":"bees-with-color/bee-B2DM.svg","response":1,"trial_type":"image-button-response","trial_index":87,"time_elapsed":843639,"internal_node_id":"0.0-4.0-0.40","subject_id":"602fb33786b077cdbad2d5bb","study_id":"6197b3f67c2b5cd3b6d9596a","session_id":"619bfbdef70cb2f6bd34076a","condition":"full-information","relevant_dimensions":["wings","legs"],"bee_group":{"antennae":"X","wings":"2","pattern":"X","legs":"M"},"action":"avoid","summary":"good-avoid","bonus":1.1800000000000006},{"rt":1469,"stimulus":"\n                    <p><b>Action: <em>avoid</em></b></p>\n                    <p>This is the bee that you just saw.</p>\n                    <img src=\"bees-with-color/bee-B2DM.svg\" width=\"200\">\n                    <p><span class=\"greenText\">Good choice!</span>  This bee would have stung you.<br>Your bonus pay is unchanged, and remains at $1.04.</p>\n            ","response":0,"trial_type":"html-button-response","trial_index":88,"time_elapsed":845111,"internal_node_id":"0.0-4.0-1.40","subject_id":"602fb33786b077cdbad2d5bb","study_id":"6197b3f67c2b5cd3b6d9596a","session_id":"619bfbdef70cb2f6bd34076a","condition":"full-information","relevant_dimensions":["wings","legs"],"bee_group":{"antennae":"X","wings":"2","pattern":"X","legs":"M"},"bonus":1.1800000000000006},{"rt":1790,"stimulus":"bees-with-color/bee-A2SM.svg","response":1,"trial_type":"image-button-response","trial_index":89,"time_elapsed":846902,"internal_node_id":"0.0-4.0-0.41","subject_id":"602fb33786b077cdbad2d5bb","study_id":"6197b3f67c2b5cd3b6d9596a","session_id":"619bfbdef70cb2f6bd34076a","condition":"full-information","relevant_dimensions":["wings","legs"],"bee_group":{"antennae":"X","wings":"2","pattern":"X","legs":"M"},"action":"avoid","summary":"good-avoid","bonus":1.1800000000000006},{"rt":1157,"stimulus":"\n                    <p><b>Action: <em>avoid</em></b></p>\n                    <p>This is the bee that you just saw.</p>\n                    <img src=\"bees-with-color/bee-A2SM.svg\" width=\"200\">\n                    <p><span class=\"greenText\">Good choice!</span>  This bee would have stung you.<br>Your bonus pay is unchanged, and remains at $1.04.</p>\n            ","response":0,"trial_type":"html-button-response","trial_index":90,"time_elapsed":848063,"internal_node_id":"0.0-4.0-1.41","subject_id":"602fb33786b077cdbad2d5bb","study_id":"6197b3f67c2b5cd3b6d9596a","session_id":"619bfbdef70cb2f6bd34076a","condition":"full-information","relevant_dimensions":["wings","legs"],"bee_group":{"antennae":"X","wings":"2","pattern":"X","legs":"M"},"bonus":1.1800000000000006},{"rt":2438,"stimulus":"bees-with-color/bee-B2SF.svg","response":0,"trial_type":"image-button-response","trial_index":91,"time_elapsed":850503,"internal_node_id":"0.0-4.0-0.42","subject_id":"602fb33786b077cdbad2d5bb","study_id":"6197b3f67c2b5cd3b6d9596a","session_id":"619bfbdef70cb2f6bd34076a","condition":"full-information","relevant_dimensions":["wings","legs"],"bee_group":{"antennae":"X","wings":"2","pattern":"X","legs":"M"},"action":"harvest","summary":"good-harvest","bonus":1.1800000000000006},{"rt":1405,"stimulus":"\n                    <p><b>Action: <em>harvest</em></b></p>\n                    <p>This is the bee that you just saw.</p>\n                    <img src=\"bees-with-color/bee-B2SF.svg\" width=\"200\">\n                    <p><span class=\"greenText\"><b>Successful harvest!</b></span><br>Your pay has increased by $0.02. Your bonus pay is now $1.06.</p>\n            ","response":0,"trial_type":"html-button-response","trial_index":92,"time_elapsed":851910,"internal_node_id":"0.0-4.0-1.42","subject_id":"602fb33786b077cdbad2d5bb","study_id":"6197b3f67c2b5cd3b6d9596a","session_id":"619bfbdef70cb2f6bd34076a","condition":"full-information","relevant_dimensions":["wings","legs"],"bee_group":{"antennae":"X","wings":"2","pattern":"X","legs":"M"},"bonus":1.1800000000000006},{"rt":2774,"stimulus":"bees-with-color/bee-B1SF.svg","response":0,"trial_type":"image-button-response","trial_index":93,"time_elapsed":854686,"internal_node_id":"0.0-4.0-0.43","subject_id":"602fb33786b077cdbad2d5bb","study_id":"6197b3f67c2b5cd3b6d9596a","session_id":"619bfbdef70cb2f6bd34076a","condition":"full-information","relevant_dimensions":["wings","legs"],"bee_group":{"antennae":"X","wings":"2","pattern":"X","legs":"M"},"action":"harvest","summary":"good-harvest","bonus":1.1800000000000006},{"rt":1462,"stimulus":"\n                    <p><b>Action: <em>harvest</em></b></p>\n                    <p>This is the bee that you just saw.</p>\n                    <img src=\"bees-with-color/bee-B1SF.svg\" width=\"200\">\n                    <p><span class=\"greenText\"><b>Successful harvest!</b></span><br>Your pay has increased by $0.02. Your bonus pay is now $1.08.</p>\n            ","response":0,"trial_type":"html-button-response","trial_index":94,"time_elapsed":856150,"internal_node_id":"0.0-4.0-1.43","subject_id":"602fb33786b077cdbad2d5bb","study_id":"6197b3f67c2b5cd3b6d9596a","session_id":"619bfbdef70cb2f6bd34076a","condition":"full-information","relevant_dimensions":["wings","legs"],"bee_group":{"antennae":"X","wings":"2","pattern":"X","legs":"M"},"bonus":1.1800000000000006},{"rt":2006,"stimulus":"bees-with-color/bee-B1SM.svg","response":0,"trial_type":"image-button-response","trial_index":95,"time_elapsed":858159,"internal_node_id":"0.0-4.0-0.44","subject_id":"602fb33786b077cdbad2d5bb","study_id":"6197b3f67c2b5cd3b6d9596a","session_id":"619bfbdef70cb2f6bd34076a","condition":"full-information","relevant_dimensions":["wings","legs"],"bee_group":{"antennae":"X","wings":"2","pattern":"X","legs":"M"},"action":"harvest","summary":"good-harvest","bonus":1.1800000000000006},{"rt":2038,"stimulus":"\n                    <p><b>Action: <em>harvest</em></b></p>\n                    <p>This is the bee that you just saw.</p>\n                    <img src=\"bees-with-color/bee-B1SM.svg\" width=\"200\">\n                    <p><span class=\"greenText\"><b>Successful harvest!</b></span><br>Your pay has increased by $0.02. Your bonus pay is now $1.10.</p>\n            ","response":0,"trial_type":"html-button-response","trial_index":96,"time_elapsed":860198,"internal_node_id":"0.0-4.0-1.44","subject_id":"602fb33786b077cdbad2d5bb","study_id":"6197b3f67c2b5cd3b6d9596a","session_id":"619bfbdef70cb2f6bd34076a","condition":"full-information","relevant_dimensions":["wings","legs"],"bee_group":{"antennae":"X","wings":"2","pattern":"X","legs":"M"},"bonus":1.1800000000000006},{"rt":2765,"stimulus":"bees-with-color/bee-A1SF.svg","response":0,"trial_type":"image-button-response","trial_index":97,"time_elapsed":862967,"internal_node_id":"0.0-4.0-0.45","subject_id":"602fb33786b077cdbad2d5bb","study_id":"6197b3f67c2b5cd3b6d9596a","session_id":"619bfbdef70cb2f6bd34076a","condition":"full-information","relevant_dimensions":["wings","legs"],"bee_group":{"antennae":"X","wings":"2","pattern":"X","legs":"M"},"action":"harvest","summary":"good-harvest","bonus":1.1800000000000006},{"rt":1749,"stimulus":"\n                    <p><b>Action: <em>harvest</em></b></p>\n                    <p>This is the bee that you just saw.</p>\n                    <img src=\"bees-with-color/bee-A1SF.svg\" width=\"200\">\n                    <p><span class=\"greenText\"><b>Successful harvest!</b></span><br>Your pay has increased by $0.02. Your bonus pay is now $1.12.</p>\n            ","response":0,"trial_type":"html-button-response","trial_index":98,"time_elapsed":864718,"internal_node_id":"0.0-4.0-1.45","subject_id":"602fb33786b077cdbad2d5bb","study_id":"6197b3f67c2b5cd3b6d9596a","session_id":"619bfbdef70cb2f6bd34076a","condition":"full-information","relevant_dimensions":["wings","legs"],"bee_group":{"antennae":"X","wings":"2","pattern":"X","legs":"M"},"bonus":1.1800000000000006},{"rt":2909,"stimulus":"bees-with-color/bee-A1DM.svg","response":0,"trial_type":"image-button-response","trial_index":99,"time_elapsed":867631,"internal_node_id":"0.0-4.0-0.46","subject_id":"602fb33786b077cdbad2d5bb","study_id":"6197b3f67c2b5cd3b6d9596a","session_id":"619bfbdef70cb2f6bd34076a","condition":"full-information","relevant_dimensions":["wings","legs"],"bee_group":{"antennae":"X","wings":"2","pattern":"X","legs":"M"},"action":"harvest","summary":"good-harvest","bonus":1.1800000000000006},{"rt":2061,"stimulus":"\n                    <p><b>Action: <em>harvest</em></b></p>\n                    <p>This is the bee that you just saw.</p>\n                    <img src=\"bees-with-color/bee-A1DM.svg\" width=\"200\">\n                    <p><span class=\"greenText\"><b>Successful harvest!</b></span><br>Your pay has increased by $0.02. Your bonus pay is now $1.14.</p>\n            ","response":0,"trial_type":"html-button-response","trial_index":100,"time_elapsed":869695,"internal_node_id":"0.0-4.0-1.46","subject_id":"602fb33786b077cdbad2d5bb","study_id":"6197b3f67c2b5cd3b6d9596a","session_id":"619bfbdef70cb2f6bd34076a","condition":"full-information","relevant_dimensions":["wings","legs"],"bee_group":{"antennae":"X","wings":"2","pattern":"X","legs":"M"},"bonus":1.1800000000000006},{"rt":2734,"stimulus":"bees-with-color/bee-A1DF.svg","response":0,"trial_type":"image-button-response","trial_index":101,"time_elapsed":872430,"internal_node_id":"0.0-4.0-0.47","subject_id":"602fb33786b077cdbad2d5bb","study_id":"6197b3f67c2b5cd3b6d9596a","session_id":"619bfbdef70cb2f6bd34076a","condition":"full-information","relevant_dimensions":["wings","legs"],"bee_group":{"antennae":"X","wings":"2","pattern":"X","legs":"M"},"action":"harvest","summary":"good-harvest","bonus":1.1800000000000006},{"rt":1269,"stimulus":"\n                    <p><b>Action: <em>harvest</em></b></p>\n                    <p>This is the bee that you just saw.</p>\n                    <img src=\"bees-with-color/bee-A1DF.svg\" width=\"200\">\n                    <p><span class=\"greenText\"><b>Successful harvest!</b></span><br>Your pay has increased by $0.02. Your bonus pay is now $1.16.</p>\n            ","response":0,"trial_type":"html-button-response","trial_index":102,"time_elapsed":873702,"internal_node_id":"0.0-4.0-1.47","subject_id":"602fb33786b077cdbad2d5bb","study_id":"6197b3f67c2b5cd3b6d9596a","session_id":"619bfbdef70cb2f6bd34076a","condition":"full-information","relevant_dimensions":["wings","legs"],"bee_group":{"antennae":"X","wings":"2","pattern":"X","legs":"M"},"bonus":1.1800000000000006},{"rt":1534,"stimulus":"bees-with-color/bee-B2SM.svg","response":1,"trial_type":"image-button-response","trial_index":103,"time_elapsed":875238,"internal_node_id":"0.0-4.0-0.48","subject_id":"602fb33786b077cdbad2d5bb","study_id":"6197b3f67c2b5cd3b6d9596a","session_id":"619bfbdef70cb2f6bd34076a","condition":"full-information","relevant_dimensions":["wings","legs"],"bee_group":{"antennae":"X","wings":"2","pattern":"X","legs":"M"},"action":"avoid","summary":"good-avoid","bonus":1.1800000000000006},{"rt":1693,"stimulus":"\n                    <p><b>Action: <em>avoid</em></b></p>\n                    <p>This is the bee that you just saw.</p>\n                    <img src=\"bees-with-color/bee-B2SM.svg\" width=\"200\">\n                    <p><span class=\"greenText\">Good choice!</span>  This bee would have stung you.<br>Your bonus pay is unchanged, and remains at $1.16.</p>\n            ","response":0,"trial_type":"html-button-response","trial_index":104,"time_elapsed":876935,"internal_node_id":"0.0-4.0-1.48","subject_id":"602fb33786b077cdbad2d5bb","study_id":"6197b3f67c2b5cd3b6d9596a","session_id":"619bfbdef70cb2f6bd34076a","condition":"full-information","relevant_dimensions":["wings","legs"],"bee_group":{"antennae":"X","wings":"2","pattern":"X","legs":"M"},"bonus":1.1800000000000006},{"rt":2252,"stimulus":"bees-with-color/bee-B2SF.svg","response":0,"trial_type":"image-button-response","trial_index":105,"time_elapsed":879190,"internal_node_id":"0.0-4.0-0.49","subject_id":"602fb33786b077cdbad2d5bb","study_id":"6197b3f67c2b5cd3b6d9596a","session_id":"619bfbdef70cb2f6bd34076a","condition":"full-information","relevant_dimensions":["wings","legs"],"bee_group":{"antennae":"X","wings":"2","pattern":"X","legs":"M"},"action":"harvest","summary":"good-harvest","bonus":1.1800000000000006},{"rt":1613,"stimulus":"\n                    <p><b>Action: <em>harvest</em></b></p>\n                    <p>This is the bee that you just saw.</p>\n                    <img src=\"bees-with-color/bee-B2SF.svg\" width=\"200\">\n                    <p><span class=\"greenText\"><b>Successful harvest!</b></span><br>Your pay has increased by $0.02. Your bonus pay is now $1.18.</p>\n            ","response":0,"trial_type":"html-button-response","trial_index":106,"time_elapsed":880806,"internal_node_id":"0.0-4.0-1.49","subject_id":"602fb33786b077cdbad2d5bb","study_id":"6197b3f67c2b5cd3b6d9596a","session_id":"619bfbdef70cb2f6bd34076a","condition":"full-information","relevant_dimensions":["wings","legs"],"bee_group":{"antennae":"X","wings":"2","pattern":"X","legs":"M"},"bonus":1.1800000000000006},{"rt":2677,"stimulus":"bees-with-color/bee-A1SF.svg","response":0,"trial_type":"image-button-response","trial_index":107,"time_elapsed":883486,"internal_node_id":"0.0-4.0-0.50","subject_id":"602fb33786b077cdbad2d5bb","study_id":"6197b3f67c2b5cd3b6d9596a","session_id":"619bfbdef70cb2f6bd34076a","condition":"full-information","relevant_dimensions":["wings","legs"],"bee_group":{"antennae":"X","wings":"2","pattern":"X","legs":"M"},"action":"harvest","summary":"good-harvest","bonus":1.1800000000000006},{"rt":1214,"stimulus":"\n                    <p><b>Action: <em>harvest</em></b></p>\n                    <p>This is the bee that you just saw.</p>\n                    <img src=\"bees-with-color/bee-A1SF.svg\" width=\"200\">\n                    <p><span class=\"greenText\"><b>Successful harvest!</b></span><br>Your pay has increased by $0.02. Your bonus pay is now $1.20.</p>\n            ","response":0,"trial_type":"html-button-response","trial_index":108,"time_elapsed":884703,"internal_node_id":"0.0-4.0-1.50","subject_id":"602fb33786b077cdbad2d5bb","study_id":"6197b3f67c2b5cd3b6d9596a","session_id":"619bfbdef70cb2f6bd34076a","condition":"full-information","relevant_dimensions":["wings","legs"],"bee_group":{"antennae":"X","wings":"2","pattern":"X","legs":"M"},"bonus":1.1800000000000006},{"rt":1430,"stimulus":"bees-with-color/bee-B1SM.svg","response":0,"trial_type":"image-button-response","trial_index":109,"time_elapsed":886135,"internal_node_id":"0.0-4.0-0.51","subject_id":"602fb33786b077cdbad2d5bb","study_id":"6197b3f67c2b5cd3b6d9596a","session_id":"619bfbdef70cb2f6bd34076a","condition":"full-information","relevant_dimensions":["wings","legs"],"bee_group":{"antennae":"X","wings":"2","pattern":"X","legs":"M"},"action":"harvest","summary":"good-harvest","bonus":1.1800000000000006},{"rt":756,"stimulus":"\n                    <p><b>Action: <em>harvest</em></b></p>\n                    <p>This is the bee that you just saw.</p>\n                    <img src=\"bees-with-color/bee-B1SM.svg\" width=\"200\">\n                    <p><span class=\"greenText\"><b>Successful harvest!</b></span><br>Your pay has increased by $0.02. Your bonus pay is now $1.22.</p>\n            ","response":0,"trial_type":"html-button-response","trial_index":110,"time_elapsed":886895,"internal_node_id":"0.0-4.0-1.51","subject_id":"602fb33786b077cdbad2d5bb","study_id":"6197b3f67c2b5cd3b6d9596a","session_id":"619bfbdef70cb2f6bd34076a","condition":"full-information","relevant_dimensions":["wings","legs"],"bee_group":{"antennae":"X","wings":"2","pattern":"X","legs":"M"},"bonus":1.1800000000000006},{"rt":1542,"stimulus":"bees-with-color/bee-B1DM.svg","response":0,"trial_type":"image-button-response","trial_index":111,"time_elapsed":888438,"internal_node_id":"0.0-4.0-0.52","subject_id":"602fb33786b077cdbad2d5bb","study_id":"6197b3f67c2b5cd3b6d9596a","session_id":"619bfbdef70cb2f6bd34076a","condition":"full-information","relevant_dimensions":["wings","legs"],"bee_group":{"antennae":"X","wings":"2","pattern":"X","legs":"M"},"action":"harvest","summary":"good-harvest","bonus":1.1800000000000006},{"rt":717,"stimulus":"\n                    <p><b>Action: <em>harvest</em></b></p>\n                    <p>This is the bee that you just saw.</p>\n                    <img src=\"bees-with-color/bee-B1DM.svg\" width=\"200\">\n                    <p><span class=\"greenText\"><b>Successful harvest!</b></span><br>Your pay has increased by $0.02. Your bonus pay is now $1.24.</p>\n            ","response":0,"trial_type":"html-button-response","trial_index":112,"time_elapsed":889158,"internal_node_id":"0.0-4.0-1.52","subject_id":"602fb33786b077cdbad2d5bb","study_id":"6197b3f67c2b5cd3b6d9596a","session_id":"619bfbdef70cb2f6bd34076a","condition":"full-information","relevant_dimensions":["wings","legs"],"bee_group":{"antennae":"X","wings":"2","pattern":"X","legs":"M"},"bonus":1.1800000000000006},{"rt":1198,"stimulus":"bees-with-color/bee-B2DM.svg","response":1,"trial_type":"image-button-response","trial_index":113,"time_elapsed":890358,"internal_node_id":"0.0-4.0-0.53","subject_id":"602fb33786b077cdbad2d5bb","study_id":"6197b3f67c2b5cd3b6d9596a","session_id":"619bfbdef70cb2f6bd34076a","condition":"full-information","relevant_dimensions":["wings","legs"],"bee_group":{"antennae":"X","wings":"2","pattern":"X","legs":"M"},"action":"avoid","summary":"good-avoid","bonus":1.1800000000000006},{"rt":821,"stimulus":"\n                    <p><b>Action: <em>avoid</em></b></p>\n                    <p>This is the bee that you just saw.</p>\n                    <img src=\"bees-with-color/bee-B2DM.svg\" width=\"200\">\n                    <p><span class=\"greenText\">Good choice!</span>  This bee would have stung you.<br>Your bonus pay is unchanged, and remains at $1.24.</p>\n            ","response":0,"trial_type":"html-button-response","trial_index":114,"time_elapsed":891182,"internal_node_id":"0.0-4.0-1.53","subject_id":"602fb33786b077cdbad2d5bb","study_id":"6197b3f67c2b5cd3b6d9596a","session_id":"619bfbdef70cb2f6bd34076a","condition":"full-information","relevant_dimensions":["wings","legs"],"bee_group":{"antennae":"X","wings":"2","pattern":"X","legs":"M"},"bonus":1.1800000000000006},{"rt":1678,"stimulus":"bees-with-color/bee-A1DM.svg","response":0,"trial_type":"image-button-response","trial_index":115,"time_elapsed":892862,"internal_node_id":"0.0-4.0-0.54","subject_id":"602fb33786b077cdbad2d5bb","study_id":"6197b3f67c2b5cd3b6d9596a","session_id":"619bfbdef70cb2f6bd34076a","condition":"full-information","relevant_dimensions":["wings","legs"],"bee_group":{"antennae":"X","wings":"2","pattern":"X","legs":"M"},"action":"harvest","summary":"good-harvest","bonus":1.1800000000000006},{"rt":885,"stimulus":"\n                    <p><b>Action: <em>harvest</em></b></p>\n                    <p>This is the bee that you just saw.</p>\n                    <img src=\"bees-with-color/bee-A1DM.svg\" width=\"200\">\n                    <p><span class=\"greenText\"><b>Successful harvest!</b></span><br>Your pay has increased by $0.02. Your bonus pay is now $1.26.</p>\n            ","response":0,"trial_type":"html-button-response","trial_index":116,"time_elapsed":893750,"internal_node_id":"0.0-4.0-1.54","subject_id":"602fb33786b077cdbad2d5bb","study_id":"6197b3f67c2b5cd3b6d9596a","session_id":"619bfbdef70cb2f6bd34076a","condition":"full-information","relevant_dimensions":["wings","legs"],"bee_group":{"antennae":"X","wings":"2","pattern":"X","legs":"M"},"bonus":1.1800000000000006},{"rt":2357,"stimulus":"bees-with-color/bee-A2DF.svg","response":0,"trial_type":"image-button-response","trial_index":117,"time_elapsed":896110,"internal_node_id":"0.0-4.0-0.55","subject_id":"602fb33786b077cdbad2d5bb","study_id":"6197b3f67c2b5cd3b6d9596a","session_id":"619bfbdef70cb2f6bd34076a","condition":"full-information","relevant_dimensions":["wings","legs"],"bee_group":{"antennae":"X","wings":"2","pattern":"X","legs":"M"},"action":"harvest","summary":"good-harvest","bonus":1.1800000000000006},{"rt":901,"stimulus":"\n                    <p><b>Action: <em>harvest</em></b></p>\n                    <p>This is the bee that you just saw.</p>\n                    <img src=\"bees-with-color/bee-A2DF.svg\" width=\"200\">\n                    <p><span class=\"greenText\"><b>Successful harvest!</b></span><br>Your pay has increased by $0.02. Your bonus pay is now $1.28.</p>\n            ","response":0,"trial_type":"html-button-response","trial_index":118,"time_elapsed":897014,"internal_node_id":"0.0-4.0-1.55","subject_id":"602fb33786b077cdbad2d5bb","study_id":"6197b3f67c2b5cd3b6d9596a","session_id":"619bfbdef70cb2f6bd34076a","condition":"full-information","relevant_dimensions":["wings","legs"],"bee_group":{"antennae":"X","wings":"2","pattern":"X","legs":"M"},"bonus":1.1800000000000006},{"rt":1629,"stimulus":"bees-with-color/bee-A1DF.svg","response":0,"trial_type":"image-button-response","trial_index":119,"time_elapsed":898647,"internal_node_id":"0.0-4.0-0.56","subject_id":"602fb33786b077cdbad2d5bb","study_id":"6197b3f67c2b5cd3b6d9596a","session_id":"619bfbdef70cb2f6bd34076a","condition":"full-information","relevant_dimensions":["wings","legs"],"bee_group":{"antennae":"X","wings":"2","pattern":"X","legs":"M"},"action":"harvest","summary":"good-harvest","bonus":1.1800000000000006},{"rt":693,"stimulus":"\n                    <p><b>Action: <em>harvest</em></b></p>\n                    <p>This is the bee that you just saw.</p>\n                    <img src=\"bees-with-color/bee-A1DF.svg\" width=\"200\">\n                    <p><span class=\"greenText\"><b>Successful harvest!</b></span><br>Your pay has increased by $0.02. Your bonus pay is now $1.30.</p>\n            ","response":0,"trial_type":"html-button-response","trial_index":120,"time_elapsed":899343,"internal_node_id":"0.0-4.0-1.56","subject_id":"602fb33786b077cdbad2d5bb","study_id":"6197b3f67c2b5cd3b6d9596a","session_id":"619bfbdef70cb2f6bd34076a","condition":"full-information","relevant_dimensions":["wings","legs"],"bee_group":{"antennae":"X","wings":"2","pattern":"X","legs":"M"},"bonus":1.1800000000000006},{"rt":1581,"stimulus":"bees-with-color/bee-B2DF.svg","response":0,"trial_type":"image-button-response","trial_index":121,"time_elapsed":900926,"internal_node_id":"0.0-4.0-0.57","subject_id":"602fb33786b077cdbad2d5bb","study_id":"6197b3f67c2b5cd3b6d9596a","session_id":"619bfbdef70cb2f6bd34076a","condition":"full-information","relevant_dimensions":["wings","legs"],"bee_group":{"antennae":"X","wings":"2","pattern":"X","legs":"M"},"action":"harvest","summary":"good-harvest","bonus":1.1800000000000006},{"rt":806,"stimulus":"\n                    <p><b>Action: <em>harvest</em></b></p>\n                    <p>This is the bee that you just saw.</p>\n                    <img src=\"bees-with-color/bee-B2DF.svg\" width=\"200\">\n                    <p><span class=\"greenText\"><b>Successful harvest!</b></span><br>Your pay has increased by $0.02. Your bonus pay is now $1.32.</p>\n            ","response":0,"trial_type":"html-button-response","trial_index":122,"time_elapsed":901735,"internal_node_id":"0.0-4.0-1.57","subject_id":"602fb33786b077cdbad2d5bb","study_id":"6197b3f67c2b5cd3b6d9596a","session_id":"619bfbdef70cb2f6bd34076a","condition":"full-information","relevant_dimensions":["wings","legs"],"bee_group":{"antennae":"X","wings":"2","pattern":"X","legs":"M"},"bonus":1.1800000000000006},{"rt":1894,"stimulus":"bees-with-color/bee-A2DM.svg","response":1,"trial_type":"image-button-response","trial_index":123,"time_elapsed":903630,"internal_node_id":"0.0-4.0-0.58","subject_id":"602fb33786b077cdbad2d5bb","study_id":"6197b3f67c2b5cd3b6d9596a","session_id":"619bfbdef70cb2f6bd34076a","condition":"full-information","relevant_dimensions":["wings","legs"],"bee_group":{"antennae":"X","wings":"2","pattern":"X","legs":"M"},"action":"avoid","summary":"good-avoid","bonus":1.1800000000000006},{"rt":862,"stimulus":"\n                    <p><b>Action: <em>avoid</em></b></p>\n                    <p>This is the bee that you just saw.</p>\n                    <img src=\"bees-with-color/bee-A2DM.svg\" width=\"200\">\n                    <p><span class=\"greenText\">Good choice!</span>  This bee would have stung you.<br>Your bonus pay is unchanged, and remains at $1.32.</p>\n            ","response":0,"trial_type":"html-button-response","trial_index":124,"time_elapsed":904494,"internal_node_id":"0.0-4.0-1.58","subject_id":"602fb33786b077cdbad2d5bb","study_id":"6197b3f67c2b5cd3b6d9596a","session_id":"619bfbdef70cb2f6bd34076a","condition":"full-information","relevant_dimensions":["wings","legs"],"bee_group":{"antennae":"X","wings":"2","pattern":"X","legs":"M"},"bonus":1.1800000000000006},{"rt":3821,"stimulus":"bees-with-color/bee-B1DF.svg","response":0,"trial_type":"image-button-response","trial_index":125,"time_elapsed":908318,"internal_node_id":"0.0-4.0-0.59","subject_id":"602fb33786b077cdbad2d5bb","study_id":"6197b3f67c2b5cd3b6d9596a","session_id":"619bfbdef70cb2f6bd34076a","condition":"full-information","relevant_dimensions":["wings","legs"],"bee_group":{"antennae":"X","wings":"2","pattern":"X","legs":"M"},"action":"harvest","summary":"good-harvest","bonus":1.1800000000000006},{"rt":693,"stimulus":"\n                    <p><b>Action: <em>harvest</em></b></p>\n                    <p>This is the bee that you just saw.</p>\n                    <img src=\"bees-with-color/bee-B1DF.svg\" width=\"200\">\n                    <p><span class=\"greenText\"><b>Successful harvest!</b></span><br>Your pay has increased by $0.02. Your bonus pay is now $1.34.</p>\n            ","response":0,"trial_type":"html-button-response","trial_index":126,"time_elapsed":909014,"internal_node_id":"0.0-4.0-1.59","subject_id":"602fb33786b077cdbad2d5bb","study_id":"6197b3f67c2b5cd3b6d9596a","session_id":"619bfbdef70cb2f6bd34076a","condition":"full-information","relevant_dimensions":["wings","legs"],"bee_group":{"antennae":"X","wings":"2","pattern":"X","legs":"M"},"bonus":1.1800000000000006},{"rt":1317,"stimulus":"bees-with-color/bee-A2SF.svg","response":0,"trial_type":"image-button-response","trial_index":127,"time_elapsed":910334,"internal_node_id":"0.0-4.0-0.60","subject_id":"602fb33786b077cdbad2d5bb","study_id":"6197b3f67c2b5cd3b6d9596a","session_id":"619bfbdef70cb2f6bd34076a","condition":"full-information","relevant_dimensions":["wings","legs"],"bee_group":{"antennae":"X","wings":"2","pattern":"X","legs":"M"},"action":"harvest","summary":"good-harvest","bonus":1.1800000000000006},{"rt":702,"stimulus":"\n                    <p><b>Action: <em>harvest</em></b></p>\n                    <p>This is the bee that you just saw.</p>\n                    <img src=\"bees-with-color/bee-A2SF.svg\" width=\"200\">\n                    <p><span class=\"greenText\"><b>Successful harvest!</b></span><br>Your pay has increased by $0.02. Your bonus pay is now $1.36.</p>\n            ","response":0,"trial_type":"html-button-response","trial_index":128,"time_elapsed":911038,"internal_node_id":"0.0-4.0-1.60","subject_id":"602fb33786b077cdbad2d5bb","study_id":"6197b3f67c2b5cd3b6d9596a","session_id":"619bfbdef70cb2f6bd34076a","condition":"full-information","relevant_dimensions":["wings","legs"],"bee_group":{"antennae":"X","wings":"2","pattern":"X","legs":"M"},"bonus":1.1800000000000006},{"rt":1950,"stimulus":"bees-with-color/bee-A1SM.svg","response":0,"trial_type":"image-button-response","trial_index":129,"time_elapsed":912990,"internal_node_id":"0.0-4.0-0.61","subject_id":"602fb33786b077cdbad2d5bb","study_id":"6197b3f67c2b5cd3b6d9596a","session_id":"619bfbdef70cb2f6bd34076a","condition":"full-information","relevant_dimensions":["wings","legs"],"bee_group":{"antennae":"X","wings":"2","pattern":"X","legs":"M"},"action":"harvest","summary":"good-harvest","bonus":1.1800000000000006},{"rt":702,"stimulus":"\n                    <p><b>Action: <em>harvest</em></b></p>\n                    <p>This is the bee that you just saw.</p>\n                    <img src=\"bees-with-color/bee-A1SM.svg\" width=\"200\">\n                    <p><span class=\"greenText\"><b>Successful harvest!</b></span><br>Your pay has increased by $0.02. Your bonus pay is now $1.38.</p>\n            ","response":0,"trial_type":"html-button-response","trial_index":130,"time_elapsed":913694,"internal_node_id":"0.0-4.0-1.61","subject_id":"602fb33786b077cdbad2d5bb","study_id":"6197b3f67c2b5cd3b6d9596a","session_id":"619bfbdef70cb2f6bd34076a","condition":"full-information","relevant_dimensions":["wings","legs"],"bee_group":{"antennae":"X","wings":"2","pattern":"X","legs":"M"},"bonus":1.1800000000000006},{"rt":1822,"stimulus":"bees-with-color/bee-A2SM.svg","response":1,"trial_type":"image-button-response","trial_index":131,"time_elapsed":915518,"internal_node_id":"0.0-4.0-0.62","subject_id":"602fb33786b077cdbad2d5bb","study_id":"6197b3f67c2b5cd3b6d9596a","session_id":"619bfbdef70cb2f6bd34076a","condition":"full-information","relevant_dimensions":["wings","legs"],"bee_group":{"antennae":"X","wings":"2","pattern":"X","legs":"M"},"action":"avoid","summary":"good-avoid","bonus":1.1800000000000006},{"rt":1141,"stimulus":"\n                    <p><b>Action: <em>avoid</em></b></p>\n                    <p>This is the bee that you just saw.</p>\n                    <img src=\"bees-with-color/bee-A2SM.svg\" width=\"200\">\n                    <p><span class=\"greenText\">Good choice!</span>  This bee would have stung you.<br>Your bonus pay is unchanged, and remains at $1.38.</p>\n            ","response":0,"trial_type":"html-button-response","trial_index":132,"time_elapsed":916662,"internal_node_id":"0.0-4.0-1.62","subject_id":"602fb33786b077cdbad2d5bb","study_id":"6197b3f67c2b5cd3b6d9596a","session_id":"619bfbdef70cb2f6bd34076a","condition":"full-information","relevant_dimensions":["wings","legs"],"bee_group":{"antennae":"X","wings":"2","pattern":"X","legs":"M"},"bonus":1.1800000000000006},{"rt":1918,"stimulus":"bees-with-color/bee-B1SF.svg","response":0,"trial_type":"image-button-response","trial_index":133,"time_elapsed":918582,"internal_node_id":"0.0-4.0-0.63","subject_id":"602fb33786b077cdbad2d5bb","study_id":"6197b3f67c2b5cd3b6d9596a","session_id":"619bfbdef70cb2f6bd34076a","condition":"full-information","relevant_dimensions":["wings","legs"],"bee_group":{"antennae":"X","wings":"2","pattern":"X","legs":"M"},"action":"harvest","summary":"good-harvest","bonus":1.1800000000000006},{"rt":1037,"stimulus":"\n                    <p><b>Action: <em>harvest</em></b></p>\n                    <p>This is the bee that you just saw.</p>\n                    <img src=\"bees-with-color/bee-B1SF.svg\" width=\"200\">\n                    <p><span class=\"greenText\"><b>Successful harvest!</b></span><br>Your pay has increased by $0.02. Your bonus pay is now $1.40.</p>\n            ","response":0,"trial_type":"html-button-response","trial_index":134,"time_elapsed":919622,"internal_node_id":"0.0-4.0-1.63","subject_id":"602fb33786b077cdbad2d5bb","study_id":"6197b3f67c2b5cd3b6d9596a","session_id":"619bfbdef70cb2f6bd34076a","condition":"full-information","relevant_dimensions":["wings","legs"],"bee_group":{"antennae":"X","wings":"2","pattern":"X","legs":"M"},"bonus":1.1800000000000006},{"rt":19413,"stimulus":"You have completed the first part of this experiment.<br><br>You will now begin a shorter second part, in which you will receive no feedback.<br>The same rules regarding bonus pay apply.<br><br>Press any key to begin.","response":" ","trial_type":"html-keyboard-response","trial_index":135,"time_elapsed":939038,"internal_node_id":"0.0-5.0","subject_id":"602fb33786b077cdbad2d5bb","study_id":"6197b3f67c2b5cd3b6d9596a","session_id":"619bfbdef70cb2f6bd34076a","condition":"full-information","relevant_dimensions":["wings","legs"],"bee_group":{"antennae":"X","wings":"2","pattern":"X","legs":"M"},"bonus":1.1800000000000006},{"rt":4894,"stimulus":"bees-with-color/bee-B2DF.svg","response":0,"trial_type":"image-button-response","trial_index":136,"time_elapsed":943934,"internal_node_id":"0.0-6.0-0.0","subject_id":"602fb33786b077cdbad2d5bb","study_id":"6197b3f67c2b5cd3b6d9596a","session_id":"619bfbdef70cb2f6bd34076a","condition":"full-information","relevant_dimensions":["wings","legs"],"bee_group":{"antennae":"X","wings":"2","pattern":"X","legs":"M"},"bonus":1.1800000000000006},{"rt":15445,"stimulus":"bees-with-color/bee-B2SM.svg","response":0,"trial_type":"image-button-response","trial_index":137,"time_elapsed":959382,"internal_node_id":"0.0-6.0-0.1","subject_id":"602fb33786b077cdbad2d5bb","study_id":"6197b3f67c2b5cd3b6d9596a","session_id":"619bfbdef70cb2f6bd34076a","condition":"full-information","relevant_dimensions":["wings","legs"],"bee_group":{"antennae":"X","wings":"2","pattern":"X","legs":"M"},"bonus":1.1800000000000006},{"rt":2934,"stimulus":"bees-with-color/bee-A1SF.svg","response":1,"trial_type":"image-button-response","trial_index":138,"time_elapsed":962317,"internal_node_id":"0.0-6.0-0.2","subject_id":"602fb33786b077cdbad2d5bb","study_id":"6197b3f67c2b5cd3b6d9596a","session_id":"619bfbdef70cb2f6bd34076a","condition":"full-information","relevant_dimensions":["wings","legs"],"bee_group":{"antennae":"X","wings":"2","pattern":"X","legs":"M"},"bonus":1.1800000000000006},{"rt":3692,"stimulus":"bees-with-color/bee-B2DM.svg","response":1,"trial_type":"image-button-response","trial_index":139,"time_elapsed":966013,"internal_node_id":"0.0-6.0-0.3","subject_id":"602fb33786b077cdbad2d5bb","study_id":"6197b3f67c2b5cd3b6d9596a","session_id":"619bfbdef70cb2f6bd34076a","condition":"full-information","relevant_dimensions":["wings","legs"],"bee_group":{"antennae":"X","wings":"2","pattern":"X","legs":"M"},"bonus":1.1800000000000006},{"rt":1894,"stimulus":"bees-with-color/bee-B1SM.svg","response":1,"trial_type":"image-button-response","trial_index":140,"time_elapsed":967909,"internal_node_id":"0.0-6.0-0.4","subject_id":"602fb33786b077cdbad2d5bb","study_id":"6197b3f67c2b5cd3b6d9596a","session_id":"619bfbdef70cb2f6bd34076a","condition":"full-information","relevant_dimensions":["wings","legs"],"bee_group":{"antennae":"X","wings":"2","pattern":"X","legs":"M"},"bonus":1.1800000000000006},{"rt":3429,"stimulus":"bees-with-color/bee-A2DF.svg","response":1,"trial_type":"image-button-response","trial_index":141,"time_elapsed":971342,"internal_node_id":"0.0-6.0-0.5","subject_id":"602fb33786b077cdbad2d5bb","study_id":"6197b3f67c2b5cd3b6d9596a","session_id":"619bfbdef70cb2f6bd34076a","condition":"full-information","relevant_dimensions":["wings","legs"],"bee_group":{"antennae":"X","wings":"2","pattern":"X","legs":"M"},"bonus":1.1800000000000006},{"rt":836,"stimulus":"bees-with-color/bee-B2SF.svg","response":0,"trial_type":"image-button-response","trial_index":142,"time_elapsed":972180,"internal_node_id":"0.0-6.0-0.6","subject_id":"602fb33786b077cdbad2d5bb","study_id":"6197b3f67c2b5cd3b6d9596a","session_id":"619bfbdef70cb2f6bd34076a","condition":"full-information","relevant_dimensions":["wings","legs"],"bee_group":{"antennae":"X","wings":"2","pattern":"X","legs":"M"},"bonus":1.1800000000000006},{"rt":2672,"stimulus":"bees-with-color/bee-A1SM.svg","response":1,"trial_type":"image-button-response","trial_index":143,"time_elapsed":974854,"internal_node_id":"0.0-6.0-0.7","subject_id":"602fb33786b077cdbad2d5bb","study_id":"6197b3f67c2b5cd3b6d9596a","session_id":"619bfbdef70cb2f6bd34076a","condition":"full-information","relevant_dimensions":["wings","legs"],"bee_group":{"antennae":"X","wings":"2","pattern":"X","legs":"M"},"bonus":1.1800000000000006},{"rt":1405,"stimulus":"bees-with-color/bee-B1DF.svg","response":1,"trial_type":"image-button-response","trial_index":144,"time_elapsed":976262,"internal_node_id":"0.0-6.0-0.8","subject_id":"602fb33786b077cdbad2d5bb","study_id":"6197b3f67c2b5cd3b6d9596a","session_id":"619bfbdef70cb2f6bd34076a","condition":"full-information","relevant_dimensions":["wings","legs"],"bee_group":{"antennae":"X","wings":"2","pattern":"X","legs":"M"},"bonus":1.1800000000000006},{"rt":1205,"stimulus":"bees-with-color/bee-A2DM.svg","response":0,"trial_type":"image-button-response","trial_index":145,"time_elapsed":977469,"internal_node_id":"0.0-6.0-0.9","subject_id":"602fb33786b077cdbad2d5bb","study_id":"6197b3f67c2b5cd3b6d9596a","session_id":"619bfbdef70cb2f6bd34076a","condition":"full-information","relevant_dimensions":["wings","legs"],"bee_group":{"antennae":"X","wings":"2","pattern":"X","legs":"M"},"bonus":1.1800000000000006},{"rt":1158,"stimulus":"bees-with-color/bee-A1DM.svg","response":1,"trial_type":"image-button-response","trial_index":146,"time_elapsed":978630,"internal_node_id":"0.0-6.0-0.10","subject_id":"602fb33786b077cdbad2d5bb","study_id":"6197b3f67c2b5cd3b6d9596a","session_id":"619bfbdef70cb2f6bd34076a","condition":"full-information","relevant_dimensions":["wings","legs"],"bee_group":{"antennae":"X","wings":"2","pattern":"X","legs":"M"},"bonus":1.1800000000000006},{"rt":773,"stimulus":"bees-with-color/bee-A1DF.svg","response":1,"trial_type":"image-button-response","trial_index":147,"time_elapsed":979405,"internal_node_id":"0.0-6.0-0.11","subject_id":"602fb33786b077cdbad2d5bb","study_id":"6197b3f67c2b5cd3b6d9596a","session_id":"619bfbdef70cb2f6bd34076a","condition":"full-information","relevant_dimensions":["wings","legs"],"bee_group":{"antennae":"X","wings":"2","pattern":"X","legs":"M"},"bonus":1.1800000000000006},{"rt":934,"stimulus":"bees-with-color/bee-A2SF.svg","response":1,"trial_type":"image-button-response","trial_index":148,"time_elapsed":980341,"internal_node_id":"0.0-6.0-0.12","subject_id":"602fb33786b077cdbad2d5bb","study_id":"6197b3f67c2b5cd3b6d9596a","session_id":"619bfbdef70cb2f6bd34076a","condition":"full-information","relevant_dimensions":["wings","legs"],"bee_group":{"antennae":"X","wings":"2","pattern":"X","legs":"M"},"bonus":1.1800000000000006},{"rt":925,"stimulus":"bees-with-color/bee-B1DM.svg","response":1,"trial_type":"image-button-response","trial_index":149,"time_elapsed":981270,"internal_node_id":"0.0-6.0-0.13","subject_id":"602fb33786b077cdbad2d5bb","study_id":"6197b3f67c2b5cd3b6d9596a","session_id":"619bfbdef70cb2f6bd34076a","condition":"full-information","relevant_dimensions":["wings","legs"],"bee_group":{"antennae":"X","wings":"2","pattern":"X","legs":"M"},"bonus":1.1800000000000006},{"rt":613,"stimulus":"bees-with-color/bee-B1SF.svg","response":1,"trial_type":"image-button-response","trial_index":150,"time_elapsed":981885,"internal_node_id":"0.0-6.0-0.14","subject_id":"602fb33786b077cdbad2d5bb","study_id":"6197b3f67c2b5cd3b6d9596a","session_id":"619bfbdef70cb2f6bd34076a","condition":"full-information","relevant_dimensions":["wings","legs"],"bee_group":{"antennae":"X","wings":"2","pattern":"X","legs":"M"},"bonus":1.1800000000000006},{"rt":941,"stimulus":"bees-with-color/bee-A2SM.svg","response":1,"trial_type":"image-button-response","trial_index":151,"time_elapsed":982829,"internal_node_id":"0.0-6.0-0.15","subject_id":"602fb33786b077cdbad2d5bb","study_id":"6197b3f67c2b5cd3b6d9596a","session_id":"619bfbdef70cb2f6bd34076a","condition":"full-information","relevant_dimensions":["wings","legs"],"bee_group":{"antennae":"X","wings":"2","pattern":"X","legs":"M"},"bonus":1.1800000000000006},{"rt":1086,"stimulus":"bees-with-color/bee-B2SF.svg","response":0,"trial_type":"image-button-response","trial_index":152,"time_elapsed":983918,"internal_node_id":"0.0-6.0-0.16","subject_id":"602fb33786b077cdbad2d5bb","study_id":"6197b3f67c2b5cd3b6d9596a","session_id":"619bfbdef70cb2f6bd34076a","condition":"full-information","relevant_dimensions":["wings","legs"],"bee_group":{"antennae":"X","wings":"2","pattern":"X","legs":"M"},"bonus":1.1800000000000006},{"rt":1933,"stimulus":"bees-with-color/bee-A2DM.svg","response":1,"trial_type":"image-button-response","trial_index":153,"time_elapsed":985854,"internal_node_id":"0.0-6.0-0.17","subject_id":"602fb33786b077cdbad2d5bb","study_id":"6197b3f67c2b5cd3b6d9596a","session_id":"619bfbdef70cb2f6bd34076a","condition":"full-information","relevant_dimensions":["wings","legs"],"bee_group":{"antennae":"X","wings":"2","pattern":"X","legs":"M"},"bonus":1.1800000000000006},{"rt":765,"stimulus":"bees-with-color/bee-B2DF.svg","response":1,"trial_type":"image-button-response","trial_index":154,"time_elapsed":986622,"internal_node_id":"0.0-6.0-0.18","subject_id":"602fb33786b077cdbad2d5bb","study_id":"6197b3f67c2b5cd3b6d9596a","session_id":"619bfbdef70cb2f6bd34076a","condition":"full-information","relevant_dimensions":["wings","legs"],"bee_group":{"antennae":"X","wings":"2","pattern":"X","legs":"M"},"bonus":1.1800000000000006},{"rt":950,"stimulus":"bees-with-color/bee-A2SM.svg","response":1,"trial_type":"image-button-response","trial_index":155,"time_elapsed":987574,"internal_node_id":"0.0-6.0-0.19","subject_id":"602fb33786b077cdbad2d5bb","study_id":"6197b3f67c2b5cd3b6d9596a","session_id":"619bfbdef70cb2f6bd34076a","condition":"full-information","relevant_dimensions":["wings","legs"],"bee_group":{"antennae":"X","wings":"2","pattern":"X","legs":"M"},"bonus":1.1800000000000006},{"rt":206,"stimulus":"bees-with-color/bee-A2SF.svg","response":1,"trial_type":"image-button-response","trial_index":156,"time_elapsed":987782,"internal_node_id":"0.0-6.0-0.20","subject_id":"602fb33786b077cdbad2d5bb","study_id":"6197b3f67c2b5cd3b6d9596a","session_id":"619bfbdef70cb2f6bd34076a","condition":"full-information","relevant_dimensions":["wings","legs"],"bee_group":{"antennae":"X","wings":"2","pattern":"X","legs":"M"},"bonus":1.1800000000000006},{"rt":269,"stimulus":"bees-with-color/bee-B1SF.svg","response":1,"trial_type":"image-button-response","trial_index":157,"time_elapsed":988053,"internal_node_id":"0.0-6.0-0.21","subject_id":"602fb33786b077cdbad2d5bb","study_id":"6197b3f67c2b5cd3b6d9596a","session_id":"619bfbdef70cb2f6bd34076a","condition":"full-information","relevant_dimensions":["wings","legs"],"bee_group":{"antennae":"X","wings":"2","pattern":"X","legs":"M"},"bonus":1.1800000000000006},{"rt":278,"stimulus":"bees-with-color/bee-B1SM.svg","response":1,"trial_type":"image-button-response","trial_index":158,"time_elapsed":988333,"internal_node_id":"0.0-6.0-0.22","subject_id":"602fb33786b077cdbad2d5bb","study_id":"6197b3f67c2b5cd3b6d9596a","session_id":"619bfbdef70cb2f6bd34076a","condition":"full-information","relevant_dimensions":["wings","legs"],"bee_group":{"antennae":"X","wings":"2","pattern":"X","legs":"M"},"bonus":1.1800000000000006},{"rt":509,"stimulus":"bees-with-color/bee-A2DF.svg","response":1,"trial_type":"image-button-response","trial_index":159,"time_elapsed":988845,"internal_node_id":"0.0-6.0-0.23","subject_id":"602fb33786b077cdbad2d5bb","study_id":"6197b3f67c2b5cd3b6d9596a","session_id":"619bfbdef70cb2f6bd34076a","condition":"full-information","relevant_dimensions":["wings","legs"],"bee_group":{"antennae":"X","wings":"2","pattern":"X","legs":"M"},"bonus":1.1800000000000006},{"rt":677,"stimulus":"bees-with-color/bee-B1DM.svg","response":1,"trial_type":"image-button-response","trial_index":160,"time_elapsed":989525,"internal_node_id":"0.0-6.0-0.24","subject_id":"602fb33786b077cdbad2d5bb","study_id":"6197b3f67c2b5cd3b6d9596a","session_id":"619bfbdef70cb2f6bd34076a","condition":"full-information","relevant_dimensions":["wings","legs"],"bee_group":{"antennae":"X","wings":"2","pattern":"X","legs":"M"},"bonus":1.1800000000000006},{"rt":446,"stimulus":"bees-with-color/bee-A1DM.svg","response":1,"trial_type":"image-button-response","trial_index":161,"time_elapsed":989974,"internal_node_id":"0.0-6.0-0.25","subject_id":"602fb33786b077cdbad2d5bb","study_id":"6197b3f67c2b5cd3b6d9596a","session_id":"619bfbdef70cb2f6bd34076a","condition":"full-information","relevant_dimensions":["wings","legs"],"bee_group":{"antennae":"X","wings":"2","pattern":"X","legs":"M"},"bonus":1.1800000000000006},{"rt":1061,"stimulus":"bees-with-color/bee-A1DF.svg","response":0,"trial_type":"image-button-response","trial_index":162,"time_elapsed":991037,"internal_node_id":"0.0-6.0-0.26","subject_id":"602fb33786b077cdbad2d5bb","study_id":"6197b3f67c2b5cd3b6d9596a","session_id":"619bfbdef70cb2f6bd34076a","condition":"full-information","relevant_dimensions":["wings","legs"],"bee_group"