[{"success":true,"trial_type":"fullscreen","trial_index":0,"time_elapsed":20142,"internal_node_id":"0.0-0.0","subject_id":"5e7fa0e918b10804bb87eb63","study_id":"6197b3f67c2b5cd3b6d9596a","session_id":"619be59017986ed5c4104e8c","condition":"full-information","relevant_dimensions":["antennae","legs"],"bee_group":{"antennae":"B","wings":"X","pattern":"X","legs":"F"},"bonus":1.6200000000000012},{"success":true,"timeout":false,"failed_images":[],"failed_audio":[],"failed_video":[],"trial_type":"preload","trial_index":1,"time_elapsed":21473,"internal_node_id":"0.0-1.0","subject_id":"5e7fa0e918b10804bb87eb63","study_id":"6197b3f67c2b5cd3b6d9596a","session_id":"619be59017986ed5c4104e8c","condition":"full-information","relevant_dimensions":["antennae","legs"],"bee_group":{"antennae":"B","wings":"X","pattern":"X","legs":"F"},"bonus":1.6200000000000012},{"rt":1699.1999999284744,"stimulus":"Welcome! Press any key to begin.","response":"h","trial_type":"html-keyboard-response","trial_index":2,"time_elapsed":23173,"internal_node_id":"0.0-2.0","subject_id":"5e7fa0e918b10804bb87eb63","study_id":"6197b3f67c2b5cd3b6d9596a","session_id":"619be59017986ed5c4104e8c","condition":"full-information","relevant_dimensions":["antennae","legs"],"bee_group":{"antennae":"B","wings":"X","pattern":"X","legs":"F"},"bonus":1.6200000000000012},{"view_history":[{"page_index":0,"viewing_time":9816.299999952316},{"page_index":1,"viewing_time":8728},{"page_index":2,"viewing_time":9640.200000047684},{"page_index":3,"viewing_time":12840},{"page_index":4,"viewing_time":5112.199999928474},{"page_index":5,"viewing_time":7416.100000023842},{"page_index":6,"viewing_time":14040},{"page_index":7,"viewing_time":62880.800000071526},{"page_index":8,"viewing_time":12096.099999904633},{"page_index":9,"viewing_time":10672.200000047684},{"page_index":10,"viewing_time":8168.200000047684},{"page_index":11,"viewing_time":5343.899999976158},{"page_index":12,"viewing_time":11008},{"page_index":13,"viewing_time":2615.899999976158},{"page_index":14,"viewing_time":2504.100000023842}],"rt":182882.29999995232,"trial_type":"instructions","trial_index":3,"time_elapsed":206057,"internal_node_id":"0.0-3.0-0.0","subject_id":"5e7fa0e918b10804bb87eb63","study_id":"6197b3f67c2b5cd3b6d9596a","session_id":"619be59017986ed5c4104e8c","condition":"full-information","relevant_dimensions":["antennae","legs"],"bee_group":{"antennae":"B","wings":"X","pattern":"X","legs":"F"},"bonus":1.6200000000000012},{"rt":25348.700000047684,"response":{"Q0":["Two or six legs","Stripes or spots on body","Stinger or no stinger","Single or double wings","Antennae or no antennae"]},"question_order":[0],"trial_type":"survey-multi-select","trial_index":4,"time_elapsed":231410,"internal_node_id":"0.0-3.0-1.0","subject_id":"5e7fa0e918b10804bb87eb63","study_id":"6197b3f67c2b5cd3b6d9596a","session_id":"619be59017986ed5c4104e8c","condition":"full-information","relevant_dimensions":["antennae","legs"],"bee_group":{"antennae":"B","wings":"X","pattern":"X","legs":"F"},"correct":false,"bonus":1.6200000000000012},{"rt":20693.600000023842,"response":{"Q1":"No.","Q2":"Based on the four features of the bee.","Q3":"You learn if it was friendly or dangerous, but do not alter your bonus."},"question_order":[0,1,2],"trial_type":"survey-multi-choice","trial_index":5,"time_elapsed":252106,"internal_node_id":"0.0-3.0-2.0","subject_id":"5e7fa0e918b10804bb87eb63","study_id":"6197b3f67c2b5cd3b6d9596a","session_id":"619be59017986ed5c4104e8c","condition":"full-information","relevant_dimensions":["antennae","legs"],"bee_group":{"antennae":"B","wings":"X","pattern":"X","legs":"F"},"correct":true,"bonus":1.6200000000000012},{"rt":2758.1999999284744,"stimulus":"<p>You did not answer all comprehension questions correctly.<br>Press <b>continue</b> to review the instructions again.</p>","response":0,"trial_type":"html-button-response","trial_index":6,"time_elapsed":254865,"internal_node_id":"0.0-3.0-3.0","subject_id":"5e7fa0e918b10804bb87eb63","study_id":"6197b3f67c2b5cd3b6d9596a","session_id":"619be59017986ed5c4104e8c","condition":"full-information","relevant_dimensions":["antennae","legs"],"bee_group":{"antennae":"B","wings":"X","pattern":"X","legs":"F"},"bonus":1.6200000000000012},{"view_history":[{"page_index":0,"viewing_time":1662.1000000238419},{"page_index":1,"viewing_time":2288.100000023842},{"page_index":2,"viewing_time":4112},{"page_index":3,"viewing_time":7864.099999904633},{"page_index":4,"viewing_time":5480.100000023842},{"page_index":5,"viewing_time":4272.100000023842},{"page_index":6,"viewing_time":6063.899999976158},{"page_index":7,"viewing_time":1944.2000000476837},{"page_index":8,"viewing_time":1207.8999999761581},{"page_index":9,"viewing_time":1016.1000000238419},{"page_index":10,"viewing_time":968},{"page_index":11,"viewing_time":3608},{"page_index":12,"viewing_time":1984},{"page_index":13,"viewing_time":1320},{"page_index":14,"viewing_time":1072.1000000238419}],"rt":44862.89999997616,"trial_type":"instructions","trial_index":7,"time_elapsed":299729,"internal_node_id":"0.0-3.0-4.0-0.0","subject_id":"5e7fa0e918b10804bb87eb63","study_id":"6197b3f67c2b5cd3b6d9596a","session_id":"619be59017986ed5c4104e8c","condition":"full-information","relevant_dimensions":["antennae","legs"],"bee_group":{"antennae":"B","wings":"X","pattern":"X","legs":"F"},"bonus":1.6200000000000012},{"rt":9429.399999976158,"response":{"Q0":["Two or six legs","Stripes or spots on body","Single or double wings","Antennae or no antennae"]},"question_order":[0],"trial_type":"survey-multi-select","trial_index":8,"time_elapsed":309162,"internal_node_id":"0.0-3.0-4.0-1.0","subject_id":"5e7fa0e918b10804bb87eb63","study_id":"6197b3f67c2b5cd3b6d9596a","session_id":"619be59017986ed5c4104e8c","condition":"full-information","relevant_dimensions":["antennae","legs"],"bee_group":{"antennae":"B","wings":"X","pattern":"X","legs":"F"},"correct":true,"bonus":1.6200000000000012},{"rt":10302.200000047684,"response":{"Q1":"No.","Q2":"Based on the four features of the bee.","Q3":"You learn if it was friendly or dangerous, but do not alter your bonus."},"question_order":[0,1,2],"trial_type":"survey-multi-choice","trial_index":9,"time_elapsed":319466,"internal_node_id":"0.0-3.0-4.0-2.0","subject_id":"5e7fa0e918b10804bb87eb63","study_id":"6197b3f67c2b5cd3b6d9596a","session_id":"619be59017986ed5c4104e8c","condition":"full-information","relevant_dimensions":["antennae","legs"],"bee_group":{"antennae":"B","wings":"X","pattern":"X","legs":"F"},"correct":true,"bonus":1.6200000000000012},{"rt":2134.399999976158,"stimulus":"<p>Congrats, you got everything right<br>When you're ready, click the button below to continue to the experiment.</p>","response":0,"trial_type":"html-button-response","trial_index":10,"time_elapsed":321601,"internal_node_id":"0.0-3.0-4.0-3.0","subject_id":"5e7fa0e918b10804bb87eb63","study_id":"6197b3f67c2b5cd3b6d9596a","session_id":"619be59017986ed5c4104e8c","condition":"full-information","relevant_dimensions":["antennae","legs"],"bee_group":{"antennae":"B","wings":"X","pattern":"X","legs":"F"},"bonus":1.6200000000000012},{"rt":20949.600000023842,"stimulus":"bees-with-color/bee-A2DM.svg","response":1,"trial_type":"image-button-response","trial_index":11,"time_elapsed":342554,"internal_node_id":"0.0-4.0-0.0","subject_id":"5e7fa0e918b10804bb87eb63","study_id":"6197b3f67c2b5cd3b6d9596a","session_id":"619be59017986ed5c4104e8c","condition":"full-information","relevant_dimensions":["antennae","legs"],"bee_group":{"antennae":"B","wings":"X","pattern":"X","legs":"F"},"action":"avoid","summary":"bad-avoid","bonus":1.6200000000000012},{"rt":10244.699999928474,"stimulus":"\n                    <p><b>Action: <em>avoid</em></b></p>\n                    <p>This is the bee that you just saw.</p>\n                    <img src=\"bees-with-color/bee-A2DM.svg\" width=\"200\">\n                    <p><span class=\"redText\">Bad choice,</span> the bee was friendly.<br>Your bonus pay is unchanged, and remains at $0.54.</p>\n            ","response":0,"trial_type":"html-button-response","trial_index":12,"time_elapsed":352802,"internal_node_id":"0.0-4.0-1.0","subject_id":"5e7fa0e918b10804bb87eb63","study_id":"6197b3f67c2b5cd3b6d9596a","session_id":"619be59017986ed5c4104e8c","condition":"full-information","relevant_dimensions":["antennae","legs"],"bee_group":{"antennae":"B","wings":"X","pattern":"X","legs":"F"},"bonus":1.6200000000000012},{"rt":27485.799999952316,"stimulus":"bees-with-color/bee-A1SM.svg","response":1,"trial_type":"image-button-response","trial_index":13,"time_elapsed":380290,"internal_node_id":"0.0-4.0-0.1","subject_id":"5e7fa0e918b10804bb87eb63","study_id":"6197b3f67c2b5cd3b6d9596a","session_id":"619be59017986ed5c4104e8c","condition":"full-information","relevant_dimensions":["antennae","legs"],"bee_group":{"antennae":"B","wings":"X","pattern":"X","legs":"F"},"action":"avoid","summary":"bad-avoid","bonus":1.6200000000000012},{"rt":6094.400000095367,"stimulus":"\n                    <p><b>Action: <em>avoid</em></b></p>\n                    <p>This is the bee that you just saw.</p>\n                    <img src=\"bees-with-color/bee-A1SM.svg\" width=\"200\">\n                    <p><span class=\"redText\">Bad choice,</span> the bee was friendly.<br>Your bonus pay is unchanged, and remains at $0.54.</p>\n            ","response":0,"trial_type":"html-button-response","trial_index":14,"time_elapsed":386386,"internal_node_id":"0.0-4.0-1.1","subject_id":"5e7fa0e918b10804bb87eb63","study_id":"6197b3f67c2b5cd3b6d9596a","session_id":"619be59017986ed5c4104e8c","condition":"full-information","relevant_dimensions":["antennae","legs"],"bee_group":{"antennae":"B","wings":"X","pattern":"X","legs":"F"},"bonus":1.6200000000000012},{"rt":18885.099999904633,"stimulus":"bees-with-color/bee-B2SM.svg","response":1,"trial_type":"image-button-response","trial_index":15,"time_elapsed":405274,"internal_node_id":"0.0-4.0-0.2","subject_id":"5e7fa0e918b10804bb87eb63","study_id":"6197b3f67c2b5cd3b6d9596a","session_id":"619be59017986ed5c4104e8c","condition":"full-information","relevant_dimensions":["antennae","legs"],"bee_group":{"antennae":"B","wings":"X","pattern":"X","legs":"F"},"action":"avoid","summary":"bad-avoid","bonus":1.6200000000000012},{"rt":4990.300000071526,"stimulus":"\n                    <p><b>Action: <em>avoid</em></b></p>\n                    <p>This is the bee that you just saw.</p>\n                    <img src=\"bees-with-color/bee-B2SM.svg\" width=\"200\">\n                    <p><span class=\"redText\">Bad choice,</span> the bee was friendly.<br>Your bonus pay is unchanged, and remains at $0.54.</p>\n            ","response":0,"trial_type":"html-button-response","trial_index":16,"time_elapsed":410266,"internal_node_id":"0.0-4.0-1.2","subject_id":"5e7fa0e918b10804bb87eb63","study_id":"6197b3f67c2b5cd3b6d9596a","session_id":"619be59017986ed5c4104e8c","condition":"full-information","relevant_dimensions":["antennae","legs"],"bee_group":{"antennae":"B","wings":"X","pattern":"X","legs":"F"},"bonus":1.6200000000000012},{"rt":18302.300000071526,"stimulus":"bees-with-color/bee-A1SF.svg","response":1,"trial_type":"image-button-response","trial_index":17,"time_elapsed":428570,"internal_node_id":"0.0-4.0-0.3","subject_id":"5e7fa0e918b10804bb87eb63","study_id":"6197b3f67c2b5cd3b6d9596a","session_id":"619be59017986ed5c4104e8c","condition":"full-information","relevant_dimensions":["antennae","legs"],"bee_group":{"antennae":"B","wings":"X","pattern":"X","legs":"F"},"action":"avoid","summary":"bad-avoid","bonus":1.6200000000000012},{"rt":4894.399999976158,"stimulus":"\n                    <p><b>Action: <em>avoid</em></b></p>\n                    <p>This is the bee that you just saw.</p>\n                    <img src=\"bees-with-color/bee-A1SF.svg\" width=\"200\">\n                    <p><span class=\"redText\">Bad choice,</span> the bee was friendly.<br>Your bonus pay is unchanged, and remains at $0.54.</p>\n            ","response":0,"trial_type":"html-button-response","trial_index":18,"time_elapsed":433466,"internal_node_id":"0.0-4.0-1.3","subject_id":"5e7fa0e918b10804bb87eb63","study_id":"6197b3f67c2b5cd3b6d9596a","session_id":"619be59017986ed5c4104e8c","condition":"full-information","relevant_dimensions":["antennae","legs"],"bee_group":{"antennae":"B","wings":"X","pattern":"X","legs":"F"},"bonus":1.6200000000000012},{"rt":22461.899999976158,"stimulus":"bees-with-color/bee-B2DF.svg","response":1,"trial_type":"image-button-response","trial_index":19,"time_elapsed":455931,"internal_node_id":"0.0-4.0-0.4","subject_id":"5e7fa0e918b10804bb87eb63","study_id":"6197b3f67c2b5cd3b6d9596a","session_id":"619be59017986ed5c4104e8c","condition":"full-information","relevant_dimensions":["antennae","legs"],"bee_group":{"antennae":"B","wings":"X","pattern":"X","legs":"F"},"action":"avoid","summary":"good-avoid","bonus":1.6200000000000012},{"rt":11334.100000023842,"stimulus":"\n                    <p><b>Action: <em>avoid</em></b></p>\n                    <p>This is the bee that you just saw.</p>\n                    <img src=\"bees-with-color/bee-B2DF.svg\" width=\"200\">\n                    <p><span class=\"greenText\">Good choice!</span>  This bee would have stung you.<br>Your bonus pay is unchanged, and remains at $0.54.</p>\n            ","response":0,"trial_type":"html-button-response","trial_index":20,"time_elapsed":467267,"internal_node_id":"0.0-4.0-1.4","subject_id":"5e7fa0e918b10804bb87eb63","study_id":"6197b3f67c2b5cd3b6d9596a","session_id":"619be59017986ed5c4104e8c","condition":"full-information","relevant_dimensions":["antennae","legs"],"bee_group":{"antennae":"B","wings":"X","pattern":"X","legs":"F"},"bonus":1.6200000000000012},{"rt":25398,"stimulus":"bees-with-color/bee-B2SF.svg","response":0,"trial_type":"image-button-response","trial_index":21,"time_elapsed":492668,"internal_node_id":"0.0-4.0-0.5","subject_id":"5e7fa0e918b10804bb87eb63","study_id":"6197b3f67c2b5cd3b6d9596a","session_id":"619be59017986ed5c4104e8c","condition":"full-information","relevant_dimensions":["antennae","legs"],"bee_group":{"antennae":"B","wings":"X","pattern":"X","legs":"F"},"action":"harvest","summary":"bad-harvest","bonus":1.6200000000000012},{"rt":11382.5,"stimulus":"\n                    <p><b>Action: <em>harvest</em></b></p>\n                    <p>This is the bee that you just saw.</p>\n                    <img src=\"bees-with-color/bee-B2SF.svg\" width=\"200\">\n                    <p><span class=\"redText\">Bad choice, the bee was angry.</span><br><b>You have been stung!</b><br>Your pay has been decreased by $0.10. Your bonus pay is now $0.44.</p>\n            ","response":0,"trial_type":"html-button-response","trial_index":22,"time_elapsed":504052,"internal_node_id":"0.0-4.0-1.5","subject_id":"5e7fa0e918b10804bb87eb63","study_id":"6197b3f67c2b5cd3b6d9596a","session_id":"619be59017986ed5c4104e8c","condition":"full-information","relevant_dimensions":["antennae","legs"],"bee_group":{"antennae":"B","wings":"X","pattern":"X","legs":"F"},"bonus":1.6200000000000012},{"rt":38933.5,"stimulus":"bees-with-color/bee-B2DM.svg","response":0,"trial_type":"image-button-response","trial_index":23,"time_elapsed":542987,"internal_node_id":"0.0-4.0-0.6","subject_id":"5e7fa0e918b10804bb87eb63","study_id":"6197b3f67c2b5cd3b6d9596a","session_id":"619be59017986ed5c4104e8c","condition":"full-information","relevant_dimensions":["antennae","legs"],"bee_group":{"antennae":"B","wings":"X","pattern":"X","legs":"F"},"action":"harvest","summary":"good-harvest","bonus":1.6200000000000012},{"rt":4230.600000023842,"stimulus":"\n                    <p><b>Action: <em>harvest</em></b></p>\n                    <p>This is the bee that you just saw.</p>\n                    <img src=\"bees-with-color/bee-B2DM.svg\" width=\"200\">\n                    <p><span class=\"greenText\"><b>Successful harvest!</b></span><br>Your pay has increased by $0.02. Your bonus pay is now $0.46.</p>\n            ","response":0,"trial_type":"html-button-response","trial_index":24,"time_elapsed":547220,"internal_node_id":"0.0-4.0-1.6","subject_id":"5e7fa0e918b10804bb87eb63","study_id":"6197b3f67c2b5cd3b6d9596a","session_id":"619be59017986ed5c4104e8c","condition":"full-information","relevant_dimensions":["antennae","legs"],"bee_group":{"antennae":"B","wings":"X","pattern":"X","legs":"F"},"bonus":1.6200000000000012},{"rt":18006.600000023842,"stimulus":"bees-with-color/bee-A2SF.svg","response":0,"trial_type":"image-button-response","trial_index":25,"time_elapsed":565229,"internal_node_id":"0.0-4.0-0.7","subject_id":"5e7fa0e918b10804bb87eb63","study_id":"6197b3f67c2b5cd3b6d9596a","session_id":"619be59017986ed5c4104e8c","condition":"full-information","relevant_dimensions":["antennae","legs"],"bee_group":{"antennae":"B","wings":"X","pattern":"X","legs":"F"},"action":"harvest","summary":"good-harvest","bonus":1.6200000000000012},{"rt":1852.6000000238419,"stimulus":"\n                    <p><b>Action: <em>harvest</em></b></p>\n                    <p>This is the bee that you just saw.</p>\n                    <img src=\"bees-with-color/bee-A2SF.svg\" width=\"200\">\n                    <p><span class=\"greenText\"><b>Successful harvest!</b></span><br>Your pay has increased by $0.02. Your bonus pay is now $0.48.</p>\n            ","response":0,"trial_type":"html-button-response","trial_index":26,"time_elapsed":567084,"internal_node_id":"0.0-4.0-1.7","subject_id":"5e7fa0e918b10804bb87eb63","study_id":"6197b3f67c2b5cd3b6d9596a","session_id":"619be59017986ed5c4104e8c","condition":"full-information","relevant_dimensions":["antennae","legs"],"bee_group":{"antennae":"B","wings":"X","pattern":"X","legs":"F"},"bonus":1.6200000000000012},{"rt":15461.699999928474,"stimulus":"bees-with-color/bee-A2SM.svg","response":0,"trial_type":"image-button-response","trial_index":27,"time_elapsed":582548,"internal_node_id":"0.0-4.0-0.8","subject_id":"5e7fa0e918b10804bb87eb63","study_id":"6197b3f67c2b5cd3b6d9596a","session_id":"619be59017986ed5c4104e8c","condition":"full-information","relevant_dimensions":["antennae","legs"],"bee_group":{"antennae":"B","wings":"X","pattern":"X","legs":"F"},"action":"harvest","summary":"good-harvest","bonus":1.6200000000000012},{"rt":1630.6999999284744,"stimulus":"\n                    <p><b>Action: <em>harvest</em></b></p>\n                    <p>This is the bee that you just saw.</p>\n                    <img src=\"bees-with-color/bee-A2SM.svg\" width=\"200\">\n                    <p><span class=\"greenText\"><b>Successful harvest!</b></span><br>Your pay has increased by $0.02. Your bonus pay is now $0.50.</p>\n            ","response":0,"trial_type":"html-button-response","trial_index":28,"time_elapsed":584180,"internal_node_id":"0.0-4.0-1.8","subject_id":"5e7fa0e918b10804bb87eb63","study_id":"6197b3f67c2b5cd3b6d9596a","session_id":"619be59017986ed5c4104e8c","condition":"full-information","relevant_dimensions":["antennae","legs"],"bee_group":{"antennae":"B","wings":"X","pattern":"X","legs":"F"},"bonus":1.6200000000000012},{"rt":8309.699999928474,"stimulus":"bees-with-color/bee-B1DF.svg","response":0,"trial_type":"image-button-response","trial_index":29,"time_elapsed":592492,"internal_node_id":"0.0-4.0-0.9","subject_id":"5e7fa0e918b10804bb87eb63","study_id":"6197b3f67c2b5cd3b6d9596a","session_id":"619be59017986ed5c4104e8c","condition":"full-information","relevant_dimensions":["antennae","legs"],"bee_group":{"antennae":"B","wings":"X","pattern":"X","legs":"F"},"action":"harvest","summary":"bad-harvest","bonus":1.6200000000000012},{"rt":35894.90000009537,"stimulus":"\n                    <p><b>Action: <em>harvest</em></b></p>\n                    <p>This is the bee that you just saw.</p>\n                    <img src=\"bees-with-color/bee-B1DF.svg\" width=\"200\">\n                    <p><span class=\"redText\">Bad choice, the bee was angry.</span><br><b>You have been stung!</b><br>Your pay has been decreased by $0.10. Your bonus pay is now $0.40.</p>\n            ","response":0,"trial_type":"html-button-response","trial_index":30,"time_elapsed":628389,"internal_node_id":"0.0-4.0-1.9","subject_id":"5e7fa0e918b10804bb87eb63","study_id":"6197b3f67c2b5cd3b6d9596a","session_id":"619be59017986ed5c4104e8c","condition":"full-information","relevant_dimensions":["antennae","legs"],"bee_group":{"antennae":"B","wings":"X","pattern":"X","legs":"F"},"bonus":1.6200000000000012},{"rt":7758.199999928474,"stimulus":"bees-with-color/bee-A1DM.svg","response":0,"trial_type":"image-button-response","trial_index":31,"time_elapsed":636149,"internal_node_id":"0.0-4.0-0.10","subject_id":"5e7fa0e918b10804bb87eb63","study_id":"6197b3f67c2b5cd3b6d9596a","session_id":"619be59017986ed5c4104e8c","condition":"full-information","relevant_dimensions":["antennae","legs"],"bee_group":{"antennae":"B","wings":"X","pattern":"X","legs":"F"},"action":"harvest","summary":"good-harvest","bonus":1.6200000000000012},{"rt":1022.6000000238419,"stimulus":"\n                    <p><b>Action: <em>harvest</em></b></p>\n                    <p>This is the bee that you just saw.</p>\n                    <img src=\"bees-with-color/bee-A1DM.svg\" width=\"200\">\n                    <p><span class=\"greenText\"><b>Successful harvest!</b></span><br>Your pay has increased by $0.02. Your bonus pay is now $0.42.</p>\n            ","response":0,"trial_type":"html-button-response","trial_index":32,"time_elapsed":637173,"internal_node_id":"0.0-4.0-1.10","subject_id":"5e7fa0e918b10804bb87eb63","study_id":"6197b3f67c2b5cd3b6d9596a","session_id":"619be59017986ed5c4104e8c","condition":"full-information","relevant_dimensions":["antennae","legs"],"bee_group":{"antennae":"B","wings":"X","pattern":"X","legs":"F"},"bonus":1.6200000000000012},{"rt":12837.700000047684,"stimulus":"bees-with-color/bee-B1SF.svg","response":1,"trial_type":"image-button-response","trial_index":33,"time_elapsed":650013,"internal_node_id":"0.0-4.0-0.11","subject_id":"5e7fa0e918b10804bb87eb63","study_id":"6197b3f67c2b5cd3b6d9596a","session_id":"619be59017986ed5c4104e8c","condition":"full-information","relevant_dimensions":["antennae","legs"],"bee_group":{"antennae":"B","wings":"X","pattern":"X","legs":"F"},"action":"avoid","summary":"good-avoid","bonus":1.6200000000000012},{"rt":2094.7000000476837,"stimulus":"\n                    <p><b>Action: <em>avoid</em></b></p>\n                    <p>This is the bee that you just saw.</p>\n                    <img src=\"bees-with-color/bee-B1SF.svg\" width=\"200\">\n                    <p><span class=\"greenText\">Good choice!</span>  This bee would have stung you.<br>Your bonus pay is unchanged, and remains at $0.42.</p>\n            ","response":0,"trial_type":"html-button-response","trial_index":34,"time_elapsed":652109,"internal_node_id":"0.0-4.0-1.11","subject_id":"5e7fa0e918b10804bb87eb63","study_id":"6197b3f67c2b5cd3b6d9596a","session_id":"619be59017986ed5c4104e8c","condition":"full-information","relevant_dimensions":["antennae","legs"],"bee_group":{"antennae":"B","wings":"X","pattern":"X","legs":"F"},"bonus":1.6200000000000012},{"rt":6870,"stimulus":"bees-with-color/bee-A1DF.svg","response":0,"trial_type":"image-button-response","trial_index":35,"time_elapsed":658982,"internal_node_id":"0.0-4.0-0.12","subject_id":"5e7fa0e918b10804bb87eb63","study_id":"6197b3f67c2b5cd3b6d9596a","session_id":"619be59017986ed5c4104e8c","condition":"full-information","relevant_dimensions":["antennae","legs"],"bee_group":{"antennae":"B","wings":"X","pattern":"X","legs":"F"},"action":"harvest","summary":"good-harvest","bonus":1.6200000000000012},{"rt":1318.2000000476837,"stimulus":"\n                    <p><b>Action: <em>harvest</em></b></p>\n                    <p>This is the bee that you just saw.</p>\n                    <img src=\"bees-with-color/bee-A1DF.svg\" width=\"200\">\n                    <p><span class=\"greenText\"><b>Successful harvest!</b></span><br>Your pay has increased by $0.02. Your bonus pay is now $0.44.</p>\n            ","response":0,"trial_type":"html-button-response","trial_index":36,"time_elapsed":660301,"internal_node_id":"0.0-4.0-1.12","subject_id":"5e7fa0e918b10804bb87eb63","study_id":"6197b3f67c2b5cd3b6d9596a","session_id":"619be59017986ed5c4104e8c","condition":"full-information","relevant_dimensions":["antennae","legs"],"bee_group":{"antennae":"B","wings":"X","pattern":"X","legs":"F"},"bonus":1.6200000000000012},{"rt":6774.199999928474,"stimulus":"bees-with-color/bee-B1DM.svg","response":0,"trial_type":"image-button-response","trial_index":37,"time_elapsed":667078,"internal_node_id":"0.0-4.0-0.13","subject_id":"5e7fa0e918b10804bb87eb63","study_id":"6197b3f67c2b5cd3b6d9596a","session_id":"619be59017986ed5c4104e8c","condition":"full-information","relevant_dimensions":["antennae","legs"],"bee_group":{"antennae":"B","wings":"X","pattern":"X","legs":"F"},"action":"harvest","summary":"good-harvest","bonus":1.6200000000000012},{"rt":1102.1000000238419,"stimulus":"\n                    <p><b>Action: <em>harvest</em></b></p>\n                    <p>This is the bee that you just saw.</p>\n                    <img src=\"bees-with-color/bee-B1DM.svg\" width=\"200\">\n                    <p><span class=\"greenText\"><b>Successful harvest!</b></span><br>Your pay has increased by $0.02. Your bonus pay is now $0.46.</p>\n            ","response":0,"trial_type":"html-button-response","trial_index":38,"time_elapsed":668181,"internal_node_id":"0.0-4.0-1.13","subject_id":"5e7fa0e918b10804bb87eb63","study_id":"6197b3f67c2b5cd3b6d9596a","session_id":"619be59017986ed5c4104e8c","condition":"full-information","relevant_dimensions":["antennae","legs"],"bee_group":{"antennae":"B","wings":"X","pattern":"X","legs":"F"},"bonus":1.6200000000000012},{"rt":3686.2000000476837,"stimulus":"bees-with-color/bee-A2DF.svg","response":0,"trial_type":"image-button-response","trial_index":39,"time_elapsed":671869,"internal_node_id":"0.0-4.0-0.14","subject_id":"5e7fa0e918b10804bb87eb63","study_id":"6197b3f67c2b5cd3b6d9596a","session_id":"619be59017986ed5c4104e8c","condition":"full-information","relevant_dimensions":["antennae","legs"],"bee_group":{"antennae":"B","wings":"X","pattern":"X","legs":"F"},"action":"harvest","summary":"good-harvest","bonus":1.6200000000000012},{"rt":998.1000000238419,"stimulus":"\n                    <p><b>Action: <em>harvest</em></b></p>\n                    <p>This is the bee that you just saw.</p>\n                    <img src=\"bees-with-color/bee-A2DF.svg\" width=\"200\">\n                    <p><span class=\"greenText\"><b>Successful harvest!</b></span><br>Your pay has increased by $0.02. Your bonus pay is now $0.48.</p>\n            ","response":0,"trial_type":"html-button-response","trial_index":40,"time_elapsed":672869,"internal_node_id":"0.0-4.0-1.14","subject_id":"5e7fa0e918b10804bb87eb63","study_id":"6197b3f67c2b5cd3b6d9596a","session_id":"619be59017986ed5c4104e8c","condition":"full-information","relevant_dimensions":["antennae","legs"],"bee_group":{"antennae":"B","wings":"X","pattern":"X","legs":"F"},"bonus":1.6200000000000012},{"rt":7125.699999928474,"stimulus":"bees-with-color/bee-B1SM.svg","response":1,"trial_type":"image-button-response","trial_index":41,"time_elapsed":679998,"internal_node_id":"0.0-4.0-0.15","subject_id":"5e7fa0e918b10804bb87eb63","study_id":"6197b3f67c2b5cd3b6d9596a","session_id":"619be59017986ed5c4104e8c","condition":"full-information","relevant_dimensions":["antennae","legs"],"bee_group":{"antennae":"B","wings":"X","pattern":"X","legs":"F"},"action":"avoid","summary":"bad-avoid","bonus":1.6200000000000012},{"rt":2022.3999999761581,"stimulus":"\n                    <p><b>Action: <em>avoid</em></b></p>\n                    <p>This is the bee that you just saw.</p>\n                    <img src=\"bees-with-color/bee-B1SM.svg\" width=\"200\">\n                    <p><span class=\"redText\">Bad choice,</span> the bee was friendly.<br>Your bonus pay is unchanged, and remains at $0.48.</p>\n            ","response":0,"trial_type":"html-button-response","trial_index":42,"time_elapsed":682022,"internal_node_id":"0.0-4.0-1.15","subject_id":"5e7fa0e918b10804bb87eb63","study_id":"6197b3f67c2b5cd3b6d9596a","session_id":"619be59017986ed5c4104e8c","condition":"full-information","relevant_dimensions":["antennae","legs"],"bee_group":{"antennae":"B","wings":"X","pattern":"X","legs":"F"},"bonus":1.6200000000000012},{"rt":41166.5,"stimulus":"bees-with-color/bee-B2SM.svg","response":1,"trial_type":"image-button-response","trial_index":43,"time_elapsed":723190,"internal_node_id":"0.0-4.0-0.16","subject_id":"5e7fa0e918b10804bb87eb63","study_id":"6197b3f67c2b5cd3b6d9596a","session_id":"619be59017986ed5c4104e8c","condition":"full-information","relevant_dimensions":["antennae","legs"],"bee_group":{"antennae":"B","wings":"X","pattern":"X","legs":"F"},"action":"avoid","summary":"bad-avoid","bonus":1.6200000000000012},{"rt":6357.899999976158,"stimulus":"\n                    <p><b>Action: <em>avoid</em></b></p>\n                    <p>This is the bee that you just saw.</p>\n                    <img src=\"bees-with-color/bee-B2SM.svg\" width=\"200\">\n                    <p><span class=\"redText\">Bad choice,</span> the bee was friendly.<br>Your bonus pay is unchanged, and remains at $0.48.</p>\n            ","response":0,"trial_type":"html-button-response","trial_index":44,"time_elapsed":729550,"internal_node_id":"0.0-4.0-1.16","subject_id":"5e7fa0e918b10804bb87eb63","study_id":"6197b3f67c2b5cd3b6d9596a","session_id":"619be59017986ed5c4104e8c","condition":"full-information","relevant_dimensions":["antennae","legs"],"bee_group":{"antennae":"B","wings":"X","pattern":"X","legs":"F"},"bonus":1.6200000000000012},{"rt":4518,"stimulus":"bees-with-color/bee-A2SM.svg","response":0,"trial_type":"image-button-response","trial_index":45,"time_elapsed":734070,"internal_node_id":"0.0-4.0-0.17","subject_id":"5e7fa0e918b10804bb87eb63","study_id":"6197b3f67c2b5cd3b6d9596a","session_id":"619be59017986ed5c4104e8c","condition":"full-information","relevant_dimensions":["antennae","legs"],"bee_group":{"antennae":"B","wings":"X","pattern":"X","legs":"F"},"action":"harvest","summary":"good-harvest","bonus":1.6200000000000012},{"rt":1102.7000000476837,"stimulus":"\n                    <p><b>Action: <em>harvest</em></b></p>\n                    <p>This is the bee that you just saw.</p>\n                    <img src=\"bees-with-color/bee-A2SM.svg\" width=\"200\">\n                    <p><span class=\"greenText\"><b>Successful harvest!</b></span><br>Your pay has increased by $0.02. Your bonus pay is now $0.50.</p>\n            ","response":0,"trial_type":"html-button-response","trial_index":46,"time_elapsed":735174,"internal_node_id":"0.0-4.0-1.17","subject_id":"5e7fa0e918b10804bb87eb63","study_id":"6197b3f67c2b5cd3b6d9596a","session_id":"619be59017986ed5c4104e8c","condition":"full-information","relevant_dimensions":["antennae","legs"],"bee_group":{"antennae":"B","wings":"X","pattern":"X","legs":"F"},"bonus":1.6200000000000012},{"rt":8892.899999976158,"stimulus":"bees-with-color/bee-B1DF.svg","response":1,"trial_type":"image-button-response","trial_index":47,"time_elapsed":744070,"internal_node_id":"0.0-4.0-0.18","subject_id":"5e7fa0e918b10804bb87eb63","study_id":"6197b3f67c2b5cd3b6d9596a","session_id":"619be59017986ed5c4104e8c","condition":"full-information","relevant_dimensions":["antennae","legs"],"bee_group":{"antennae":"B","wings":"X","pattern":"X","legs":"F"},"action":"avoid","summary":"good-avoid","bonus":1.6200000000000012},{"rt":1581.8999999761581,"stimulus":"\n                    <p><b>Action: <em>avoid</em></b></p>\n                    <p>This is the bee that you just saw.</p>\n                    <img src=\"bees-with-color/bee-B1DF.svg\" width=\"200\">\n                    <p><span class=\"greenText\">Good choice!</span>  This bee would have stung you.<br>Your bonus pay is unchanged, and remains at $0.50.</p>\n            ","response":0,"trial_type":"html-button-response","trial_index":48,"time_elapsed":745654,"internal_node_id":"0.0-4.0-1.18","subject_id":"5e7fa0e918b10804bb87eb63","study_id":"6197b3f67c2b5cd3b6d9596a","session_id":"619be59017986ed5c4104e8c","condition":"full-information","relevant_dimensions":["antennae","legs"],"bee_group":{"antennae":"B","wings":"X","pattern":"X","legs":"F"},"bonus":1.6200000000000012},{"rt":2389.2000000476837,"stimulus":"bees-with-color/bee-A2DM.svg","response":0,"trial_type":"image-button-response","trial_index":49,"time_elapsed":748046,"internal_node_id":"0.0-4.0-0.19","subject_id":"5e7fa0e918b10804bb87eb63","study_id":"6197b3f67c2b5cd3b6d9596a","session_id":"619be59017986ed5c4104e8c","condition":"full-information","relevant_dimensions":["antennae","legs"],"bee_group":{"antennae":"B","wings":"X","pattern":"X","legs":"F"},"action":"harvest","summary":"good-harvest","bonus":1.6200000000000012},{"rt":1214.1000000238419,"stimulus":"\n                    <p><b>Action: <em>harvest</em></b></p>\n                    <p>This is the bee that you just saw.</p>\n                    <img src=\"bees-with-color/bee-A2DM.svg\" width=\"200\">\n                    <p><span class=\"greenText\"><b>Successful harvest!</b></span><br>Your pay has increased by $0.02. Your bonus pay is now $0.52.</p>\n            ","response":0,"trial_type":"html-button-response","trial_index":50,"time_elapsed":749262,"internal_node_id":"0.0-4.0-1.19","subject_id":"5e7fa0e918b10804bb87eb63","study_id":"6197b3f67c2b5cd3b6d9596a","session_id":"619be59017986ed5c4104e8c","condition":"full-information","relevant_dimensions":["antennae","legs"],"bee_group":{"antennae":"B","wings":"X","pattern":"X","legs":"F"},"bonus":1.6200000000000012},{"rt":6526.700000047684,"stimulus":"bees-with-color/bee-B2DF.svg","response":1,"trial_type":"image-button-response","trial_index":51,"time_elapsed":755790,"internal_node_id":"0.0-4.0-0.20","subject_id":"5e7fa0e918b10804bb87eb63","study_id":"6197b3f67c2b5cd3b6d9596a","session_id":"619be59017986ed5c4104e8c","condition":"full-information","relevant_dimensions":["antennae","legs"],"bee_group":{"antennae":"B","wings":"X","pattern":"X","legs":"F"},"action":"avoid","summary":"good-avoid","bonus":1.6200000000000012},{"rt":1286.3999999761581,"stimulus":"\n                    <p><b>Action: <em>avoid</em></b></p>\n                    <p>This is the bee that you just saw.</p>\n                    <img src=\"bees-with-color/bee-B2DF.svg\" width=\"200\">\n                    <p><span class=\"greenText\">Good choice!</span>  This bee would have stung you.<br>Your bonus pay is unchanged, and remains at $0.52.</p>\n            ","response":0,"trial_type":"html-button-response","trial_index":52,"time_elapsed":757078,"internal_node_id":"0.0-4.0-1.20","subject_id":"5e7fa0e918b10804bb87eb63","study_id":"6197b3f67c2b5cd3b6d9596a","session_id":"619be59017986ed5c4104e8c","condition":"full-information","relevant_dimensions":["antennae","legs"],"bee_group":{"antennae":"B","wings":"X","pattern":"X","legs":"F"},"bonus":1.6200000000000012},{"rt":1628.7000000476837,"stimulus":"bees-with-color/bee-A1DM.svg","response":0,"trial_type":"image-button-response","trial_index":53,"time_elapsed":758710,"internal_node_id":"0.0-4.0-0.21","subject_id":"5e7fa0e918b10804bb87eb63","study_id":"6197b3f67c2b5cd3b6d9596a","session_id":"619be59017986ed5c4104e8c","condition":"full-information","relevant_dimensions":["antennae","legs"],"bee_group":{"antennae":"B","wings":"X","pattern":"X","legs":"F"},"action":"harvest","summary":"good-harvest","bonus":1.6200000000000012},{"rt":950.1000000238419,"stimulus":"\n                    <p><b>Action: <em>harvest</em></b></p>\n                    <p>This is the bee that you just saw.</p>\n                    <img src=\"bees-with-color/bee-A1DM.svg\" width=\"200\">\n                    <p><span class=\"greenText\"><b>Successful harvest!</b></span><br>Your pay has increased by $0.02. Your bonus pay is now $0.54.</p>\n            ","response":0,"trial_type":"html-button-response","trial_index":54,"time_elapsed":759662,"internal_node_id":"0.0-4.0-1.21","subject_id":"5e7fa0e918b10804bb87eb63","study_id":"6197b3f67c2b5cd3b6d9596a","session_id":"619be59017986ed5c4104e8c","condition":"full-information","relevant_dimensions":["antennae","legs"],"bee_group":{"antennae":"B","wings":"X","pattern":"X","legs":"F"},"bonus":1.6200000000000012},{"rt":5942.900000095367,"stimulus":"bees-with-color/bee-B2DM.svg","response":0,"trial_type":"image-button-response","trial_index":55,"time_elapsed":765606,"internal_node_id":"0.0-4.0-0.22","subject_id":"5e7fa0e918b10804bb87eb63","study_id":"6197b3f67c2b5cd3b6d9596a","session_id":"619be59017986ed5c4104e8c","condition":"full-information","relevant_dimensions":["antennae","legs"],"bee_group":{"antennae":"B","wings":"X","pattern":"X","legs":"F"},"action":"harvest","summary":"good-harvest","bonus":1.6200000000000012},{"rt":1022.8000000715256,"stimulus":"\n                    <p><b>Action: <em>harvest</em></b></p>\n                    <p>This is the bee that you just saw.</p>\n                    <img src=\"bees-with-color/bee-B2DM.svg\" width=\"200\">\n                    <p><span class=\"greenText\"><b>Successful harvest!</b></span><br>Your pay has increased by $0.02. Your bonus pay is now $0.56.</p>\n            ","response":0,"trial_type":"html-button-response","trial_index":56,"time_elapsed":766630,"internal_node_id":"0.0-4.0-1.22","subject_id":"5e7fa0e918b10804bb87eb63","study_id":"6197b3f67c2b5cd3b6d9596a","session_id":"619be59017986ed5c4104e8c","condition":"full-information","relevant_dimensions":["antennae","legs"],"bee_group":{"antennae":"B","wings":"X","pattern":"X","legs":"F"},"bonus":1.6200000000000012},{"rt":1598.2999999523163,"stimulus":"bees-with-color/bee-A2SF.svg","response":0,"trial_type":"image-button-response","trial_index":57,"time_elapsed":768230,"internal_node_id":"0.0-4.0-0.23","subject_id":"5e7fa0e918b10804bb87eb63","study_id":"6197b3f67c2b5cd3b6d9596a","session_id":"619be59017986ed5c4104e8c","condition":"full-information","relevant_dimensions":["antennae","legs"],"bee_group":{"antennae":"B","wings":"X","pattern":"X","legs":"F"},"action":"harvest","summary":"good-harvest","bonus":1.6200000000000012},{"rt":862.1999999284744,"stimulus":"\n                    <p><b>Action: <em>harvest</em></b></p>\n                    <p>This is the bee that you just saw.</p>\n                    <img src=\"bees-with-color/bee-A2SF.svg\" width=\"200\">\n                    <p><span class=\"greenText\"><b>Successful harvest!</b></span><br>Your pay has increased by $0.02. Your bonus pay is now $0.58.</p>\n            ","response":0,"trial_type":"html-button-response","trial_index":58,"time_elapsed":769094,"internal_node_id":"0.0-4.0-1.23","subject_id":"5e7fa0e918b10804bb87eb63","study_id":"6197b3f67c2b5cd3b6d9596a","session_id":"619be59017986ed5c4104e8c","condition":"full-information","relevant_dimensions":["antennae","legs"],"bee_group":{"antennae":"B","wings":"X","pattern":"X","legs":"F"},"bonus":1.6200000000000012},{"rt":1175,"stimulus":"bees-with-color/bee-A1DF.svg","response":0,"trial_type":"image-button-response","trial_index":59,"time_elapsed":770270,"internal_node_id":"0.0-4.0-0.24","subject_id":"5e7fa0e918b10804bb87eb63","study_id":"6197b3f67c2b5cd3b6d9596a","session_id":"619be59017986ed5c4104e8c","condition":"full-information","relevant_dimensions":["antennae","legs"],"bee_group":{"antennae":"B","wings":"X","pattern":"X","legs":"F"},"action":"harvest","summary":"good-harvest","bonus":1.6200000000000012},{"rt":799,"stimulus":"\n                    <p><b>Action: <em>harvest</em></b></p>\n                    <p>This is the bee that you just saw.</p>\n                    <img src=\"bees-with-color/bee-A1DF.svg\" width=\"200\">\n                    <p><span class=\"greenText\"><b>Successful harvest!</b></span><br>Your pay has increased by $0.02. Your bonus pay is now $0.60.</p>\n            ","response":0,"trial_type":"html-button-response","trial_index":60,"time_elapsed":771071,"internal_node_id":"0.0-4.0-1.24","subject_id":"5e7fa0e918b10804bb87eb63","study_id":"6197b3f67c2b5cd3b6d9596a","session_id":"619be59017986ed5c4104e8c","condition":"full-information","relevant_dimensions":["antennae","legs"],"bee_group":{"antennae":"B","wings":"X","pattern":"X","legs":"F"},"bonus":1.6200000000000012},{"rt":1317.7999999523163,"stimulus":"bees-with-color/bee-A1SF.svg","response":0,"trial_type":"image-button-response","trial_index":61,"time_elapsed":772390,"internal_node_id":"0.0-4.0-0.25","subject_id":"5e7fa0e918b10804bb87eb63","study_id":"6197b3f67c2b5cd3b6d9596a","session_id":"619be59017986ed5c4104e8c","condition":"full-information","relevant_dimensions":["antennae","legs"],"bee_group":{"antennae":"B","wings":"X","pattern":"X","legs":"F"},"action":"harvest","summary":"good-harvest","bonus":1.6200000000000012},{"rt":862.7999999523163,"stimulus":"\n                    <p><b>Action: <em>harvest</em></b></p>\n                    <p>This is the bee that you just saw.</p>\n                    <img src=\"bees-with-color/bee-A1SF.svg\" width=\"200\">\n                    <p><span class=\"greenText\"><b>Successful harvest!</b></span><br>Your pay has increased by $0.02. Your bonus pay is now $0.62.</p>\n            ","response":0,"trial_type":"html-button-response","trial_index":62,"time_elapsed":773254,"internal_node_id":"0.0-4.0-1.25","subject_id":"5e7fa0e918b10804bb87eb63","study_id":"6197b3f67c2b5cd3b6d9596a","session_id":"619be59017986ed5c4104e8c","condition":"full-information","relevant_dimensions":["antennae","legs"],"bee_group":{"antennae":"B","wings":"X","pattern":"X","legs":"F"},"bonus":1.6200000000000012},{"rt":1093.2999999523163,"stimulus":"bees-with-color/bee-A2DF.svg","response":0,"trial_type":"image-button-response","trial_index":63,"time_elapsed":774350,"internal_node_id":"0.0-4.0-0.26","subject_id":"5e7fa0e918b10804bb87eb63","study_id":"6197b3f67c2b5cd3b6d9596a","session_id":"619be59017986ed5c4104e8c","condition":"full-information","relevant_dimensions":["antennae","legs"],"bee_group":{"antennae":"B","wings":"X","pattern":"X","legs":"F"},"action":"harvest","summary":"good-harvest","bonus":1.6200000000000012},{"rt":942.3999999761581,"stimulus":"\n                    <p><b>Action: <em>harvest</em></b></p>\n                    <p>This is the bee that you just saw.</p>\n                    <img src=\"bees-with-color/bee-A2DF.svg\" width=\"200\">\n                    <p><span class=\"greenText\"><b>Successful harvest!</b></span><br>Your pay has increased by $0.02. Your bonus pay is now $0.64.</p>\n            ","response":0,"trial_type":"html-button-response","trial_index":64,"time_elapsed":775294,"internal_node_id":"0.0-4.0-1.26","subject_id":"5e7fa0e918b10804bb87eb63","study_id":"6197b3f67c2b5cd3b6d9596a","session_id":"619be59017986ed5c4104e8c","condition":"full-information","relevant_dimensions":["antennae","legs"],"bee_group":{"antennae":"B","wings":"X","pattern":"X","legs":"F"},"bonus":1.6200000000000012},{"rt":3998.600000023842,"stimulus":"bees-with-color/bee-B1SF.svg","response":1,"trial_type":"image-button-response","trial_index":65,"time_elapsed":779294,"internal_node_id":"0.0-4.0-0.27","subject_id":"5e7fa0e918b10804bb87eb63","study_id":"6197b3f67c2b5cd3b6d9596a","session_id":"619be59017986ed5c4104e8c","condition":"full-information","relevant_dimensions":["antennae","legs"],"bee_group":{"antennae":"B","wings":"X","pattern":"X","legs":"F"},"action":"avoid","summary":"good-avoid","bonus":1.6200000000000012},{"rt":1398.6999999284744,"stimulus":"\n                    <p><b>Action: <em>avoid</em></b></p>\n                    <p>This is the bee that you just saw.</p>\n                    <img src=\"bees-with-color/bee-B1SF.svg\" width=\"200\">\n                    <p><span class=\"greenText\">Good choice!</span>  This bee would have stung you.<br>Your bonus pay is unchanged, and remains at $0.64.</p>\n            ","response":0,"trial_type":"html-button-response","trial_index":66,"time_elapsed":780694,"internal_node_id":"0.0-4.0-1.27","subject_id":"5e7fa0e918b10804bb87eb63","study_id":"6197b3f67c2b5cd3b6d9596a","session_id":"619be59017986ed5c4104e8c","condition":"full-information","relevant_dimensions":["antennae","legs"],"bee_group":{"antennae":"B","wings":"X","pattern":"X","legs":"F"},"bonus":1.6200000000000012},{"rt":5414.5,"stimulus":"bees-with-color/bee-B1DM.svg","response":1,"trial_type":"image-button-response","trial_index":67,"time_elapsed":786111,"internal_node_id":"0.0-4.0-0.28","subject_id":"5e7fa0e918b10804bb87eb63","study_id":"6197b3f67c2b5cd3b6d9596a","session_id":"619be59017986ed5c4104e8c","condition":"full-information","relevant_dimensions":["antennae","legs"],"bee_group":{"antennae":"B","wings":"X","pattern":"X","legs":"F"},"action":"avoid","summary":"bad-avoid","bonus":1.6200000000000012},{"rt":2102.5,"stimulus":"\n                    <p><b>Action: <em>avoid</em></b></p>\n                    <p>This is the bee that you just saw.</p>\n                    <img src=\"bees-with-color/bee-B1DM.svg\" width=\"200\">\n                    <p><span class=\"redText\">Bad choice,</span> the bee was friendly.<br>Your bonus pay is unchanged, and remains at $0.64.</p>\n            ","response":0,"trial_type":"html-button-response","trial_index":68,"time_elapsed":788214,"internal_node_id":"0.0-4.0-1.28","subject_id":"5e7fa0e918b10804bb87eb63","study_id":"6197b3f67c2b5cd3b6d9596a","session_id":"619be59017986ed5c4104e8c","condition":"full-information","relevant_dimensions":["antennae","legs"],"bee_group":{"antennae":"B","wings":"X","pattern":"X","legs":"F"},"bonus":1.6200000000000012},{"rt":2110.2999999523163,"stimulus":"bees-with-color/bee-B2SF.svg","response":1,"trial_type":"image-button-response","trial_index":69,"time_elapsed":790327,"internal_node_id":"0.0-4.0-0.29","subject_id":"5e7fa0e918b10804bb87eb63","study_id":"6197b3f67c2b5cd3b6d9596a","session_id":"619be59017986ed5c4104e8c","condition":"full-information","relevant_dimensions":["antennae","legs"],"bee_group":{"antennae":"B","wings":"X","pattern":"X","legs":"F"},"action":"avoid","summary":"good-avoid","bonus":1.6200000000000012},{"rt":1302.5,"stimulus":"\n                    <p><b>Action: <em>avoid</em></b></p>\n                    <p>This is the bee that you just saw.</p>\n                    <img src=\"bees-with-color/bee-B2SF.svg\" width=\"200\">\n                    <p><span class=\"greenText\">Good choice!</span>  This bee would have stung you.<br>Your bonus pay is unchanged, and remains at $0.64.</p>\n            ","response":0,"trial_type":"html-button-response","trial_index":70,"time_elapsed":791631,"internal_node_id":"0.0-4.0-1.29","subject_id":"5e7fa0e918b10804bb87eb63","study_id":"6197b3f67c2b5cd3b6d9596a","session_id":"619be59017986ed5c4104e8c","condition":"full-information","relevant_dimensions":["antennae","legs"],"bee_group":{"antennae":"B","wings":"X","pattern":"X","legs":"F"},"bonus":1.6200000000000012},{"rt":2870.7000000476837,"stimulus":"bees-with-color/bee-B1SM.svg","response":1,"trial_type":"image-button-response","trial_index":71,"time_elapsed":794503,"internal_node_id":"0.0-4.0-0.30","subject_id":"5e7fa0e918b10804bb87eb63","study_id":"6197b3f67c2b5cd3b6d9596a","session_id":"619be59017986ed5c4104e8c","condition":"full-information","relevant_dimensions":["antennae","legs"],"bee_group":{"antennae":"B","wings":"X","pattern":"X","legs":"F"},"action":"avoid","summary":"bad-avoid","bonus":1.6200000000000012},{"rt":1134.5,"stimulus":"\n                    <p><b>Action: <em>avoid</em></b></p>\n                    <p>This is the bee that you just saw.</p>\n                    <img src=\"bees-with-color/bee-B1SM.svg\" width=\"200\">\n                    <p><span class=\"redText\">Bad choice,</span> the bee was friendly.<br>Your bonus pay is unchanged, and remains at $0.64.</p>\n            ","response":0,"trial_type":"html-button-response","trial_index":72,"time_elapsed":795639,"internal_node_id":"0.0-4.0-1.30","subject_id":"5e7fa0e918b10804bb87eb63","study_id":"6197b3f67c2b5cd3b6d9596a","session_id":"619be59017986ed5c4104e8c","condition":"full-information","relevant_dimensions":["antennae","legs"],"bee_group":{"antennae":"B","wings":"X","pattern":"X","legs":"F"},"bonus":1.6200000000000012},{"rt":1318,"stimulus":"bees-with-color/bee-A1SM.svg","response":0,"trial_type":"image-button-response","trial_index":73,"time_elapsed":796958,"internal_node_id":"0.0-4.0-0.31","subject_id":"5e7fa0e918b10804bb87eb63","study_id":"6197b3f67c2b5cd3b6d9596a","session_id":"619be59017986ed5c4104e8c","condition":"full-information","relevant_dimensions":["antennae","legs"],"bee_group":{"antennae":"B","wings":"X","pattern":"X","legs":"F"},"action":"harvest","summary":"good-harvest","bonus":1.6200000000000012},{"rt":1142.6000000238419,"stimulus":"\n                    <p><b>Action: <em>harvest</em></b></p>\n                    <p>This is the bee that you just saw.</p>\n                    <img src=\"bees-with-color/bee-A1SM.svg\" width=\"200\">\n                    <p><span class=\"greenText\"><b>Successful harvest!</b></span><br>Your pay has increased by $0.02. Your bonus pay is now $0.66.</p>\n            ","response":0,"trial_type":"html-button-response","trial_index":74,"time_elapsed":798103,"internal_node_id":"0.0-4.0-1.31","subject_id":"5e7fa0e918b10804bb87eb63","study_id":"6197b3f67c2b5cd3b6d9596a","session_id":"619be59017986ed5c4104e8c","condition":"full-information","relevant_dimensions":["antennae","legs"],"bee_group":{"antennae":"B","wings":"X","pattern":"X","legs":"F"},"bonus":1.6200000000000012},{"rt":2526.4000000953674,"stimulus":"bees-with-color/bee-B2SM.svg","response":0,"trial_type":"image-button-response","trial_index":75,"time_elapsed":800631,"internal_node_id":"0.0-4.0-0.32","subject_id":"5e7fa0e918b10804bb87eb63","study_id":"6197b3f67c2b5cd3b6d9596a","session_id":"619be59017986ed5c4104e8c","condition":"full-information","relevant_dimensions":["antennae","legs"],"bee_group":{"antennae":"B","wings":"X","pattern":"X","legs":"F"},"action":"harvest","summary":"good-harvest","bonus":1.6200000000000012},{"rt":1062.2000000476837,"stimulus":"\n                    <p><b>Action: <em>harvest</em></b></p>\n                    <p>This is the bee that you just saw.</p>\n                    <img src=\"bees-with-color/bee-B2SM.svg\" width=\"200\">\n                    <p><span class=\"greenText\"><b>Successful harvest!</b></span><br>Your pay has increased by $0.02. Your bonus pay is now $0.68.</p>\n            ","response":0,"trial_type":"html-button-response","trial_index":76,"time_elapsed":801695,"internal_node_id":"0.0-4.0-1.32","subject_id":"5e7fa0e918b10804bb87eb63","study_id":"6197b3f67c2b5cd3b6d9596a","session_id":"619be59017986ed5c4104e8c","condition":"full-information","relevant_dimensions":["antennae","legs"],"bee_group":{"antennae":"B","wings":"X","pattern":"X","legs":"F"},"bonus":1.6200000000000012},{"rt":1494.3999999761581,"stimulus":"bees-with-color/bee-B1DM.svg","response":0,"trial_type":"image-button-response","trial_index":77,"time_elapsed":803191,"internal_node_id":"0.0-4.0-0.33","subject_id":"5e7fa0e918b10804bb87eb63","study_id":"6197b3f67c2b5cd3b6d9596a","session_id":"619be59017986ed5c4104e8c","condition":"full-information","relevant_dimensions":["antennae","legs"],"bee_group":{"antennae":"B","wings":"X","pattern":"X","legs":"F"},"action":"harvest","summary":"good-harvest","bonus":1.6200000000000012},{"rt":934,"stimulus":"\n                    <p><b>Action: <em>harvest</em></b></p>\n                    <p>This is the bee that you just saw.</p>\n                    <img src=\"bees-with-color/bee-B1DM.svg\" width=\"200\">\n                    <p><span class=\"greenText\"><b>Successful harvest!</b></span><br>Your pay has increased by $0.02. Your bonus pay is now $0.70.</p>\n            ","response":0,"trial_type":"html-button-response","trial_index":78,"time_elapsed":804127,"internal_node_id":"0.0-4.0-1.33","subject_id":"5e7fa0e918b10804bb87eb63","study_id":"6197b3f67c2b5cd3b6d9596a","session_id":"619be59017986ed5c4104e8c","condition":"full-information","relevant_dimensions":["antennae","legs"],"bee_group":{"antennae":"B","wings":"X","pattern":"X","legs":"F"},"bonus":1.6200000000000012},{"rt":2230.5,"stimulus":"bees-with-color/bee-B1SF.svg","response":1,"trial_type":"image-button-response","trial_index":79,"time_elapsed":806359,"internal_node_id":"0.0-4.0-0.34","subject_id":"5e7fa0e918b10804bb87eb63","study_id":"6197b3f67c2b5cd3b6d9596a","session_id":"619be59017986ed5c4104e8c","condition":"full-information","relevant_dimensions":["antennae","legs"],"bee_group":{"antennae":"B","wings":"X","pattern":"X","legs":"F"},"action":"avoid","summary":"good-avoid","bonus":1.6200000000000012},{"rt":1750.4000000953674,"stimulus":"\n                    <p><b>Action: <em>avoid</em></b></p>\n                    <p>This is the bee that you just saw.</p>\n                    <img src=\"bees-with-color/bee-B1SF.svg\" width=\"200\">\n                    <p><span class=\"greenText\">Good choice!</span>  This bee would have stung you.<br>Your bonus pay is unchanged, and remains at $0.70.</p>\n            ","response":0,"trial_type":"html-button-response","trial_index":80,"time_elapsed":808111,"internal_node_id":"0.0-4.0-1.34","subject_id":"5e7fa0e918b10804bb87eb63","study_id":"6197b3f67c2b5cd3b6d9596a","session_id":"619be59017986ed5c4104e8c","condition":"full-information","relevant_dimensions":["antennae","legs"],"bee_group":{"antennae":"B","wings":"X","pattern":"X","legs":"F"},"bonus":1.6200000000000012},{"rt":1525.8000000715256,"stimulus":"bees-with-color/bee-A2SM.svg","response":0,"trial_type":"image-button-response","trial_index":81,"time_elapsed":809639,"internal_node_id":"0.0-4.0-0.35","subject_id":"5e7fa0e918b10804bb87eb63","study_id":"6197b3f67c2b5cd3b6d9596a","session_id":"619be59017986ed5c4104e8c","condition":"full-information","relevant_dimensions":["antennae","legs"],"bee_group":{"antennae":"B","wings":"X","pattern":"X","legs":"F"},"action":"harvest","summary":"good-harvest","bonus":1.6200000000000012},{"rt":1095,"stimulus":"\n                    <p><b>Action: <em>harvest</em></b></p>\n                    <p>This is the bee that you just saw.</p>\n                    <img src=\"bees-with-color/bee-A2SM.svg\" width=\"200\">\n                    <p><span class=\"greenText\"><b>Successful harvest!</b></span><br>Your pay has increased by $0.02. Your bonus pay is now $0.72.</p>\n            ","response":0,"trial_type":"html-button-response","trial_index":82,"time_elapsed":810735,"internal_node_id":"0.0-4.0-1.35","subject_id":"5e7fa0e918b10804bb87eb63","study_id":"6197b3f67c2b5cd3b6d9596a","session_id":"619be59017986ed5c4104e8c","condition":"full-information","relevant_dimensions":["antennae","legs"],"bee_group":{"antennae":"B","wings":"X","pattern":"X","legs":"F"},"bonus":1.6200000000000012},{"rt":933.8000000715256,"stimulus":"bees-with-color/bee-A1SM.svg","response":0,"trial_type":"image-button-response","trial_index":83,"time_elapsed":811671,"internal_node_id":"0.0-4.0-0.36","subject_id":"5e7fa0e918b10804bb87eb63","study_id":"6197b3f67c2b5cd3b6d9596a","session_id":"619be59017986ed5c4104e8c","condition":"full-information","relevant_dimensions":["antennae","legs"],"bee_group":{"antennae":"B","wings":"X","pattern":"X","legs":"F"},"action":"harvest","summary":"good-harvest","bonus":1.6200000000000012},{"rt":742.5,"stimulus":"\n                    <p><b>Action: <em>harvest</em></b></p>\n                    <p>This is the bee that you just saw.</p>\n                    <img src=\"bees-with-color/bee-A1SM.svg\" width=\"200\">\n                    <p><span class=\"greenText\"><b>Successful harvest!</b></span><br>Your pay has increased by $0.02. Your bonus pay is now $0.74.</p>\n            ","response":0,"trial_type":"html-button-response","trial_index":84,"time_elapsed":812415,"internal_node_id":"0.0-4.0-1.36","subject_id":"5e7fa0e918b10804bb87eb63","study_id":"6197b3f67c2b5cd3b6d9596a","session_id":"619be59017986ed5c4104e8c","condition":"full-information","relevant_dimensions":["antennae","legs"],"bee_group":{"antennae":"B","wings":"X","pattern":"X","legs":"F"},"bonus":1.6200000000000012},{"rt":2302.600000023842,"stimulus":"bees-with-color/bee-B1SM.svg","response":0,"trial_type":"image-button-response","trial_index":85,"time_elapsed":814719,"internal_node_id":"0.0-4.0-0.37","subject_id":"5e7fa0e918b10804bb87eb63","study_id":"6197b3f67c2b5cd3b6d9596a","session_id":"619be59017986ed5c4104e8c","condition":"full-information","relevant_dimensions":["antennae","legs"],"bee_group":{"antennae":"B","wings":"X","pattern":"X","legs":"F"},"action":"harvest","summary":"good-harvest","bonus":1.6200000000000012},{"rt":1038.1000000238419,"stimulus":"\n                    <p><b>Action: <em>harvest</em></b></p>\n                    <p>This is the bee that you just saw.</p>\n                    <img src=\"bees-with-color/bee-B1SM.svg\" width=\"200\">\n                    <p><span class=\"greenText\"><b>Successful harvest!</b></span><br>Your pay has increased by $0.02. Your bonus pay is now $0.76.</p>\n            ","response":0,"trial_type":"html-button-response","trial_index":86,"time_elapsed":815759,"internal_node_id":"0.0-4.0-1.37","subject_id":"5e7fa0e918b10804bb87eb63","study_id":"6197b3f67c2b5cd3b6d9596a","session_id":"619be59017986ed5c4104e8c","condition":"full-information","relevant_dimensions":["antennae","legs"],"bee_group":{"antennae":"B","wings":"X","pattern":"X","legs":"F"},"bonus":1.6200000000000012},{"rt":2462.399999976158,"stimulus":"bees-with-color/bee-B2SF.svg","response":1,"trial_type":"image-button-response","trial_index":87,"time_elapsed":818223,"internal_node_id":"0.0-4.0-0.38","subject_id":"5e7fa0e918b10804bb87eb63","study_id":"6197b3f67c2b5cd3b6d9596a","session_id":"619be59017986ed5c4104e8c","condition":"full-information","relevant_dimensions":["antennae","legs"],"bee_group":{"antennae":"B","wings":"X","pattern":"X","legs":"F"},"action":"avoid","summary":"good-avoid","bonus":1.6200000000000012},{"rt":1230.6999999284744,"stimulus":"\n                    <p><b>Action: <em>avoid</em></b></p>\n                    <p>This is the bee that you just saw.</p>\n                    <img src=\"bees-with-color/bee-B2SF.svg\" width=\"200\">\n                    <p><span class=\"greenText\">Good choice!</span>  This bee would have stung you.<br>Your bonus pay is unchanged, and remains at $0.76.</p>\n            ","response":0,"trial_type":"html-button-response","trial_index":88,"time_elapsed":819455,"internal_node_id":"0.0-4.0-1.38","subject_id":"5e7fa0e918b10804bb87eb63","study_id":"6197b3f67c2b5cd3b6d9596a","session_id":"619be59017986ed5c4104e8c","condition":"full-information","relevant_dimensions":["antennae","legs"],"bee_group":{"antennae":"B","wings":"X","pattern":"X","legs":"F"},"bonus":1.6200000000000012},{"rt":1333.5999999046326,"stimulus":"bees-with-color/bee-A2DM.svg","response":0,"trial_type":"image-button-response","trial_index":89,"time_elapsed":820791,"internal_node_id":"0.0-4.0-0.39","subject_id":"5e7fa0e918b10804bb87eb63","study_id":"6197b3f67c2b5cd3b6d9596a","session_id":"619be59017986ed5c4104e8c","condition":"full-information","relevant_dimensions":["antennae","legs"],"bee_group":{"antennae":"B","wings":"X","pattern":"X","legs":"F"},"action":"harvest","summary":"good-harvest","bonus":1.6200000000000012},{"rt":934.5,"stimulus":"\n                    <p><b>Action: <em>harvest</em></b></p>\n                    <p>This is the bee that you just saw.</p>\n                    <img src=\"bees-with-color/bee-A2DM.svg\" width=\"200\">\n                    <p><span class=\"greenText\"><b>Successful harvest!</b></span><br>Your pay has increased by $0.02. Your bonus pay is now $0.78.</p>\n            ","response":0,"trial_type":"html-button-response","trial_index":90,"time_elapsed":821727,"internal_node_id":"0.0-4.0-1.39","subject_id":"5e7fa0e918b10804bb87eb63","study_id":"6197b3f67c2b5cd3b6d9596a","session_id":"619be59017986ed5c4104e8c","condition":"full-information","relevant_dimensions":["antennae","legs"],"bee_group":{"antennae":"B","wings":"X","pattern":"X","legs":"F"},"bonus":1.6200000000000012},{"rt":958.5,"stimulus":"bees-with-color/bee-A1SF.svg","response":0,"trial_type":"image-button-response","trial_index":91,"time_elapsed":822687,"internal_node_id":"0.0-4.0-0.40","subject_id":"5e7fa0e918b10804bb87eb63","study_id":"6197b3f67c2b5cd3b6d9596a","session_id":"619be59017986ed5c4104e8c","condition":"full-information","relevant_dimensions":["antennae","legs"],"bee_group":{"antennae":"B","wings":"X","pattern":"X","legs":"F"},"action":"harvest","summary":"good-harvest","bonus":1.6200000000000012},{"rt":846.2999999523163,"stimulus":"\n                    <p><b>Action: <em>harvest</em></b></p>\n                    <p>This is the bee that you just saw.</p>\n                    <img src=\"bees-with-color/bee-A1SF.svg\" width=\"200\">\n                    <p><span class=\"greenText\"><b>Successful harvest!</b></span><br>Your pay has increased by $0.02. Your bonus pay is now $0.80.</p>\n            ","response":0,"trial_type":"html-button-response","trial_index":92,"time_elapsed":823535,"internal_node_id":"0.0-4.0-1.40","subject_id":"5e7fa0e918b10804bb87eb63","study_id":"6197b3f67c2b5cd3b6d9596a","session_id":"619be59017986ed5c4104e8c","condition":"full-information","relevant_dimensions":["antennae","legs"],"bee_group":{"antennae":"B","wings":"X","pattern":"X","legs":"F"},"bonus":1.6200000000000012},{"rt":1998.6999999284744,"stimulus":"bees-with-color/bee-B2DM.svg","response":0,"trial_type":"image-button-response","trial_index":93,"time_elapsed":825535,"internal_node_id":"0.0-4.0-0.41","subject_id":"5e7fa0e918b10804bb87eb63","study_id":"6197b3f67c2b5cd3b6d9596a","session_id":"619be59017986ed5c4104e8c","condition":"full-information","relevant_dimensions":["antennae","legs"],"bee_group":{"antennae":"B","wings":"X","pattern":"X","legs":"F"},"action":"harvest","summary":"good-harvest","bonus":1.6200000000000012},{"rt":934.3999999761581,"stimulus":"\n                    <p><b>Action: <em>harvest</em></b></p>\n                    <p>This is the bee that you just saw.</p>\n                    <img src=\"bees-with-color/bee-B2DM.svg\" width=\"200\">\n                    <p><span class=\"greenText\"><b>Successful harvest!</b></span><br>Your pay has increased by $0.02. Your bonus pay is now $0.82.</p>\n            ","response":0,"trial_type":"html-button-response","trial_index":94,"time_elapsed":826471,"internal_node_id":"0.0-4.0-1.41","subject_id":"5e7fa0e918b10804bb87eb63","study_id":"6197b3f67c2b5cd3b6d9596a","session_id":"619be59017986ed5c4104e8c","condition":"full-information","relevant_dimensions":["antennae","legs"],"bee_group":{"antennae":"B","wings":"X","pattern":"X","legs":"F"},"bonus":1.6200000000000012},{"rt":1126.1999999284744,"stimulus":"bees-with-color/bee-A2DF.svg","response":0,"trial_type":"image-button-response","trial_index":95,"time_elapsed":827599,"internal_node_id":"0.0-4.0-0.42","subject_id":"5e7fa0e918b10804bb87eb63","study_id":"6197b3f67c2b5cd3b6d9596a","session_id":"619be59017986ed5c4104e8c","condition":"full-information","relevant_dimensions":["antennae","legs"],"bee_group":{"antennae":"B","wings":"X","pattern":"X","legs":"F"},"action":"harvest","summary":"good-harvest","bonus":1.6200000000000012},{"rt":838.3999999761581,"stimulus":"\n                    <p><b>Action: <em>harvest</em></b></p>\n                    <p>This is the bee that you just saw.</p>\n                    <img src=\"bees-with-color/bee-A2DF.svg\" width=\"200\">\n                    <p><span class=\"greenText\"><b>Successful harvest!</b></span><br>Your pay has increased by $0.02. Your bonus pay is now $0.84.</p>\n            ","response":0,"trial_type":"html-button-response","trial_index":96,"time_elapsed":828439,"internal_node_id":"0.0-4.0-1.42","subject_id":"5e7fa0e918b10804bb87eb63","study_id":"6197b3f67c2b5cd3b6d9596a","session_id":"619be59017986ed5c4104e8c","condition":"full-information","relevant_dimensions":["antennae","legs"],"bee_group":{"antennae":"B","wings":"X","pattern":"X","legs":"F"},"bonus":1.6200000000000012},{"rt":966.5,"stimulus":"bees-with-color/bee-A1DM.svg","response":0,"trial_type":"image-button-response","trial_index":97,"time_elapsed":829407,"internal_node_id":"0.0-4.0-0.43","subject_id":"5e7fa0e918b10804bb87eb63","study_id":"6197b3f67c2b5cd3b6d9596a","session_id":"619be59017986ed5c4104e8c","condition":"full-information","relevant_dimensions":["antennae","legs"],"bee_group":{"antennae":"B","wings":"X","pattern":"X","legs":"F"},"action":"harvest","summary":"good-harvest","bonus":1.6200000000000012},{"rt":733.7999999523163,"stimulus":"\n                    <p><b>Action: <em>harvest</em></b></p>\n                    <p>This is the bee that you just saw.</p>\n                    <img src=\"bees-with-color/bee-A1DM.svg\" width=\"200\">\n                    <p><span class=\"greenText\"><b>Successful harvest!</b></span><br>Your pay has increased by $0.02. Your bonus pay is now $0.86.</p>\n            ","response":0,"trial_type":"html-button-response","trial_index":98,"time_elapsed":830143,"internal_node_id":"0.0-4.0-1.43","subject_id":"5e7fa0e918b10804bb87eb63","study_id":"6197b3f67c2b5cd3b6d9596a","session_id":"619be59017986ed5c4104e8c","condition":"full-information","relevant_dimensions":["antennae","legs"],"bee_group":{"antennae":"B","wings":"X","pattern":"X","legs":"F"},"bonus":1.6200000000000012},{"rt":2510.5,"stimulus":"bees-with-color/bee-B2DF.svg","response":1,"trial_type":"image-button-response","trial_index":99,"time_elapsed":832655,"internal_node_id":"0.0-4.0-0.44","subject_id":"5e7fa0e918b10804bb87eb63","study_id":"6197b3f67c2b5cd3b6d9596a","session_id":"619be59017986ed5c4104e8c","condition":"full-information","relevant_dimensions":["antennae","legs"],"bee_group":{"antennae":"B","wings":"X","pattern":"X","legs":"F"},"action":"avoid","summary":"good-avoid","bonus":1.6200000000000012},{"rt":1006.6999999284744,"stimulus":"\n                    <p><b>Action: <em>avoid</em></b></p>\n                    <p>This is the bee that you just saw.</p>\n                    <img src=\"bees-with-color/bee-B2DF.svg\" width=\"200\">\n                    <p><span class=\"greenText\">Good choice!</span>  This bee would have stung you.<br>Your bonus pay is unchanged, and remains at $0.86.</p>\n            ","response":0,"trial_type":"html-button-response","trial_index":100,"time_elapsed":833663,"internal_node_id":"0.0-4.0-1.44","subject_id":"5e7fa0e918b10804bb87eb63","study_id":"6197b3f67c2b5cd3b6d9596a","session_id":"619be59017986ed5c4104e8c","condition":"full-information","relevant_dimensions":["antennae","legs"],"bee_group":{"antennae":"B","wings":"X","pattern":"X","legs":"F"},"bonus":1.6200000000000012},{"rt":1846.5,"stimulus":"bees-with-color/bee-B1DF.svg","response":1,"trial_type":"image-button-response","trial_index":101,"time_elapsed":835511,"internal_node_id":"0.0-4.0-0.45","subject_id":"5e7fa0e918b10804bb87eb63","study_id":"6197b3f67c2b5cd3b6d9596a","session_id":"619be59017986ed5c4104e8c","condition":"full-information","relevant_dimensions":["antennae","legs"],"bee_group":{"antennae":"B","wings":"X","pattern":"X","legs":"F"},"action":"avoid","summary":"good-avoid","bonus":1.6200000000000012},{"rt":1158.8999999761581,"stimulus":"\n                    <p><b>Action: <em>avoid</em></b></p>\n                    <p>This is the bee that you just saw.</p>\n                    <img src=\"bees-with-color/bee-B1DF.svg\" width=\"200\">\n                    <p><span class=\"greenText\">Good choice!</span>  This bee would have stung you.<br>Your bonus pay is unchanged, and remains at $0.86.</p>\n            ","response":0,"trial_type":"html-button-response","trial_index":102,"time_elapsed":836671,"internal_node_id":"0.0-4.0-1.45","subject_id":"5e7fa0e918b10804bb87eb63","study_id":"6197b3f67c2b5cd3b6d9596a","session_id":"619be59017986ed5c4104e8c","condition":"full-information","relevant_dimensions":["antennae","legs"],"bee_group":{"antennae":"B","wings":"X","pattern":"X","legs":"F"},"bonus":1.6200000000000012},{"rt":1142.5,"stimulus":"bees-with-color/bee-A2SF.svg","response":0,"trial_type":"image-button-response","trial_index":103,"time_elapsed":837815,"internal_node_id":"0.0-4.0-0.46","subject_id":"5e7fa0e918b10804bb87eb63","study_id":"6197b3f67c2b5cd3b6d9596a","session_id":"619be59017986ed5c4104e8c","condition":"full-information","relevant_dimensions":["antennae","legs"],"bee_group":{"antennae":"B","wings":"X","pattern":"X","legs":"F"},"action":"harvest","summary":"good-harvest","bonus":1.6200000000000012},{"rt":1054.7999999523163,"stimulus":"\n                    <p><b>Action: <em>harvest</em></b></p>\n                    <p>This is the bee that you just saw.</p>\n                    <img src=\"bees-with-color/bee-A2SF.svg\" width=\"200\">\n                    <p><span class=\"greenText\"><b>Successful harvest!</b></span><br>Your pay has increased by $0.02. Your bonus pay is now $0.88.</p>\n            ","response":0,"trial_type":"html-button-response","trial_index":104,"time_elapsed":838871,"internal_node_id":"0.0-4.0-1.46","subject_id":"5e7fa0e918b10804bb87eb63","study_id":"6197b3f67c2b5cd3b6d9596a","session_id":"619be59017986ed5c4104e8c","condition":"full-information","relevant_dimensions":["antennae","legs"],"bee_group":{"antennae":"B","wings":"X","pattern":"X","legs":"F"},"bonus":1.6200000000000012},{"rt":2142.7999999523163,"stimulus":"bees-with-color/bee-A1DF.svg","response":0,"trial_type":"image-button-response","trial_index":105,"time_elapsed":841015,"internal_node_id":"0.0-4.0-0.47","subject_id":"5e7fa0e918b10804bb87eb63","study_id":"6197b3f67c2b5cd3b6d9596a","session_id":"619be59017986ed5c4104e8c","condition":"full-information","relevant_dimensions":["antennae","legs"],"bee_group":{"antennae":"B","wings":"X","pattern":"X","legs":"F"},"action":"harvest","summary":"good-harvest","bonus":1.6200000000000012},{"rt":830.3999999761581,"stimulus":"\n                    <p><b>Action: <em>harvest</em></b></p>\n                    <p>This is the bee that you just saw.</p>\n                    <img src=\"bees-with-color/bee-A1DF.svg\" width=\"200\">\n                    <p><span class=\"greenText\"><b>Successful harvest!</b></span><br>Your pay has increased by $0.02. Your bonus pay is now $0.90.</p>\n            ","response":0,"trial_type":"html-button-response","trial_index":106,"time_elapsed":841847,"internal_node_id":"0.0-4.0-1.47","subject_id":"5e7fa0e918b10804bb87eb63","study_id":"6197b3f67c2b5cd3b6d9596a","session_id":"619be59017986ed5c4104e8c","condition":"full-information","relevant_dimensions":["antennae","legs"],"bee_group":{"antennae":"B","wings":"X","pattern":"X","legs":"F"},"bonus":1.6200000000000012},{"rt":1366.8999999761581,"stimulus":"bees-with-color/bee-A1DM.svg","response":0,"trial_type":"image-button-response","trial_index":107,"time_elapsed":843216,"internal_node_id":"0.0-4.0-0.48","subject_id":"5e7fa0e918b10804bb87eb63","study_id":"6197b3f67c2b5cd3b6d9596a","session_id":"619be59017986ed5c4104e8c","condition":"full-information","relevant_dimensions":["antennae","legs"],"bee_group":{"antennae":"B","wings":"X","pattern":"X","legs":"F"},"action":"harvest","summary":"good-harvest","bonus":1.6200000000000012},{"rt":1430.1000000238419,"stimulus":"\n                    <p><b>Action: <em>harvest</em></b></p>\n                    <p>This is the bee that you just saw.</p>\n                    <img src=\"bees-with-color/bee-A1DM.svg\" width=\"200\">\n                    <p><span class=\"greenText\"><b>Successful harvest!</b></span><br>Your pay has increased by $0.02. Your bonus pay is now $0.92.</p>\n            ","response":0,"trial_type":"html-button-response","trial_index":108,"time_elapsed":844648,"internal_node_id":"0.0-4.0-1.48","subject_id":"5e7fa0e918b10804bb87eb63","study_id":"6197b3f67c2b5cd3b6d9596a","session_id":"619be59017986ed5c4104e8c","condition":"full-information","relevant_dimensions":["antennae","legs"],"bee_group":{"antennae":"B","wings":"X","pattern":"X","legs":"F"},"bonus":1.6200000000000012},{"rt":1622.3999999761581,"stimulus":"bees-with-color/bee-B1SF.svg","response":1,"trial_type":"image-button-response","trial_index":109,"time_elapsed":846272,"internal_node_id":"0.0-4.0-0.49","subject_id":"5e7fa0e918b10804bb87eb63","study_id":"6197b3f67c2b5cd3b6d9596a","session_id":"619be59017986ed5c4104e8c","condition":"full-information","relevant_dimensions":["antennae","legs"],"bee_group":{"antennae":"B","wings":"X","pattern":"X","legs":"F"},"action":"avoid","summary":"good-avoid","bonus":1.6200000000000012},{"rt":1238.7000000476837,"stimulus":"\n                    <p><b>Action: <em>avoid</em></b></p>\n                    <p>This is the bee that you just saw.</p>\n                    <img src=\"bees-with-color/bee-B1SF.svg\" width=\"200\">\n                    <p><span class=\"greenText\">Good choice!</span>  This bee would have stung you.<br>Your bonus pay is unchanged, and remains at $0.92.</p>\n            ","response":0,"trial_type":"html-button-response","trial_index":110,"time_elapsed":847512,"internal_node_id":"0.0-4.0-1.49","subject_id":"5e7fa0e918b10804bb87eb63","study_id":"6197b3f67c2b5cd3b6d9596a","session_id":"619be59017986ed5c4104e8c","condition":"full-information","relevant_dimensions":["antennae","legs"],"bee_group":{"antennae":"B","wings":"X","pattern":"X","legs":"F"},"bonus":1.6200000000000012},{"rt":1023.2000000476837,"stimulus":"bees-with-color/bee-A1SM.svg","response":0,"trial_type":"image-button-response","trial_index":111,"time_elapsed":848536,"internal_node_id":"0.0-4.0-0.50","subject_id":"5e7fa0e918b10804bb87eb63","study_id":"6197b3f67c2b5cd3b6d9596a","session_id":"619be59017986ed5c4104e8c","condition":"full-information","relevant_dimensions":["antennae","legs"],"bee_group":{"antennae":"B","wings":"X","pattern":"X","legs":"F"},"action":"harvest","summary":"good-harvest","bonus":1.6200000000000012},{"rt":805.8999999761581,"stimulus":"\n                    <p><b>Action: <em>harvest</em></b></p>\n                    <p>This is the bee that you just saw.</p>\n                    <img src=\"bees-with-color/bee-A1SM.svg\" width=\"200\">\n                    <p><span class=\"greenText\"><b>Successful harvest!</b></span><br>Your pay has increased by $0.02. Your bonus pay is now $0.94.</p>\n            ","response":0,"trial_type":"html-button-response","trial_index":112,"time_elapsed":849344,"internal_node_id":"0.0-4.0-1.50","subject_id":"5e7fa0e918b10804bb87eb63","study_id":"6197b3f67c2b5cd3b6d9596a","session_id":"619be59017986ed5c4104e8c","condition":"full-information","relevant_dimensions":["antennae","legs"],"bee_group":{"antennae":"B","wings":"X","pattern":"X","legs":"F"},"bonus":1.6200000000000012},{"rt":1214.9000000953674,"stimulus":"bees-with-color/bee-A1SF.svg","response":0,"trial_type":"image-button-response","trial_index":113,"time_elapsed":850560,"internal_node_id":"0.0-4.0-0.51","subject_id":"5e7fa0e918b10804bb87eb63","study_id":"6197b3f67c2b5cd3b6d9596a","session_id":"619be59017986ed5c4104e8c","condition":"full-information","relevant_dimensions":["antennae","legs"],"bee_group":{"antennae":"B","wings":"X","pattern":"X","legs":"F"},"action":"harvest","summary":"good-harvest","bonus":1.6200000000000012},{"rt":742.7999999523163,"stimulus":"\n                    <p><b>Action: <em>harvest</em></b></p>\n                    <p>This is the bee that you just saw.</p>\n                    <img src=\"bees-with-color/bee-A1SF.svg\" width=\"200\">\n                    <p><span class=\"greenText\"><b>Successful harvest!</b></span><br>Your pay has increased by $0.02. Your bonus pay is now $0.96.</p>\n            ","response":0,"trial_type":"html-button-response","trial_index":114,"time_elapsed":851304,"internal_node_id":"0.0-4.0-1.51","subject_id":"5e7fa0e918b10804bb87eb63","study_id":"6197b3f67c2b5cd3b6d9596a","session_id":"619be59017986ed5c4104e8c","condition":"full-information","relevant_dimensions":["antennae","legs"],"bee_group":{"antennae":"B","wings":"X","pattern":"X","legs":"F"},"bonus":1.6200000000000012},{"rt":1030.3999999761581,"stimulus":"bees-with-color/bee-A2DM.svg","response":0,"trial_type":"image-button-response","trial_index":115,"time_elapsed":852336,"internal_node_id":"0.0-4.0-0.52","subject_id":"5e7fa0e918b10804bb87eb63","study_id":"6197b3f67c2b5cd3b6d9596a","session_id":"619be59017986ed5c4104e8c","condition":"full-information","relevant_dimensions":["antennae","legs"],"bee_group":{"antennae":"B","wings":"X","pattern":"X","legs":"F"},"action":"harvest","summary":"good-harvest","bonus":1.6200000000000012},{"rt":974.7000000476837,"stimulus":"\n                    <p><b>Action: <em>harvest</em></b></p>\n                    <p>This is the bee that you just saw.</p>\n                    <img src=\"bees-with-color/bee-A2DM.svg\" width=\"200\">\n                    <p><span class=\"greenText\"><b>Successful harvest!</b></span><br>Your pay has increased by $0.02. Your bonus pay is now $0.98.</p>\n            ","response":0,"trial_type":"html-button-response","trial_index":116,"time_elapsed":853312,"internal_node_id":"0.0-4.0-1.52","subject_id":"5e7fa0e918b10804bb87eb63","study_id":"6197b3f67c2b5cd3b6d9596a","session_id":"619be59017986ed5c4104e8c","condition":"full-information","relevant_dimensions":["antennae","legs"],"bee_group":{"antennae":"B","wings":"X","pattern":"X","legs":"F"},"bonus":1.6200000000000012},{"rt":966.7000000476837,"stimulus":"bees-with-color/bee-A1DF.svg","response":0,"trial_type":"image-button-response","trial_index":117,"time_elapsed":854280,"internal_node_id":"0.0-4.0-0.53","subject_id":"5e7fa0e918b10804bb87eb63","study_id":"6197b3f67c2b5cd3b6d9596a","session_id":"619be59017986ed5c4104e8c","condition":"full-information","relevant_dimensions":["antennae","legs"],"bee_group":{"antennae":"B","wings":"X","pattern":"X","legs":"F"},"action":"harvest","summary":"good-harvest","bonus":1.6200000000000012},{"rt":846.0999999046326,"stimulus":"\n                    <p><b>Action: <em>harvest</em></b></p>\n                    <p>This is the bee that you just saw.</p>\n                    <img src=\"bees-with-color/bee-A1DF.svg\" width=\"200\">\n                    <p><span class=\"greenText\"><b>Successful harvest!</b></span><br>Your pay has increased by $0.02. Your bonus pay is now $1.00.</p>\n            ","response":0,"trial_type":"html-button-response","trial_index":118,"time_elapsed":855128,"internal_node_id":"0.0-4.0-1.53","subject_id":"5e7fa0e918b10804bb87eb63","study_id":"6197b3f67c2b5cd3b6d9596a","session_id":"619be59017986ed5c4104e8c","condition":"full-information","relevant_dimensions":["antennae","legs"],"bee_group":{"antennae":"B","wings":"X","pattern":"X","legs":"F"},"bonus":1.6200000000000012},{"rt":3478.7999999523163,"stimulus":"bees-with-color/bee-B2DF.svg","response":1,"trial_type":"image-button-response","trial_index":119,"time_elapsed":858608,"internal_node_id":"0.0-4.0-0.54","subject_id":"5e7fa0e918b10804bb87eb63","study_id":"6197b3f67c2b5cd3b6d9596a","session_id":"619be59017986ed5c4104e8c","condition":"full-information","relevant_dimensions":["antennae","legs"],"bee_group":{"antennae":"B","wings":"X","pattern":"X","legs":"F"},"action":"avoid","summary":"good-avoid","bonus":1.6200000000000012},{"rt":1806.2000000476837,"stimulus":"\n                    <p><b>Action: <em>avoid</em></b></p>\n                    <p>This is the bee that you just saw.</p>\n                    <img src=\"bees-with-color/bee-B2DF.svg\" width=\"200\">\n                    <p><span class=\"greenText\">Good choice!</span>  This bee would have stung you.<br>Your bonus pay is unchanged, and remains at $1.00.</p>\n            ","response":0,"trial_type":"html-button-response","trial_index":120,"time_elapsed":860416,"internal_node_id":"0.0-4.0-1.54","subject_id":"5e7fa0e918b10804bb87eb63","study_id":"6197b3f67c2b5cd3b6d9596a","session_id":"619be59017986ed5c4104e8c","condition":"full-information","relevant_dimensions":["antennae","legs"],"bee_group":{"antennae":"B","wings":"X","pattern":"X","legs":"F"},"bonus":1.6200000000000012},{"rt":2182.2999999523163,"stimulus":"bees-with-color/bee-B1SM.svg","response":0,"trial_type":"image-button-response","trial_index":121,"time_elapsed":862600,"internal_node_id":"0.0-4.0-0.55","subject_id":"5e7fa0e918b10804bb87eb63","study_id":"6197b3f67c2b5cd3b6d9596a","session_id":"619be59017986ed5c4104e8c","condition":"full-information","relevant_dimensions":["antennae","legs"],"bee_group":{"antennae":"B","wings":"X","pattern":"X","legs":"F"},"action":"harvest","summary":"good-harvest","bonus":1.6200000000000012},{"rt":942.3000000715256,"stimulus":"\n                    <p><b>Action: <em>harvest</em></b></p>\n                    <p>This is the bee that you just saw.</p>\n                    <img src=\"bees-with-color/bee-B1SM.svg\" width=\"200\">\n                    <p><span class=\"greenText\"><b>Successful harvest!</b></span><br>Your pay has increased by $0.02. Your bonus pay is now $1.02.</p>\n            ","response":0,"trial_type":"html-button-response","trial_index":122,"time_elapsed":863544,"internal_node_id":"0.0-4.0-1.55","subject_id":"5e7fa0e918b10804bb87eb63","study_id":"6197b3f67c2b5cd3b6d9596a","session_id":"619be59017986ed5c4104e8c","condition":"full-information","relevant_dimensions":["antennae","legs"],"bee_group":{"antennae":"B","wings":"X","pattern":"X","legs":"F"},"bonus":1.6200000000000012},{"rt":1982.8000000715256,"stimulus":"bees-with-color/bee-B2DM.svg","response":0,"trial_type":"image-button-response","trial_index":123,"time_elapsed":865528,"internal_node_id":"0.0-4.0-0.56","subject_id":"5e7fa0e918b10804bb87eb63","study_id":"6197b3f67c2b5cd3b6d9596a","session_id":"619be59017986ed5c4104e8c","condition":"full-information","relevant_dimensions":["antennae","legs"],"bee_group":{"antennae":"B","wings":"X","pattern":"X","legs":"F"},"action":"harvest","summary":"good-harvest","bonus":1.6200000000000012},{"rt":902.1999999284744,"stimulus":"\n                    <p><b>Action: <em>harvest</em></b></p>\n                    <p>This is the bee that you just saw.</p>\n                    <img src=\"bees-with-color/bee-B2DM.svg\" width=\"200\">\n                    <p><span class=\"greenText\"><b>Successful harvest!</b></span><br>Your pay has increased by $0.02. Your bonus pay is now $1.04.</p>\n            ","response":0,"trial_type":"html-button-response","trial_index":124,"time_elapsed":866432,"internal_node_id":"0.0-4.0-1.56","subject_id":"5e7fa0e918b10804bb87eb63","study_id":"6197b3f67c2b5cd3b6d9596a","session_id":"619be59017986ed5c4104e8c","condition":"full-information","relevant_dimensions":["antennae","legs"],"bee_group":{"antennae":"B","wings":"X","pattern":"X","legs":"F"},"bonus":1.6200000000000012},{"rt":1862.8999999761581,"stimulus":"bees-with-color/bee-B1DM.svg","response":0,"trial_type":"image-button-response","trial_index":125,"time_elapsed":868296,"internal_node_id":"0.0-4.0-0.57","subject_id":"5e7fa0e918b10804bb87eb63","study_id":"6197b3f67c2b5cd3b6d9596a","session_id":"619be59017986ed5c4104e8c","condition":"full-information","relevant_dimensions":["antennae","legs"],"bee_group":{"antennae":"B","wings":"X","pattern":"X","legs":"F"},"action":"harvest","summary":"good-harvest","bonus":1.6200000000000012},{"rt":877.8999999761581,"stimulus":"\n                    <p><b>Action: <em>harvest</em></b></p>\n                    <p>This is the bee that you just saw.</p>\n                    <img src=\"bees-with-color/bee-B1DM.svg\" width=\"200\">\n                    <p><span class=\"greenText\"><b>Successful harvest!</b></span><br>Your pay has increased by $0.02. Your bonus pay is now $1.06.</p>\n            ","response":0,"trial_type":"html-button-response","trial_index":126,"time_elapsed":869176,"internal_node_id":"0.0-4.0-1.57","subject_id":"5e7fa0e918b10804bb87eb63","study_id":"6197b3f67c2b5cd3b6d9596a","session_id":"619be59017986ed5c4104e8c","condition":"full-information","relevant_dimensions":["antennae","legs"],"bee_group":{"antennae":"B","wings":"X","pattern":"X","legs":"F"},"bonus":1.6200000000000012},{"rt":1646.2999999523163,"stimulus":"bees-with-color/bee-A2SM.svg","response":0,"trial_type":"image-button-response","trial_index":127,"time_elapsed":870824,"internal_node_id":"0.0-4.0-0.58","subject_id":"5e7fa0e918b10804bb87eb63","study_id":"6197b3f67c2b5cd3b6d9596a","session_id":"619be59017986ed5c4104e8c","condition":"full-information","relevant_dimensions":["antennae","legs"],"bee_group":{"antennae":"B","wings":"X","pattern":"X","legs":"F"},"action":"harvest","summary":"good-harvest","bonus":1.6200000000000012},{"rt":830.3999999761581,"stimulus":"\n                    <p><b>Action: <em>harvest</em></b></p>\n                    <p>This is the bee that you just saw.</p>\n                    <img src=\"bees-with-color/bee-A2SM.svg\" width=\"200\">\n                    <p><span class=\"greenText\"><b>Successful harvest!</b></span><br>Your pay has increased by $0.02. Your bonus pay is now $1.08.</p>\n            ","response":0,"trial_type":"html-button-response","trial_index":128,"time_elapsed":871656,"internal_node_id":"0.0-4.0-1.58","subject_id":"5e7fa0e918b10804bb87eb63","study_id":"6197b3f67c2b5cd3b6d9596a","session_id":"619be59017986ed5c4104e8c","condition":"full-information","relevant_dimensions":["antennae","legs"],"bee_group":{"antennae":"B","wings":"X","pattern":"X","legs":"F"},"bonus":1.6200000000000012},{"rt":1174.5,"stimulus":"bees-with-color/bee-A2SF.svg","response":0,"trial_type":"image-button-response","trial_index":129,"time_elapsed":872832,"internal_node_id":"0.0-4.0-0.59","subject_id":"5e7fa0e918b10804bb87eb63","study_id":"6197b3f67c2b5cd3b6d9596a","session_id":"619be59017986ed5c4104e8c","condition":"full-information","relevant_dimensions":["antennae","legs"],"bee_group":{"antennae":"B","wings":"X","pattern":"X","legs":"F"},"action":"harvest","summary":"good-harvest","bonus":1.6200000000000012},{"rt":806.5,"stimulus":"\n                    <p><b>Action: <em>harvest</em></b></p>\n                    <p>This is the bee that you just saw.</p>\n                    <img src=\"bees-with-color/bee-A2SF.svg\" width=\"200\">\n                    <p><span class=\"greenText\"><b>Successful harvest!</b></span><br>Your pay has increased by $0.02. Your bonus pay is now $1.10.</p>\n            ","response":0,"trial_type":"html-button-response","trial_index":130,"time_elapsed":873640,"internal_node_id":"0.0-4.0-1.59","subject_id":"5e7fa0e918b10804bb87eb63","study_id":"6197b3f67c2b5cd3b6d9596a","session_id":"619be59017986ed5c4104e8c","condition":"full-information","relevant_dimensions":["antennae","legs"],"bee_group":{"antennae":"B","wings":"X","pattern":"X","legs":"F"},"bonus":1.6200000000000012},{"rt":934.5,"stimulus":"bees-with-color/bee-A2DF.svg","response":0,"trial_type":"image-button-response","trial_index":131,"time_elapsed":874576,"internal_node_id":"0.0-4.0-0.60","subject_id":"5e7fa0e918b10804bb87eb63","study_id":"6197b3f67c2b5cd3b6d9596a","session_id":"619be59017986ed5c4104e8c","condition":"full-information","relevant_dimensions":["antennae","legs"],"bee_group":{"antennae":"B","wings":"X","pattern":"X","legs":"F"},"action":"harvest","summary":"good-harvest","bonus":1.6200000000000012},{"rt":710.3999999761581,"stimulus":"\n                    <p><b>Action: <em>harvest</em></b></p>\n                    <p>This is the bee that you just saw.</p>\n                    <img src=\"bees-with-color/bee-A2DF.svg\" width=\"200\">\n                    <p><span class=\"greenText\"><b>Successful harvest!</b></span><br>Your pay has increased by $0.02. Your bonus pay is now $1.12.</p>\n            ","response":0,"trial_type":"html-button-response","trial_index":132,"time_elapsed":875288,"internal_node_id":"0.0-4.0-1.60","subject_id":"5e7fa0e918b10804bb87eb63","study_id":"6197b3f67c2b5cd3b6d9596a","session_id":"619be59017986ed5c4104e8c","condition":"full-information","relevant_dimensions":["antennae","legs"],"bee_group":{"antennae":"B","wings":"X","pattern":"X","legs":"F"},"bonus":1.6200000000000012},{"rt":2511.3000000715256,"stimulus":"bees-with-color/bee-B1DF.svg","response":1,"trial_type":"image-button-response","trial_index":133,"time_elapsed":877801,"internal_node_id":"0.0-4.0-0.61","subject_id":"5e7fa0e918b10804bb87eb63","study_id":"6197b3f67c2b5cd3b6d9596a","session_id":"619be59017986ed5c4104e8c","condition":"full-information","relevant_dimensions":["antennae","legs"],"bee_group":{"antennae":"B","wings":"X","pattern":"X","legs":"F"},"action":"avoid","summary":"good-avoid","bonus":1.6200000000000012},{"rt":909.6000000238419,"stimulus":"\n                    <p><b>Action: <em>avoid</em></b></p>\n                    <p>This is the bee that you just saw.</p>\n                    <img src=\"bees-with-color/bee-B1DF.svg\" width=\"200\">\n                    <p><span class=\"greenText\">Good choice!</span>  This bee would have stung you.<br>Your bonus pay is unchanged, and remains at $1.12.</p>\n            ","response":0,"trial_type":"html-button-response","trial_index":134,"time_elapsed":878712,"internal_node_id":"0.0-4.0-1.61","subject_id":"5e7fa0e918b10804bb87eb63","study_id":"6197b3f67c2b5cd3b6d9596a","session_id":"619be59017986ed5c4104e8c","condition":"full-information","relevant_dimensions":["antennae","legs"],"bee_group":{"antennae":"B","wings":"X","pattern":"X","legs":"F"},"bonus":1.6200000000000012},{"rt":2774.100000023842,"stimulus":"bees-with-color/bee-B2SF.svg","response":1,"trial_type":"image-button-response","trial_index":135,"time_elapsed":881488,"internal_node_id":"0.0-4.0-0.62","subject_id":"5e7fa0e918b10804bb87eb63","study_id":"6197b3f67c2b5cd3b6d9596a","session_id":"619be59017986ed5c4104e8c","condition":"full-information","relevant_dimensions":["antennae","legs"],"bee_group":{"antennae":"B","wings":"X","pattern":"X","legs":"F"},"action":"avoid","summary":"good-avoid","bonus":1.6200000000000012},{"rt":1806.5,"stimulus":"\n                    <p><b>Action: <em>avoid</em></b></p>\n                    <p>This is the bee that you just saw.</p>\n                    <img src=\"bees-with-color/bee-B2SF.svg\" width=\"200\">\n                    <p><span class=\"greenText\">Good choice!</span>  This bee would have stung you.<br>Your bonus pay is unchanged, and remains at $1.12.</p>\n            ","response":0,"trial_type":"html-button-response","trial_index":136,"time_elapsed":883296,"internal_node_id":"0.0-4.0-1.62","subject_id":"5e7fa0e918b10804bb87eb63","study_id":"6197b3f67c2b5cd3b6d9596a","session_id":"619be59017986ed5c4104e8c","condition":"full-information","relevant_dimensions":["antennae","legs"],"bee_group":{"antennae":"B","wings":"X","pattern":"X","legs":"F"},"bonus":1.6200000000000012},{"rt":2718.2000000476837,"stimulus":"bees-with-color/bee-B2SM.svg","response":0,"trial_type":"image-button-response","trial_index":137,"time_elapsed":886016,"internal_node_id":"0.0-4.0-0.63","subject_id":"5e7fa0e918b10804bb87eb63","study_id":"6197b3f67c2b5cd3b6d9596a","session_id":"619be59017986ed5c4104e8c","condition":"full-information","relevant_dimensions":["antennae","legs"],"bee_group":{"antennae":"B","wings":"X","pattern":"X","legs":"F"},"action":"harvest","summary":"good-harvest","bonus":1.6200000000000012},{"rt":1182.2000000476837,"stimulus":"\n                    <p><b>Action: <em>harvest</em></b></p>\n                    <p>This is the bee that you just saw.</p>\n                    <img src=\"bees-with-color/bee-B2SM.svg\" width=\"200\">\n                    <p><span class=\"greenText\"><b>Successful harvest!</b></span><br>Your pay has increased by $0.02. Your bonus pay is now $1.14.</p>\n            ","response":0,"trial_type":"html-button-response","trial_index":138,"time_elapsed":887200,"internal_node_id":"0.0-4.0-1.63","subject_id":"5e7fa0e918b10804bb87eb63","study_id":"6197b3f67c2b5cd3b6d9596a","session_id":"619be59017986ed5c4104e8c","condition":"full-information","relevant_dimensions":["antennae","legs"],"bee_group":{"antennae":"B","wings":"X","pattern":"X","legs":"F"},"bonus":1.6200000000000012},{"rt":10237.299999952316,"stimulus":"You have completed the first part of this experiment.<br><br>You will now begin a shorter second part, in which you will receive no feedback.<br>The same rules regarding bonus pay apply.<br><br>Press any key to begin.","response":"g","trial_type":"html-keyboard-response","trial_index":139,"time_elapsed":897439,"internal_node_id":"0.0-5.0","subject_id":"5e7fa0e918b10804bb87eb63","study_id":"6197b3f67c2b5cd3b6d9596a","session_id":"619be59017986ed5c4104e8c","condition":"full-information","relevant_dimensions":["antennae","legs"],"bee_group":{"antennae":"B","wings":"X","pattern":"X","legs":"F"},"bonus":1.6200000000000012},{"rt":8966.100000023842,"stimulus":"bees-with-color/bee-B2SM.svg","response":0,"trial_type":"image-button-response","trial_index":140,"time_elapsed":906416,"internal_node_id":"0.0-6.0-0.0","subject_id":"5e7fa0e918b10804bb87eb63","study_id":"6197b3f67c2b5cd3b6d9596a","session_id":"619be59017986ed5c4104e8c","condition":"full-information","relevant_dimensions":["antennae","legs"],"bee_group":{"antennae":"B","wings":"X","pattern":"X","legs":"F"},"bonus":1.6200000000000012},{"rt":2997.0999999046326,"stimulus":"bees-with-color/bee-B2DM.svg","response":0,"trial_type":"image-button-response","trial_index":141,"time_elapsed":909416,"internal_node_id":"0.0-6.0-0.1","subject_id":"5e7fa0e918b10804bb87eb63","study_id":"6197b3f67c2b5cd3b6d9596a","session_id":"619be59017986ed5c4104e8c","condition":"full-information","relevant_dimensions":["antennae","legs"],"bee_group":{"antennae":"B","wings":"X","pattern":"X","legs":"F"},"bonus":1.6200000000000012},{"rt":1837.5999999046326,"stimulus":"bees-with-color/bee-B1DM.svg","response":0,"trial_type":"image-button-response","trial_index":142,"time_elapsed":911256,"internal_node_id":"0.0-6.0-0.2","subject_id":"5e7fa0e918b10804bb87eb63","study_id":"6197b3f67c2b5cd3b6d9596a","session_id":"619be59017986ed5c4104e8c","condition":"full-information","relevant_dimensions":["antennae","legs"],"bee_group":{"antennae":"B","wings":"X","pattern":"X","legs":"F"},"bonus":1.6200000000000012},{"rt":957.5999999046326,"stimulus":"bees-with-color/bee-A1DM.svg","response":0,"trial_type":"image-button-response","trial_index":143,"time_elapsed":912216,"internal_node_id":"0.0-6.0-0.3","subject_id":"5e7fa0e918b10804bb87eb63","study_id":"6197b3f67c2b5cd3b6d9596a","session_id":"619be59017986ed5c4104e8c","condition":"full-information","relevant_dimensions":["antennae","legs"],"bee_group":{"antennae":"B","wings":"X","pattern":"X","legs":"F"},"bonus":1.6200000000000012},{"rt":1414,"stimulus":"bees-with-color/bee-A2DF.svg","response":0,"trial_type":"image-button-response","trial_index":144,"time_elapsed":913632,"internal_node_id":"0.0-6.0-0.4","subject_id":"5e7fa0e918b10804bb87eb63","study_id":"6197b3f67c2b5cd3b6d9596a","session_id":"619be59017986ed5c4104e8c","condition":"full-information","relevant_dimensions":["antennae","legs"],"bee_group":{"antennae":"B","wings":"X","pattern":"X","legs":"F"},"bonus":1.6200000000000012},{"rt":4533.699999928474,"stimulus":"bees-with-color/bee-A2SM.svg","response":0,"trial_type":"image-button-response","trial_index":145,"time_elapsed":918168,"internal_node_id":"0.0-6.0-0.5","subject_id":"5e7fa0e918b10804bb87eb63","study_id":"6197b3f67c2b5cd3b6d9596a","session_id":"619be59017986ed5c4104e8c","condition":"full-information","relevant_dimensions":["antennae","legs"],"bee_group":{"antennae":"B","wings":"X","pattern":"X","legs":"F"},"bonus":1.6200000000000012},{"rt":1389.5999999046326,"stimulus":"bees-with-color/bee-B1SF.svg","response":1,"trial_type":"image-button-response","trial_index":146,"time_elapsed":919560,"internal_node_id":"0.0-6.0-0.6","subject_id":"5e7fa0e918b10804bb87eb63","study_id":"6197b3f67c2b5cd3b6d9596a","session_id":"619be59017986ed5c4104e8c","condition":"full-information","relevant_dimensions":["antennae","legs"],"bee_group":{"antennae":"B","wings":"X","pattern":"X","legs":"F"},"bonus":1.6200000000000012},{"rt":3894.2999999523163,"stimulus":"bees-with-color/bee-B1DF.svg","response":1,"trial_type":"image-button-response","trial_index":147,"time_elapsed":923456,"internal_node_id":"0.0-6.0-0.7","subject_id":"5e7fa0e918b10804bb87eb63","study_id":"6197b3f67c2b5cd3b6d9596a","session_id":"619be59017986ed5c4104e8c","condition":"full-information","relevant_dimensions":["antennae","legs"],"bee_group":{"antennae":"B","wings":"X","pattern":"X","legs":"F"},"bonus":1.6200000000000012},{"rt":1133.3999999761581,"stimulus":"bees-with-color/bee-A1SF.svg","response":0,"trial_type":"image-button-response","trial_index":148,"time_elapsed":924592,"internal_node_id":"0.0-6.0-0.8","subject_id":"5e7fa0e918b10804bb87eb63","study_id":"6197b3f67c2b5cd3b6d9596a","session_id":"619be59017986ed5c4104e8c","condition":"full-information","relevant_dimensions":["antennae","legs"],"bee_group":{"antennae":"B","wings":"X","pattern":"X","legs":"F"},"bonus":1.6200000000000012},{"rt":878,"stimulus":"bees-with-color/bee-A1DF.svg","response":0,"trial_type":"image-button-response","trial_index":149,"time_elapsed":925472,"internal_node_id":"0.0-6.0-0.9","subject_id":"5e7fa0e918b10804bb87eb63","study_id":"6197b3f67c2b5cd3b6d9596a","session_id":"619be59017986ed5c4104e8c","condition":"full-information","relevant_dimensions":["antennae","legs"],"bee_group":{"antennae":"B","wings":"X","pattern":"X","legs":"F"},"bonus":1.6200000000000012},{"rt":878.2000000476837,"stimulus":"bees-with-color/bee-A1SM.svg","response":0,"trial_type":"image-button-response","trial_index":150,"time_elapsed":926352,"internal_node_id":"0.0-6.0-0.10","subject_id":"5e7fa0e918b10804bb87eb63","study_id":"6197b3f67c2b5cd3b6d9596a","session_id":"619be59017986ed5c4104e8c","condition":"full-information","relevant_dimensions":["antennae","legs"],"bee_group":{"antennae":"B","wings":"X","pattern":"X","legs":"F"},"bonus":1.6200000000000012},{"rt":3694.2000000476837,"stimulus":"bees-with-color/bee-B1SM.svg","response":0,"trial_type":"image-button-response","trial_index":151,"time_elapsed":930048,"internal_node_id":"0.0-6.0-0.11","subject_id":"5e7fa0e918b10804bb87eb63","study_id":"6197b3f67c2b5cd3b6d9596a","session_id":"619be59017986ed5c4104e8c","condition":"full-information","relevant_dimensions":["antennae","legs"],"bee_group":{"antennae":"B","wings":"X","pattern":"X","legs":"F"},"bonus":1.6200000000000012},{"rt":1973.7000000476837,"stimulus":"bees-with-color/bee-B2SF.svg","response":1,"trial_type":"image-button-response","trial_index":152,"time_elapsed":932024,"internal_node_id":"0.0-6.0-0.12","subject_id":"5e7fa0e918b10804bb87eb63","study_id":"6197b3f67c2b5cd3b6d9596a","session_id":"619be59017986ed5c4104e8c","condition":"full-information","relevant_dimensions":["antennae","legs"],"bee_group":{"antennae":"B","wings":"X","pattern":"X","legs":"F"},"bonus":1.6200000000000012},{"rt":1733.8999999761581,"stimulus":"bees-with-color/bee-A2SF.svg","response":0,"trial_type":"image-button-response","trial_index":153,"time_elapsed":933760,"internal_node_id":"0.0-6.0-0.13","subject_id":"5e7fa0e918b10804bb87eb63","study_id":"6197b3f67c2b5cd3b6d9596a","session_id":"619be59017986ed5c4104e8c","condition":"full-information","relevant_dimensions":["antennae","legs"],"bee_group":{"antennae":"B","wings":"X","pattern":"X","legs":"F"},"bonus":1.6200000000000012},{"rt":797.7999999523163,"stimulus":"bees-with-color/bee-A2DM.svg","response":0,"trial_type":"image-button-response","trial_index":154,"time_elapsed":934560,"internal_node_id":"0.0-6.0-0.14","subject_id":"5e7fa0e918b10804bb87eb63","study_id":"6197b3f67c2b5cd3b6d9596a","session_id":"619be59017986ed5c4104e8c","condition":"full-information","relevant_dimensions":["antennae","legs"],"bee_group":{"antennae":"B","wings":"X","pattern":"X","legs":"F"},"bonus":1.6200000000000012},{"rt":1534.2000000476837,"stimulus":"bees-with-color/bee-B2DF.svg","response":1,"trial_type":"image-button-response","trial_index":155,"time_elapsed":936096,"internal_node_id":"0.0-6.0-0.15","subject_id":"5e7fa0