[{"success":true,"trial_type":"fullscreen","trial_index":0,"time_elapsed":2438,"internal_node_id":"0.0-0.0","subject_id":"5fbfb3099d4fac2f7134943b","study_id":"6197b3f67c2b5cd3b6d9596a","session_id":"6197b89222ef9e384ca40a4c","condition":"contingent","relevant_dimensions":["wings","legs"],"bee_group":{"antennae":"X","wings":"2","pattern":"X","legs":"F"},"bonus":0.04},{"success":true,"timeout":false,"failed_images":[],"failed_audio":[],"failed_video":[],"trial_type":"preload","trial_index":1,"time_elapsed":3353,"internal_node_id":"0.0-1.0","subject_id":"5fbfb3099d4fac2f7134943b","study_id":"6197b3f67c2b5cd3b6d9596a","session_id":"6197b89222ef9e384ca40a4c","condition":"contingent","relevant_dimensions":["wings","legs"],"bee_group":{"antennae":"X","wings":"2","pattern":"X","legs":"F"},"bonus":0.04},{"rt":1372.0999999046326,"stimulus":"Welcome! Press any key to begin.","response":" ","trial_type":"html-keyboard-response","trial_index":2,"time_elapsed":4726,"internal_node_id":"0.0-2.0","subject_id":"5fbfb3099d4fac2f7134943b","study_id":"6197b3f67c2b5cd3b6d9596a","session_id":"6197b89222ef9e384ca40a4c","condition":"contingent","relevant_dimensions":["wings","legs"],"bee_group":{"antennae":"X","wings":"2","pattern":"X","legs":"F"},"bonus":0.04},{"view_history":[{"page_index":0,"viewing_time":4364.800000190735},{"page_index":1,"viewing_time":13263.199999809265},{"page_index":2,"viewing_time":12951.400000095367},{"page_index":3,"viewing_time":31830.599999904633},{"page_index":4,"viewing_time":4375.699999809265},{"page_index":5,"viewing_time":10007.400000095367},{"page_index":6,"viewing_time":10439.800000190735},{"page_index":7,"viewing_time":8655.5},{"page_index":8,"viewing_time":3879.9000000953674},{"page_index":7,"viewing_time":1015.7999997138977},{"page_index":8,"viewing_time":3144},{"page_index":9,"viewing_time":5031.700000286102},{"page_index":10,"viewing_time":2616},{"page_index":11,"viewing_time":10999.39999961853},{"page_index":12,"viewing_time":28166.60000038147},{"page_index":13,"viewing_time":1584},{"page_index":14,"viewing_time":1847.8999996185303}],"rt":154174.09999990463,"trial_type":"instructions","trial_index":3,"time_elapsed":158898,"internal_node_id":"0.0-3.0-0.0","subject_id":"5fbfb3099d4fac2f7134943b","study_id":"6197b3f67c2b5cd3b6d9596a","session_id":"6197b89222ef9e384ca40a4c","condition":"contingent","relevant_dimensions":["wings","legs"],"bee_group":{"antennae":"X","wings":"2","pattern":"X","legs":"F"},"bonus":0.04},{"rt":20099.400000095367,"response":{"Q0":["Two or six legs","Stripes or spots on body","Single or double wings","Antennae or no antennae"]},"question_order":[0],"trial_type":"survey-multi-select","trial_index":4,"time_elapsed":179002,"internal_node_id":"0.0-3.0-1.0","subject_id":"5fbfb3099d4fac2f7134943b","study_id":"6197b3f67c2b5cd3b6d9596a","session_id":"6197b89222ef9e384ca40a4c","condition":"contingent","relevant_dimensions":["wings","legs"],"bee_group":{"antennae":"X","wings":"2","pattern":"X","legs":"F"},"correct":true,"bonus":0.04},{"rt":43699,"response":{"Q1":"No.","Q2":"Based on the four features of the bee.","Q3":"You do not learn if it was friendly or dangerous, and do not alter your bonus."},"question_order":[0,1,2],"trial_type":"survey-multi-choice","trial_index":5,"time_elapsed":222702,"internal_node_id":"0.0-3.0-2.0","subject_id":"5fbfb3099d4fac2f7134943b","study_id":"6197b3f67c2b5cd3b6d9596a","session_id":"6197b89222ef9e384ca40a4c","condition":"contingent","relevant_dimensions":["wings","legs"],"bee_group":{"antennae":"X","wings":"2","pattern":"X","legs":"F"},"correct":true,"bonus":0.04},{"rt":3349.6000003814697,"stimulus":"<p>Congrats, you got everything right<br>When you're ready, click the button below to continue to the experiment.</p>","response":0,"trial_type":"html-button-response","trial_index":6,"time_elapsed":226053,"internal_node_id":"0.0-3.0-3.0","subject_id":"5fbfb3099d4fac2f7134943b","study_id":"6197b3f67c2b5cd3b6d9596a","session_id":"6197b89222ef9e384ca40a4c","condition":"contingent","relevant_dimensions":["wings","legs"],"bee_group":{"antennae":"X","wings":"2","pattern":"X","legs":"F"},"bonus":0.04},{"rt":9380.099999904633,"stimulus":"bees-with-color/bee-A1DF.svg","response":0,"trial_type":"image-button-response","trial_index":7,"time_elapsed":235437,"internal_node_id":"0.0-4.0-0.0","subject_id":"5fbfb3099d4fac2f7134943b","study_id":"6197b3f67c2b5cd3b6d9596a","session_id":"6197b89222ef9e384ca40a4c","condition":"contingent","relevant_dimensions":["wings","legs"],"bee_group":{"antennae":"X","wings":"2","pattern":"X","legs":"F"},"action":"harvest","summary":"good-harvest","bonus":0.04},{"rt":26747.39999961853,"stimulus":"\n                    <p><b>Action: <em>harvest</em></b></p>\n                    <p>This is the bee that you just saw.</p>\n                    <img src=\"bees-with-color/bee-A1DF.svg\" width=\"200\">\n                    <p><span class=\"greenText\"><b>Successful harvest!</b></span><br>Your pay has increased by $0.02. Your bonus pay is now $0.56.</p>\n            ","response":0,"trial_type":"html-button-response","trial_index":8,"time_elapsed":262188,"internal_node_id":"0.0-4.0-1.0","subject_id":"5fbfb3099d4fac2f7134943b","study_id":"6197b3f67c2b5cd3b6d9596a","session_id":"6197b89222ef9e384ca40a4c","condition":"contingent","relevant_dimensions":["wings","legs"],"bee_group":{"antennae":"X","wings":"2","pattern":"X","legs":"F"},"bonus":0.04},{"rt":13828.599999904633,"stimulus":"bees-with-color/bee-B2SF.svg","response":1,"trial_type":"image-button-response","trial_index":9,"time_elapsed":276018,"internal_node_id":"0.0-4.0-0.1","subject_id":"5fbfb3099d4fac2f7134943b","study_id":"6197b3f67c2b5cd3b6d9596a","session_id":"6197b89222ef9e384ca40a4c","condition":"contingent","relevant_dimensions":["wings","legs"],"bee_group":{"antennae":"X","wings":"2","pattern":"X","legs":"F"},"action":"avoid","summary":"good-avoid","bonus":0.04},{"rt":16596.900000095367,"stimulus":"\n                    <p><b>Action: <em>avoid</em></b></p>\n                    <p>This is the bee that you just saw.</p>\n                    <img src=\"bees-with-color/bee-B2SF.svg\" width=\"200\">\n                    <p><br>Your bonus pay is unchanged, and remains at $0.56.</p>\n            ","response":0,"trial_type":"html-button-response","trial_index":10,"time_elapsed":292617,"internal_node_id":"0.0-4.0-1.1","subject_id":"5fbfb3099d4fac2f7134943b","study_id":"6197b3f67c2b5cd3b6d9596a","session_id":"6197b89222ef9e384ca40a4c","condition":"contingent","relevant_dimensions":["wings","legs"],"bee_group":{"antennae":"X","wings":"2","pattern":"X","legs":"F"},"bonus":0.04},{"rt":7093.200000286102,"stimulus":"bees-with-color/bee-A2SM.svg","response":0,"trial_type":"image-button-response","trial_index":11,"time_elapsed":299713,"internal_node_id":"0.0-4.0-0.2","subject_id":"5fbfb3099d4fac2f7134943b","study_id":"6197b3f67c2b5cd3b6d9596a","session_id":"6197b89222ef9e384ca40a4c","condition":"contingent","relevant_dimensions":["wings","legs"],"bee_group":{"antennae":"X","wings":"2","pattern":"X","legs":"F"},"action":"harvest","summary":"good-harvest","bonus":0.04},{"rt":22077,"stimulus":"\n                    <p><b>Action: <em>harvest</em></b></p>\n                    <p>This is the bee that you just saw.</p>\n                    <img src=\"bees-with-color/bee-A2SM.svg\" width=\"200\">\n                    <p><span class=\"greenText\"><b>Successful harvest!</b></span><br>Your pay has increased by $0.02. Your bonus pay is now $0.58.</p>\n            ","response":0,"trial_type":"html-button-response","trial_index":12,"time_elapsed":321792,"internal_node_id":"0.0-4.0-1.2","subject_id":"5fbfb3099d4fac2f7134943b","study_id":"6197b3f67c2b5cd3b6d9596a","session_id":"6197b89222ef9e384ca40a4c","condition":"contingent","relevant_dimensions":["wings","legs"],"bee_group":{"antennae":"X","wings":"2","pattern":"X","legs":"F"},"bonus":0.04},{"rt":5213.400000095367,"stimulus":"bees-with-color/bee-B2SM.svg","response":0,"trial_type":"image-button-response","trial_index":13,"time_elapsed":327006,"internal_node_id":"0.0-4.0-0.3","subject_id":"5fbfb3099d4fac2f7134943b","study_id":"6197b3f67c2b5cd3b6d9596a","session_id":"6197b89222ef9e384ca40a4c","condition":"contingent","relevant_dimensions":["wings","legs"],"bee_group":{"antennae":"X","wings":"2","pattern":"X","legs":"F"},"action":"harvest","summary":"good-harvest","bonus":0.04},{"rt":7333.699999809265,"stimulus":"\n                    <p><b>Action: <em>harvest</em></b></p>\n                    <p>This is the bee that you just saw.</p>\n                    <img src=\"bees-with-color/bee-B2SM.svg\" width=\"200\">\n                    <p><span class=\"greenText\"><b>Successful harvest!</b></span><br>Your pay has increased by $0.02. Your bonus pay is now $0.60.</p>\n            ","response":0,"trial_type":"html-button-response","trial_index":14,"time_elapsed":334342,"internal_node_id":"0.0-4.0-1.3","subject_id":"5fbfb3099d4fac2f7134943b","study_id":"6197b3f67c2b5cd3b6d9596a","session_id":"6197b89222ef9e384ca40a4c","condition":"contingent","relevant_dimensions":["wings","legs"],"bee_group":{"antennae":"X","wings":"2","pattern":"X","legs":"F"},"bonus":0.04},{"rt":5957.400000095367,"stimulus":"bees-with-color/bee-A2DF.svg","response":0,"trial_type":"image-button-response","trial_index":15,"time_elapsed":340302,"internal_node_id":"0.0-4.0-0.4","subject_id":"5fbfb3099d4fac2f7134943b","study_id":"6197b3f67c2b5cd3b6d9596a","session_id":"6197b89222ef9e384ca40a4c","condition":"contingent","relevant_dimensions":["wings","legs"],"bee_group":{"antennae":"X","wings":"2","pattern":"X","legs":"F"},"action":"harvest","summary":"bad-harvest","bonus":0.04},{"rt":19389.299999713898,"stimulus":"\n                    <p><b>Action: <em>harvest</em></b></p>\n                    <p>This is the bee that you just saw.</p>\n                    <img src=\"bees-with-color/bee-A2DF.svg\" width=\"200\">\n                    <p><span class=\"redText\">Bad choice, the bee was angry.</span><br><b>You have been stung!</b><br>Your pay has been decreased by $0.10. Your bonus pay is now $0.50.</p>\n            ","response":0,"trial_type":"html-button-response","trial_index":16,"time_elapsed":359693,"internal_node_id":"0.0-4.0-1.4","subject_id":"5fbfb3099d4fac2f7134943b","study_id":"6197b3f67c2b5cd3b6d9596a","session_id":"6197b89222ef9e384ca40a4c","condition":"contingent","relevant_dimensions":["wings","legs"],"bee_group":{"antennae":"X","wings":"2","pattern":"X","legs":"F"},"bonus":0.04},{"rt":6909.400000095367,"stimulus":"bees-with-color/bee-A1SM.svg","response":0,"trial_type":"image-button-response","trial_index":17,"time_elapsed":366604,"internal_node_id":"0.0-4.0-0.5","subject_id":"5fbfb3099d4fac2f7134943b","study_id":"6197b3f67c2b5cd3b6d9596a","session_id":"6197b89222ef9e384ca40a4c","condition":"contingent","relevant_dimensions":["wings","legs"],"bee_group":{"antennae":"X","wings":"2","pattern":"X","legs":"F"},"action":"harvest","summary":"good-harvest","bonus":0.04},{"rt":1206.0999999046326,"stimulus":"\n                    <p><b>Action: <em>harvest</em></b></p>\n                    <p>This is the bee that you just saw.</p>\n                    <img src=\"bees-with-color/bee-A1SM.svg\" width=\"200\">\n                    <p><span class=\"greenText\"><b>Successful harvest!</b></span><br>Your pay has increased by $0.02. Your bonus pay is now $0.52.</p>\n            ","response":0,"trial_type":"html-button-response","trial_index":18,"time_elapsed":367812,"internal_node_id":"0.0-4.0-1.5","subject_id":"5fbfb3099d4fac2f7134943b","study_id":"6197b3f67c2b5cd3b6d9596a","session_id":"6197b89222ef9e384ca40a4c","condition":"contingent","relevant_dimensions":["wings","legs"],"bee_group":{"antennae":"X","wings":"2","pattern":"X","legs":"F"},"bonus":0.04},{"rt":7981.400000095367,"stimulus":"bees-with-color/bee-B1SM.svg","response":0,"trial_type":"image-button-response","trial_index":19,"time_elapsed":375796,"internal_node_id":"0.0-4.0-0.6","subject_id":"5fbfb3099d4fac2f7134943b","study_id":"6197b3f67c2b5cd3b6d9596a","session_id":"6197b89222ef9e384ca40a4c","condition":"contingent","relevant_dimensions":["wings","legs"],"bee_group":{"antennae":"X","wings":"2","pattern":"X","legs":"F"},"action":"harvest","summary":"good-harvest","bonus":0.04},{"rt":14485.400000095367,"stimulus":"\n                    <p><b>Action: <em>harvest</em></b></p>\n                    <p>This is the bee that you just saw.</p>\n                    <img src=\"bees-with-color/bee-B1SM.svg\" width=\"200\">\n                    <p><span class=\"greenText\"><b>Successful harvest!</b></span><br>Your pay has increased by $0.02. Your bonus pay is now $0.54.</p>\n            ","response":0,"trial_type":"html-button-response","trial_index":20,"time_elapsed":390282,"internal_node_id":"0.0-4.0-1.6","subject_id":"5fbfb3099d4fac2f7134943b","study_id":"6197b3f67c2b5cd3b6d9596a","session_id":"6197b89222ef9e384ca40a4c","condition":"contingent","relevant_dimensions":["wings","legs"],"bee_group":{"antennae":"X","wings":"2","pattern":"X","legs":"F"},"bonus":0.04},{"rt":17877,"stimulus":"bees-with-color/bee-B2DM.svg","response":0,"trial_type":"image-button-response","trial_index":21,"time_elapsed":408162,"internal_node_id":"0.0-4.0-0.7","subject_id":"5fbfb3099d4fac2f7134943b","study_id":"6197b3f67c2b5cd3b6d9596a","session_id":"6197b89222ef9e384ca40a4c","condition":"contingent","relevant_dimensions":["wings","legs"],"bee_group":{"antennae":"X","wings":"2","pattern":"X","legs":"F"},"action":"harvest","summary":"good-harvest","bonus":0.04},{"rt":1005.7999997138977,"stimulus":"\n                    <p><b>Action: <em>harvest</em></b></p>\n                    <p>This is the bee that you just saw.</p>\n                    <img src=\"bees-with-color/bee-B2DM.svg\" width=\"200\">\n                    <p><span class=\"greenText\"><b>Successful harvest!</b></span><br>Your pay has increased by $0.02. Your bonus pay is now $0.56.</p>\n            ","response":0,"trial_type":"html-button-response","trial_index":22,"time_elapsed":409169,"internal_node_id":"0.0-4.0-1.7","subject_id":"5fbfb3099d4fac2f7134943b","study_id":"6197b3f67c2b5cd3b6d9596a","session_id":"6197b89222ef9e384ca40a4c","condition":"contingent","relevant_dimensions":["wings","legs"],"bee_group":{"antennae":"X","wings":"2","pattern":"X","legs":"F"},"bonus":0.04},{"rt":9117.5,"stimulus":"bees-with-color/bee-A2SF.svg","response":0,"trial_type":"image-button-response","trial_index":23,"time_elapsed":418289,"internal_node_id":"0.0-4.0-0.8","subject_id":"5fbfb3099d4fac2f7134943b","study_id":"6197b3f67c2b5cd3b6d9596a","session_id":"6197b89222ef9e384ca40a4c","condition":"contingent","relevant_dimensions":["wings","legs"],"bee_group":{"antennae":"X","wings":"2","pattern":"X","legs":"F"},"action":"harvest","summary":"bad-harvest","bonus":0.04},{"rt":9517.099999904633,"stimulus":"\n                    <p><b>Action: <em>harvest</em></b></p>\n                    <p>This is the bee that you just saw.</p>\n                    <img src=\"bees-with-color/bee-A2SF.svg\" width=\"200\">\n                    <p><span class=\"redText\">Bad choice, the bee was angry.</span><br><b>You have been stung!</b><br>Your pay has been decreased by $0.10. Your bonus pay is now $0.46.</p>\n            ","response":0,"trial_type":"html-button-response","trial_index":24,"time_elapsed":427809,"internal_node_id":"0.0-4.0-1.8","subject_id":"5fbfb3099d4fac2f7134943b","study_id":"6197b3f67c2b5cd3b6d9596a","session_id":"6197b89222ef9e384ca40a4c","condition":"contingent","relevant_dimensions":["wings","legs"],"bee_group":{"antennae":"X","wings":"2","pattern":"X","legs":"F"},"bonus":0.04},{"rt":5845.099999904633,"stimulus":"bees-with-color/bee-B2DF.svg","response":1,"trial_type":"image-button-response","trial_index":25,"time_elapsed":433656,"internal_node_id":"0.0-4.0-0.9","subject_id":"5fbfb3099d4fac2f7134943b","study_id":"6197b3f67c2b5cd3b6d9596a","session_id":"6197b89222ef9e384ca40a4c","condition":"contingent","relevant_dimensions":["wings","legs"],"bee_group":{"antennae":"X","wings":"2","pattern":"X","legs":"F"},"action":"avoid","summary":"good-avoid","bonus":0.04},{"rt":2741.699999809265,"stimulus":"\n                    <p><b>Action: <em>avoid</em></b></p>\n                    <p>This is the bee that you just saw.</p>\n                    <img src=\"bees-with-color/bee-B2DF.svg\" width=\"200\">\n                    <p><br>Your bonus pay is unchanged, and remains at $0.46.</p>\n            ","response":0,"trial_type":"html-button-response","trial_index":26,"time_elapsed":436400,"internal_node_id":"0.0-4.0-1.9","subject_id":"5fbfb3099d4fac2f7134943b","study_id":"6197b3f67c2b5cd3b6d9596a","session_id":"6197b89222ef9e384ca40a4c","condition":"contingent","relevant_dimensions":["wings","legs"],"bee_group":{"antennae":"X","wings":"2","pattern":"X","legs":"F"},"bonus":0.04},{"rt":2717.300000190735,"stimulus":"bees-with-color/bee-A2DM.svg","response":0,"trial_type":"image-button-response","trial_index":27,"time_elapsed":439120,"internal_node_id":"0.0-4.0-0.10","subject_id":"5fbfb3099d4fac2f7134943b","study_id":"6197b3f67c2b5cd3b6d9596a","session_id":"6197b89222ef9e384ca40a4c","condition":"contingent","relevant_dimensions":["wings","legs"],"bee_group":{"antennae":"X","wings":"2","pattern":"X","legs":"F"},"action":"harvest","summary":"good-harvest","bonus":0.04},{"rt":902.0999999046326,"stimulus":"\n                    <p><b>Action: <em>harvest</em></b></p>\n                    <p>This is the bee that you just saw.</p>\n                    <img src=\"bees-with-color/bee-A2DM.svg\" width=\"200\">\n                    <p><span class=\"greenText\"><b>Successful harvest!</b></span><br>Your pay has increased by $0.02. Your bonus pay is now $0.48.</p>\n            ","response":0,"trial_type":"html-button-response","trial_index":28,"time_elapsed":440024,"internal_node_id":"0.0-4.0-1.10","subject_id":"5fbfb3099d4fac2f7134943b","study_id":"6197b3f67c2b5cd3b6d9596a","session_id":"6197b89222ef9e384ca40a4c","condition":"contingent","relevant_dimensions":["wings","legs"],"bee_group":{"antennae":"X","wings":"2","pattern":"X","legs":"F"},"bonus":0.04},{"rt":5357.5,"stimulus":"bees-with-color/bee-A1SF.svg","response":0,"trial_type":"image-button-response","trial_index":29,"time_elapsed":445383,"internal_node_id":"0.0-4.0-0.11","subject_id":"5fbfb3099d4fac2f7134943b","study_id":"6197b3f67c2b5cd3b6d9596a","session_id":"6197b89222ef9e384ca40a4c","condition":"contingent","relevant_dimensions":["wings","legs"],"bee_group":{"antennae":"X","wings":"2","pattern":"X","legs":"F"},"action":"harvest","summary":"good-harvest","bonus":0.04},{"rt":773.5999999046326,"stimulus":"\n                    <p><b>Action: <em>harvest</em></b></p>\n                    <p>This is the bee that you just saw.</p>\n                    <img src=\"bees-with-color/bee-A1SF.svg\" width=\"200\">\n                    <p><span class=\"greenText\"><b>Successful harvest!</b></span><br>Your pay has increased by $0.02. Your bonus pay is now $0.50.</p>\n            ","response":0,"trial_type":"html-button-response","trial_index":30,"time_elapsed":446159,"internal_node_id":"0.0-4.0-1.11","subject_id":"5fbfb3099d4fac2f7134943b","study_id":"6197b3f67c2b5cd3b6d9596a","session_id":"6197b89222ef9e384ca40a4c","condition":"contingent","relevant_dimensions":["wings","legs"],"bee_group":{"antennae":"X","wings":"2","pattern":"X","legs":"F"},"bonus":0.04},{"rt":7421.700000286102,"stimulus":"bees-with-color/bee-B1DF.svg","response":0,"trial_type":"image-button-response","trial_index":31,"time_elapsed":453583,"internal_node_id":"0.0-4.0-0.12","subject_id":"5fbfb3099d4fac2f7134943b","study_id":"6197b3f67c2b5cd3b6d9596a","session_id":"6197b89222ef9e384ca40a4c","condition":"contingent","relevant_dimensions":["wings","legs"],"bee_group":{"antennae":"X","wings":"2","pattern":"X","legs":"F"},"action":"harvest","summary":"good-harvest","bonus":0.04},{"rt":9981.300000190735,"stimulus":"\n                    <p><b>Action: <em>harvest</em></b></p>\n                    <p>This is the bee that you just saw.</p>\n                    <img src=\"bees-with-color/bee-B1DF.svg\" width=\"200\">\n                    <p><span class=\"greenText\"><b>Successful harvest!</b></span><br>Your pay has increased by $0.02. Your bonus pay is now $0.52.</p>\n            ","response":0,"trial_type":"html-button-response","trial_index":32,"time_elapsed":463566,"internal_node_id":"0.0-4.0-1.12","subject_id":"5fbfb3099d4fac2f7134943b","study_id":"6197b3f67c2b5cd3b6d9596a","session_id":"6197b89222ef9e384ca40a4c","condition":"contingent","relevant_dimensions":["wings","legs"],"bee_group":{"antennae":"X","wings":"2","pattern":"X","legs":"F"},"bonus":0.04},{"rt":6437.099999904633,"stimulus":"bees-with-color/bee-B1SF.svg","response":0,"trial_type":"image-button-response","trial_index":33,"time_elapsed":470006,"internal_node_id":"0.0-4.0-0.13","subject_id":"5fbfb3099d4fac2f7134943b","study_id":"6197b3f67c2b5cd3b6d9596a","session_id":"6197b89222ef9e384ca40a4c","condition":"contingent","relevant_dimensions":["wings","legs"],"bee_group":{"antennae":"X","wings":"2","pattern":"X","legs":"F"},"action":"harvest","summary":"good-harvest","bonus":0.04},{"rt":8205.5,"stimulus":"\n                    <p><b>Action: <em>harvest</em></b></p>\n                    <p>This is the bee that you just saw.</p>\n                    <img src=\"bees-with-color/bee-B1SF.svg\" width=\"200\">\n                    <p><span class=\"greenText\"><b>Successful harvest!</b></span><br>Your pay has increased by $0.02. Your bonus pay is now $0.54.</p>\n            ","response":0,"trial_type":"html-button-response","trial_index":34,"time_elapsed":478213,"internal_node_id":"0.0-4.0-1.13","subject_id":"5fbfb3099d4fac2f7134943b","study_id":"6197b3f67c2b5cd3b6d9596a","session_id":"6197b89222ef9e384ca40a4c","condition":"contingent","relevant_dimensions":["wings","legs"],"bee_group":{"antennae":"X","wings":"2","pattern":"X","legs":"F"},"bonus":0.04},{"rt":10237,"stimulus":"bees-with-color/bee-A1DM.svg","response":0,"trial_type":"image-button-response","trial_index":35,"time_elapsed":488453,"internal_node_id":"0.0-4.0-0.14","subject_id":"5fbfb3099d4fac2f7134943b","study_id":"6197b3f67c2b5cd3b6d9596a","session_id":"6197b89222ef9e384ca40a4c","condition":"contingent","relevant_dimensions":["wings","legs"],"bee_group":{"antennae":"X","wings":"2","pattern":"X","legs":"F"},"action":"harvest","summary":"good-harvest","bonus":0.04},{"rt":1133.6999998092651,"stimulus":"\n                    <p><b>Action: <em>harvest</em></b></p>\n                    <p>This is the bee that you just saw.</p>\n                    <img src=\"bees-with-color/bee-A1DM.svg\" width=\"200\">\n                    <p><span class=\"greenText\"><b>Successful harvest!</b></span><br>Your pay has increased by $0.02. Your bonus pay is now $0.56.</p>\n            ","response":0,"trial_type":"html-button-response","trial_index":36,"time_elapsed":489589,"internal_node_id":"0.0-4.0-1.14","subject_id":"5fbfb3099d4fac2f7134943b","study_id":"6197b3f67c2b5cd3b6d9596a","session_id":"6197b89222ef9e384ca40a4c","condition":"contingent","relevant_dimensions":["wings","legs"],"bee_group":{"antennae":"X","wings":"2","pattern":"X","legs":"F"},"bonus":0.04},{"rt":10333,"stimulus":"bees-with-color/bee-B1DM.svg","response":1,"trial_type":"image-button-response","trial_index":37,"time_elapsed":499925,"internal_node_id":"0.0-4.0-0.15","subject_id":"5fbfb3099d4fac2f7134943b","study_id":"6197b3f67c2b5cd3b6d9596a","session_id":"6197b89222ef9e384ca40a4c","condition":"contingent","relevant_dimensions":["wings","legs"],"bee_group":{"antennae":"X","wings":"2","pattern":"X","legs":"F"},"action":"avoid","summary":"bad-avoid","bonus":0.04},{"rt":9149.400000095367,"stimulus":"\n                    <p><b>Action: <em>avoid</em></b></p>\n                    <p>This is the bee that you just saw.</p>\n                    <img src=\"bees-with-color/bee-B1DM.svg\" width=\"200\">\n                    <p><br>Your bonus pay is unchanged, and remains at $0.56.</p>\n            ","response":0,"trial_type":"html-button-response","trial_index":38,"time_elapsed":509075,"internal_node_id":"0.0-4.0-1.15","subject_id":"5fbfb3099d4fac2f7134943b","study_id":"6197b3f67c2b5cd3b6d9596a","session_id":"6197b89222ef9e384ca40a4c","condition":"contingent","relevant_dimensions":["wings","legs"],"bee_group":{"antennae":"X","wings":"2","pattern":"X","legs":"F"},"bonus":0.04},{"rt":13764.599999904633,"stimulus":"bees-with-color/bee-B2SM.svg","response":0,"trial_type":"image-button-response","trial_index":39,"time_elapsed":522842,"internal_node_id":"0.0-4.0-0.16","subject_id":"5fbfb3099d4fac2f7134943b","study_id":"6197b3f67c2b5cd3b6d9596a","session_id":"6197b89222ef9e384ca40a4c","condition":"contingent","relevant_dimensions":["wings","legs"],"bee_group":{"antennae":"X","wings":"2","pattern":"X","legs":"F"},"action":"harvest","summary":"good-harvest","bonus":0.04},{"rt":1261.5999999046326,"stimulus":"\n                    <p><b>Action: <em>harvest</em></b></p>\n                    <p>This is the bee that you just saw.</p>\n                    <img src=\"bees-with-color/bee-B2SM.svg\" width=\"200\">\n                    <p><span class=\"greenText\"><b>Successful harvest!</b></span><br>Your pay has increased by $0.02. Your bonus pay is now $0.58.</p>\n            ","response":0,"trial_type":"html-button-response","trial_index":40,"time_elapsed":524106,"internal_node_id":"0.0-4.0-1.16","subject_id":"5fbfb3099d4fac2f7134943b","study_id":"6197b3f67c2b5cd3b6d9596a","session_id":"6197b89222ef9e384ca40a4c","condition":"contingent","relevant_dimensions":["wings","legs"],"bee_group":{"antennae":"X","wings":"2","pattern":"X","legs":"F"},"bonus":0.04},{"rt":10204.900000095367,"stimulus":"bees-with-color/bee-A2DM.svg","response":1,"trial_type":"image-button-response","trial_index":41,"time_elapsed":534314,"internal_node_id":"0.0-4.0-0.17","subject_id":"5fbfb3099d4fac2f7134943b","study_id":"6197b3f67c2b5cd3b6d9596a","session_id":"6197b89222ef9e384ca40a4c","condition":"contingent","relevant_dimensions":["wings","legs"],"bee_group":{"antennae":"X","wings":"2","pattern":"X","legs":"F"},"action":"avoid","summary":"bad-avoid","bonus":0.04},{"rt":2413.4000000953674,"stimulus":"\n                    <p><b>Action: <em>avoid</em></b></p>\n                    <p>This is the bee that you just saw.</p>\n                    <img src=\"bees-with-color/bee-A2DM.svg\" width=\"200\">\n                    <p><br>Your bonus pay is unchanged, and remains at $0.58.</p>\n            ","response":0,"trial_type":"html-button-response","trial_index":42,"time_elapsed":536729,"internal_node_id":"0.0-4.0-1.17","subject_id":"5fbfb3099d4fac2f7134943b","study_id":"6197b3f67c2b5cd3b6d9596a","session_id":"6197b89222ef9e384ca40a4c","condition":"contingent","relevant_dimensions":["wings","legs"],"bee_group":{"antennae":"X","wings":"2","pattern":"X","legs":"F"},"bonus":0.04},{"rt":2716.7000002861023,"stimulus":"bees-with-color/bee-A1SF.svg","response":0,"trial_type":"image-button-response","trial_index":43,"time_elapsed":539449,"internal_node_id":"0.0-4.0-0.18","subject_id":"5fbfb3099d4fac2f7134943b","study_id":"6197b3f67c2b5cd3b6d9596a","session_id":"6197b89222ef9e384ca40a4c","condition":"contingent","relevant_dimensions":["wings","legs"],"bee_group":{"antennae":"X","wings":"2","pattern":"X","legs":"F"},"action":"harvest","summary":"good-harvest","bonus":0.04},{"rt":1149.6000003814697,"stimulus":"\n                    <p><b>Action: <em>harvest</em></b></p>\n                    <p>This is the bee that you just saw.</p>\n                    <img src=\"bees-with-color/bee-A1SF.svg\" width=\"200\">\n                    <p><span class=\"greenText\"><b>Successful harvest!</b></span><br>Your pay has increased by $0.02. Your bonus pay is now $0.60.</p>\n            ","response":0,"trial_type":"html-button-response","trial_index":44,"time_elapsed":540601,"internal_node_id":"0.0-4.0-1.18","subject_id":"5fbfb3099d4fac2f7134943b","study_id":"6197b3f67c2b5cd3b6d9596a","session_id":"6197b89222ef9e384ca40a4c","condition":"contingent","relevant_dimensions":["wings","legs"],"bee_group":{"antennae":"X","wings":"2","pattern":"X","legs":"F"},"bonus":0.04},{"rt":8549.5,"stimulus":"bees-with-color/bee-A2SF.svg","response":0,"trial_type":"image-button-response","trial_index":45,"time_elapsed":549153,"internal_node_id":"0.0-4.0-0.19","subject_id":"5fbfb3099d4fac2f7134943b","study_id":"6197b3f67c2b5cd3b6d9596a","session_id":"6197b89222ef9e384ca40a4c","condition":"contingent","relevant_dimensions":["wings","legs"],"bee_group":{"antennae":"X","wings":"2","pattern":"X","legs":"F"},"action":"harvest","summary":"bad-harvest","bonus":0.04},{"rt":14316.89999961853,"stimulus":"\n                    <p><b>Action: <em>harvest</em></b></p>\n                    <p>This is the bee that you just saw.</p>\n                    <img src=\"bees-with-color/bee-A2SF.svg\" width=\"200\">\n                    <p><span class=\"redText\">Bad choice, the bee was angry.</span><br><b>You have been stung!</b><br>Your pay has been decreased by $0.10. Your bonus pay is now $0.50.</p>\n            ","response":0,"trial_type":"html-button-response","trial_index":46,"time_elapsed":563472,"internal_node_id":"0.0-4.0-1.19","subject_id":"5fbfb3099d4fac2f7134943b","study_id":"6197b3f67c2b5cd3b6d9596a","session_id":"6197b89222ef9e384ca40a4c","condition":"contingent","relevant_dimensions":["wings","legs"],"bee_group":{"antennae":"X","wings":"2","pattern":"X","legs":"F"},"bonus":0.04},{"rt":6428.900000095367,"stimulus":"bees-with-color/bee-A1DF.svg","response":0,"trial_type":"image-button-response","trial_index":47,"time_elapsed":569903,"internal_node_id":"0.0-4.0-0.20","subject_id":"5fbfb3099d4fac2f7134943b","study_id":"6197b3f67c2b5cd3b6d9596a","session_id":"6197b89222ef9e384ca40a4c","condition":"contingent","relevant_dimensions":["wings","legs"],"bee_group":{"antennae":"X","wings":"2","pattern":"X","legs":"F"},"action":"harvest","summary":"good-harvest","bonus":0.04},{"rt":7877.099999904633,"stimulus":"\n                    <p><b>Action: <em>harvest</em></b></p>\n                    <p>This is the bee that you just saw.</p>\n                    <img src=\"bees-with-color/bee-A1DF.svg\" width=\"200\">\n                    <p><span class=\"greenText\"><b>Successful harvest!</b></span><br>Your pay has increased by $0.02. Your bonus pay is now $0.52.</p>\n            ","response":0,"trial_type":"html-button-response","trial_index":48,"time_elapsed":577782,"internal_node_id":"0.0-4.0-1.20","subject_id":"5fbfb3099d4fac2f7134943b","study_id":"6197b3f67c2b5cd3b6d9596a","session_id":"6197b89222ef9e384ca40a4c","condition":"contingent","relevant_dimensions":["wings","legs"],"bee_group":{"antennae":"X","wings":"2","pattern":"X","legs":"F"},"bonus":0.04},{"rt":30147.699999809265,"stimulus":"bees-with-color/bee-B2DF.svg","response":0,"trial_type":"image-button-response","trial_index":49,"time_elapsed":607933,"internal_node_id":"0.0-4.0-0.21","subject_id":"5fbfb3099d4fac2f7134943b","study_id":"6197b3f67c2b5cd3b6d9596a","session_id":"6197b89222ef9e384ca40a4c","condition":"contingent","relevant_dimensions":["wings","legs"],"bee_group":{"antennae":"X","wings":"2","pattern":"X","legs":"F"},"action":"harvest","summary":"bad-harvest","bonus":0.04},{"rt":20413.5,"stimulus":"\n                    <p><b>Action: <em>harvest</em></b></p>\n                    <p>This is the bee that you just saw.</p>\n                    <img src=\"bees-with-color/bee-B2DF.svg\" width=\"200\">\n                    <p><span class=\"redText\">Bad choice, the bee was angry.</span><br><b>You have been stung!</b><br>Your pay has been decreased by $0.10. Your bonus pay is now $0.42.</p>\n            ","response":0,"trial_type":"html-button-response","trial_index":50,"time_elapsed":628347,"internal_node_id":"0.0-4.0-1.21","subject_id":"5fbfb3099d4fac2f7134943b","study_id":"6197b3f67c2b5cd3b6d9596a","session_id":"6197b89222ef9e384ca40a4c","condition":"contingent","relevant_dimensions":["wings","legs"],"bee_group":{"antennae":"X","wings":"2","pattern":"X","legs":"F"},"bonus":0.04},{"rt":6637.400000095367,"stimulus":"bees-with-color/bee-B1DM.svg","response":0,"trial_type":"image-button-response","trial_index":51,"time_elapsed":634987,"internal_node_id":"0.0-4.0-0.22","subject_id":"5fbfb3099d4fac2f7134943b","study_id":"6197b3f67c2b5cd3b6d9596a","session_id":"6197b89222ef9e384ca40a4c","condition":"contingent","relevant_dimensions":["wings","legs"],"bee_group":{"antennae":"X","wings":"2","pattern":"X","legs":"F"},"action":"harvest","summary":"good-harvest","bonus":0.04},{"rt":622.1000003814697,"stimulus":"\n                    <p><b>Action: <em>harvest</em></b></p>\n                    <p>This is the bee that you just saw.</p>\n                    <img src=\"bees-with-color/bee-B1DM.svg\" width=\"200\">\n                    <p><span class=\"greenText\"><b>Successful harvest!</b></span><br>Your pay has increased by $0.02. Your bonus pay is now $0.44.</p>\n            ","response":0,"trial_type":"html-button-response","trial_index":52,"time_elapsed":635610,"internal_node_id":"0.0-4.0-1.22","subject_id":"5fbfb3099d4fac2f7134943b","study_id":"6197b3f67c2b5cd3b6d9596a","session_id":"6197b89222ef9e384ca40a4c","condition":"contingent","relevant_dimensions":["wings","legs"],"bee_group":{"antennae":"X","wings":"2","pattern":"X","legs":"F"},"bonus":0.04},{"rt":1717.8000001907349,"stimulus":"bees-with-color/bee-B2DM.svg","response":0,"trial_type":"image-button-response","trial_index":53,"time_elapsed":637330,"internal_node_id":"0.0-4.0-0.23","subject_id":"5fbfb3099d4fac2f7134943b","study_id":"6197b3f67c2b5cd3b6d9596a","session_id":"6197b89222ef9e384ca40a4c","condition":"contingent","relevant_dimensions":["wings","legs"],"bee_group":{"antennae":"X","wings":"2","pattern":"X","legs":"F"},"action":"harvest","summary":"good-harvest","bonus":0.04},{"rt":654.3000001907349,"stimulus":"\n                    <p><b>Action: <em>harvest</em></b></p>\n                    <p>This is the bee that you just saw.</p>\n                    <img src=\"bees-with-color/bee-B2DM.svg\" width=\"200\">\n                    <p><span class=\"greenText\"><b>Successful harvest!</b></span><br>Your pay has increased by $0.02. Your bonus pay is now $0.46.</p>\n            ","response":0,"trial_type":"html-button-response","trial_index":54,"time_elapsed":637986,"internal_node_id":"0.0-4.0-1.23","subject_id":"5fbfb3099d4fac2f7134943b","study_id":"6197b3f67c2b5cd3b6d9596a","session_id":"6197b89222ef9e384ca40a4c","condition":"contingent","relevant_dimensions":["wings","legs"],"bee_group":{"antennae":"X","wings":"2","pattern":"X","legs":"F"},"bonus":0.04},{"rt":438.5,"stimulus":"bees-with-color/bee-B1DF.svg","response":0,"trial_type":"image-button-response","trial_index":55,"time_elapsed":638426,"internal_node_id":"0.0-4.0-0.24","subject_id":"5fbfb3099d4fac2f7134943b","study_id":"6197b3f67c2b5cd3b6d9596a","session_id":"6197b89222ef9e384ca40a4c","condition":"contingent","relevant_dimensions":["wings","legs"],"bee_group":{"antennae":"X","wings":"2","pattern":"X","legs":"F"},"action":"harvest","summary":"good-harvest","bonus":0.04},{"rt":606.4000000953674,"stimulus":"\n                    <p><b>Action: <em>harvest</em></b></p>\n                    <p>This is the bee that you just saw.</p>\n                    <img src=\"bees-with-color/bee-B1DF.svg\" width=\"200\">\n                    <p><span class=\"greenText\"><b>Successful harvest!</b></span><br>Your pay has increased by $0.02. Your bonus pay is now $0.48.</p>\n            ","response":0,"trial_type":"html-button-response","trial_index":56,"time_elapsed":639034,"internal_node_id":"0.0-4.0-1.24","subject_id":"5fbfb3099d4fac2f7134943b","study_id":"6197b3f67c2b5cd3b6d9596a","session_id":"6197b89222ef9e384ca40a4c","condition":"contingent","relevant_dimensions":["wings","legs"],"bee_group":{"antennae":"X","wings":"2","pattern":"X","legs":"F"},"bonus":0.04},{"rt":406.19999980926514,"stimulus":"bees-with-color/bee-A1SM.svg","response":0,"trial_type":"image-button-response","trial_index":57,"time_elapsed":639442,"internal_node_id":"0.0-4.0-0.25","subject_id":"5fbfb3099d4fac2f7134943b","study_id":"6197b3f67c2b5cd3b6d9596a","session_id":"6197b89222ef9e384ca40a4c","condition":"contingent","relevant_dimensions":["wings","legs"],"bee_group":{"antennae":"X","wings":"2","pattern":"X","legs":"F"},"action":"harvest","summary":"good-harvest","bonus":0.04},{"rt":694.2999997138977,"stimulus":"\n                    <p><b>Action: <em>harvest</em></b></p>\n                    <p>This is the bee that you just saw.</p>\n                    <img src=\"bees-with-color/bee-A1SM.svg\" width=\"200\">\n                    <p><span class=\"greenText\"><b>Successful harvest!</b></span><br>Your pay has increased by $0.02. Your bonus pay is now $0.50.</p>\n            ","response":0,"trial_type":"html-button-response","trial_index":58,"time_elapsed":640138,"internal_node_id":"0.0-4.0-1.25","subject_id":"5fbfb3099d4fac2f7134943b","study_id":"6197b3f67c2b5cd3b6d9596a","session_id":"6197b89222ef9e384ca40a4c","condition":"contingent","relevant_dimensions":["wings","legs"],"bee_group":{"antennae":"X","wings":"2","pattern":"X","legs":"F"},"bonus":0.04},{"rt":614.1999998092651,"stimulus":"bees-with-color/bee-A2SM.svg","response":0,"trial_type":"image-button-response","trial_index":59,"time_elapsed":640755,"internal_node_id":"0.0-4.0-0.26","subject_id":"5fbfb3099d4fac2f7134943b","study_id":"6197b3f67c2b5cd3b6d9596a","session_id":"6197b89222ef9e384ca40a4c","condition":"contingent","relevant_dimensions":["wings","legs"],"bee_group":{"antennae":"X","wings":"2","pattern":"X","legs":"F"},"action":"harvest","summary":"good-harvest","bonus":0.04},{"rt":630,"stimulus":"\n                    <p><b>Action: <em>harvest</em></b></p>\n                    <p>This is the bee that you just saw.</p>\n                    <img src=\"bees-with-color/bee-A2SM.svg\" width=\"200\">\n                    <p><span class=\"greenText\"><b>Successful harvest!</b></span><br>Your pay has increased by $0.02. Your bonus pay is now $0.52.</p>\n            ","response":0,"trial_type":"html-button-response","trial_index":60,"time_elapsed":641386,"internal_node_id":"0.0-4.0-1.26","subject_id":"5fbfb3099d4fac2f7134943b","study_id":"6197b3f67c2b5cd3b6d9596a","session_id":"6197b89222ef9e384ca40a4c","condition":"contingent","relevant_dimensions":["wings","legs"],"bee_group":{"antennae":"X","wings":"2","pattern":"X","legs":"F"},"bonus":0.04},{"rt":4526.099999904633,"stimulus":"bees-with-color/bee-A1DM.svg","response":1,"trial_type":"image-button-response","trial_index":61,"time_elapsed":645914,"internal_node_id":"0.0-4.0-0.27","subject_id":"5fbfb3099d4fac2f7134943b","study_id":"6197b3f67c2b5cd3b6d9596a","session_id":"6197b89222ef9e384ca40a4c","condition":"contingent","relevant_dimensions":["wings","legs"],"bee_group":{"antennae":"X","wings":"2","pattern":"X","legs":"F"},"action":"avoid","summary":"bad-avoid","bonus":0.04},{"rt":10837.599999904633,"stimulus":"\n                    <p><b>Action: <em>avoid</em></b></p>\n                    <p>This is the bee that you just saw.</p>\n                    <img src=\"bees-with-color/bee-A1DM.svg\" width=\"200\">\n                    <p><br>Your bonus pay is unchanged, and remains at $0.52.</p>\n            ","response":0,"trial_type":"html-button-response","trial_index":62,"time_elapsed":656753,"internal_node_id":"0.0-4.0-1.27","subject_id":"5fbfb3099d4fac2f7134943b","study_id":"6197b3f67c2b5cd3b6d9596a","session_id":"6197b89222ef9e384ca40a4c","condition":"contingent","relevant_dimensions":["wings","legs"],"bee_group":{"antennae":"X","wings":"2","pattern":"X","legs":"F"},"bonus":0.04},{"rt":717.6999998092651,"stimulus":"bees-with-color/bee-B1SF.svg","response":0,"trial_type":"image-button-response","trial_index":63,"time_elapsed":657474,"internal_node_id":"0.0-4.0-0.28","subject_id":"5fbfb3099d4fac2f7134943b","study_id":"6197b3f67c2b5cd3b6d9596a","session_id":"6197b89222ef9e384ca40a4c","condition":"contingent","relevant_dimensions":["wings","legs"],"bee_group":{"antennae":"X","wings":"2","pattern":"X","legs":"F"},"action":"harvest","summary":"good-harvest","bonus":0.04},{"rt":758.0999999046326,"stimulus":"\n                    <p><b>Action: <em>harvest</em></b></p>\n                    <p>This is the bee that you just saw.</p>\n                    <img src=\"bees-with-color/bee-B1SF.svg\" width=\"200\">\n                    <p><span class=\"greenText\"><b>Successful harvest!</b></span><br>Your pay has increased by $0.02. Your bonus pay is now $0.54.</p>\n            ","response":0,"trial_type":"html-button-response","trial_index":64,"time_elapsed":658233,"internal_node_id":"0.0-4.0-1.28","subject_id":"5fbfb3099d4fac2f7134943b","study_id":"6197b3f67c2b5cd3b6d9596a","session_id":"6197b89222ef9e384ca40a4c","condition":"contingent","relevant_dimensions":["wings","legs"],"bee_group":{"antennae":"X","wings":"2","pattern":"X","legs":"F"},"bonus":0.04},{"rt":614.4000000953674,"stimulus":"bees-with-color/bee-B1SM.svg","response":0,"trial_type":"image-button-response","trial_index":65,"time_elapsed":658849,"internal_node_id":"0.0-4.0-0.29","subject_id":"5fbfb3099d4fac2f7134943b","study_id":"6197b3f67c2b5cd3b6d9596a","session_id":"6197b89222ef9e384ca40a4c","condition":"contingent","relevant_dimensions":["wings","legs"],"bee_group":{"antennae":"X","wings":"2","pattern":"X","legs":"F"},"action":"harvest","summary":"good-harvest","bonus":0.04},{"rt":526.0999999046326,"stimulus":"\n                    <p><b>Action: <em>harvest</em></b></p>\n                    <p>This is the bee that you just saw.</p>\n                    <img src=\"bees-with-color/bee-B1SM.svg\" width=\"200\">\n                    <p><span class=\"greenText\"><b>Successful harvest!</b></span><br>Your pay has increased by $0.02. Your bonus pay is now $0.56.</p>\n            ","response":0,"trial_type":"html-button-response","trial_index":66,"time_elapsed":659377,"internal_node_id":"0.0-4.0-1.29","subject_id":"5fbfb3099d4fac2f7134943b","study_id":"6197b3f67c2b5cd3b6d9596a","session_id":"6197b89222ef9e384ca40a4c","condition":"contingent","relevant_dimensions":["wings","legs"],"bee_group":{"antennae":"X","wings":"2","pattern":"X","legs":"F"},"bonus":0.04},{"rt":526.4000000953674,"stimulus":"bees-with-color/bee-B2SF.svg","response":0,"trial_type":"image-button-response","trial_index":67,"time_elapsed":659905,"internal_node_id":"0.0-4.0-0.30","subject_id":"5fbfb3099d4fac2f7134943b","study_id":"6197b3f67c2b5cd3b6d9596a","session_id":"6197b89222ef9e384ca40a4c","condition":"contingent","relevant_dimensions":["wings","legs"],"bee_group":{"antennae":"X","wings":"2","pattern":"X","legs":"F"},"action":"harvest","summary":"bad-harvest","bonus":0.04},{"rt":1349.9000000953674,"stimulus":"\n                    <p><b>Action: <em>harvest</em></b></p>\n                    <p>This is the bee that you just saw.</p>\n                    <img src=\"bees-with-color/bee-B2SF.svg\" width=\"200\">\n                    <p><span class=\"redText\">Bad choice, the bee was angry.</span><br><b>You have been stung!</b><br>Your pay has been decreased by $0.10. Your bonus pay is now $0.46.</p>\n            ","response":0,"trial_type":"html-button-response","trial_index":68,"time_elapsed":661257,"internal_node_id":"0.0-4.0-1.30","subject_id":"5fbfb3099d4fac2f7134943b","study_id":"6197b3f67c2b5cd3b6d9596a","session_id":"6197b89222ef9e384ca40a4c","condition":"contingent","relevant_dimensions":["wings","legs"],"bee_group":{"antennae":"X","wings":"2","pattern":"X","legs":"F"},"bonus":0.04},{"rt":758.2999997138977,"stimulus":"bees-with-color/bee-A2DF.svg","response":0,"trial_type":"image-button-response","trial_index":69,"time_elapsed":662017,"internal_node_id":"0.0-4.0-0.31","subject_id":"5fbfb3099d4fac2f7134943b","study_id":"6197b3f67c2b5cd3b6d9596a","session_id":"6197b89222ef9e384ca40a4c","condition":"contingent","relevant_dimensions":["wings","legs"],"bee_group":{"antennae":"X","wings":"2","pattern":"X","legs":"F"},"action":"harvest","summary":"bad-harvest","bonus":0.04},{"rt":557.9000000953674,"stimulus":"\n                    <p><b>Action: <em>harvest</em></b></p>\n                    <p>This is the bee that you just saw.</p>\n                    <img src=\"bees-with-color/bee-A2DF.svg\" width=\"200\">\n                    <p><span class=\"redText\">Bad choice, the bee was angry.</span><br><b>You have been stung!</b><br>Your pay has been decreased by $0.10. Your bonus pay is now $0.36.</p>\n            ","response":0,"trial_type":"html-button-response","trial_index":70,"time_elapsed":662577,"internal_node_id":"0.0-4.0-1.31","subject_id":"5fbfb3099d4fac2f7134943b","study_id":"6197b3f67c2b5cd3b6d9596a","session_id":"6197b89222ef9e384ca40a4c","condition":"contingent","relevant_dimensions":["wings","legs"],"bee_group":{"antennae":"X","wings":"2","pattern":"X","legs":"F"},"bonus":0.04},{"rt":438.19999980926514,"stimulus":"bees-with-color/bee-A1SF.svg","response":0,"trial_type":"image-button-response","trial_index":71,"time_elapsed":663017,"internal_node_id":"0.0-4.0-0.32","subject_id":"5fbfb3099d4fac2f7134943b","study_id":"6197b3f67c2b5cd3b6d9596a","session_id":"6197b89222ef9e384ca40a4c","condition":"contingent","relevant_dimensions":["wings","legs"],"bee_group":{"antennae":"X","wings":"2","pattern":"X","legs":"F"},"action":"harvest","summary":"good-harvest","bonus":0.04},{"rt":566.0999999046326,"stimulus":"\n                    <p><b>Action: <em>harvest</em></b></p>\n                    <p>This is the bee that you just saw.</p>\n                    <img src=\"bees-with-color/bee-A1SF.svg\" width=\"200\">\n                    <p><span class=\"greenText\"><b>Successful harvest!</b></span><br>Your pay has increased by $0.02. Your bonus pay is now $0.38.</p>\n            ","response":0,"trial_type":"html-button-response","trial_index":72,"time_elapsed":663585,"internal_node_id":"0.0-4.0-1.32","subject_id":"5fbfb3099d4fac2f7134943b","study_id":"6197b3f67c2b5cd3b6d9596a","session_id":"6197b89222ef9e384ca40a4c","condition":"contingent","relevant_dimensions":["wings","legs"],"bee_group":{"antennae":"X","wings":"2","pattern":"X","legs":"F"},"bonus":0.04},{"rt":398.19999980926514,"stimulus":"bees-with-color/bee-A1DF.svg","response":0,"trial_type":"image-button-response","trial_index":73,"time_elapsed":663985,"internal_node_id":"0.0-4.0-0.33","subject_id":"5fbfb3099d4fac2f7134943b","study_id":"6197b3f67c2b5cd3b6d9596a","session_id":"6197b89222ef9e384ca40a4c","condition":"contingent","relevant_dimensions":["wings","legs"],"bee_group":{"antennae":"X","wings":"2","pattern":"X","legs":"F"},"action":"harvest","summary":"good-harvest","bonus":0.04},{"rt":534.3000001907349,"stimulus":"\n                    <p><b>Action: <em>harvest</em></b></p>\n                    <p>This is the bee that you just saw.</p>\n                    <img src=\"bees-with-color/bee-A1DF.svg\" width=\"200\">\n                    <p><span class=\"greenText\"><b>Successful harvest!</b></span><br>Your pay has increased by $0.02. Your bonus pay is now $0.40.</p>\n            ","response":0,"trial_type":"html-button-response","trial_index":74,"time_elapsed":664521,"internal_node_id":"0.0-4.0-1.33","subject_id":"5fbfb3099d4fac2f7134943b","study_id":"6197b3f67c2b5cd3b6d9596a","session_id":"6197b89222ef9e384ca40a4c","condition":"contingent","relevant_dimensions":["wings","legs"],"bee_group":{"antennae":"X","wings":"2","pattern":"X","legs":"F"},"bonus":0.04},{"rt":413.80000019073486,"stimulus":"bees-with-color/bee-B2SM.svg","response":0,"trial_type":"image-button-response","trial_index":75,"time_elapsed":664937,"internal_node_id":"0.0-4.0-0.34","subject_id":"5fbfb3099d4fac2f7134943b","study_id":"6197b3f67c2b5cd3b6d9596a","session_id":"6197b89222ef9e384ca40a4c","condition":"contingent","relevant_dimensions":["wings","legs"],"bee_group":{"antennae":"X","wings":"2","pattern":"X","legs":"F"},"action":"harvest","summary":"good-harvest","bonus":0.04},{"rt":629.8000001907349,"stimulus":"\n                    <p><b>Action: <em>harvest</em></b></p>\n                    <p>This is the bee that you just saw.</p>\n                    <img src=\"bees-with-color/bee-B2SM.svg\" width=\"200\">\n                    <p><span class=\"greenText\"><b>Successful harvest!</b></span><br>Your pay has increased by $0.02. Your bonus pay is now $0.42.</p>\n            ","response":0,"trial_type":"html-button-response","trial_index":76,"time_elapsed":665569,"internal_node_id":"0.0-4.0-1.34","subject_id":"5fbfb3099d4fac2f7134943b","study_id":"6197b3f67c2b5cd3b6d9596a","session_id":"6197b89222ef9e384ca40a4c","condition":"contingent","relevant_dimensions":["wings","legs"],"bee_group":{"antennae":"X","wings":"2","pattern":"X","legs":"F"},"bonus":0.04},{"rt":470.40000009536743,"stimulus":"bees-with-color/bee-A1SM.svg","response":0,"trial_type":"image-button-response","trial_index":77,"time_elapsed":666041,"internal_node_id":"0.0-4.0-0.35","subject_id":"5fbfb3099d4fac2f7134943b","study_id":"6197b3f67c2b5cd3b6d9596a","session_id":"6197b89222ef9e384ca40a4c","condition":"contingent","relevant_dimensions":["wings","legs"],"bee_group":{"antennae":"X","wings":"2","pattern":"X","legs":"F"},"action":"harvest","summary":"good-harvest","bonus":0.04},{"rt":637.6000003814697,"stimulus":"\n                    <p><b>Action: <em>harvest</em></b></p>\n                    <p>This is the bee that you just saw.</p>\n                    <img src=\"bees-with-color/bee-A1SM.svg\" width=\"200\">\n                    <p><span class=\"greenText\"><b>Successful harvest!</b></span><br>Your pay has increased by $0.02. Your bonus pay is now $0.44.</p>\n            ","response":0,"trial_type":"html-button-response","trial_index":78,"time_elapsed":666681,"internal_node_id":"0.0-4.0-1.35","subject_id":"5fbfb3099d4fac2f7134943b","study_id":"6197b3f67c2b5cd3b6d9596a","session_id":"6197b89222ef9e384ca40a4c","condition":"contingent","relevant_dimensions":["wings","legs"],"bee_group":{"antennae":"X","wings":"2","pattern":"X","legs":"F"},"bonus":0.04},{"rt":486.5,"stimulus":"bees-with-color/bee-B2SF.svg","response":0,"trial_type":"image-button-response","trial_index":79,"time_elapsed":667169,"internal_node_id":"0.0-4.0-0.36","subject_id":"5fbfb3099d4fac2f7134943b","study_id":"6197b3f67c2b5cd3b6d9596a","session_id":"6197b89222ef9e384ca40a4c","condition":"contingent","relevant_dimensions":["wings","legs"],"bee_group":{"antennae":"X","wings":"2","pattern":"X","legs":"F"},"action":"harvest","summary":"bad-harvest","bonus":0.04},{"rt":726,"stimulus":"\n                    <p><b>Action: <em>harvest</em></b></p>\n                    <p>This is the bee that you just saw.</p>\n                    <img src=\"bees-with-color/bee-B2SF.svg\" width=\"200\">\n                    <p><span class=\"redText\">Bad choice, the bee was angry.</span><br><b>You have been stung!</b><br>Your pay has been decreased by $0.10. Your bonus pay is now $0.34.</p>\n            ","response":0,"trial_type":"html-button-response","trial_index":80,"time_elapsed":667897,"internal_node_id":"0.0-4.0-1.36","subject_id":"5fbfb3099d4fac2f7134943b","study_id":"6197b3f67c2b5cd3b6d9596a","session_id":"6197b89222ef9e384ca40a4c","condition":"contingent","relevant_dimensions":["wings","legs"],"bee_group":{"antennae":"X","wings":"2","pattern":"X","legs":"F"},"bonus":0.04},{"rt":421.2000002861023,"stimulus":"bees-with-color/bee-B1SM.svg","response":0,"trial_type":"image-button-response","trial_index":81,"time_elapsed":668322,"internal_node_id":"0.0-4.0-0.37","subject_id":"5fbfb3099d4fac2f7134943b","study_id":"6197b3f67c2b5cd3b6d9596a","session_id":"6197b89222ef9e384ca40a4c","condition":"contingent","relevant_dimensions":["wings","legs"],"bee_group":{"antennae":"X","wings":"2","pattern":"X","legs":"F"},"action":"harvest","summary":"good-harvest","bonus":0.04},{"rt":917.5999999046326,"stimulus":"\n                    <p><b>Action: <em>harvest</em></b></p>\n                    <p>This is the bee that you just saw.</p>\n                    <img src=\"bees-with-color/bee-B1SM.svg\" width=\"200\">\n                    <p><span class=\"greenText\"><b>Successful harvest!</b></span><br>Your pay has increased by $0.02. Your bonus pay is now $0.36.</p>\n            ","response":0,"trial_type":"html-button-response","trial_index":82,"time_elapsed":669241,"internal_node_id":"0.0-4.0-1.37","subject_id":"5fbfb3099d4fac2f7134943b","study_id":"6197b3f67c2b5cd3b6d9596a","session_id":"6197b89222ef9e384ca40a4c","condition":"contingent","relevant_dimensions":["wings","legs"],"bee_group":{"antennae":"X","wings":"2","pattern":"X","legs":"F"},"bonus":0.04},{"rt":718,"stimulus":"bees-with-color/bee-A2SF.svg","response":0,"trial_type":"image-button-response","trial_index":83,"time_elapsed":669961,"internal_node_id":"0.0-4.0-0.38","subject_id":"5fbfb3099d4fac2f7134943b","study_id":"6197b3f67c2b5cd3b6d9596a","session_id":"6197b89222ef9e384ca40a4c","condition":"contingent","relevant_dimensions":["wings","legs"],"bee_group":{"antennae":"X","wings":"2","pattern":"X","legs":"F"},"action":"harvest","summary":"bad-harvest","bonus":0.04},{"rt":1694.0999999046326,"stimulus":"\n                    <p><b>Action: <em>harvest</em></b></p>\n                    <p>This is the bee that you just saw.</p>\n                    <img src=\"bees-with-color/bee-A2SF.svg\" width=\"200\">\n                    <p><span class=\"redText\">Bad choice, the bee was angry.</span><br><b>You have been stung!</b><br>Your pay has been decreased by $0.10. Your bonus pay is now $0.26.</p>\n            ","response":0,"trial_type":"html-button-response","trial_index":84,"time_elapsed":671657,"internal_node_id":"0.0-4.0-1.38","subject_id":"5fbfb3099d4fac2f7134943b","study_id":"6197b3f67c2b5cd3b6d9596a","session_id":"6197b89222ef9e384ca40a4c","condition":"contingent","relevant_dimensions":["wings","legs"],"bee_group":{"antennae":"X","wings":"2","pattern":"X","legs":"F"},"bonus":0.04},{"rt":710,"stimulus":"bees-with-color/bee-A2DM.svg","response":0,"trial_type":"image-button-response","trial_index":85,"time_elapsed":672369,"internal_node_id":"0.0-4.0-0.39","subject_id":"5fbfb3099d4fac2f7134943b","study_id":"6197b3f67c2b5cd3b6d9596a","session_id":"6197b89222ef9e384ca40a4c","condition":"contingent","relevant_dimensions":["wings","legs"],"bee_group":{"antennae":"X","wings":"2","pattern":"X","legs":"F"},"action":"harvest","summary":"good-harvest","bonus":0.04},{"rt":1150,"stimulus":"\n                    <p><b>Action: <em>harvest</em></b></p>\n                    <p>This is the bee that you just saw.</p>\n                    <img src=\"bees-with-color/bee-A2DM.svg\" width=\"200\">\n                    <p><span class=\"greenText\"><b>Successful harvest!</b></span><br>Your pay has increased by $0.02. Your bonus pay is now $0.28.</p>\n            ","response":0,"trial_type":"html-button-response","trial_index":86,"time_elapsed":673521,"internal_node_id":"0.0-4.0-1.39","subject_id":"5fbfb3099d4fac2f7134943b","study_id":"6197b3f67c2b5cd3b6d9596a","session_id":"6197b89222ef9e384ca40a4c","condition":"contingent","relevant_dimensions":["wings","legs"],"bee_group":{"antennae":"X","wings":"2","pattern":"X","legs":"F"},"bonus":0.04},{"rt":509.7999997138977,"stimulus":"bees-with-color/bee-A1DM.svg","response":0,"trial_type":"image-button-response","trial_index":87,"time_elapsed":674033,"internal_node_id":"0.0-4.0-0.40","subject_id":"5fbfb3099d4fac2f7134943b","study_id":"6197b3f67c2b5cd3b6d9596a","session_id":"6197b89222ef9e384ca40a4c","condition":"contingent","relevant_dimensions":["wings","legs"],"bee_group":{"antennae":"X","wings":"2","pattern":"X","legs":"F"},"action":"harvest","summary":"good-harvest","bonus":0.04},{"rt":1349.7999997138977,"stimulus":"\n                    <p><b>Action: <em>harvest</em></b></p>\n                    <p>This is the bee that you just saw.</p>\n                    <img src=\"bees-with-color/bee-A1DM.svg\" width=\"200\">\n                    <p><span class=\"greenText\"><b>Successful harvest!</b></span><br>Your pay has increased by $0.02. Your bonus pay is now $0.30.</p>\n            ","response":0,"trial_type":"html-button-response","trial_index":88,"time_elapsed":675385,"internal_node_id":"0.0-4.0-1.40","subject_id":"5fbfb3099d4fac2f7134943b","study_id":"6197b3f67c2b5cd3b6d9596a","session_id":"6197b89222ef9e384ca40a4c","condition":"contingent","relevant_dimensions":["wings","legs"],"bee_group":{"antennae":"X","wings":"2","pattern":"X","legs":"F"},"bonus":0.04},{"rt":685.9000000953674,"stimulus":"bees-with-color/bee-A2SM.svg","response":0,"trial_type":"image-button-response","trial_index":89,"time_elapsed":676073,"internal_node_id":"0.0-4.0-0.41","subject_id":"5fbfb3099d4fac2f7134943b","study_id":"6197b3f67c2b5cd3b6d9596a","session_id":"6197b89222ef9e384ca40a4c","condition":"contingent","relevant_dimensions":["wings","legs"],"bee_group":{"antennae":"X","wings":"2","pattern":"X","legs":"F"},"action":"harvest","summary":"good-harvest","bonus":0.04},{"rt":645.5999999046326,"stimulus":"\n                    <p><b>Action: <em>harvest</em></b></p>\n                    <p>This is the bee that you just saw.</p>\n                    <img src=\"bees-with-color/bee-A2SM.svg\" width=\"200\">\n                    <p><span class=\"greenText\"><b>Successful harvest!</b></span><br>Your pay has increased by $0.02. Your bonus pay is now $0.32.</p>\n            ","response":0,"trial_type":"html-button-response","trial_index":90,"time_elapsed":676721,"internal_node_id":"0.0-4.0-1.41","subject_id":"5fbfb3099d4fac2f7134943b","study_id":"6197b3f67c2b5cd3b6d9596a","session_id":"6197b89222ef9e384ca40a4c","condition":"contingent","relevant_dimensions":["wings","legs"],"bee_group":{"antennae":"X","wings":"2","pattern":"X","legs":"F"},"bonus":0.04},{"rt":950,"stimulus":"bees-with-color/bee-B2DM.svg","response":0,"trial_type":"image-button-response","trial_index":91,"time_elapsed":677673,"internal_node_id":"0.0-4.0-0.42","subject_id":"5fbfb3099d4fac2f7134943b","study_id":"6197b3f67c2b5cd3b6d9596a","session_id":"6197b89222ef9e384ca40a4c","condition":"contingent","relevant_dimensions":["wings","legs"],"bee_group":{"antennae":"X","wings":"2","pattern":"X","legs":"F"},"action":"harvest","summary":"good-harvest","bonus":0.04},{"rt":1398,"stimulus":"\n                    <p><b>Action: <em>harvest</em></b></p>\n                    <p>This is the bee that you just saw.</p>\n                    <img src=\"bees-with-color/bee-B2DM.svg\" width=\"200\">\n                    <p><span class=\"greenText\"><b>Successful harvest!</b></span><br>Your pay has increased by $0.02. Your bonus pay is now $0.34.</p>\n            ","response":0,"trial_type":"html-button-response","trial_index":92,"time_elapsed":679074,"internal_node_id":"0.0-4.0-1.42","subject_id":"5fbfb3099d4fac2f7134943b","study_id":"6197b3f67c2b5cd3b6d9596a","session_id":"6197b89222ef9e384ca40a4c","condition":"contingent","relevant_dimensions":["wings","legs"],"bee_group":{"antennae":"X","wings":"2","pattern":"X","legs":"F"},"bonus":0.04},{"rt":500.90000009536743,"stimulus":"bees-with-color/bee-B1DM.svg","response":0,"trial_type":"image-button-response","trial_index":93,"time_elapsed":679577,"internal_node_id":"0.0-4.0-0.43","subject_id":"5fbfb3099d4fac2f7134943b","study_id":"6197b3f67c2b5cd3b6d9596a","session_id":"6197b89222ef9e384ca40a4c","condition":"contingent","relevant_dimensions":["wings","legs"],"bee_group":{"antennae":"X","wings":"2","pattern":"X","legs":"F"},"action":"harvest","summary":"good-harvest","bonus":0.04},{"rt":645.5,"stimulus":"\n                    <p><b>Action: <em>harvest</em></b></p>\n                    <p>This is the bee that you just saw.</p>\n                    <img src=\"bees-with-color/bee-B1DM.svg\" width=\"200\">\n                    <p><span class=\"greenText\"><b>Successful harvest!</b></span><br>Your pay has increased by $0.02. Your bonus pay is now $0.36.</p>\n            ","response":0,"trial_type":"html-button-response","trial_index":94,"time_elapsed":680224,"internal_node_id":"0.0-4.0-1.43","subject_id":"5fbfb3099d4fac2f7134943b","study_id":"6197b3f67c2b5cd3b6d9596a","session_id":"6197b89222ef9e384ca40a4c","condition":"contingent","relevant_dimensions":["wings","legs"],"bee_group":{"antennae":"X","wings":"2","pattern":"X","legs":"F"},"bonus":0.04},{"rt":414.1000003814697,"stimulus":"bees-with-color/bee-B2DF.svg","response":0,"trial_type":"image-button-response","trial_index":95,"time_elapsed":680640,"internal_node_id":"0.0-4.0-0.44","subject_id":"5fbfb3099d4fac2f7134943b","study_id":"6197b3f67c2b5cd3b6d9596a","session_id":"6197b89222ef9e384ca40a4c","condition":"contingent","relevant_dimensions":["wings","legs"],"bee_group":{"antennae":"X","wings":"2","pattern":"X","legs":"F"},"action":"harvest","summary":"bad-harvest","bonus":0.04},{"rt":702.3000001907349,"stimulus":"\n                    <p><b>Action: <em>harvest</em></b></p>\n                    <p>This is the bee that you just saw.</p>\n                    <img src=\"bees-with-color/bee-B2DF.svg\" width=\"200\">\n                    <p><span class=\"redText\">Bad choice, the bee was angry.</span><br><b>You have been stung!</b><br>Your pay has been decreased by $0.10. Your bonus pay is now $0.26.</p>\n            ","response":0,"trial_type":"html-button-response","trial_index":96,"time_elapsed":681344,"internal_node_id":"0.0-4.0-1.44","subject_id":"5fbfb3099d4fac2f7134943b","study_id":"6197b3f67c2b5cd3b6d9596a","session_id":"6197b89222ef9e384ca40a4c","condition":"contingent","relevant_dimensions":["wings","legs"],"bee_group":{"antennae":"X","wings":"2","pattern":"X","legs":"F"},"bonus":0.04},{"rt":414.59999990463257,"stimulus":"bees-with-color/bee-B1DF.svg","response":0,"trial_type":"image-button-response","trial_index":97,"time_elapsed":681760,"internal_node_id":"0.0-4.0-0.45","subject_id":"5fbfb3099d4fac2f7134943b","study_id":"6197b3f67c2b5cd3b6d9596a","session_id":"6197b89222ef9e384ca40a4c","condition":"contingent","relevant_dimensions":["wings","legs"],"bee_group":{"antennae":"X","wings":"2","pattern":"X","legs":"F"},"action":"harvest","summary":"good-harvest","bonus":0.04},{"rt":574.1999998092651,"stimulus":"\n                    <p><b>Action: <em>harvest</em></b></p>\n                    <p>This is the bee that you just saw.</p>\n                    <img src=\"bees-with-color/bee-B1DF.svg\" width=\"200\">\n                    <p><span class=\"greenText\"><b>Successful harvest!</b></span><br>Your pay has increased by $0.02. Your bonus pay is now $0.28.</p>\n            ","response":0,"trial_type":"html-button-response","trial_index":98,"time_elapsed":682336,"internal_node_id":"0.0-4.0-1.45","subject_id":"5fbfb3099d4fac2f7134943b","study_id":"6197b3f67c2b5cd3b6d9596a","session_id":"6197b89222ef9e384ca40a4c","condition":"contingent","relevant_dimensions":["wings","legs"],"bee_group":{"antennae":"X","wings":"2","pattern":"X","legs":"F"},"bonus":0.04},{"rt":374.40000009536743,"stimulus":"bees-with-color/bee-A2DF.svg","response":0,"trial_type":"image-button-response","trial_index":99,"time_elapsed":682712,"internal_node_id":"0.0-4.0-0.46","subject_id":"5fbfb3099d4fac2f7134943b","study_id":"6197b3f67c2b5cd3b6d9596a","session_id":"6197b89222ef9e384ca40a4c","condition":"contingent","relevant_dimensions":["wings","legs"],"bee_group":{"antennae":"X","wings":"2","pattern":"X","legs":"F"},"action":"harvest","summary":"bad-harvest","bonus":0.04},{"rt":742.5,"stimulus":"\n                    <p><b>Action: <em>harvest</em></b></p>\n                    <p>This is the bee that you just saw.</p>\n                    <img src=\"bees-with-color/bee-A2DF.svg\" width=\"200\">\n                    <p><span class=\"redText\">Bad choice, the bee was angry.</span><br><b>You have been stung!</b><br>Your pay has been decreased by $0.10. Your bonus pay is now $0.18.</p>\n            ","response":0,"trial_type":"html-button-response","trial_index":100,"time_elapsed":683456,"internal_node_id":"0.0-4.0-1.46","subject_id":"5fbfb3099d4fac2f7134943b","study_id":"6197b3f67c2b5cd3b6d9596a","session_id":"6197b89222ef9e384ca40a4c","condition":"contingent","relevant_dimensions":["wings","legs"],"bee_group":{"antennae":"X","wings":"2","pattern":"X","legs":"F"},"bonus":0.04},{"rt":395.09999990463257,"stimulus":"bees-with-color/bee-B1SF.svg","response":0,"trial_type":"image-button-response","trial_index":101,"time_elapsed":683853,"internal_node_id":"0.0-4.0-0.47","subject_id":"5fbfb3099d4fac2f7134943b","study_id":"6197b3f67c2b5cd3b6d9596a","session_id":"6197b89222ef9e384ca40a4c","condition":"contingent","relevant_dimensions":["wings","legs"],"bee_group":{"antennae":"X","wings":"2","pattern":"X","legs":"F"},"action":"harvest","summary":"good-harvest","bonus":0.04},{"rt":577.4000000953674,"stimulus":"\n                    <p><b>Action: <em>harvest</em></b></p>\n                    <p>This is the bee that you just saw.</p>\n                    <img src=\"bees-with-color/bee-B1SF.svg\" width=\"200\">\n                    <p><span class=\"greenText\"><b>Successful harvest!</b></span><br>Your pay has increased by $0.02. Your bonus pay is now $0.20.</p>\n            ","response":0,"trial_type":"html-button-response","trial_index":102,"time_elapsed":684431,"internal_node_id":"0.0-4.0-1.47","subject_id":"5fbfb3099d4fac2f7134943b","study_id":"6197b3f67c2b5cd3b6d9596a","session_id":"6197b89222ef9e384ca40a4c","condition":"contingent","relevant_dimensions":["wings","legs"],"bee_group":{"antennae":"X","wings":"2","pattern":"X","legs":"F"},"bonus":0.04},{"rt":382.5,"stimulus":"bees-with-color/bee-B2SM.svg","response":0,"trial_type":"image-button-response","trial_index":103,"time_elapsed":684815,"internal_node_id":"0.0-4.0-0.48","subject_id":"5fbfb3099d4fac2f7134943b","study_id":"6197b3f67c2b5cd3b6d9596a","session_id":"6197b89222ef9e384ca40a4c","condition":"contingent","relevant_dimensions":["wings","legs"],"bee_group":{"antennae":"X","wings":"2","pattern":"X","legs":"F"},"action":"harvest","summary":"good-harvest","bonus":0.04},{"rt":518.5,"stimulus":"\n                    <p><b>Action: <em>harvest</em></b></p>\n                    <p>This is the bee that you just saw.</p>\n                    <img src=\"bees-with-color/bee-B2SM.svg\" width=\"200\">\n                    <p><span class=\"greenText\"><b>Successful harvest!</b></span><br>Your pay has increased by $0.02. Your bonus pay is now $0.22.</p>\n            ","response":0,"trial_type":"html-button-response","trial_index":104,"time_elapsed":685335,"internal_node_id":"0.0-4.0-1.48","subject_id":"5fbfb3099d4fac2f7134943b","study_id":"6197b3f67c2b5cd3b6d9596a","session_id":"6197b89222ef9e384ca40a4c","condition":"contingent","relevant_dimensions":["wings","legs"],"bee_group":{"antennae":"X","wings":"2","pattern":"X","legs":"F"},"bonus":0.04},{"rt":366.40000009536743,"stimulus":"bees-with-color/bee-B2DM.svg","response":0,"trial_type":"image-button-response","trial_index":105,"time_elapsed":685703,"internal_node_id":"0.0-4.0-0.49","subject_id":"5fbfb3099d4fac2f7134943b","study_id":"6197b3f67c2b5cd3b6d9596a","session_id":"6197b89222ef9e384ca40a4c","condition":"contingent","relevant_dimensions":["wings","legs"],"bee_group":{"antennae":"X","wings":"2","pattern":"X","legs":"F"},"action":"harvest","summary":"good-harvest","bonus":0.04},{"rt":502.5,"stimulus":"\n                    <p><b>Action: <em>harvest</em></b></p>\n                    <p>This is the bee that you just saw.</p>\n                    <img src=\"bees-with-color/bee-B2DM.svg\" width=\"200\">\n                    <p><span class=\"greenText\"><b>Successful harvest!</b></span><br>Your pay has increased by $0.02. Your bonus pay is now $0.24.</p>\n            ","response":0,"trial_type":"html-button-response","trial_index":106,"time_elapsed":686207,"internal_node_id":"0.0-4.0-1.49","subject_id":"5fbfb3099d4fac2f7134943b","study_id":"6197b3f67c2b5cd3b6d9596a","session_id":"6197b89222ef9e384ca40a4c","condition":"contingent","relevant_dimensions":["wings","legs"],"bee_group":{"antennae":"X","wings":"2","pattern":"X","legs":"F"},"bonus":0.04},{"rt":398.2999997138977,"stimulus":"bees-with-color/bee-A1DF.svg","response":0,"trial_type":"image-button-response","trial_index":107,"time_elapsed":686607,"internal_node_id":"0.0-4.0-0.50","subject_id":"5fbfb3099d4fac2f7134943b","study_id":"6197b3f67c2b5cd3b6d9596a","session_id":"6197b89222ef9e384ca40a4c","condition":"contingent","relevant_dimensions":["wings","legs"],"bee_group":{"antennae":"X","wings":"2","pattern":"X","legs":"F"},"action":"harvest","summary":"good-harvest","bonus":0.04},{"rt":670.3000001907349,"stimulus":"\n                    <p><b>Action: <em>harvest</em></b></p>\n                    <p>This is the bee that you just saw.</p>\n                    <img src=\"bees-with-color/bee-A1DF.svg\" width=\"200\">\n                    <p><span class=\"greenText\"><b>Successful harvest!</b></span><br>Your pay has increased by $0.02. Your bonus pay is now $0.26.</p>\n            ","response":0,"trial_type":"html-button-response","trial_index":108,"time_elapsed":687279,"internal_node_id":"0.0-4.0-1.50","subject_id":"5fbfb3099d4fac2f7134943b","study_id":"6197b3f67c2b5cd3b6d9596a","session_id":"6197b89222ef9e384ca40a4c","condition":"contingent","relevant_dimensions":["wings","legs"],"bee_group":{"antennae":"X","wings":"2","pattern":"X","legs":"F"},"bonus":0.04},{"rt":2526.5999999046326,"stimulus":"bees-with-color/bee-B1SM.svg","response":0,"trial_type":"image-button-response","trial_index":109,"time_elapsed":689807,"internal_node_id":"0.0-4.0-0.51","subject_id":"5fbfb3099d4fac2f7134943b","study_id":"6197b3f67c2b5cd3b6d9596a","session_id":"6197b89222ef9e384ca40a4c","condition":"contingent","relevant_dimensions":["wings","legs"],"bee_group":{"antennae":"X","wings":"2","pattern":"X","legs":"F"},"action":"harvest","summary":"good-harvest","bonus":0.04},{"rt":9901.599999904633,"stimulus":"\n                    <p><b>Action: <em>harvest</em></b></p>\n                    <p>This is the bee that you just saw.</p>\n                    <img src=\"bees-with-color/bee-B1SM.svg\" width=\"200\">\n                    <p><span class=\"greenText\"><b>Successful harvest!</b></span><br>Your pay has increased by $0.02. Your bonus pay is now $0.28.</p>\n            ","response":0,"trial_type":"html-button-response","trial_index":110,"time_elapsed":699711,"internal_node_id":"0.0-4.0-1.51","subject_id":"5fbfb3099d4fac2f7134943b","study_id":"6197b3f67c2b5cd3b6d9596a","session_id":"6197b89222ef9e384ca40a4c","condition":"contingent","relevant_dimensions":["wings","legs"],"bee_group":{"antennae":"X","wings":"2","pattern":"X","legs":"F"},"bonus":0.04},{"rt":8005.299999713898,"stimulus":"bees-with-color/bee-A2DF.svg","response":1,"trial_type":"image-button-response","trial_index":111,"time_elapsed":707718,"internal_node_id":"0.0-4.0-0.52","subject_id":"5fbfb3099d4fac2f7134943b","study_id":"6197b3f67c2b5cd3b6d9596a","session_id":"6197b89222ef9e384ca40a4c","condition":"contingent","relevant_dimensions":["wings","legs"],"bee_group":{"antennae":"X","wings":"2","pattern":"X","legs":"F"},"action":"avoid","summary":"good-avoid","bonus":0.04},{"rt":2006.0999999046326,"stimulus":"\n                    <p><b>Action: <em>avoid</em></b></p>\n                    <p>This is the bee that you just saw.</p>\n                    <img src=\"bees-with-color/bee-A2DF.svg\" width=\"200\">\n                    <p><br>Your bonus pay is unchanged, and remains at $0.28.</p>\n            ","response":0,"trial_type":"html-button-response","trial_index":112,"time_elapsed":709726,"internal_node_id":"0.0-4.0-1.52","subject_id":"5fbfb3099d4fac2f7134943b","study_id":"6197b3f67c2b5cd3b6d9596a","session_id":"6197b89222ef9e384ca40a4c","condition":"contingent","relevant_dimensions":["wings","legs"],"bee_group":{"antennae":"X","wings":"2","pattern":"X","legs":"F"},"bonus":0.04},{"rt":2701.7000002861023,"stimulus":"bees-with-color/bee-B2SF.svg","response":0,"trial_type":"image-button-response","trial_index":113,"time_elapsed":712430,"internal_node_id":"0.0-4.0-0.53","subject_id":"5fbfb3099d4fac2f7134943b","study_id":"6197b3f67c2b5cd3b6d9596a","session_id":"6197b89222ef9e384ca40a4c","condition":"contingent","relevant_dimensions":["wings","legs"],"bee_group":{"antennae":"X","wings":"2","pattern":"X","legs":"F"},"action":"harvest","summary":"bad-harvest","bonus":0.04},{"rt":2701.9000000953674,"stimulus":"\n                    <p><b>Action: <em>harvest</em></b></p>\n                    <p>This is the bee that you just saw.</p>\n                    <img src=\"bees-with-color/bee-B2SF.svg\" width=\"200\">\n                    <p><span class=\"redText\">Bad choice, the bee was angry.</span><br><b>You have been stung!</b><br>Your pay has been decreased by $0.10. Your bonus pay is now $0.18.</p>\n            ","response":0,"trial_type":"html-button-response","trial_index":114,"time_elapsed":715134,"internal_node_id":"0.0-4.0-1.53","subject_id":"5fbfb3099d4fac2f7134943b","study_id":"6197b3f67c2b5cd3b6d9596a","session_id":"6197b89222ef9e384ca40a4c","condition":"contingent","relevant_dimensions":["wings","legs"],"bee_group":{"antennae":"X","wings":"2","pattern":"X","legs":"F"},"bonus":0.04},{"rt":1805.5,"stimulus":"bees-with-color/bee-A1SM.svg","response":0,"trial_type":"image-button-response","trial_index":115,"time_elapsed":716942,"internal_node_id":"0.0-4.0-0.54","subject_id":"5fbfb3099d4fac2f7134943b","study_id":"6197b3f67c2b5cd3b6d9596a","session_id":"6197b89222ef9e384ca40a4c","condition":"contingent","relevant_dimensions":["wings","legs"],"bee_group":{"antennae":"X","wings":"2","pattern":"X","legs":"F"},"action":"harvest","summary":"good-harvest","bonus":0.04},{"rt":1950,"stimulus":"\n                    <p><b>Action: <em>harvest</em></b></p>\n                    <p>This is the bee that you just saw.</p>\n                    <img src=\"bees-with-color/bee-A1SM.svg\" width=\"200\">\n                    <p><span class=\"greenText\"><b>Successful harvest!</b></span><br>Your pay has increased by $0.02. Your bonus pay is now $0.20.</p>\n            ","response":0,"trial_type":"html-button-response","trial_index":116,"time_elapsed":718894,"internal_node_id":"0.0-4.0-1.54","subject_id":"5fbfb3099d4fac2f7134943b","study_id":"6197b3f67c2b5cd3b6d9596a","session_id":"6197b89222ef9e384ca40a4c","condition":"contingent","relevant_dimensions":["wings","legs"],"bee_group":{"antennae":"X","wings":"2","pattern":"X","legs":"F"},"bonus":0.04},{"rt":1205.6999998092651,"stimulus":"bees-with-color/bee-A1SF.svg","response":0,"trial_type":"image-button-response","trial_index":117,"time_elapsed":720102,"internal_node_id":"0.0-4.0-0.55","subject_id":"5fbfb3099d4fac2f7134943b","study_id":"6197b3f67c2b5cd3b6d9596a","session_id":"6197b89222ef9e384ca40a4c","condition":"contingent","relevant_dimensions":["wings","legs"],"bee_group":{"antennae":"X","wings":"2","pattern":"X","legs":"F"},"action":"harvest","summary":"good-harvest","bonus":0.04},{"rt":1269.8000001907349,"stimulus":"\n                    <p><b>Action: <em>harvest</em></b></p>\n                    <p>This is the bee that you just saw.</p>\n                    <img src=\"bees-with-color/bee-A1SF.svg\" width=\"200\">\n                    <p><span class=\"greenText\"><b>Successful harvest!</b></span><br>Your pay has increased by $0.02. Your bonus pay is now $0.22.</p>\n            ","response":0,"trial_type":"html-button-response","trial_index":118,"time_elapsed":721374,"internal_node_id":"0.0-4.0-1.55","subject_id":"5fbfb3099d4fac2f7134943b","study_id":"6197b3f67c2b5cd3b6d9596a","session_id":"6197b89222ef9e384ca40a4c","condition":"contingent","relevant_dimensions":["wings","legs"],"bee_group":{"antennae":"X","wings":"2","pattern":"X","legs":"F"},"bonus":0.04},{"rt":1566.0999999046326,"stimulus":"bees-with-color/bee-B1SF.svg","response":0,"trial_type":"image-button-response","trial_index":119,"time_elapsed":722942,"internal_node_id":"0.0-4.0-0.56","subject_id":"5fbfb3099d4fac2f7134943b","study_id":"6197b3f67c2b5cd3b6d9596a","session_id":"6197b89222ef9e384ca40a4c","condition":"contingent","relevant_dimensions":["wings","legs"],"bee_group":{"antennae":"X","wings":"2","pattern":"X","legs":"F"},"action":"harvest","summary":"good-harvest","bonus":0.04},{"rt":1365.8999996185303,"stimulus":"\n                    <p><b>Action: <em>harvest</em></b></p>\n                    <p>This is the bee that you just saw.</p>\n                    <img src=\"bees-with-color/bee-B1SF.svg\" width=\"200\">\n                    <p><span class=\"greenText\"><b>Successful harvest!</b></span><br>Your pay has increased by $0.02. Your bonus pay is now $0.24.</p>\n            ","response":0,"trial_type":"html-button-response","trial_index":120,"time_elapsed":724309,"internal_node_id":"0.0-4.0-1.56","subject_id":"5fbfb3099d4fac2f7134943b","study_id":"6197b3f67c2b5cd3b6d9596a","session_id":"6197b89222ef9e384ca40a4c","condition":"contingent","relevant_dimensions":["wings","legs"],"bee_group":{"antennae":"X","wings":"2","pattern":"X","legs":"F"},"bonus":0.04},{"rt":4037.8999996185303,"stimulus":"bees-with-color/bee-B2DF.svg","response":0,"trial_type":"image-button-response","trial_index":121,"time_elapsed":728349,"internal_node_id":"0.0-4.0-0.57","subject_id":"5fbfb3099d4fac2f7134943b","study_id":"6197b3f67c2b5cd3b6d9596a","session_id":"6197b89222ef9e384ca40a4c","condition":"contingent","relevant_dimensions":["wings","legs"],"bee_group":{"antennae":"X","wings":"2","pattern":"X","legs":"F"},"action":"harvest","summary":"bad-harvest","bonus":0.04},{"rt":26060.900000095367,"stimulus":"\n                    <p><b>Action: <em>harvest</em></b></p>\n                    <p>This is the bee that you just saw.</p>\n                    <img src=\"bees-with-color/bee-B2DF.svg\" width=\"200\">\n                    <p><span class=\"redText\">Bad choice, the bee was angry.</span><br><b>You have been stung!</b><br>Your pay has been decreased by $0.10. Your bonus pay is now $0.14.</p>\n            ","response":0,"trial_type":"html-button-response","trial_index":122,"time_elapsed":754411,"internal_node_id":"0.0-4.0-1.57","subject_id":"5fbfb3099d4fac2f7134943b","study_id":"6197b3f67c2b5cd3b6d9596a","session_id":"6197b89222ef9e384ca40a4c","condition":"contingent","relevant_dimensions":["wings","legs"],"bee_group":{"antennae":"X","wings":"2","pattern":"X","legs":"F"},"bonus":0.04},{"rt":5789,"stimulus":"bees-with-color/bee-B1DM.svg","response":0,"trial_type":"image-button-response","trial_index":123,"time_elapsed":760203,"internal_node_id":"0.0-4.0-0.58","subject_id":"5fbfb3099d4fac2f7134943b","study_id":"6197b3f67c2b5cd3b6d9596a","session_id":"6197b89222ef9e384ca40a4c","condition":"contingent","relevant_dimensions":["wings","legs"],"bee_group":{"antennae":"X","wings":"2","pattern":"X","legs":"F"},"action":"harvest","summary":"good-harvest","bonus":0.04},{"rt":1485.7999997138977,"stimulus":"\n                    <p><b>Action: <em>harvest</em></b></p>\n                    <p>This is the bee that you just saw.</p>\n                    <img src=\"bees-with-color/bee-B1DM.svg\" width=\"200\">\n                    <p><span class=\"greenText\"><b>Successful harvest!</b></span><br>Your pay has increased by $0.02. Your bonus pay is now $0.16.</p>\n            ","response":0,"trial_type":"html-button-response","trial_index":124,"time_elapsed":761691,"internal_node_id":"0.0-4.0-1.58","subject_id":"5fbfb3099d4fac2f7134943b","study_id":"6197b3f67c2b5cd3b6d9596a","session_id":"6197b89222ef9e384ca40a4c","condition":"contingent","relevant_dimensions":["wings","legs"],"bee_group":{"antennae":"X","wings":"2","pattern":"X","legs":"F"},"bonus":0.04},{"rt":34124.199999809265,"stimulus":"bees-with-color/bee-A2SM.svg","response":0,"trial_type":"image-button-response","trial_index":125,"time_elapsed":795817,"internal_node_id":"0.0-4.0-0.59","subject_id":"5fbfb3099d4fac2f7134943b","study_id":"6197b3f67c2b5cd3b6d9596a","session_id":"6197b89222ef9e384ca40a4c","condition":"contingent","relevant_dimensions":["wings","legs"],"bee_group":{"antennae":"X","wings":"2","pattern":"X","legs":"F"},"action":"harvest","summary":"good-harvest","bonus":0.04},{"rt":1045.4000000953674,"stimulus":"\n                    <p><b>Action: <em>harvest</em></b></p>\n                    <p>This is the bee that you just saw.</p>\n                    <img src=\"bees-with-color/bee-A2SM.svg\" width=\"200\">\n                    <p><span class=\"greenText\"><b>Successful harvest!</b></span><br>Your pay has increased by $0.02. Your bonus pay is now $0.18.</p>\n            ","response":0,"trial_type":"html-button-response","trial_index":126,"time_elapsed":796865,"internal_node_id":"0.0-4.0-1.59","subject_id":"5fbfb3099d4fac2f7134943b","study_id":"6197b3f67c2b5cd3b6d9596a","session_id":"6197b89222ef9e384ca40a4c","condition":"contingent","relevant_dimensions":["wings","legs"],"bee_group":{"antennae":"X","wings":"2","pattern":"X","legs":"F"},"bonus":0.04},{"rt":14956.700000286102,"stimulus":"bees-with-color/bee-A2SF.svg","response":1,"trial_type":"image-button-response","trial_index":127,"time_elapsed":811823,"internal_node_id":"0.0-4.0-0.60","subject_id":"5fbfb3099d4fac2f7134943b","study_id":"6197b3f67c2b5cd3b6d9596a","session_id":"6197b89222ef9e384ca40a4c","condition":"contingent","relevant_dimensions":["wings","legs"],"bee_group":{"antennae":"X","wings":"2","pattern":"X","legs":"F"},"action":"avoid","summary":"good-avoid","bonus":0.04},{"rt":2525.5999999046326,"stimulus":"\n                    <p><b>Action: <em>avoid</em></b></p>\n                    <p>This is the bee that you just saw.</p>\n                    <img src=\"bees-with-color/bee-A2SF.svg\" width=\"200\">\n                    <p><br>Your bonus pay is unchanged, and remains at $0.18.</p>\n            ","response":0,"trial_type":"html-button-response","trial_index":128,"time_elapsed":814351,"internal_node_id":"0.0-4.0-1.60","subject_id":"5fbfb3099d4fac2f7134943b","study_id":"6197b3f67c2b5cd3b6d9596a","session_id":"6197b89222ef9e384ca40a4c","condition":"contingent","relevant_dimensions":["wings","legs"],"bee_group":{"antennae":"X","wings":"2","pattern":"X","legs":"F"},"bonus":0.04},{"rt":9788.699999809265,"stimulus":"bees-with-color/bee-A2DM.svg","response":0,"trial_type":"image-button-response","trial_index":129,"time_elapsed":824143,"internal_node_id":"0.0-4.0-0.61","subject_id":"5fbfb3099d4fac2f7134943b","study_id":"6197b3f67c2b5cd3b6d9596a","session_id":"6197b89222ef9e384ca40a4c","condition":"contingent","relevant_dimensions":["wings","legs"],"bee_group":{"antennae":"X","wings":"2","pattern":"X","legs":"F"},"action":"harvest","summary":"good-harvest","bonus":0.04},{"rt":773.8000001907349,"stimulus":"\n                    <p><b>Action: <em>harvest</em></b></p>\n                    <p>This is the bee that you just saw.</p>\n                    <img src=\"bees-with-color/bee-A2DM.svg\" width=\"200\">\n                    <p><span class=\"greenText\"><b>Successful harvest!</b></span><br>Your pay has increased by $0.02. Your bonus pay is now $0.20.</p>\n            ","response":0,"trial_type":"html-button-response","trial_index":130,"time_elapsed":824919,"internal_node_id":"0.0-4.0-1.61","subject_id":"5fbfb3099d4fac2f7134943b","study_id":"6197b3f67c2b5cd3b6d9596a","session_id":"6197b89222ef9e384ca40a4c","condition":"contingent","relevant_dimensions":["wings","legs"],"bee_group":{"antennae":"X","wings":"2","pattern":"X","legs":"F"},"bonus":0.04},{"rt":10356.89999961853,"stimulus":"bees-with-color/bee-B1DF.svg","response":0,"trial_type":"image-button-response","trial_index":131,"time_elapsed":835278,"internal_node_id":"0.0-4.0-0.62","subject_id":"5fbfb3099d4fac2f7134943b","study_id":"6197b3f67c2b5cd3b6d9596a","session_id":"6197b89222ef9e384ca40a4c","condition":"contingent","relevant_dimensions":["wings","legs"],"bee_group":{"antennae":"X","wings":"2","pattern":"X","legs":"F"},"action":"harvest","summary":"good-harvest","bonus":0.04},{"rt":1013.6000003814697,"stimulus":"\n                    <p><b>Action: <em>harvest</em></b></p>\n                    <p>This is the bee that you just saw.</p>\n                    <img src=\"bees-with-color/bee-B1DF.svg\" width=\"200\">\n                    <p><span class=\"greenText\"><b>Successful harvest!</b></span><br>Your pay has increased by $0.02. Your bonus pay is now $0.22.</p>\n            ","response":0,"trial_type":"html-button-response","trial_index":132,"time_elapsed":836294,"internal_node_id":"0.0-4.0-1.62","subject_id":"5fbfb3099d4fac2f7134943b","study_id":"6197b3f67c2b5cd3b6d9596a","session_id":"6197b89222ef9e384ca40a4c","condition":"contingent","relevant_dimensions":["wings","legs"],"bee_group":{"antennae":"X","wings":"2","pattern":"X","legs":"F"},"bonus":0.04},{"rt":8477,"stimulus":"bees-with-color/bee-A1DM.svg","response":0,"trial_type":"image-button-response","trial_index":133,"time_elapsed":844774,"internal_node_id":"0.0-4.0-0.63","subject_id":"5fbfb3099d4fac2f7134943b","study_id":"6197b3f67c2b5cd3b6d9596a","session_id":"6197b89222ef9e384ca40a4c","condition":"contingent","relevant_dimensions":["wings","legs"],"bee_group":{"antennae":"X","wings":"2","pattern":"X","legs":"F"},"action":"harvest","summary":"good-harvest","bonus":0.04},{"rt":829.1999998092651,"stimulus":"\n                    <p><b>Action: <em>harvest</em></b></p>\n                    <p>This is the bee that you just saw.</p>\n                    <img src=\"bees-with-color/bee-A1DM.svg\" width=\"200\">\n                    <p><span class=\"greenText\"><b>Successful harvest!</b></span><br>Your pay has increased by $0.02. Your bonus pay is now $0.24.</p>\n            ","response":0,"trial_type":"html-button-response","trial_index":134,"time_elapsed":845606,"internal_node_id":"0.0-4.0-1.63","subject_id":"5fbfb3099d4fac2f7134943b","study_id":"6197b3f67c2b5cd3b6d9596a","session_id":"6197b89222ef9e384ca40a4c","condition":"contingent","relevant_dimensions":["wings","legs"],"bee_group":{"antennae":"X","wings":"2","pattern":"X","legs":"F"},"bonus":0.04},{"rt":4135.900000095367,"stimulus":"You have completed the first part of this experiment.<br><br>You will now begin a shorter second part, in which you will receive no feedback.<br>The same rules regarding bonus pay apply.<br><br>Press any key to begin.","response":" ","trial_type":"html-keyboard-response","trial_index":135,"time_elapsed":849744,"internal_node_id":"0.0-5.0","subject_id":"5fbfb3099d4fac2f7134943b","study_id":"6197b3f67c2b5cd3b6d9596a","session_id":"6197b89222ef9e384ca40a4c","condition":"contingent","relevant_dimensions":["wings","legs"],"bee_group":{"antennae":"X","wings":"2","pattern":"X","legs":"F"},"bonus":0.04},{"rt":14738,"stimulus":"bees-with-color/bee-A2SF.svg","response":1,"trial_type":"image-button-response","trial_index":136,"time_elapsed":864493,"internal_node_id":"0.0-6.0-0.0","subject_id":"5fbfb3099d4fac2f7134943b","study_id":"6197b3f67c2b5cd3b6d9596a","session_id":"6197b89222ef9e384ca40a4c","condition":"contingent","relevant_dimensions":["wings","legs"],"bee_group":{"antennae":"X","wings":"2","pattern":"X","legs":"F"},"bonus":0.04},{"rt":7820.299999713898,"stimulus":"bees-with-color/bee-B1SF.svg","response":1,"trial_type":"image-button-response","trial_index":137,"time_elapsed":872315,"internal_node_id":"0.0-6.0-0.1","subject_id":"5fbfb3099d4fac2f7134943b","study_id":"6197b3f67c2b5cd3b6d9596a","session_id":"6197b89222ef9e384ca40a4c","condition":"contingent","relevant_dimensions":["wings","legs"],"bee_group":{"antennae":"X","wings":"2","pattern":"X","legs":"F"},"bonus":0.04},{"rt":8756.699999809265,"stimulus":"bees-with-color/bee-B1DF.svg","response":0,"trial_type":"image-button-response","trial_index":138,"time_elapsed":881075,"internal_node_id":"0.0-6.0-0.2","subject_id":"5fbfb3099d4fac2f7134943b","study_id":"6197b3f67c2b5cd3b6d9596a","session_id":"6197b89222ef9e384ca40a4c","condition":"contingent","relevant_dimensions":["wings","legs"],"bee_group":{"antennae":"X","wings":"2","pattern":"X","legs":"F"},"bonus":0.04},{"rt":9212,"stimulus":"bees-with-color/bee-B2DM.svg","response":0,"trial_type":"image-button-response","trial_index":139,"time_elapsed":890290,"internal_node_id":"0.0-6.0-0.3","subject_id":"5fbfb3099d4fac2f7134943b","study_id":"6197b3f67c2b5cd3b6d9596a","session_id":"6197b89222ef9e384ca40a4c","condition":"contingent","relevant_dimensions":["wings","legs"],"bee_group":{"antennae":"X","wings":"2","pattern":"X","legs":"F"},"bonus":0.04},{"rt":6444.699999809265,"stimulus":"bees-with-color/bee-B2DF.svg","response":0,"trial_type":"image-button-response","trial_index":140,"time_elapsed":896738,"internal_node_id":"0.0-6.0-0.4","subject_id":"5fbfb3099d4fac2f7134943b","study_id":"6197b3f67c2b5cd3b6d9596a","session_id":"6197b89222ef9e384ca40a4c","condition":"contingent","relevant_dimensions":["wings","legs"],"bee_group":{"antennae":"X","wings":"2","pattern":"X","legs":"F"},"bonus":0.04},{"rt":10668.699999809265,"stimulus":"bees-with-color/bee-A2SM.svg","response":0,"trial_type":"image-button-response","trial_index":141,"time_elapsed":907410,"internal_node_id":"0.0-6.0-0.5","subject_id":"5fbfb3099d4fac2f7134943b","study_id":"6197b3f67c2b5cd3b6d9596a","session_id":"6197b89222ef9e384ca40a4c","condition":"contingent","relevant_dimensions":["wings","legs"],"bee_group":{"antennae":"X","wings":"2","pattern":"X","legs":"F"},"bonus":0.04},{"rt":13724.400000095367,"stimulus":"bees-with-color/bee-A1DF.svg","response":0,"trial_type":"image-button-response","trial_index":142,"time_elapsed":921137,"internal_node_id":"0.0-6.0-0.6","subject_id":"5fbfb3099d4fac2f7134943b","study_id":"6197b3f67c2b5cd3b6d9596a","session_id":"6197b89222ef9e384ca40a4c","condition":"contingent","relevant_dimensions":["wings","legs"],"bee_group":{"antennae":"X","wings":"2","pattern":"X","legs":"F"},"bonus":0.04},{"rt":11980.400000095367,"stimulus":"bees-with-color/bee-A1SM.svg","response":0,"trial_type":"image-button-response","trial_index":143,"time_elapsed":933119,"internal_node_id":"0.0-6.0-0.7","subject_id":"5fbfb3099d4fac2f7134943b","study_id":"6197b3f67c2b5cd3b6d9596a","session_id":"6197b89222ef9e384ca40a4c","condition":"contingent","relevant_dimensions":["wings","legs"],"bee_group":{"antennae":"X","wings":"2","pattern":"X","legs":"F"},"bonus":0.04},{"rt":8572.199999809265,"stimulus":"bees-with-color/bee-A2DM.svg","response":0,"trial_type":"image-button-response","trial_index":144,"time_elapsed":941695,"internal_node_id":"0.0-6.0-0.8","subject_id":"5fbfb3099d4fac2f7134943b","study_id":"6197b3f67c2b5cd3b6d9596a","session_id":"6197b89222ef9e384ca40a4c","condition":"contingent","relevant_dimensions":["wings","legs"],"bee_group":{"antennae":"X","wings":"2","pattern":"X","legs":"F"},"bonus":0.04},{"rt":4965.299999713898,"stimulus":"bees-with-color/bee-A2DF.svg","response":0,"trial_type":"image-button-response","trial_index":145,"time_elapsed":946663,"internal_node_id":"0.0-6.0-0.9","subject_id":"5fbfb3099d4fac2f7134943b","study_id":"6197b3f67c2b5cd3b6d9596a","session_id":"6197b89222ef9e384ca40a4c","condition":"contingent","relevant_dimensions":["wings","legs"],"bee_group":{"antennae":"X","wings":"2","pattern":"X","legs":"F"},"bonus":0.04},{"rt":7244.60000038147,"stimulus":"bees-with-color/bee-B2SM.svg","response":0,"trial_type":"image-button-response","trial_index":146,"time_elapsed":953910,"internal_node_id":"0.0-6.0-0.10","subject_id":"5fbfb3099d4fac2f7134943b","study_id":"6197b3f67c2b5cd3b6d9596a","session_id":"6197b89222ef9e384ca40a4c","condition":"contingent","relevant_dimensions":["wings","legs"],"bee_group":{"antennae":"X","wings":"2","pattern":"X","legs":"F"},"bonus":0.04},{"rt":11276.599999904633,"stimulus":"bees-with-color/bee-B2SF.svg","response":0,"trial_type":"image-button-response","trial_index":147,"time_elapsed":965190,"internal_node_id":"0.0-6.0-0.11","subject_id":"5fbfb3099d4fac2f7134943b","study_id":"6197b3f67c2b5cd3b6d9596a","session_id":"6197b89222ef9e384ca40a4c","condition":"contingent","relevant_dimensions":["wings","legs"],"bee_group":{"antennae":"X","wings":"2","pattern":"X","legs":"F"},"bonus":0.04},{"rt":7532.299999713898,"stimulus":"bees-with-color/bee-B1SM.svg","response":0,"trial_type":"image-button-response","trial_index":148,"time_elapsed":972726,"internal_node_id":"0.0-6.0-0.12","subject_id":"5fbfb3099d4fac2f7134943b","study_id":"6197b3f67c2b5cd3b6d9596a","session_id":"6197b89222ef9e384ca40a4c","condition":"contingent","relevant_dimensions":["wings","legs"],"bee_group":{"antennae":"X","wings":"2","pattern":"X","legs":"F"},"bonus":0.04},{"rt":11892.299999713898,"stimulus":"bees-with-color/bee-A1SF.svg","response":0,"trial_type":"image-button-response","trial_index":149,"time_elapsed":984621,"internal_node_id":"0.0-6.0-0.13","subject_id":"5fbfb3099d4fac2f7134943b","study_id":"6197b3f67c2b5cd3b6d9596a","session_id":"6197b89222ef9e384ca40a4c","condition":"contingent","relevant_dimensions":["wings","legs"],"bee_group":{"antennae":"X","wings":"2","pattern":"X","legs":"F"},"bonus":0.04},{"rt":5604.5,"stimulus":"bees-with-color/bee-B1DM.svg","response":0,"trial_type":"image-button-response","trial_index":150,"time_elapsed":990228,"internal_node_id":"0.0-6.0-0.14","subject_id":"5fbfb3099d4fac2f7134943b","study_id":"6197b3f67c2b5cd3b6d9596a","session_id":"6197b89222ef9e384ca40a4c","condition":"contingent","relevant_dimensions":["wings","legs"],"bee_group":{"antennae":"X","wings":"2","pattern":"X","legs":"F"},"bonus":0.04},{"rt":1404.6999998092651,"stimulus":"bees-with-color/bee-A1DM.svg","response":0,"trial_type":"image-button-response","trial_index":151,"time_elapsed":991636,"internal_node_id":"0.0-6.0-0.15","subject_id":"5fbfb3099d4fac2f7134943b","study_id":"6197b3f67c2b5cd3b6d9596a","session_id":"6197b89222ef9e384ca40a4c","condition":"contingent","relevant_dimensions":["wings","legs"],"bee_group":{"antennae":"X","wings":"2","pattern":"X","legs":"F"},"bonus":0.04},{"rt":10005.400000095367,"stimulus":"bees-with-color/bee-A2DM.svg","response":0,"trial_type":"image-button-response","trial_index":152,"time_elapsed":1001643,"internal_node_id":"0.0-6.0-0.16","subject_id":"5fbfb3099d4fac2f7134943b","study_id":"6197b3f67c2b5cd3b6d9596a","session_id":"6197b89222ef9e384ca40a4c","condition":"contingent","relevant_dimensions":["wings","legs"],"bee_group":{"antennae":"X","wings":"2","pattern":"X","legs":"F"},"bonus":0.04},{"rt":2829,"stimulus":"bees-with-color/bee-B2DF.svg","response":0,"trial_type":"image-button-response","trial_index":153,"time_elapsed":1004475,"internal_node_id":"0.0-6.0-0.17","subject_id":"5fbfb3099d4fac2f7134943b","study_id":"6197b3f67c2b5cd3b6d9596a","session_id":"6197b89222ef9e384ca40a4c","condition":"contingent","relevant_dimensions":["wings","legs"],"bee_group":{"antennae":"X","wings":"2","pattern":"X","legs":"F"},"bonus":0.04},{"rt":10237.5,"stimulus":"bees-with-color/bee-A2SM.svg","response":0,"trial_type":"image-button-response","trial_index":154,"time_elapsed":1014715,"internal_node_id":"0.0-6.0-0.18","subject_id":"5fbfb3099d4fac2f7134943b","study_id":"6197b3f67c2b5cd3b6d9596a","session_id":"6197b89222ef9e384ca40a4c","condition":"contingent","relevant_dimensions":["wings","legs"],"bee_group":{"antennae":"X","wings":"2","pattern":"X","legs":"F"},"bonus":0.04},{"rt":10508.699999809265,"stimulus":"bees-with-color/bee-B2SF.svg","response":0,"trial_type":"image-button-response","trial_index":155,"time_elapsed":1025226,"internal_node_id":"0.0-6.0-0.19","subject_id":"5fbfb3099d4fac2f7134943b","study_id":"6197b3f67c2b5cd3b6d9596a","session_id":"6197b89222ef9e384ca40a4c","condition":"contingent","relevant_dimensions":["wings","legs"],"bee_group":{"antennae":"X","wings":"2","pattern":"X","legs":"F"},"bonus":0.04},{"rt":12812.900000095367,"stimulus":"bees-with-color/bee-B2DM.svg","response":0,"trial_type":"image-button-response","trial_index":156,"time_elapsed":1038042,"internal_node_id":"0.0-6.0-0.20","subject_id":"5fbfb3099d4fac2f7134943b","study_id":"6197b3f67c2b5cd3b6d9596a","session_id":"6197b89222ef9e384ca40a4c","condition":"contingent","relevant_dimensions":["wings","legs"],"bee_group":{"antennae":"X","wings":"2","pattern":"X","legs":"F"},"bonus":0.04},{"rt":8148.599999904633,"stimulus":"bees-with-color/bee-A1SF.svg","response":0,"trial_type":"image-button-response","trial_index":157,"time_elapsed":1046192,"internal_node_id":"0.0-6.0-0.21","subject_id":"5fbfb3099d4fac2f7134943b","study_id":"6197b3f67c2b5cd3b6d9596a","session_id":"6197b89222ef9e384ca40a4c","condition":"contingent","relevant_dimensions":["wings","legs"],"bee_group":{"antennae":"X","wings":"2","pattern":"X","legs":"F"},"bonus":0.04},{"rt":22860.60000038147,"stimulus":"bees-with-color/bee-A1SM.svg","response":0,"trial_type":"image-button-response","trial_index":158,"time_elapsed":1069056,"internal_node_id":"0.0-6.0-0.22","subject_id":"5fbfb3099d4fac2f7134943b","study_id":"6197b3f67c2b5cd3b6d9596a","session_id":"6197b89222ef9e384ca40a4c","condition":"contingent","relevant_dimensions":["wings","legs"],"bee_group":{"antennae":"X","wings":"2","pattern":"X","legs":"F"},"bonus":0.04},{"rt":10667.299999713898,"stimulus":"bees-with-color/bee-A1DM.svg","response":0,"trial_type":"image-button-response","trial_index":159,"time_elapsed":1079727,"internal_node_id":"0.0-6.0-0.23","subject_id":"5fbfb3099d4fac2f7134943b","study_id":"6197b3f67c2b5cd3b6d9596a","session_id":"6197b89222ef9e384ca40a4c","condition":"contingent","relevant_dimensions":["wings","legs"],"bee_group":{"antennae":"X","wings":"2","pattern":"X","legs":"F"},"bonus":0.04},{"rt":1421,"stimulus":"bees-with-color/bee-B1DM.svg","response":0,"trial_type":"image-button-response","trial_index":160,"time_elapsed":1081151,"internal_node_id":"0.0-6.0-0.24","subject_id":"5fbfb3099d4fac2f7134943b","study_id":"6197b3f67c2b5cd3b6d9596a","session_id":"6197b89222ef9e384ca40a4c","condition":"contingent","relevant_dimensions":["wings","legs"],"bee_group":{"antennae":"X","wings":"2","pattern":"X","legs":"F"},"bonus":0.04},{"rt":997.9000000953674,"stimulus":"bees-with-color/bee-B1DF.svg","response":0,"trial_type":"image-button-response","trial_index":161,"time_elapsed":1082151,"internal_node_id":"0.0-6.0-0.25","subject_id":"5fbfb3099d4fac2f7134943b","study_id":"6197b3f67c2b5cd3b6d9596a","session_id":"6197b89222ef9e384ca40a4c","condition":"contingent","relevant_dimensions":["wings","legs"],"bee_group":{"antennae":"X","wings":"2","pattern":"X","legs":"F"},"bonus":0.04},{"rt":1789.7000002861023,"stimulus":"bees-with-color/bee-B2SM.svg","response":0,"trial_type":"image-button-response","trial_index":162,"time_elapsed":1083943,"internal_node_id":"0.0-6.0-0.26","subject_id":"5fbfb3099d4fac2f7134943b","study_id":"6197b3f67c2b5cd3b6d9596a","session_id":"6197b89222ef9e384ca40a4c","condition":"contingent","relevant_dimensions":["wings","legs"],"bee_group":{"antennae":"X","wings":"2","pattern":"X","legs":"F"},"bonus":0.04},{"rt":181.80000019073486,"stimulus":"bees-with-color/bee-A1DF.svg","response":0,"trial_type":"image-button-response","trial_index":163,"time_elapsed":1084127,"internal_node_id":"0.0-6.0-0.27","subject_id":"5fbfb3099d4fac2f7134943b","study_id":"6197b3f67c2b5cd3b6d9596a","session_id":"6197b89222ef9e384ca40a4c","condition":"contingent","relevant_dimensions":["wings","legs"],"bee_group":{"antennae":"X","wings":"2","pattern":"X","legs":"F"},"bonus":0.04},{"rt":133.60000038146973,"stimulus":"bees-with-color/bee-A2SF.svg","response":0,"trial_type":"image-button-response","trial_index":164,"time_elapsed":1084263,"internal_node_id":"0.0-6.0-0.28","subject_id":"5fbfb3099d4fac2f7134943b","study_id":"6197b3f67c2b5cd3b6d9596a","session_id":"6197b89222ef9e384ca40a4c","condition":"contingent","relevant_dimensions":["wings","legs"],"bee_group":{"antennae":"X","wings":"2","pattern":"X","legs":"F"},"bonus":0.04},{"rt":181.7000002861023,"stimulus":"bees-with-color/bee-A2DF.svg","response":0,"trial_type":"image-button-response","trial_index":165,"time_elapsed":1084447,"internal_node_id":"0.0-6.0-0.29","subject_id":"5fbfb3099d4fac2f7134943b","study_id":"6197b3f67c2b5cd3b6d9596a","session_id":"6197b89222ef9e384ca4