[{"success":true,"trial_type":"fullscreen","trial_index":0,"time_elapsed":8396,"internal_node_id":"0.0-0.0","subject_id":"5fe3792db939ed02b8c1d0f8","study_id":"60edd13110225f80f9f3709b","session_id":"6196c4a2860a3164bf54efa3","condition":"contingent","relevant_dimensions":["antennae","pattern"],"bee_group":{"antennae":"B","wings":"X","pattern":"D","legs":"X"},"bonus":0.560000000000001},{"success":true,"timeout":false,"failed_images":[],"failed_audio":[],"failed_video":[],"trial_type":"preload","trial_index":1,"time_elapsed":10464,"internal_node_id":"0.0-1.0","subject_id":"5fe3792db939ed02b8c1d0f8","study_id":"60edd13110225f80f9f3709b","session_id":"6196c4a2860a3164bf54efa3","condition":"contingent","relevant_dimensions":["antennae","pattern"],"bee_group":{"antennae":"B","wings":"X","pattern":"D","legs":"X"},"bonus":0.560000000000001},{"rt":3920.800000011921,"stimulus":"Welcome! Press any key to begin.","response":"a","trial_type":"html-keyboard-response","trial_index":2,"time_elapsed":14385,"internal_node_id":"0.0-2.0","subject_id":"5fe3792db939ed02b8c1d0f8","study_id":"60edd13110225f80f9f3709b","session_id":"6196c4a2860a3164bf54efa3","condition":"contingent","relevant_dimensions":["antennae","pattern"],"bee_group":{"antennae":"B","wings":"X","pattern":"D","legs":"X"},"bonus":0.560000000000001},{"view_history":[{"page_index":0,"viewing_time":3191.899999976158},{"page_index":1,"viewing_time":9800.100000023842},{"page_index":2,"viewing_time":9992},{"page_index":3,"viewing_time":22575.899999976158},{"page_index":4,"viewing_time":4976.199999988079},{"page_index":5,"viewing_time":4903.800000011921},{"page_index":6,"viewing_time":5863.699999988079},{"page_index":7,"viewing_time":13480},{"page_index":8,"viewing_time":4240.200000047684},{"page_index":9,"viewing_time":3168.399999976158},{"page_index":10,"viewing_time":2447.5},{"page_index":11,"viewing_time":5138.600000023842},{"page_index":12,"viewing_time":7629.799999952316},{"page_index":13,"viewing_time":8448},{"page_index":14,"viewing_time":2119.800000011921}],"rt":107976.30000001192,"trial_type":"instructions","trial_index":3,"time_elapsed":122361,"internal_node_id":"0.0-3.0-0.0","subject_id":"5fe3792db939ed02b8c1d0f8","study_id":"60edd13110225f80f9f3709b","session_id":"6196c4a2860a3164bf54efa3","condition":"contingent","relevant_dimensions":["antennae","pattern"],"bee_group":{"antennae":"B","wings":"X","pattern":"D","legs":"X"},"bonus":0.560000000000001},{"rt":7849.200000047684,"response":{"Q0":["Two or six legs","Stripes or spots on body","Single or double wings","Antennae or no antennae"]},"question_order":[0],"trial_type":"survey-multi-select","trial_index":4,"time_elapsed":130217,"internal_node_id":"0.0-3.0-1.0","subject_id":"5fe3792db939ed02b8c1d0f8","study_id":"60edd13110225f80f9f3709b","session_id":"6196c4a2860a3164bf54efa3","condition":"contingent","relevant_dimensions":["antennae","pattern"],"bee_group":{"antennae":"B","wings":"X","pattern":"D","legs":"X"},"correct":true,"bonus":0.560000000000001},{"rt":17350.599999964237,"response":{"Q1":"No.","Q2":"Based on the four features of the bee.","Q3":"You do not learn if it was friendly or dangerous, and do not alter your bonus."},"question_order":[0,1,2],"trial_type":"survey-multi-choice","trial_index":5,"time_elapsed":147570,"internal_node_id":"0.0-3.0-2.0","subject_id":"5fe3792db939ed02b8c1d0f8","study_id":"60edd13110225f80f9f3709b","session_id":"6196c4a2860a3164bf54efa3","condition":"contingent","relevant_dimensions":["antennae","pattern"],"bee_group":{"antennae":"B","wings":"X","pattern":"D","legs":"X"},"correct":true,"bonus":0.560000000000001},{"rt":1893.8999999761581,"stimulus":"<p>Congrats, you got everything right<br>When you're ready, click the button below to continue to the experiment.</p>","response":0,"trial_type":"html-button-response","trial_index":6,"time_elapsed":149465,"internal_node_id":"0.0-3.0-3.0","subject_id":"5fe3792db939ed02b8c1d0f8","study_id":"60edd13110225f80f9f3709b","session_id":"6196c4a2860a3164bf54efa3","condition":"contingent","relevant_dimensions":["antennae","pattern"],"bee_group":{"antennae":"B","wings":"X","pattern":"D","legs":"X"},"bonus":0.560000000000001},{"rt":7871.399999976158,"stimulus":"bees-with-color/bee-A2DF.svg","response":0,"trial_type":"image-button-response","trial_index":7,"time_elapsed":157339,"internal_node_id":"0.0-4.0-0.0","subject_id":"5fe3792db939ed02b8c1d0f8","study_id":"60edd13110225f80f9f3709b","session_id":"6196c4a2860a3164bf54efa3","condition":"contingent","relevant_dimensions":["antennae","pattern"],"bee_group":{"antennae":"B","wings":"X","pattern":"D","legs":"X"},"action":"harvest","summary":"good-harvest","bonus":0.560000000000001},{"rt":6460.699999988079,"stimulus":"\n                    <p><b>Action: <em>harvest</em></b></p>\n                    <p>This is the bee that you just saw.</p>\n                    <img src=\"bees-with-color/bee-A2DF.svg\" width=\"200\">\n                    <p><span class=\"greenText\"><b>Successful harvest!</b></span><br>Your pay has increased by $0.02. Your bonus pay is now $0.56.</p>\n            ","response":0,"trial_type":"html-button-response","trial_index":8,"time_elapsed":163802,"internal_node_id":"0.0-4.0-1.0","subject_id":"5fe3792db939ed02b8c1d0f8","study_id":"60edd13110225f80f9f3709b","session_id":"6196c4a2860a3164bf54efa3","condition":"contingent","relevant_dimensions":["antennae","pattern"],"bee_group":{"antennae":"B","wings":"X","pattern":"D","legs":"X"},"bonus":0.560000000000001},{"rt":3493.300000011921,"stimulus":"bees-with-color/bee-A2SM.svg","response":1,"trial_type":"image-button-response","trial_index":9,"time_elapsed":167297,"internal_node_id":"0.0-4.0-0.1","subject_id":"5fe3792db939ed02b8c1d0f8","study_id":"60edd13110225f80f9f3709b","session_id":"6196c4a2860a3164bf54efa3","condition":"contingent","relevant_dimensions":["antennae","pattern"],"bee_group":{"antennae":"B","wings":"X","pattern":"D","legs":"X"},"action":"avoid","summary":"bad-avoid","bonus":0.560000000000001},{"rt":4494.300000011921,"stimulus":"\n                    <p><b>Action: <em>avoid</em></b></p>\n                    <p>This is the bee that you just saw.</p>\n                    <img src=\"bees-with-color/bee-A2SM.svg\" width=\"200\">\n                    <p><br>Your bonus pay is unchanged, and remains at $0.56.</p>\n            ","response":0,"trial_type":"html-button-response","trial_index":10,"time_elapsed":171793,"internal_node_id":"0.0-4.0-1.1","subject_id":"5fe3792db939ed02b8c1d0f8","study_id":"60edd13110225f80f9f3709b","session_id":"6196c4a2860a3164bf54efa3","condition":"contingent","relevant_dimensions":["antennae","pattern"],"bee_group":{"antennae":"B","wings":"X","pattern":"D","legs":"X"},"bonus":0.560000000000001},{"rt":4990.100000023842,"stimulus":"bees-with-color/bee-A1SF.svg","response":0,"trial_type":"image-button-response","trial_index":11,"time_elapsed":176785,"internal_node_id":"0.0-4.0-0.2","subject_id":"5fe3792db939ed02b8c1d0f8","study_id":"60edd13110225f80f9f3709b","session_id":"6196c4a2860a3164bf54efa3","condition":"contingent","relevant_dimensions":["antennae","pattern"],"bee_group":{"antennae":"B","wings":"X","pattern":"D","legs":"X"},"action":"harvest","summary":"good-harvest","bonus":0.560000000000001},{"rt":8310.800000011921,"stimulus":"\n                    <p><b>Action: <em>harvest</em></b></p>\n                    <p>This is the bee that you just saw.</p>\n                    <img src=\"bees-with-color/bee-A1SF.svg\" width=\"200\">\n                    <p><span class=\"greenText\"><b>Successful harvest!</b></span><br>Your pay has increased by $0.02. Your bonus pay is now $0.58.</p>\n            ","response":0,"trial_type":"html-button-response","trial_index":12,"time_elapsed":185097,"internal_node_id":"0.0-4.0-1.2","subject_id":"5fe3792db939ed02b8c1d0f8","study_id":"60edd13110225f80f9f3709b","session_id":"6196c4a2860a3164bf54efa3","condition":"contingent","relevant_dimensions":["antennae","pattern"],"bee_group":{"antennae":"B","wings":"X","pattern":"D","legs":"X"},"bonus":0.560000000000001},{"rt":3629.400000035763,"stimulus":"bees-with-color/bee-B1SM.svg","response":1,"trial_type":"image-button-response","trial_index":13,"time_elapsed":188729,"internal_node_id":"0.0-4.0-0.3","subject_id":"5fe3792db939ed02b8c1d0f8","study_id":"60edd13110225f80f9f3709b","session_id":"6196c4a2860a3164bf54efa3","condition":"contingent","relevant_dimensions":["antennae","pattern"],"bee_group":{"antennae":"B","wings":"X","pattern":"D","legs":"X"},"action":"avoid","summary":"bad-avoid","bonus":0.560000000000001},{"rt":1502.199999988079,"stimulus":"\n                    <p><b>Action: <em>avoid</em></b></p>\n                    <p>This is the bee that you just saw.</p>\n                    <img src=\"bees-with-color/bee-B1SM.svg\" width=\"200\">\n                    <p><br>Your bonus pay is unchanged, and remains at $0.58.</p>\n            ","response":0,"trial_type":"html-button-response","trial_index":14,"time_elapsed":190233,"internal_node_id":"0.0-4.0-1.3","subject_id":"5fe3792db939ed02b8c1d0f8","study_id":"60edd13110225f80f9f3709b","session_id":"6196c4a2860a3164bf54efa3","condition":"contingent","relevant_dimensions":["antennae","pattern"],"bee_group":{"antennae":"B","wings":"X","pattern":"D","legs":"X"},"bonus":0.560000000000001},{"rt":3390.699999988079,"stimulus":"bees-with-color/bee-B1DM.svg","response":0,"trial_type":"image-button-response","trial_index":15,"time_elapsed":193625,"internal_node_id":"0.0-4.0-0.4","subject_id":"5fe3792db939ed02b8c1d0f8","study_id":"60edd13110225f80f9f3709b","session_id":"6196c4a2860a3164bf54efa3","condition":"contingent","relevant_dimensions":["antennae","pattern"],"bee_group":{"antennae":"B","wings":"X","pattern":"D","legs":"X"},"action":"harvest","summary":"bad-harvest","bonus":0.560000000000001},{"rt":4838.600000023842,"stimulus":"\n                    <p><b>Action: <em>harvest</em></b></p>\n                    <p>This is the bee that you just saw.</p>\n                    <img src=\"bees-with-color/bee-B1DM.svg\" width=\"200\">\n                    <p><span class=\"redText\">Bad choice, the bee was angry.</span><br><b>You have been stung!</b><br>Your pay has been decreased by $0.10. Your bonus pay is now $0.48.</p>\n            ","response":0,"trial_type":"html-button-response","trial_index":16,"time_elapsed":198465,"internal_node_id":"0.0-4.0-1.4","subject_id":"5fe3792db939ed02b8c1d0f8","study_id":"60edd13110225f80f9f3709b","session_id":"6196c4a2860a3164bf54efa3","condition":"contingent","relevant_dimensions":["antennae","pattern"],"bee_group":{"antennae":"B","wings":"X","pattern":"D","legs":"X"},"bonus":0.560000000000001},{"rt":3094.900000035763,"stimulus":"bees-with-color/bee-B2SF.svg","response":0,"trial_type":"image-button-response","trial_index":17,"time_elapsed":201562,"internal_node_id":"0.0-4.0-0.5","subject_id":"5fe3792db939ed02b8c1d0f8","study_id":"60edd13110225f80f9f3709b","session_id":"6196c4a2860a3164bf54efa3","condition":"contingent","relevant_dimensions":["antennae","pattern"],"bee_group":{"antennae":"B","wings":"X","pattern":"D","legs":"X"},"action":"harvest","summary":"good-harvest","bonus":0.560000000000001},{"rt":4012.600000023842,"stimulus":"\n                    <p><b>Action: <em>harvest</em></b></p>\n                    <p>This is the bee that you just saw.</p>\n                    <img src=\"bees-with-color/bee-B2SF.svg\" width=\"200\">\n                    <p><span class=\"greenText\"><b>Successful harvest!</b></span><br>Your pay has increased by $0.02. Your bonus pay is now $0.50.</p>\n            ","response":0,"trial_type":"html-button-response","trial_index":18,"time_elapsed":205577,"internal_node_id":"0.0-4.0-1.5","subject_id":"5fe3792db939ed02b8c1d0f8","study_id":"60edd13110225f80f9f3709b","session_id":"6196c4a2860a3164bf54efa3","condition":"contingent","relevant_dimensions":["antennae","pattern"],"bee_group":{"antennae":"B","wings":"X","pattern":"D","legs":"X"},"bonus":0.560000000000001},{"rt":3462.5,"stimulus":"bees-with-color/bee-B2SM.svg","response":0,"trial_type":"image-button-response","trial_index":19,"time_elapsed":209041,"internal_node_id":"0.0-4.0-0.6","subject_id":"5fe3792db939ed02b8c1d0f8","study_id":"60edd13110225f80f9f3709b","session_id":"6196c4a2860a3164bf54efa3","condition":"contingent","relevant_dimensions":["antennae","pattern"],"bee_group":{"antennae":"B","wings":"X","pattern":"D","legs":"X"},"action":"harvest","summary":"good-harvest","bonus":0.560000000000001},{"rt":2567.5,"stimulus":"\n                    <p><b>Action: <em>harvest</em></b></p>\n                    <p>This is the bee that you just saw.</p>\n                    <img src=\"bees-with-color/bee-B2SM.svg\" width=\"200\">\n                    <p><span class=\"greenText\"><b>Successful harvest!</b></span><br>Your pay has increased by $0.02. Your bonus pay is now $0.52.</p>\n            ","response":0,"trial_type":"html-button-response","trial_index":20,"time_elapsed":211610,"internal_node_id":"0.0-4.0-1.6","subject_id":"5fe3792db939ed02b8c1d0f8","study_id":"60edd13110225f80f9f3709b","session_id":"6196c4a2860a3164bf54efa3","condition":"contingent","relevant_dimensions":["antennae","pattern"],"bee_group":{"antennae":"B","wings":"X","pattern":"D","legs":"X"},"bonus":0.560000000000001},{"rt":3293.5,"stimulus":"bees-with-color/bee-B2DM.svg","response":0,"trial_type":"image-button-response","trial_index":21,"time_elapsed":214906,"internal_node_id":"0.0-4.0-0.7","subject_id":"5fe3792db939ed02b8c1d0f8","study_id":"60edd13110225f80f9f3709b","session_id":"6196c4a2860a3164bf54efa3","condition":"contingent","relevant_dimensions":["antennae","pattern"],"bee_group":{"antennae":"B","wings":"X","pattern":"D","legs":"X"},"action":"harvest","summary":"bad-harvest","bonus":0.560000000000001},{"rt":2837.899999976158,"stimulus":"\n                    <p><b>Action: <em>harvest</em></b></p>\n                    <p>This is the bee that you just saw.</p>\n                    <img src=\"bees-with-color/bee-B2DM.svg\" width=\"200\">\n                    <p><span class=\"redText\">Bad choice, the bee was angry.</span><br><b>You have been stung!</b><br>Your pay has been decreased by $0.10. Your bonus pay is now $0.42.</p>\n            ","response":0,"trial_type":"html-button-response","trial_index":22,"time_elapsed":217745,"internal_node_id":"0.0-4.0-1.7","subject_id":"5fe3792db939ed02b8c1d0f8","study_id":"60edd13110225f80f9f3709b","session_id":"6196c4a2860a3164bf54efa3","condition":"contingent","relevant_dimensions":["antennae","pattern"],"bee_group":{"antennae":"B","wings":"X","pattern":"D","legs":"X"},"bonus":0.560000000000001},{"rt":2463,"stimulus":"bees-with-color/bee-B1DF.svg","response":1,"trial_type":"image-button-response","trial_index":23,"time_elapsed":220210,"internal_node_id":"0.0-4.0-0.8","subject_id":"5fe3792db939ed02b8c1d0f8","study_id":"60edd13110225f80f9f3709b","session_id":"6196c4a2860a3164bf54efa3","condition":"contingent","relevant_dimensions":["antennae","pattern"],"bee_group":{"antennae":"B","wings":"X","pattern":"D","legs":"X"},"action":"avoid","summary":"good-avoid","bonus":0.560000000000001},{"rt":2982,"stimulus":"\n                    <p><b>Action: <em>avoid</em></b></p>\n                    <p>This is the bee that you just saw.</p>\n                    <img src=\"bees-with-color/bee-B1DF.svg\" width=\"200\">\n                    <p><br>Your bonus pay is unchanged, and remains at $0.42.</p>\n            ","response":0,"trial_type":"html-button-response","trial_index":24,"time_elapsed":223194,"internal_node_id":"0.0-4.0-1.8","subject_id":"5fe3792db939ed02b8c1d0f8","study_id":"60edd13110225f80f9f3709b","session_id":"6196c4a2860a3164bf54efa3","condition":"contingent","relevant_dimensions":["antennae","pattern"],"bee_group":{"antennae":"B","wings":"X","pattern":"D","legs":"X"},"bonus":0.560000000000001},{"rt":1749.300000011921,"stimulus":"bees-with-color/bee-B2DF.svg","response":0,"trial_type":"image-button-response","trial_index":25,"time_elapsed":224945,"internal_node_id":"0.0-4.0-0.9","subject_id":"5fe3792db939ed02b8c1d0f8","study_id":"60edd13110225f80f9f3709b","session_id":"6196c4a2860a3164bf54efa3","condition":"contingent","relevant_dimensions":["antennae","pattern"],"bee_group":{"antennae":"B","wings":"X","pattern":"D","legs":"X"},"action":"harvest","summary":"bad-harvest","bonus":0.560000000000001},{"rt":2487,"stimulus":"\n                    <p><b>Action: <em>harvest</em></b></p>\n                    <p>This is the bee that you just saw.</p>\n                    <img src=\"bees-with-color/bee-B2DF.svg\" width=\"200\">\n                    <p><span class=\"redText\">Bad choice, the bee was angry.</span><br><b>You have been stung!</b><br>Your pay has been decreased by $0.10. Your bonus pay is now $0.32.</p>\n            ","response":0,"trial_type":"html-button-response","trial_index":26,"time_elapsed":227433,"internal_node_id":"0.0-4.0-1.9","subject_id":"5fe3792db939ed02b8c1d0f8","study_id":"60edd13110225f80f9f3709b","session_id":"6196c4a2860a3164bf54efa3","condition":"contingent","relevant_dimensions":["antennae","pattern"],"bee_group":{"antennae":"B","wings":"X","pattern":"D","legs":"X"},"bonus":0.560000000000001},{"rt":1655.300000011921,"stimulus":"bees-with-color/bee-A1DM.svg","response":0,"trial_type":"image-button-response","trial_index":27,"time_elapsed":229089,"internal_node_id":"0.0-4.0-0.10","subject_id":"5fe3792db939ed02b8c1d0f8","study_id":"60edd13110225f80f9f3709b","session_id":"6196c4a2860a3164bf54efa3","condition":"contingent","relevant_dimensions":["antennae","pattern"],"bee_group":{"antennae":"B","wings":"X","pattern":"D","legs":"X"},"action":"harvest","summary":"good-harvest","bonus":0.560000000000001},{"rt":1367,"stimulus":"\n                    <p><b>Action: <em>harvest</em></b></p>\n                    <p>This is the bee that you just saw.</p>\n                    <img src=\"bees-with-color/bee-A1DM.svg\" width=\"200\">\n                    <p><span class=\"greenText\"><b>Successful harvest!</b></span><br>Your pay has increased by $0.02. Your bonus pay is now $0.34.</p>\n            ","response":0,"trial_type":"html-button-response","trial_index":28,"time_elapsed":230457,"internal_node_id":"0.0-4.0-1.10","subject_id":"5fe3792db939ed02b8c1d0f8","study_id":"60edd13110225f80f9f3709b","session_id":"6196c4a2860a3164bf54efa3","condition":"contingent","relevant_dimensions":["antennae","pattern"],"bee_group":{"antennae":"B","wings":"X","pattern":"D","legs":"X"},"bonus":0.560000000000001},{"rt":2357,"stimulus":"bees-with-color/bee-B1SF.svg","response":0,"trial_type":"image-button-response","trial_index":29,"time_elapsed":232817,"internal_node_id":"0.0-4.0-0.11","subject_id":"5fe3792db939ed02b8c1d0f8","study_id":"60edd13110225f80f9f3709b","session_id":"6196c4a2860a3164bf54efa3","condition":"contingent","relevant_dimensions":["antennae","pattern"],"bee_group":{"antennae":"B","wings":"X","pattern":"D","legs":"X"},"action":"harvest","summary":"good-harvest","bonus":0.560000000000001},{"rt":1431,"stimulus":"\n                    <p><b>Action: <em>harvest</em></b></p>\n                    <p>This is the bee that you just saw.</p>\n                    <img src=\"bees-with-color/bee-B1SF.svg\" width=\"200\">\n                    <p><span class=\"greenText\"><b>Successful harvest!</b></span><br>Your pay has increased by $0.02. Your bonus pay is now $0.36.</p>\n            ","response":0,"trial_type":"html-button-response","trial_index":30,"time_elapsed":234249,"internal_node_id":"0.0-4.0-1.11","subject_id":"5fe3792db939ed02b8c1d0f8","study_id":"60edd13110225f80f9f3709b","session_id":"6196c4a2860a3164bf54efa3","condition":"contingent","relevant_dimensions":["antennae","pattern"],"bee_group":{"antennae":"B","wings":"X","pattern":"D","legs":"X"},"bonus":0.560000000000001},{"rt":1863.1000000238419,"stimulus":"bees-with-color/bee-A1SM.svg","response":0,"trial_type":"image-button-response","trial_index":31,"time_elapsed":236113,"internal_node_id":"0.0-4.0-0.12","subject_id":"5fe3792db939ed02b8c1d0f8","study_id":"60edd13110225f80f9f3709b","session_id":"6196c4a2860a3164bf54efa3","condition":"contingent","relevant_dimensions":["antennae","pattern"],"bee_group":{"antennae":"B","wings":"X","pattern":"D","legs":"X"},"action":"harvest","summary":"good-harvest","bonus":0.560000000000001},{"rt":1966.800000011921,"stimulus":"\n                    <p><b>Action: <em>harvest</em></b></p>\n                    <p>This is the bee that you just saw.</p>\n                    <img src=\"bees-with-color/bee-A1SM.svg\" width=\"200\">\n                    <p><span class=\"greenText\"><b>Successful harvest!</b></span><br>Your pay has increased by $0.02. Your bonus pay is now $0.38.</p>\n            ","response":0,"trial_type":"html-button-response","trial_index":32,"time_elapsed":238081,"internal_node_id":"0.0-4.0-1.12","subject_id":"5fe3792db939ed02b8c1d0f8","study_id":"60edd13110225f80f9f3709b","session_id":"6196c4a2860a3164bf54efa3","condition":"contingent","relevant_dimensions":["antennae","pattern"],"bee_group":{"antennae":"B","wings":"X","pattern":"D","legs":"X"},"bonus":0.560000000000001},{"rt":2606.400000035763,"stimulus":"bees-with-color/bee-A2SF.svg","response":1,"trial_type":"image-button-response","trial_index":33,"time_elapsed":240689,"internal_node_id":"0.0-4.0-0.13","subject_id":"5fe3792db939ed02b8c1d0f8","study_id":"60edd13110225f80f9f3709b","session_id":"6196c4a2860a3164bf54efa3","condition":"contingent","relevant_dimensions":["antennae","pattern"],"bee_group":{"antennae":"B","wings":"X","pattern":"D","legs":"X"},"action":"avoid","summary":"bad-avoid","bonus":0.560000000000001},{"rt":1391.300000011921,"stimulus":"\n                    <p><b>Action: <em>avoid</em></b></p>\n                    <p>This is the bee that you just saw.</p>\n                    <img src=\"bees-with-color/bee-A2SF.svg\" width=\"200\">\n                    <p><br>Your bonus pay is unchanged, and remains at $0.38.</p>\n            ","response":0,"trial_type":"html-button-response","trial_index":34,"time_elapsed":242081,"internal_node_id":"0.0-4.0-1.13","subject_id":"5fe3792db939ed02b8c1d0f8","study_id":"60edd13110225f80f9f3709b","session_id":"6196c4a2860a3164bf54efa3","condition":"contingent","relevant_dimensions":["antennae","pattern"],"bee_group":{"antennae":"B","wings":"X","pattern":"D","legs":"X"},"bonus":0.560000000000001},{"rt":1678.4000000357628,"stimulus":"bees-with-color/bee-A1DF.svg","response":0,"trial_type":"image-button-response","trial_index":35,"time_elapsed":243760,"internal_node_id":"0.0-4.0-0.14","subject_id":"5fe3792db939ed02b8c1d0f8","study_id":"60edd13110225f80f9f3709b","session_id":"6196c4a2860a3164bf54efa3","condition":"contingent","relevant_dimensions":["antennae","pattern"],"bee_group":{"antennae":"B","wings":"X","pattern":"D","legs":"X"},"action":"harvest","summary":"good-harvest","bonus":0.560000000000001},{"rt":1191,"stimulus":"\n                    <p><b>Action: <em>harvest</em></b></p>\n                    <p>This is the bee that you just saw.</p>\n                    <img src=\"bees-with-color/bee-A1DF.svg\" width=\"200\">\n                    <p><span class=\"greenText\"><b>Successful harvest!</b></span><br>Your pay has increased by $0.02. Your bonus pay is now $0.40.</p>\n            ","response":0,"trial_type":"html-button-response","trial_index":36,"time_elapsed":244953,"internal_node_id":"0.0-4.0-1.14","subject_id":"5fe3792db939ed02b8c1d0f8","study_id":"60edd13110225f80f9f3709b","session_id":"6196c4a2860a3164bf54efa3","condition":"contingent","relevant_dimensions":["antennae","pattern"],"bee_group":{"antennae":"B","wings":"X","pattern":"D","legs":"X"},"bonus":0.560000000000001},{"rt":2142.800000011921,"stimulus":"bees-with-color/bee-A2DM.svg","response":1,"trial_type":"image-button-response","trial_index":37,"time_elapsed":247096,"internal_node_id":"0.0-4.0-0.15","subject_id":"5fe3792db939ed02b8c1d0f8","study_id":"60edd13110225f80f9f3709b","session_id":"6196c4a2860a3164bf54efa3","condition":"contingent","relevant_dimensions":["antennae","pattern"],"bee_group":{"antennae":"B","wings":"X","pattern":"D","legs":"X"},"action":"avoid","summary":"bad-avoid","bonus":0.560000000000001},{"rt":1311.1000000238419,"stimulus":"\n                    <p><b>Action: <em>avoid</em></b></p>\n                    <p>This is the bee that you just saw.</p>\n                    <img src=\"bees-with-color/bee-A2DM.svg\" width=\"200\">\n                    <p><br>Your bonus pay is unchanged, and remains at $0.40.</p>\n            ","response":0,"trial_type":"html-button-response","trial_index":38,"time_elapsed":248409,"internal_node_id":"0.0-4.0-1.15","subject_id":"5fe3792db939ed02b8c1d0f8","study_id":"60edd13110225f80f9f3709b","session_id":"6196c4a2860a3164bf54efa3","condition":"contingent","relevant_dimensions":["antennae","pattern"],"bee_group":{"antennae":"B","wings":"X","pattern":"D","legs":"X"},"bonus":0.560000000000001},{"rt":2886.199999988079,"stimulus":"bees-with-color/bee-B1DF.svg","response":1,"trial_type":"image-button-response","trial_index":39,"time_elapsed":251296,"internal_node_id":"0.0-4.0-0.16","subject_id":"5fe3792db939ed02b8c1d0f8","study_id":"60edd13110225f80f9f3709b","session_id":"6196c4a2860a3164bf54efa3","condition":"contingent","relevant_dimensions":["antennae","pattern"],"bee_group":{"antennae":"B","wings":"X","pattern":"D","legs":"X"},"action":"avoid","summary":"good-avoid","bonus":0.560000000000001},{"rt":926.8000000119209,"stimulus":"\n                    <p><b>Action: <em>avoid</em></b></p>\n                    <p>This is the bee that you just saw.</p>\n                    <img src=\"bees-with-color/bee-B1DF.svg\" width=\"200\">\n                    <p><br>Your bonus pay is unchanged, and remains at $0.40.</p>\n            ","response":0,"trial_type":"html-button-response","trial_index":40,"time_elapsed":252224,"internal_node_id":"0.0-4.0-1.16","subject_id":"5fe3792db939ed02b8c1d0f8","study_id":"60edd13110225f80f9f3709b","session_id":"6196c4a2860a3164bf54efa3","condition":"contingent","relevant_dimensions":["antennae","pattern"],"bee_group":{"antennae":"B","wings":"X","pattern":"D","legs":"X"},"bonus":0.560000000000001},{"rt":1366.8999999761581,"stimulus":"bees-with-color/bee-B2SM.svg","response":0,"trial_type":"image-button-response","trial_index":41,"time_elapsed":253593,"internal_node_id":"0.0-4.0-0.17","subject_id":"5fe3792db939ed02b8c1d0f8","study_id":"60edd13110225f80f9f3709b","session_id":"6196c4a2860a3164bf54efa3","condition":"contingent","relevant_dimensions":["antennae","pattern"],"bee_group":{"antennae":"B","wings":"X","pattern":"D","legs":"X"},"action":"harvest","summary":"good-harvest","bonus":0.560000000000001},{"rt":1686.4000000357628,"stimulus":"\n                    <p><b>Action: <em>harvest</em></b></p>\n                    <p>This is the bee that you just saw.</p>\n                    <img src=\"bees-with-color/bee-B2SM.svg\" width=\"200\">\n                    <p><span class=\"greenText\"><b>Successful harvest!</b></span><br>Your pay has increased by $0.02. Your bonus pay is now $0.42.</p>\n            ","response":0,"trial_type":"html-button-response","trial_index":42,"time_elapsed":255280,"internal_node_id":"0.0-4.0-1.17","subject_id":"5fe3792db939ed02b8c1d0f8","study_id":"60edd13110225f80f9f3709b","session_id":"6196c4a2860a3164bf54efa3","condition":"contingent","relevant_dimensions":["antennae","pattern"],"bee_group":{"antennae":"B","wings":"X","pattern":"D","legs":"X"},"bonus":0.560000000000001},{"rt":3174.900000035763,"stimulus":"bees-with-color/bee-B2DM.svg","response":1,"trial_type":"image-button-response","trial_index":43,"time_elapsed":258457,"internal_node_id":"0.0-4.0-0.18","subject_id":"5fe3792db939ed02b8c1d0f8","study_id":"60edd13110225f80f9f3709b","session_id":"6196c4a2860a3164bf54efa3","condition":"contingent","relevant_dimensions":["antennae","pattern"],"bee_group":{"antennae":"B","wings":"X","pattern":"D","legs":"X"},"action":"avoid","summary":"good-avoid","bonus":0.560000000000001},{"rt":949.9000000357628,"stimulus":"\n                    <p><b>Action: <em>avoid</em></b></p>\n                    <p>This is the bee that you just saw.</p>\n                    <img src=\"bees-with-color/bee-B2DM.svg\" width=\"200\">\n                    <p><br>Your bonus pay is unchanged, and remains at $0.42.</p>\n            ","response":0,"trial_type":"html-button-response","trial_index":44,"time_elapsed":259408,"internal_node_id":"0.0-4.0-1.18","subject_id":"5fe3792db939ed02b8c1d0f8","study_id":"60edd13110225f80f9f3709b","session_id":"6196c4a2860a3164bf54efa3","condition":"contingent","relevant_dimensions":["antennae","pattern"],"bee_group":{"antennae":"B","wings":"X","pattern":"D","legs":"X"},"bonus":0.560000000000001},{"rt":1534.8999999761581,"stimulus":"bees-with-color/bee-A2SF.svg","response":0,"trial_type":"image-button-response","trial_index":45,"time_elapsed":260945,"internal_node_id":"0.0-4.0-0.19","subject_id":"5fe3792db939ed02b8c1d0f8","study_id":"60edd13110225f80f9f3709b","session_id":"6196c4a2860a3164bf54efa3","condition":"contingent","relevant_dimensions":["antennae","pattern"],"bee_group":{"antennae":"B","wings":"X","pattern":"D","legs":"X"},"action":"harvest","summary":"good-harvest","bonus":0.560000000000001},{"rt":1751,"stimulus":"\n                    <p><b>Action: <em>harvest</em></b></p>\n                    <p>This is the bee that you just saw.</p>\n                    <img src=\"bees-with-color/bee-A2SF.svg\" width=\"200\">\n                    <p><span class=\"greenText\"><b>Successful harvest!</b></span><br>Your pay has increased by $0.02. Your bonus pay is now $0.44.</p>\n            ","response":0,"trial_type":"html-button-response","trial_index":46,"time_elapsed":262697,"internal_node_id":"0.0-4.0-1.19","subject_id":"5fe3792db939ed02b8c1d0f8","study_id":"60edd13110225f80f9f3709b","session_id":"6196c4a2860a3164bf54efa3","condition":"contingent","relevant_dimensions":["antennae","pattern"],"bee_group":{"antennae":"B","wings":"X","pattern":"D","legs":"X"},"bonus":0.560000000000001},{"rt":5749.899999976158,"stimulus":"bees-with-color/bee-A2SM.svg","response":0,"trial_type":"image-button-response","trial_index":47,"time_elapsed":268449,"internal_node_id":"0.0-4.0-0.20","subject_id":"5fe3792db939ed02b8c1d0f8","study_id":"60edd13110225f80f9f3709b","session_id":"6196c4a2860a3164bf54efa3","condition":"contingent","relevant_dimensions":["antennae","pattern"],"bee_group":{"antennae":"B","wings":"X","pattern":"D","legs":"X"},"action":"harvest","summary":"good-harvest","bonus":0.560000000000001},{"rt":1703.5,"stimulus":"\n                    <p><b>Action: <em>harvest</em></b></p>\n                    <p>This is the bee that you just saw.</p>\n                    <img src=\"bees-with-color/bee-A2SM.svg\" width=\"200\">\n                    <p><span class=\"greenText\"><b>Successful harvest!</b></span><br>Your pay has increased by $0.02. Your bonus pay is now $0.46.</p>\n            ","response":0,"trial_type":"html-button-response","trial_index":48,"time_elapsed":270154,"internal_node_id":"0.0-4.0-1.20","subject_id":"5fe3792db939ed02b8c1d0f8","study_id":"60edd13110225f80f9f3709b","session_id":"6196c4a2860a3164bf54efa3","condition":"contingent","relevant_dimensions":["antennae","pattern"],"bee_group":{"antennae":"B","wings":"X","pattern":"D","legs":"X"},"bonus":0.560000000000001},{"rt":1685.300000011921,"stimulus":"bees-with-color/bee-B1SF.svg","response":1,"trial_type":"image-button-response","trial_index":49,"time_elapsed":271840,"internal_node_id":"0.0-4.0-0.21","subject_id":"5fe3792db939ed02b8c1d0f8","study_id":"60edd13110225f80f9f3709b","session_id":"6196c4a2860a3164bf54efa3","condition":"contingent","relevant_dimensions":["antennae","pattern"],"bee_group":{"antennae":"B","wings":"X","pattern":"D","legs":"X"},"action":"avoid","summary":"bad-avoid","bonus":0.560000000000001},{"rt":790.6000000238419,"stimulus":"\n                    <p><b>Action: <em>avoid</em></b></p>\n                    <p>This is the bee that you just saw.</p>\n                    <img src=\"bees-with-color/bee-B1SF.svg\" width=\"200\">\n                    <p><br>Your bonus pay is unchanged, and remains at $0.46.</p>\n            ","response":0,"trial_type":"html-button-response","trial_index":50,"time_elapsed":272632,"internal_node_id":"0.0-4.0-1.21","subject_id":"5fe3792db939ed02b8c1d0f8","study_id":"60edd13110225f80f9f3709b","session_id":"6196c4a2860a3164bf54efa3","condition":"contingent","relevant_dimensions":["antennae","pattern"],"bee_group":{"antennae":"B","wings":"X","pattern":"D","legs":"X"},"bonus":0.560000000000001},{"rt":1631.0999999642372,"stimulus":"bees-with-color/bee-B1SM.svg","response":0,"trial_type":"image-button-response","trial_index":51,"time_elapsed":274265,"internal_node_id":"0.0-4.0-0.22","subject_id":"5fe3792db939ed02b8c1d0f8","study_id":"60edd13110225f80f9f3709b","session_id":"6196c4a2860a3164bf54efa3","condition":"contingent","relevant_dimensions":["antennae","pattern"],"bee_group":{"antennae":"B","wings":"X","pattern":"D","legs":"X"},"action":"harvest","summary":"good-harvest","bonus":0.560000000000001},{"rt":1310.800000011921,"stimulus":"\n                    <p><b>Action: <em>harvest</em></b></p>\n                    <p>This is the bee that you just saw.</p>\n                    <img src=\"bees-with-color/bee-B1SM.svg\" width=\"200\">\n                    <p><span class=\"greenText\"><b>Successful harvest!</b></span><br>Your pay has increased by $0.02. Your bonus pay is now $0.48.</p>\n            ","response":0,"trial_type":"html-button-response","trial_index":52,"time_elapsed":275576,"internal_node_id":"0.0-4.0-1.22","subject_id":"5fe3792db939ed02b8c1d0f8","study_id":"60edd13110225f80f9f3709b","session_id":"6196c4a2860a3164bf54efa3","condition":"contingent","relevant_dimensions":["antennae","pattern"],"bee_group":{"antennae":"B","wings":"X","pattern":"D","legs":"X"},"bonus":0.560000000000001},{"rt":2135.199999988079,"stimulus":"bees-with-color/bee-A1DM.svg","response":1,"trial_type":"image-button-response","trial_index":53,"time_elapsed":277712,"internal_node_id":"0.0-4.0-0.23","subject_id":"5fe3792db939ed02b8c1d0f8","study_id":"60edd13110225f80f9f3709b","session_id":"6196c4a2860a3164bf54efa3","condition":"contingent","relevant_dimensions":["antennae","pattern"],"bee_group":{"antennae":"B","wings":"X","pattern":"D","legs":"X"},"action":"avoid","summary":"bad-avoid","bonus":0.560000000000001},{"rt":943.3000000119209,"stimulus":"\n                    <p><b>Action: <em>avoid</em></b></p>\n                    <p>This is the bee that you just saw.</p>\n                    <img src=\"bees-with-color/bee-A1DM.svg\" width=\"200\">\n                    <p><br>Your bonus pay is unchanged, and remains at $0.48.</p>\n            ","response":0,"trial_type":"html-button-response","trial_index":54,"time_elapsed":278657,"internal_node_id":"0.0-4.0-1.23","subject_id":"5fe3792db939ed02b8c1d0f8","study_id":"60edd13110225f80f9f3709b","session_id":"6196c4a2860a3164bf54efa3","condition":"contingent","relevant_dimensions":["antennae","pattern"],"bee_group":{"antennae":"B","wings":"X","pattern":"D","legs":"X"},"bonus":0.560000000000001},{"rt":1519.5,"stimulus":"bees-with-color/bee-A1DF.svg","response":0,"trial_type":"image-button-response","trial_index":55,"time_elapsed":280177,"internal_node_id":"0.0-4.0-0.24","subject_id":"5fe3792db939ed02b8c1d0f8","study_id":"60edd13110225f80f9f3709b","session_id":"6196c4a2860a3164bf54efa3","condition":"contingent","relevant_dimensions":["antennae","pattern"],"bee_group":{"antennae":"B","wings":"X","pattern":"D","legs":"X"},"action":"harvest","summary":"good-harvest","bonus":0.560000000000001},{"rt":1205.8999999761581,"stimulus":"\n                    <p><b>Action: <em>harvest</em></b></p>\n                    <p>This is the bee that you just saw.</p>\n                    <img src=\"bees-with-color/bee-A1DF.svg\" width=\"200\">\n                    <p><span class=\"greenText\"><b>Successful harvest!</b></span><br>Your pay has increased by $0.02. Your bonus pay is now $0.50.</p>\n            ","response":0,"trial_type":"html-button-response","trial_index":56,"time_elapsed":281384,"internal_node_id":"0.0-4.0-1.24","subject_id":"5fe3792db939ed02b8c1d0f8","study_id":"60edd13110225f80f9f3709b","session_id":"6196c4a2860a3164bf54efa3","condition":"contingent","relevant_dimensions":["antennae","pattern"],"bee_group":{"antennae":"B","wings":"X","pattern":"D","legs":"X"},"bonus":0.560000000000001},{"rt":3870.399999976158,"stimulus":"bees-with-color/bee-A1SM.svg","response":0,"trial_type":"image-button-response","trial_index":57,"time_elapsed":285257,"internal_node_id":"0.0-4.0-0.25","subject_id":"5fe3792db939ed02b8c1d0f8","study_id":"60edd13110225f80f9f3709b","session_id":"6196c4a2860a3164bf54efa3","condition":"contingent","relevant_dimensions":["antennae","pattern"],"bee_group":{"antennae":"B","wings":"X","pattern":"D","legs":"X"},"action":"harvest","summary":"good-harvest","bonus":0.560000000000001},{"rt":1014.8000000119209,"stimulus":"\n                    <p><b>Action: <em>harvest</em></b></p>\n                    <p>This is the bee that you just saw.</p>\n                    <img src=\"bees-with-color/bee-A1SM.svg\" width=\"200\">\n                    <p><span class=\"greenText\"><b>Successful harvest!</b></span><br>Your pay has increased by $0.02. Your bonus pay is now $0.52.</p>\n            ","response":0,"trial_type":"html-button-response","trial_index":58,"time_elapsed":286273,"internal_node_id":"0.0-4.0-1.25","subject_id":"5fe3792db939ed02b8c1d0f8","study_id":"60edd13110225f80f9f3709b","session_id":"6196c4a2860a3164bf54efa3","condition":"contingent","relevant_dimensions":["antennae","pattern"],"bee_group":{"antennae":"B","wings":"X","pattern":"D","legs":"X"},"bonus":0.560000000000001},{"rt":1775.5,"stimulus":"bees-with-color/bee-A1SF.svg","response":1,"trial_type":"image-button-response","trial_index":59,"time_elapsed":288049,"internal_node_id":"0.0-4.0-0.26","subject_id":"5fe3792db939ed02b8c1d0f8","study_id":"60edd13110225f80f9f3709b","session_id":"6196c4a2860a3164bf54efa3","condition":"contingent","relevant_dimensions":["antennae","pattern"],"bee_group":{"antennae":"B","wings":"X","pattern":"D","legs":"X"},"action":"avoid","summary":"bad-avoid","bonus":0.560000000000001},{"rt":860.8000000119209,"stimulus":"\n                    <p><b>Action: <em>avoid</em></b></p>\n                    <p>This is the bee that you just saw.</p>\n                    <img src=\"bees-with-color/bee-A1SF.svg\" width=\"200\">\n                    <p><br>Your bonus pay is unchanged, and remains at $0.52.</p>\n            ","response":0,"trial_type":"html-button-response","trial_index":60,"time_elapsed":288913,"internal_node_id":"0.0-4.0-1.26","subject_id":"5fe3792db939ed02b8c1d0f8","study_id":"60edd13110225f80f9f3709b","session_id":"6196c4a2860a3164bf54efa3","condition":"contingent","relevant_dimensions":["antennae","pattern"],"bee_group":{"antennae":"B","wings":"X","pattern":"D","legs":"X"},"bonus":0.560000000000001},{"rt":2614.7999999523163,"stimulus":"bees-with-color/bee-B2SF.svg","response":1,"trial_type":"image-button-response","trial_index":61,"time_elapsed":291529,"internal_node_id":"0.0-4.0-0.27","subject_id":"5fe3792db939ed02b8c1d0f8","study_id":"60edd13110225f80f9f3709b","session_id":"6196c4a2860a3164bf54efa3","condition":"contingent","relevant_dimensions":["antennae","pattern"],"bee_group":{"antennae":"B","wings":"X","pattern":"D","legs":"X"},"action":"avoid","summary":"bad-avoid","bonus":0.560000000000001},{"rt":1094.7000000476837,"stimulus":"\n                    <p><b>Action: <em>avoid</em></b></p>\n                    <p>This is the bee that you just saw.</p>\n                    <img src=\"bees-with-color/bee-B2SF.svg\" width=\"200\">\n                    <p><br>Your bonus pay is unchanged, and remains at $0.52.</p>\n            ","response":0,"trial_type":"html-button-response","trial_index":62,"time_elapsed":292625,"internal_node_id":"0.0-4.0-1.27","subject_id":"5fe3792db939ed02b8c1d0f8","study_id":"60edd13110225f80f9f3709b","session_id":"6196c4a2860a3164bf54efa3","condition":"contingent","relevant_dimensions":["antennae","pattern"],"bee_group":{"antennae":"B","wings":"X","pattern":"D","legs":"X"},"bonus":0.560000000000001},{"rt":1462.300000011921,"stimulus":"bees-with-color/bee-B1DM.svg","response":0,"trial_type":"image-button-response","trial_index":63,"time_elapsed":294089,"internal_node_id":"0.0-4.0-0.28","subject_id":"5fe3792db939ed02b8c1d0f8","study_id":"60edd13110225f80f9f3709b","session_id":"6196c4a2860a3164bf54efa3","condition":"contingent","relevant_dimensions":["antennae","pattern"],"bee_group":{"antennae":"B","wings":"X","pattern":"D","legs":"X"},"action":"harvest","summary":"bad-harvest","bonus":0.560000000000001},{"rt":1821.5,"stimulus":"\n                    <p><b>Action: <em>harvest</em></b></p>\n                    <p>This is the bee that you just saw.</p>\n                    <img src=\"bees-with-color/bee-B1DM.svg\" width=\"200\">\n                    <p><span class=\"redText\">Bad choice, the bee was angry.</span><br><b>You have been stung!</b><br>Your pay has been decreased by $0.10. Your bonus pay is now $0.42.</p>\n            ","response":0,"trial_type":"html-button-response","trial_index":64,"time_elapsed":295913,"internal_node_id":"0.0-4.0-1.28","subject_id":"5fe3792db939ed02b8c1d0f8","study_id":"60edd13110225f80f9f3709b","session_id":"6196c4a2860a3164bf54efa3","condition":"contingent","relevant_dimensions":["antennae","pattern"],"bee_group":{"antennae":"B","wings":"X","pattern":"D","legs":"X"},"bonus":0.560000000000001},{"rt":1109.699999988079,"stimulus":"bees-with-color/bee-B2DF.svg","response":0,"trial_type":"image-button-response","trial_index":65,"time_elapsed":297024,"internal_node_id":"0.0-4.0-0.29","subject_id":"5fe3792db939ed02b8c1d0f8","study_id":"60edd13110225f80f9f3709b","session_id":"6196c4a2860a3164bf54efa3","condition":"contingent","relevant_dimensions":["antennae","pattern"],"bee_group":{"antennae":"B","wings":"X","pattern":"D","legs":"X"},"action":"harvest","summary":"bad-harvest","bonus":0.560000000000001},{"rt":1655.300000011921,"stimulus":"\n                    <p><b>Action: <em>harvest</em></b></p>\n                    <p>This is the bee that you just saw.</p>\n                    <img src=\"bees-with-color/bee-B2DF.svg\" width=\"200\">\n                    <p><span class=\"redText\">Bad choice, the bee was angry.</span><br><b>You have been stung!</b><br>Your pay has been decreased by $0.10. Your bonus pay is now $0.32.</p>\n            ","response":0,"trial_type":"html-button-response","trial_index":66,"time_elapsed":298681,"internal_node_id":"0.0-4.0-1.29","subject_id":"5fe3792db939ed02b8c1d0f8","study_id":"60edd13110225f80f9f3709b","session_id":"6196c4a2860a3164bf54efa3","condition":"contingent","relevant_dimensions":["antennae","pattern"],"bee_group":{"antennae":"B","wings":"X","pattern":"D","legs":"X"},"bonus":0.560000000000001},{"rt":1118.2000000476837,"stimulus":"bees-with-color/bee-A2DM.svg","response":0,"trial_type":"image-button-response","trial_index":67,"time_elapsed":299801,"internal_node_id":"0.0-4.0-0.30","subject_id":"5fe3792db939ed02b8c1d0f8","study_id":"60edd13110225f80f9f3709b","session_id":"6196c4a2860a3164bf54efa3","condition":"contingent","relevant_dimensions":["antennae","pattern"],"bee_group":{"antennae":"B","wings":"X","pattern":"D","legs":"X"},"action":"harvest","summary":"good-harvest","bonus":0.560000000000001},{"rt":1069.699999988079,"stimulus":"\n                    <p><b>Action: <em>harvest</em></b></p>\n                    <p>This is the bee that you just saw.</p>\n                    <img src=\"bees-with-color/bee-A2DM.svg\" width=\"200\">\n                    <p><span class=\"greenText\"><b>Successful harvest!</b></span><br>Your pay has increased by $0.02. Your bonus pay is now $0.34.</p>\n            ","response":0,"trial_type":"html-button-response","trial_index":68,"time_elapsed":300874,"internal_node_id":"0.0-4.0-1.30","subject_id":"5fe3792db939ed02b8c1d0f8","study_id":"60edd13110225f80f9f3709b","session_id":"6196c4a2860a3164bf54efa3","condition":"contingent","relevant_dimensions":["antennae","pattern"],"bee_group":{"antennae":"B","wings":"X","pattern":"D","legs":"X"},"bonus":0.560000000000001},{"rt":1622,"stimulus":"bees-with-color/bee-A2DF.svg","response":0,"trial_type":"image-button-response","trial_index":69,"time_elapsed":302498,"internal_node_id":"0.0-4.0-0.31","subject_id":"5fe3792db939ed02b8c1d0f8","study_id":"60edd13110225f80f9f3709b","session_id":"6196c4a2860a3164bf54efa3","condition":"contingent","relevant_dimensions":["antennae","pattern"],"bee_group":{"antennae":"B","wings":"X","pattern":"D","legs":"X"},"action":"harvest","summary":"good-harvest","bonus":0.560000000000001},{"rt":1119.1000000238419,"stimulus":"\n                    <p><b>Action: <em>harvest</em></b></p>\n                    <p>This is the bee that you just saw.</p>\n                    <img src=\"bees-with-color/bee-A2DF.svg\" width=\"200\">\n                    <p><span class=\"greenText\"><b>Successful harvest!</b></span><br>Your pay has increased by $0.02. Your bonus pay is now $0.36.</p>\n            ","response":0,"trial_type":"html-button-response","trial_index":70,"time_elapsed":303618,"internal_node_id":"0.0-4.0-1.31","subject_id":"5fe3792db939ed02b8c1d0f8","study_id":"60edd13110225f80f9f3709b","session_id":"6196c4a2860a3164bf54efa3","condition":"contingent","relevant_dimensions":["antennae","pattern"],"bee_group":{"antennae":"B","wings":"X","pattern":"D","legs":"X"},"bonus":0.560000000000001},{"rt":1853.4000000357628,"stimulus":"bees-with-color/bee-A2SM.svg","response":1,"trial_type":"image-button-response","trial_index":71,"time_elapsed":305474,"internal_node_id":"0.0-4.0-0.32","subject_id":"5fe3792db939ed02b8c1d0f8","study_id":"60edd13110225f80f9f3709b","session_id":"6196c4a2860a3164bf54efa3","condition":"contingent","relevant_dimensions":["antennae","pattern"],"bee_group":{"antennae":"B","wings":"X","pattern":"D","legs":"X"},"action":"avoid","summary":"bad-avoid","bonus":0.560000000000001},{"rt":966.3000000119209,"stimulus":"\n                    <p><b>Action: <em>avoid</em></b></p>\n                    <p>This is the bee that you just saw.</p>\n                    <img src=\"bees-with-color/bee-A2SM.svg\" width=\"200\">\n                    <p><br>Your bonus pay is unchanged, and remains at $0.36.</p>\n            ","response":0,"trial_type":"html-button-response","trial_index":72,"time_elapsed":306442,"internal_node_id":"0.0-4.0-1.32","subject_id":"5fe3792db939ed02b8c1d0f8","study_id":"60edd13110225f80f9f3709b","session_id":"6196c4a2860a3164bf54efa3","condition":"contingent","relevant_dimensions":["antennae","pattern"],"bee_group":{"antennae":"B","wings":"X","pattern":"D","legs":"X"},"bonus":0.560000000000001},{"rt":1477.8999999761581,"stimulus":"bees-with-color/bee-B1SM.svg","response":0,"trial_type":"image-button-response","trial_index":73,"time_elapsed":307921,"internal_node_id":"0.0-4.0-0.33","subject_id":"5fe3792db939ed02b8c1d0f8","study_id":"60edd13110225f80f9f3709b","session_id":"6196c4a2860a3164bf54efa3","condition":"contingent","relevant_dimensions":["antennae","pattern"],"bee_group":{"antennae":"B","wings":"X","pattern":"D","legs":"X"},"action":"harvest","summary":"good-harvest","bonus":0.560000000000001},{"rt":1390.699999988079,"stimulus":"\n                    <p><b>Action: <em>harvest</em></b></p>\n                    <p>This is the bee that you just saw.</p>\n                    <img src=\"bees-with-color/bee-B1SM.svg\" width=\"200\">\n                    <p><span class=\"greenText\"><b>Successful harvest!</b></span><br>Your pay has increased by $0.02. Your bonus pay is now $0.38.</p>\n            ","response":0,"trial_type":"html-button-response","trial_index":74,"time_elapsed":309314,"internal_node_id":"0.0-4.0-1.33","subject_id":"5fe3792db939ed02b8c1d0f8","study_id":"60edd13110225f80f9f3709b","session_id":"6196c4a2860a3164bf54efa3","condition":"contingent","relevant_dimensions":["antennae","pattern"],"bee_group":{"antennae":"B","wings":"X","pattern":"D","legs":"X"},"bonus":0.560000000000001},{"rt":5925.5,"stimulus":"bees-with-color/bee-A1SM.svg","response":0,"trial_type":"image-button-response","trial_index":75,"time_elapsed":315242,"internal_node_id":"0.0-4.0-0.34","subject_id":"5fe3792db939ed02b8c1d0f8","study_id":"60edd13110225f80f9f3709b","session_id":"6196c4a2860a3164bf54efa3","condition":"contingent","relevant_dimensions":["antennae","pattern"],"bee_group":{"antennae":"B","wings":"X","pattern":"D","legs":"X"},"action":"harvest","summary":"good-harvest","bonus":0.560000000000001},{"rt":997.3000000119209,"stimulus":"\n                    <p><b>Action: <em>harvest</em></b></p>\n                    <p>This is the bee that you just saw.</p>\n                    <img src=\"bees-with-color/bee-A1SM.svg\" width=\"200\">\n                    <p><span class=\"greenText\"><b>Successful harvest!</b></span><br>Your pay has increased by $0.02. Your bonus pay is now $0.40.</p>\n            ","response":0,"trial_type":"html-button-response","trial_index":76,"time_elapsed":316241,"internal_node_id":"0.0-4.0-1.34","subject_id":"5fe3792db939ed02b8c1d0f8","study_id":"60edd13110225f80f9f3709b","session_id":"6196c4a2860a3164bf54efa3","condition":"contingent","relevant_dimensions":["antennae","pattern"],"bee_group":{"antennae":"B","wings":"X","pattern":"D","legs":"X"},"bonus":0.560000000000001},{"rt":1766.199999988079,"stimulus":"bees-with-color/bee-B1DF.svg","response":1,"trial_type":"image-button-response","trial_index":77,"time_elapsed":318009,"internal_node_id":"0.0-4.0-0.35","subject_id":"5fe3792db939ed02b8c1d0f8","study_id":"60edd13110225f80f9f3709b","session_id":"6196c4a2860a3164bf54efa3","condition":"contingent","relevant_dimensions":["antennae","pattern"],"bee_group":{"antennae":"B","wings":"X","pattern":"D","legs":"X"},"action":"avoid","summary":"good-avoid","bonus":0.560000000000001},{"rt":902.9000000357628,"stimulus":"\n                    <p><b>Action: <em>avoid</em></b></p>\n                    <p>This is the bee that you just saw.</p>\n                    <img src=\"bees-with-color/bee-B1DF.svg\" width=\"200\">\n                    <p><br>Your bonus pay is unchanged, and remains at $0.40.</p>\n            ","response":0,"trial_type":"html-button-response","trial_index":78,"time_elapsed":318913,"internal_node_id":"0.0-4.0-1.35","subject_id":"5fe3792db939ed02b8c1d0f8","study_id":"60edd13110225f80f9f3709b","session_id":"6196c4a2860a3164bf54efa3","condition":"contingent","relevant_dimensions":["antennae","pattern"],"bee_group":{"antennae":"B","wings":"X","pattern":"D","legs":"X"},"bonus":0.560000000000001},{"rt":4078.600000023842,"stimulus":"bees-with-color/bee-A1DM.svg","response":0,"trial_type":"image-button-response","trial_index":79,"time_elapsed":322994,"internal_node_id":"0.0-4.0-0.36","subject_id":"5fe3792db939ed02b8c1d0f8","study_id":"60edd13110225f80f9f3709b","session_id":"6196c4a2860a3164bf54efa3","condition":"contingent","relevant_dimensions":["antennae","pattern"],"bee_group":{"antennae":"B","wings":"X","pattern":"D","legs":"X"},"action":"harvest","summary":"good-harvest","bonus":0.560000000000001},{"rt":831.0999999642372,"stimulus":"\n                    <p><b>Action: <em>harvest</em></b></p>\n                    <p>This is the bee that you just saw.</p>\n                    <img src=\"bees-with-color/bee-A1DM.svg\" width=\"200\">\n                    <p><span class=\"greenText\"><b>Successful harvest!</b></span><br>Your pay has increased by $0.02. Your bonus pay is now $0.42.</p>\n            ","response":0,"trial_type":"html-button-response","trial_index":80,"time_elapsed":323826,"internal_node_id":"0.0-4.0-1.36","subject_id":"5fe3792db939ed02b8c1d0f8","study_id":"60edd13110225f80f9f3709b","session_id":"6196c4a2860a3164bf54efa3","condition":"contingent","relevant_dimensions":["antennae","pattern"],"bee_group":{"antennae":"B","wings":"X","pattern":"D","legs":"X"},"bonus":0.560000000000001},{"rt":3332.900000035763,"stimulus":"bees-with-color/bee-B2SM.svg","response":0,"trial_type":"image-button-response","trial_index":81,"time_elapsed":327161,"internal_node_id":"0.0-4.0-0.37","subject_id":"5fe3792db939ed02b8c1d0f8","study_id":"60edd13110225f80f9f3709b","session_id":"6196c4a2860a3164bf54efa3","condition":"contingent","relevant_dimensions":["antennae","pattern"],"bee_group":{"antennae":"B","wings":"X","pattern":"D","legs":"X"},"action":"harvest","summary":"good-harvest","bonus":0.560000000000001},{"rt":966.4000000357628,"stimulus":"\n                    <p><b>Action: <em>harvest</em></b></p>\n                    <p>This is the bee that you just saw.</p>\n                    <img src=\"bees-with-color/bee-B2SM.svg\" width=\"200\">\n                    <p><span class=\"greenText\"><b>Successful harvest!</b></span><br>Your pay has increased by $0.02. Your bonus pay is now $0.44.</p>\n            ","response":0,"trial_type":"html-button-response","trial_index":82,"time_elapsed":328129,"internal_node_id":"0.0-4.0-1.37","subject_id":"5fe3792db939ed02b8c1d0f8","study_id":"60edd13110225f80f9f3709b","session_id":"6196c4a2860a3164bf54efa3","condition":"contingent","relevant_dimensions":["antennae","pattern"],"bee_group":{"antennae":"B","wings":"X","pattern":"D","legs":"X"},"bonus":0.560000000000001},{"rt":1374.5999999642372,"stimulus":"bees-with-color/bee-B1DM.svg","response":1,"trial_type":"image-button-response","trial_index":83,"time_elapsed":329506,"internal_node_id":"0.0-4.0-0.38","subject_id":"5fe3792db939ed02b8c1d0f8","study_id":"60edd13110225f80f9f3709b","session_id":"6196c4a2860a3164bf54efa3","condition":"contingent","relevant_dimensions":["antennae","pattern"],"bee_group":{"antennae":"B","wings":"X","pattern":"D","legs":"X"},"action":"avoid","summary":"good-avoid","bonus":0.560000000000001},{"rt":1246.5,"stimulus":"\n                    <p><b>Action: <em>avoid</em></b></p>\n                    <p>This is the bee that you just saw.</p>\n                    <img src=\"bees-with-color/bee-B1DM.svg\" width=\"200\">\n                    <p><br>Your bonus pay is unchanged, and remains at $0.44.</p>\n            ","response":0,"trial_type":"html-button-response","trial_index":84,"time_elapsed":330754,"internal_node_id":"0.0-4.0-1.38","subject_id":"5fe3792db939ed02b8c1d0f8","study_id":"60edd13110225f80f9f3709b","session_id":"6196c4a2860a3164bf54efa3","condition":"contingent","relevant_dimensions":["antennae","pattern"],"bee_group":{"antennae":"B","wings":"X","pattern":"D","legs":"X"},"bonus":0.560000000000001},{"rt":1670.5999999642372,"stimulus":"bees-with-color/bee-B2SF.svg","response":0,"trial_type":"image-button-response","trial_index":85,"time_elapsed":332426,"internal_node_id":"0.0-4.0-0.39","subject_id":"5fe3792db939ed02b8c1d0f8","study_id":"60edd13110225f80f9f3709b","session_id":"6196c4a2860a3164bf54efa3","condition":"contingent","relevant_dimensions":["antennae","pattern"],"bee_group":{"antennae":"B","wings":"X","pattern":"D","legs":"X"},"action":"harvest","summary":"good-harvest","bonus":0.560000000000001},{"rt":1270.800000011921,"stimulus":"\n                    <p><b>Action: <em>harvest</em></b></p>\n                    <p>This is the bee that you just saw.</p>\n                    <img src=\"bees-with-color/bee-B2SF.svg\" width=\"200\">\n                    <p><span class=\"greenText\"><b>Successful harvest!</b></span><br>Your pay has increased by $0.02. Your bonus pay is now $0.46.</p>\n            ","response":0,"trial_type":"html-button-response","trial_index":86,"time_elapsed":333698,"internal_node_id":"0.0-4.0-1.39","subject_id":"5fe3792db939ed02b8c1d0f8","study_id":"60edd13110225f80f9f3709b","session_id":"6196c4a2860a3164bf54efa3","condition":"contingent","relevant_dimensions":["antennae","pattern"],"bee_group":{"antennae":"B","wings":"X","pattern":"D","legs":"X"},"bonus":0.560000000000001},{"rt":1637.300000011921,"stimulus":"bees-with-color/bee-A2DF.svg","response":0,"trial_type":"image-button-response","trial_index":87,"time_elapsed":335337,"internal_node_id":"0.0-4.0-0.40","subject_id":"5fe3792db939ed02b8c1d0f8","study_id":"60edd13110225f80f9f3709b","session_id":"6196c4a2860a3164bf54efa3","condition":"contingent","relevant_dimensions":["antennae","pattern"],"bee_group":{"antennae":"B","wings":"X","pattern":"D","legs":"X"},"action":"harvest","summary":"good-harvest","bonus":0.560000000000001},{"rt":1359.3999999761581,"stimulus":"\n                    <p><b>Action: <em>harvest</em></b></p>\n                    <p>This is the bee that you just saw.</p>\n                    <img src=\"bees-with-color/bee-A2DF.svg\" width=\"200\">\n                    <p><span class=\"greenText\"><b>Successful harvest!</b></span><br>Your pay has increased by $0.02. Your bonus pay is now $0.48.</p>\n            ","response":0,"trial_type":"html-button-response","trial_index":88,"time_elapsed":336698,"internal_node_id":"0.0-4.0-1.40","subject_id":"5fe3792db939ed02b8c1d0f8","study_id":"60edd13110225f80f9f3709b","session_id":"6196c4a2860a3164bf54efa3","condition":"contingent","relevant_dimensions":["antennae","pattern"],"bee_group":{"antennae":"B","wings":"X","pattern":"D","legs":"X"},"bonus":0.560000000000001},{"rt":1718.199999988079,"stimulus":"bees-with-color/bee-B2DF.svg","response":1,"trial_type":"image-button-response","trial_index":89,"time_elapsed":338417,"internal_node_id":"0.0-4.0-0.41","subject_id":"5fe3792db939ed02b8c1d0f8","study_id":"60edd13110225f80f9f3709b","session_id":"6196c4a2860a3164bf54efa3","condition":"contingent","relevant_dimensions":["antennae","pattern"],"bee_group":{"antennae":"B","wings":"X","pattern":"D","legs":"X"},"action":"avoid","summary":"good-avoid","bonus":0.560000000000001},{"rt":1527.300000011921,"stimulus":"\n                    <p><b>Action: <em>avoid</em></b></p>\n                    <p>This is the bee that you just saw.</p>\n                    <img src=\"bees-with-color/bee-B2DF.svg\" width=\"200\">\n                    <p><br>Your bonus pay is unchanged, and remains at $0.48.</p>\n            ","response":0,"trial_type":"html-button-response","trial_index":90,"time_elapsed":339946,"internal_node_id":"0.0-4.0-1.41","subject_id":"5fe3792db939ed02b8c1d0f8","study_id":"60edd13110225f80f9f3709b","session_id":"6196c4a2860a3164bf54efa3","condition":"contingent","relevant_dimensions":["antennae","pattern"],"bee_group":{"antennae":"B","wings":"X","pattern":"D","legs":"X"},"bonus":0.560000000000001},{"rt":2253.600000023842,"stimulus":"bees-with-color/bee-B2DM.svg","response":0,"trial_type":"image-button-response","trial_index":91,"time_elapsed":342202,"internal_node_id":"0.0-4.0-0.42","subject_id":"5fe3792db939ed02b8c1d0f8","study_id":"60edd13110225f80f9f3709b","session_id":"6196c4a2860a3164bf54efa3","condition":"contingent","relevant_dimensions":["antennae","pattern"],"bee_group":{"antennae":"B","wings":"X","pattern":"D","legs":"X"},"action":"harvest","summary":"bad-harvest","bonus":0.560000000000001},{"rt":1238.2000000476837,"stimulus":"\n                    <p><b>Action: <em>harvest</em></b></p>\n                    <p>This is the bee that you just saw.</p>\n                    <img src=\"bees-with-color/bee-B2DM.svg\" width=\"200\">\n                    <p><span class=\"redText\">Bad choice, the bee was angry.</span><br><b>You have been stung!</b><br>Your pay has been decreased by $0.10. Your bonus pay is now $0.38.</p>\n            ","response":0,"trial_type":"html-button-response","trial_index":92,"time_elapsed":343442,"internal_node_id":"0.0-4.0-1.42","subject_id":"5fe3792db939ed02b8c1d0f8","study_id":"60edd13110225f80f9f3709b","session_id":"6196c4a2860a3164bf54efa3","condition":"contingent","relevant_dimensions":["antennae","pattern"],"bee_group":{"antennae":"B","wings":"X","pattern":"D","legs":"X"},"bonus":0.560000000000001},{"rt":1166,"stimulus":"bees-with-color/bee-A1SF.svg","response":0,"trial_type":"image-button-response","trial_index":93,"time_elapsed":344610,"internal_node_id":"0.0-4.0-0.43","subject_id":"5fe3792db939ed02b8c1d0f8","study_id":"60edd13110225f80f9f3709b","session_id":"6196c4a2860a3164bf54efa3","condition":"contingent","relevant_dimensions":["antennae","pattern"],"bee_group":{"antennae":"B","wings":"X","pattern":"D","legs":"X"},"action":"harvest","summary":"good-harvest","bonus":0.560000000000001},{"rt":973.6999999880791,"stimulus":"\n                    <p><b>Action: <em>harvest</em></b></p>\n                    <p>This is the bee that you just saw.</p>\n                    <img src=\"bees-with-color/bee-A1SF.svg\" width=\"200\">\n                    <p><span class=\"greenText\"><b>Successful harvest!</b></span><br>Your pay has increased by $0.02. Your bonus pay is now $0.40.</p>\n            ","response":0,"trial_type":"html-button-response","trial_index":94,"time_elapsed":345585,"internal_node_id":"0.0-4.0-1.43","subject_id":"5fe3792db939ed02b8c1d0f8","study_id":"60edd13110225f80f9f3709b","session_id":"6196c4a2860a3164bf54efa3","condition":"contingent","relevant_dimensions":["antennae","pattern"],"bee_group":{"antennae":"B","wings":"X","pattern":"D","legs":"X"},"bonus":0.560000000000001},{"rt":1166.5,"stimulus":"bees-with-color/bee-B1SF.svg","response":1,"trial_type":"image-button-response","trial_index":95,"time_elapsed":346754,"internal_node_id":"0.0-4.0-0.44","subject_id":"5fe3792db939ed02b8c1d0f8","study_id":"60edd13110225f80f9f3709b","session_id":"6196c4a2860a3164bf54efa3","condition":"contingent","relevant_dimensions":["antennae","pattern"],"bee_group":{"antennae":"B","wings":"X","pattern":"D","legs":"X"},"action":"avoid","summary":"bad-avoid","bonus":0.560000000000001},{"rt":718.1000000238419,"stimulus":"\n                    <p><b>Action: <em>avoid</em></b></p>\n                    <p>This is the bee that you just saw.</p>\n                    <img src=\"bees-with-color/bee-B1SF.svg\" width=\"200\">\n                    <p><br>Your bonus pay is unchanged, and remains at $0.40.</p>\n            ","response":0,"trial_type":"html-button-response","trial_index":96,"time_elapsed":347473,"internal_node_id":"0.0-4.0-1.44","subject_id":"5fe3792db939ed02b8c1d0f8","study_id":"60edd13110225f80f9f3709b","session_id":"6196c4a2860a3164bf54efa3","condition":"contingent","relevant_dimensions":["antennae","pattern"],"bee_group":{"antennae":"B","wings":"X","pattern":"D","legs":"X"},"bonus":0.560000000000001},{"rt":1206.699999988079,"stimulus":"bees-with-color/bee-A1DF.svg","response":0,"trial_type":"image-button-response","trial_index":97,"time_elapsed":348681,"internal_node_id":"0.0-4.0-0.45","subject_id":"5fe3792db939ed02b8c1d0f8","study_id":"60edd13110225f80f9f3709b","session_id":"6196c4a2860a3164bf54efa3","condition":"contingent","relevant_dimensions":["antennae","pattern"],"bee_group":{"antennae":"B","wings":"X","pattern":"D","legs":"X"},"action":"harvest","summary":"good-harvest","bonus":0.560000000000001},{"rt":918.3999999761581,"stimulus":"\n                    <p><b>Action: <em>harvest</em></b></p>\n                    <p>This is the bee that you just saw.</p>\n                    <img src=\"bees-with-color/bee-A1DF.svg\" width=\"200\">\n                    <p><span class=\"greenText\"><b>Successful harvest!</b></span><br>Your pay has increased by $0.02. Your bonus pay is now $0.42.</p>\n            ","response":0,"trial_type":"html-button-response","trial_index":98,"time_elapsed":349601,"internal_node_id":"0.0-4.0-1.45","subject_id":"5fe3792db939ed02b8c1d0f8","study_id":"60edd13110225f80f9f3709b","session_id":"6196c4a2860a3164bf54efa3","condition":"contingent","relevant_dimensions":["antennae","pattern"],"bee_group":{"antennae":"B","wings":"X","pattern":"D","legs":"X"},"bonus":0.560000000000001},{"rt":1391.800000011921,"stimulus":"bees-with-color/bee-A2SF.svg","response":0,"trial_type":"image-button-response","trial_index":99,"time_elapsed":350994,"internal_node_id":"0.0-4.0-0.46","subject_id":"5fe3792db939ed02b8c1d0f8","study_id":"60edd13110225f80f9f3709b","session_id":"6196c4a2860a3164bf54efa3","condition":"contingent","relevant_dimensions":["antennae","pattern"],"bee_group":{"antennae":"B","wings":"X","pattern":"D","legs":"X"},"action":"harvest","summary":"good-harvest","bonus":0.560000000000001},{"rt":1133.2999999523163,"stimulus":"\n                    <p><b>Action: <em>harvest</em></b></p>\n                    <p>This is the bee that you just saw.</p>\n                    <img src=\"bees-with-color/bee-A2SF.svg\" width=\"200\">\n                    <p><span class=\"greenText\"><b>Successful harvest!</b></span><br>Your pay has increased by $0.02. Your bonus pay is now $0.44.</p>\n            ","response":0,"trial_type":"html-button-response","trial_index":100,"time_elapsed":352129,"internal_node_id":"0.0-4.0-1.46","subject_id":"5fe3792db939ed02b8c1d0f8","study_id":"60edd13110225f80f9f3709b","session_id":"6196c4a2860a3164bf54efa3","condition":"contingent","relevant_dimensions":["antennae","pattern"],"bee_group":{"antennae":"B","wings":"X","pattern":"D","legs":"X"},"bonus":0.560000000000001},{"rt":2975,"stimulus":"bees-with-color/bee-A2DM.svg","response":1,"trial_type":"image-button-response","trial_index":101,"time_elapsed":355105,"internal_node_id":"0.0-4.0-0.47","subject_id":"5fe3792db939ed02b8c1d0f8","study_id":"60edd13110225f80f9f3709b","session_id":"6196c4a2860a3164bf54efa3","condition":"contingent","relevant_dimensions":["antennae","pattern"],"bee_group":{"antennae":"B","wings":"X","pattern":"D","legs":"X"},"action":"avoid","summary":"bad-avoid","bonus":0.560000000000001},{"rt":1031.300000011921,"stimulus":"\n                    <p><b>Action: <em>avoid</em></b></p>\n                    <p>This is the bee that you just saw.</p>\n                    <img src=\"bees-with-color/bee-A2DM.svg\" width=\"200\">\n                    <p><br>Your bonus pay is unchanged, and remains at $0.44.</p>\n            ","response":0,"trial_type":"html-button-response","trial_index":102,"time_elapsed":356137,"internal_node_id":"0.0-4.0-1.47","subject_id":"5fe3792db939ed02b8c1d0f8","study_id":"60edd13110225f80f9f3709b","session_id":"6196c4a2860a3164bf54efa3","condition":"contingent","relevant_dimensions":["antennae","pattern"],"bee_group":{"antennae":"B","wings":"X","pattern":"D","legs":"X"},"bonus":0.560000000000001},{"rt":2446.699999988079,"stimulus":"bees-with-color/bee-A1SM.svg","response":0,"trial_type":"image-button-response","trial_index":103,"time_elapsed":358586,"internal_node_id":"0.0-4.0-0.48","subject_id":"5fe3792db939ed02b8c1d0f8","study_id":"60edd13110225f80f9f3709b","session_id":"6196c4a2860a3164bf54efa3","condition":"contingent","relevant_dimensions":["antennae","pattern"],"bee_group":{"antennae":"B","wings":"X","pattern":"D","legs":"X"},"action":"harvest","summary":"good-harvest","bonus":0.560000000000001},{"rt":958,"stimulus":"\n                    <p><b>Action: <em>harvest</em></b></p>\n                    <p>This is the bee that you just saw.</p>\n                    <img src=\"bees-with-color/bee-A1SM.svg\" width=\"200\">\n                    <p><span class=\"greenText\"><b>Successful harvest!</b></span><br>Your pay has increased by $0.02. Your bonus pay is now $0.46.</p>\n            ","response":0,"trial_type":"html-button-response","trial_index":104,"time_elapsed":359546,"internal_node_id":"0.0-4.0-1.48","subject_id":"5fe3792db939ed02b8c1d0f8","study_id":"60edd13110225f80f9f3709b","session_id":"6196c4a2860a3164bf54efa3","condition":"contingent","relevant_dimensions":["antennae","pattern"],"bee_group":{"antennae":"B","wings":"X","pattern":"D","legs":"X"},"bonus":0.560000000000001},{"rt":3437.600000023842,"stimulus":"bees-with-color/bee-A1DM.svg","response":1,"trial_type":"image-button-response","trial_index":105,"time_elapsed":362985,"internal_node_id":"0.0-4.0-0.49","subject_id":"5fe3792db939ed02b8c1d0f8","study_id":"60edd13110225f80f9f3709b","session_id":"6196c4a2860a3164bf54efa3","condition":"contingent","relevant_dimensions":["antennae","pattern"],"bee_group":{"antennae":"B","wings":"X","pattern":"D","legs":"X"},"action":"avoid","summary":"bad-avoid","bonus":0.560000000000001},{"rt":743.5999999642372,"stimulus":"\n                    <p><b>Action: <em>avoid</em></b></p>\n                    <p>This is the bee that you just saw.</p>\n                    <img src=\"bees-with-color/bee-A1DM.svg\" width=\"200\">\n                    <p><br>Your bonus pay is unchanged, and remains at $0.46.</p>\n            ","response":0,"trial_type":"html-button-response","trial_index":106,"time_elapsed":363730,"internal_node_id":"0.0-4.0-1.49","subject_id":"5fe3792db939ed02b8c1d0f8","study_id":"60edd13110225f80f9f3709b","session_id":"6196c4a2860a3164bf54efa3","condition":"contingent","relevant_dimensions":["antennae","pattern"],"bee_group":{"antennae":"B","wings":"X","pattern":"D","legs":"X"},"bonus":0.560000000000001},{"rt":1205.699999988079,"stimulus":"bees-with-color/bee-B2SF.svg","response":0,"trial_type":"image-button-response","trial_index":107,"time_elapsed":364937,"internal_node_id":"0.0-4.0-0.50","subject_id":"5fe3792db939ed02b8c1d0f8","study_id":"60edd13110225f80f9f3709b","session_id":"6196c4a2860a3164bf54efa3","condition":"contingent","relevant_dimensions":["antennae","pattern"],"bee_group":{"antennae":"B","wings":"X","pattern":"D","legs":"X"},"action":"harvest","summary":"good-harvest","bonus":0.560000000000001},{"rt":1038.199999988079,"stimulus":"\n                    <p><b>Action: <em>harvest</em></b></p>\n                    <p>This is the bee that you just saw.</p>\n                    <img src=\"bees-with-color/bee-B2SF.svg\" width=\"200\">\n                    <p><span class=\"greenText\"><b>Successful harvest!</b></span><br>Your pay has increased by $0.02. Your bonus pay is now $0.48.</p>\n            ","response":0,"trial_type":"html-button-response","trial_index":108,"time_elapsed":365977,"internal_node_id":"0.0-4.0-1.50","subject_id":"5fe3792db939ed02b8c1d0f8","study_id":"60edd13110225f80f9f3709b","session_id":"6196c4a2860a3164bf54efa3","condition":"contingent","relevant_dimensions":["antennae","pattern"],"bee_group":{"antennae":"B","wings":"X","pattern":"D","legs":"X"},"bonus":0.560000000000001},{"rt":2399,"stimulus":"bees-with-color/bee-B1DM.svg","response":1,"trial_type":"image-button-response","trial_index":109,"time_elapsed":368377,"internal_node_id":"0.0-4.0-0.51","subject_id":"5fe3792db939ed02b8c1d0f8","study_id":"60edd13110225f80f9f3709b","session_id":"6196c4a2860a3164bf54efa3","condition":"contingent","relevant_dimensions":["antennae","pattern"],"bee_group":{"antennae":"B","wings":"X","pattern":"D","legs":"X"},"action":"avoid","summary":"good-avoid","bonus":0.560000000000001},{"rt":1654.5,"stimulus":"\n                    <p><b>Action: <em>avoid</em></b></p>\n                    <p>This is the bee that you just saw.</p>\n                    <img src=\"bees-with-color/bee-B1DM.svg\" width=\"200\">\n                    <p><br>Your bonus pay is unchanged, and remains at $0.48.</p>\n            ","response":0,"trial_type":"html-button-response","trial_index":110,"time_elapsed":370033,"internal_node_id":"0.0-4.0-1.51","subject_id":"5fe3792db939ed02b8c1d0f8","study_id":"60edd13110225f80f9f3709b","session_id":"6196c4a2860a3164bf54efa3","condition":"contingent","relevant_dimensions":["antennae","pattern"],"bee_group":{"antennae":"B","wings":"X","pattern":"D","legs":"X"},"bonus":0.560000000000001},{"rt":2350.7000000476837,"stimulus":"bees-with-color/bee-B2SM.svg","response":1,"trial_type":"image-button-response","trial_index":111,"time_elapsed":372385,"internal_node_id":"0.0-4.0-0.52","subject_id":"5fe3792db939ed02b8c1d0f8","study_id":"60edd13110225f80f9f3709b","session_id":"6196c4a2860a3164bf54efa3","condition":"contingent","relevant_dimensions":["antennae","pattern"],"bee_group":{"antennae":"B","wings":"X","pattern":"D","legs":"X"},"action":"avoid","summary":"bad-avoid","bonus":0.560000000000001},{"rt":766.6999999880791,"stimulus":"\n                    <p><b>Action: <em>avoid</em></b></p>\n                    <p>This is the bee that you just saw.</p>\n                    <img src=\"bees-with-color/bee-B2SM.svg\" width=\"200\">\n                    <p><br>Your bonus pay is unchanged, and remains at $0.48.</p>\n            ","response":0,"trial_type":"html-button-response","trial_index":112,"time_elapsed":373153,"internal_node_id":"0.0-4.0-1.52","subject_id":"5fe3792db939ed02b8c1d0f8","study_id":"60edd13110225f80f9f3709b","session_id":"6196c4a2860a3164bf54efa3","condition":"contingent","relevant_dimensions":["antennae","pattern"],"bee_group":{"antennae":"B","wings":"X","pattern":"D","legs":"X"},"bonus":0.560000000000001},{"rt":1213.8999999761581,"stimulus":"bees-with-color/bee-A2DF.svg","response":0,"trial_type":"image-button-response","trial_index":113,"time_elapsed":374369,"internal_node_id":"0.0-4.0-0.53","subject_id":"5fe3792db939ed02b8c1d0f8","study_id":"60edd13110225f80f9f3709b","session_id":"6196c4a2860a3164bf54efa3","condition":"contingent","relevant_dimensions":["antennae","pattern"],"bee_group":{"antennae":"B","wings":"X","pattern":"D","legs":"X"},"action":"harvest","summary":"good-harvest","bonus":0.560000000000001},{"rt":1726.300000011921,"stimulus":"\n                    <p><b>Action: <em>harvest</em></b></p>\n                    <p>This is the bee that you just saw.</p>\n                    <img src=\"bees-with-color/bee-A2DF.svg\" width=\"200\">\n                    <p><span class=\"greenText\"><b>Successful harvest!</b></span><br>Your pay has increased by $0.02. Your bonus pay is now $0.50.</p>\n            ","response":0,"trial_type":"html-button-response","trial_index":114,"time_elapsed":376097,"internal_node_id":"0.0-4.0-1.53","subject_id":"5fe3792db939ed02b8c1d0f8","study_id":"60edd13110225f80f9f3709b","session_id":"6196c4a2860a3164bf54efa3","condition":"contingent","relevant_dimensions":["antennae","pattern"],"bee_group":{"antennae":"B","wings":"X","pattern":"D","legs":"X"},"bonus":0.560000000000001},{"rt":2126.5,"stimulus":"bees-with-color/bee-A2DM.svg","response":1,"trial_type":"image-button-response","trial_index":115,"time_elapsed":378225,"internal_node_id":"0.0-4.0-0.54","subject_id":"5fe3792db939ed02b8c1d0f8","study_id":"60edd13110225f80f9f3709b","session_id":"6196c4a2860a3164bf54efa3","condition":"contingent","relevant_dimensions":["antennae","pattern"],"bee_group":{"antennae":"B","wings":"X","pattern":"D","legs":"X"},"action":"avoid","summary":"bad-avoid","bonus":0.560000000000001},{"rt":1015.5,"stimulus":"\n                    <p><b>Action: <em>avoid</em></b></p>\n                    <p>This is the bee that you just saw.</p>\n                    <img src=\"bees-with-color/bee-A2DM.svg\" width=\"200\">\n                    <p><br>Your bonus pay is unchanged, and remains at $0.50.</p>\n            ","response":0,"trial_type":"html-button-response","trial_index":116,"time_elapsed":379242,"internal_node_id":"0.0-4.0-1.54","subject_id":"5fe3792db939ed02b8c1d0f8","study_id":"60edd13110225f80f9f3709b","session_id":"6196c4a2860a3164bf54efa3","condition":"contingent","relevant_dimensions":["antennae","pattern"],"bee_group":{"antennae":"B","wings":"X","pattern":"D","legs":"X"},"bonus":0.560000000000001},{"rt":4005.7000000476837,"stimulus":"bees-with-color/bee-B2DM.svg","response":1,"trial_type":"image-button-response","trial_index":117,"time_elapsed":383250,"internal_node_id":"0.0-4.0-0.55","subject_id":"5fe3792db939ed02b8c1d0f8","study_id":"60edd13110225f80f9f3709b","session_id":"6196c4a2860a3164bf54efa3","condition":"contingent","relevant_dimensions":["antennae","pattern"],"bee_group":{"antennae":"B","wings":"X","pattern":"D","legs":"X"},"action":"avoid","summary":"good-avoid","bonus":0.560000000000001},{"rt":813.1000000238419,"stimulus":"\n                    <p><b>Action: <em>avoid</em></b></p>\n                    <p>This is the bee that you just saw.</p>\n                    <img src=\"bees-with-color/bee-B2DM.svg\" width=\"200\">\n                    <p><br>Your bonus pay is unchanged, and remains at $0.50.</p>\n            ","response":0,"trial_type":"html-button-response","trial_index":118,"time_elapsed":384065,"internal_node_id":"0.0-4.0-1.55","subject_id":"5fe3792db939ed02b8c1d0f8","study_id":"60edd13110225f80f9f3709b","session_id":"6196c4a2860a3164bf54efa3","condition":"contingent","relevant_dimensions":["antennae","pattern"],"bee_group":{"antennae":"B","wings":"X","pattern":"D","legs":"X"},"bonus":0.560000000000001},{"rt":1542.3999999761581,"stimulus":"bees-with-color/bee-B1SM.svg","response":1,"trial_type":"image-button-response","trial_index":119,"time_elapsed":385609,"internal_node_id":"0.0-4.0-0.56","subject_id":"5fe3792db939ed02b8c1d0f8","study_id":"60edd13110225f80f9f3709b","session_id":"6196c4a2860a3164bf54efa3","condition":"contingent","relevant_dimensions":["antennae","pattern"],"bee_group":{"antennae":"B","wings":"X","pattern":"D","legs":"X"},"action":"avoid","summary":"bad-avoid","bonus":0.560000000000001},{"rt":798.5,"stimulus":"\n                    <p><b>Action: <em>avoid</em></b></p>\n                    <p>This is the bee that you just saw.</p>\n                    <img src=\"bees-with-color/bee-B1SM.svg\" width=\"200\">\n                    <p><br>Your bonus pay is unchanged, and remains at $0.50.</p>\n            ","response":0,"trial_type":"html-button-response","trial_index":120,"time_elapsed":386409,"internal_node_id":"0.0-4.0-1.56","subject_id":"5fe3792db939ed02b8c1d0f8","study_id":"60edd13110225f80f9f3709b","session_id":"6196c4a2860a3164bf54efa3","condition":"contingent","relevant_dimensions":["antennae","pattern"],"bee_group":{"antennae":"B","wings":"X","pattern":"D","legs":"X"},"bonus":0.560000000000001},{"rt":1567.199999988079,"stimulus":"bees-with-color/bee-B2DF.svg","response":1,"trial_type":"image-button-response","trial_index":121,"time_elapsed":387977,"internal_node_id":"0.0-4.0-0.57","subject_id":"5fe3792db939ed02b8c1d0f8","study_id":"60edd13110225f80f9f3709b","session_id":"6196c4a2860a3164bf54efa3","condition":"contingent","relevant_dimensions":["antennae","pattern"],"bee_group":{"antennae":"B","wings":"X","pattern":"D","legs":"X"},"action":"avoid","summary":"good-avoid","bonus":0.560000000000001},{"rt":671.0999999642372,"stimulus":"\n                    <p><b>Action: <em>avoid</em></b></p>\n                    <p>This is the bee that you just saw.</p>\n                    <img src=\"bees-with-color/bee-B2DF.svg\" width=\"200\">\n                    <p><br>Your bonus pay is unchanged, and remains at $0.50.</p>\n            ","response":0,"trial_type":"html-button-response","trial_index":122,"time_elapsed":388649,"internal_node_id":"0.0-4.0-1.57","subject_id":"5fe3792db939ed02b8c1d0f8","study_id":"60edd13110225f80f9f3709b","session_id":"6196c4a2860a3164bf54efa3","condition":"contingent","relevant_dimensions":["antennae","pattern"],"bee_group":{"antennae":"B","wings":"X","pattern":"D","legs":"X"},"bonus":0.560000000000001},{"rt":878.6999999880791,"stimulus":"bees-with-color/bee-A2SF.svg","response":0,"trial_type":"image-button-response","trial_index":123,"time_elapsed":389529,"internal_node_id":"0.0-4.0-0.58","subject_id":"5fe3792db939ed02b8c1d0f8","study_id":"60edd13110225f80f9f3709b","session_id":"6196c4a2860a3164bf54efa3","condition":"contingent","relevant_dimensions":["antennae","pattern"],"bee_group":{"antennae":"B","wings":"X","pattern":"D","legs":"X"},"action":"harvest","summary":"good-harvest","bonus":0.560000000000001},{"rt":935.1000000238419,"stimulus":"\n                    <p><b>Action: <em>harvest</em></b></p>\n                    <p>This is the bee that you just saw.</p>\n                    <img src=\"bees-with-color/bee-A2SF.svg\" width=\"200\">\n                    <p><span class=\"greenText\"><b>Successful harvest!</b></span><br>Your pay has increased by $0.02. Your bonus pay is now $0.52.</p>\n            ","response":0,"trial_type":"html-button-response","trial_index":124,"time_elapsed":390465,"internal_node_id":"0.0-4.0-1.58","subject_id":"5fe3792db939ed02b8c1d0f8","study_id":"60edd13110225f80f9f3709b","session_id":"6196c4a2860a3164bf54efa3","condition":"contingent","relevant_dimensions":["antennae","pattern"],"bee_group":{"antennae":"B","wings":"X","pattern":"D","legs":"X"},"bonus":0.560000000000001},{"rt":2654.399999976158,"stimulus":"bees-with-color/bee-B1SF.svg","response":1,"trial_type":"image-button-response","trial_index":125,"time_elapsed":393121,"internal_node_id":"0.0-4.0-0.59","subject_id":"5fe3792db939ed02b8c1d0f8","study_id":"60edd13110225f80f9f3709b","session_id":"6196c4a2860a3164bf54efa3","condition":"contingent","relevant_dimensions":["antennae","pattern"],"bee_group":{"antennae":"B","wings":"X","pattern":"D","legs":"X"},"action":"avoid","summary":"bad-avoid","bonus":0.560000000000001},{"rt":695,"stimulus":"\n                    <p><b>Action: <em>avoid</em></b></p>\n                    <p>This is the bee that you just saw.</p>\n                    <img src=\"bees-with-color/bee-B1SF.svg\" width=\"200\">\n                    <p><br>Your bonus pay is unchanged, and remains at $0.52.</p>\n            ","response":0,"trial_type":"html-button-response","trial_index":126,"time_elapsed":393817,"internal_node_id":"0.0-4.0-1.59","subject_id":"5fe3792db939ed02b8c1d0f8","study_id":"60edd13110225f80f9f3709b","session_id":"6196c4a2860a3164bf54efa3","condition":"contingent","relevant_dimensions":["antennae","pattern"],"bee_group":{"antennae":"B","wings":"X","pattern":"D","legs":"X"},"bonus":0.560000000000001},{"rt":1661.800000011921,"stimulus":"bees-with-color/bee-B1DF.svg","response":1,"trial_type":"image-button-response","trial_index":127,"time_elapsed":395481,"internal_node_id":"0.0-4.0-0.60","subject_id":"5fe3792db939ed02b8c1d0f8","study_id":"60edd13110225f80f9f3709b","session_id":"6196c4a2860a3164bf54efa3","condition":"contingent","relevant_dimensions":["antennae","pattern"],"bee_group":{"antennae":"B","wings":"X","pattern":"D","legs":"X"},"action":"avoid","summary":"good-avoid","bonus":0.560000000000001},{"rt":742.6999999880791,"stimulus":"\n                    <p><b>Action: <em>avoid</em></b></p>\n                    <p>This is the bee that you just saw.</p>\n                    <img src=\"bees-with-color/bee-B1DF.svg\" width=\"200\">\n                    <p><br>Your bonus pay is unchanged, and remains at $0.52.</p>\n            ","response":0,"trial_type":"html-button-response","trial_index":128,"time_elapsed":396225,"internal_node_id":"0.0-4.0-1.60","subject_id":"5fe3792db939ed02b8c1d0f8","study_id":"60edd13110225f80f9f3709b","session_id":"6196c4a2860a3164bf54efa3","condition":"contingent","relevant_dimensions":["antennae","pattern"],"bee_group":{"antennae":"B","wings":"X","pattern":"D","legs":"X"},"bonus":0.560000000000001},{"rt":2159.599999964237,"stimulus":"bees-with-color/bee-A1DF.svg","response":0,"trial_type":"image-button-response","trial_index":129,"time_elapsed":398386,"internal_node_id":"0.0-4.0-0.61","subject_id":"5fe3792db939ed02b8c1d0f8","study_id":"60edd13110225f80f9f3709b","session_id":"6196c4a2860a3164bf54efa3","condition":"contingent","relevant_dimensions":["antennae","pattern"],"bee_group":{"antennae":"B","wings":"X","pattern":"D","legs":"X"},"action":"harvest","summary":"good-harvest","bonus":0.560000000000001},{"rt":1069.699999988079,"stimulus":"\n                    <p><b>Action: <em>harvest</em></b></p>\n                    <p>This is the bee that you just saw.</p>\n                    <img src=\"bees-with-color/bee-A1DF.svg\" width=\"200\">\n                    <p><span class=\"greenText\"><b>Successful harvest!</b></span><br>Your pay has increased by $0.02. Your bonus pay is now $0.54.</p>\n            ","response":0,"trial_type":"html-button-response","trial_index":130,"time_elapsed":399457,"internal_node_id":"0.0-4.0-1.61","subject_id":"5fe3792db939ed02b8c1d0f8","study_id":"60edd13110225f80f9f3709b","session_id":"6196c4a2860a3164bf54efa3","condition":"contingent","relevant_dimensions":["antennae","pattern"],"bee_group":{"antennae":"B","wings":"X","pattern":"D","legs":"X"},"bonus":0.560000000000001},{"rt":2590.399999976158,"stimulus":"bees-with-color/bee-A1SF.svg","response":1,"trial_type":"image-button-response","trial_index":131,"time_elapsed":402049,"internal_node_id":"0.0-4.0-0.62","subject_id":"5fe3792db939ed02b8c1d0f8","study_id":"60edd13110225f80f9f3709b","session_id":"6196c4a2860a3164bf54efa3","condition":"contingent","relevant_dimensions":["antennae","pattern"],"bee_group":{"antennae":"B","wings":"X","pattern":"D","legs":"X"},"action":"avoid","summary":"bad-avoid","bonus":0.560000000000001},{"rt":838.9000000357628,"stimulus":"\n                    <p><b>Action: <em>avoid</em></b></p>\n                    <p>This is the bee that you just saw.</p>\n                    <img src=\"bees-with-color/bee-A1SF.svg\" width=\"200\">\n                    <p><br>Your bonus pay is unchanged, and remains at $0.54.</p>\n            ","response":0,"trial_type":"html-button-response","trial_index":132,"time_elapsed":402889,"internal_node_id":"0.0-4.0-1.62","subject_id":"5fe3792db939ed02b8c1d0f8","study_id":"60edd13110225f80f9f3709b","session_id":"6196c4a2860a3164bf54efa3","condition":"contingent","relevant_dimensions":["antennae","pattern"],"bee_group":{"antennae":"B","wings":"X","pattern":"D","legs":"X"},"bonus":0.560000000000001},{"rt":2479.300000011921,"stimulus":"bees-with-color/bee-A2SM.svg","response":0,"trial_type":"image-button-response","trial_index":133,"time_elapsed":405370,"internal_node_id":"0.0-4.0-0.63","subject_id":"5fe3792db939ed02b8c1d0f8","study_id":"60edd13110225f80f9f3709b","session_id":"6196c4a2860a3164bf54efa3","condition":"contingent","relevant_dimensions":["antennae","pattern"],"bee_group":{"antennae":"B","wings":"X","pattern":"D","legs":"X"},"action":"harvest","summary":"good-harvest","bonus":0.560000000000001},{"rt":837.3999999761581,"stimulus":"\n                    <p><b>Action: <em>harvest</em></b></p>\n                    <p>This is the bee that you just saw.</p>\n                    <img src=\"bees-with-color/bee-A2SM.svg\" width=\"200\">\n                    <p><span class=\"greenText\"><b>Successful harvest!</b></span><br>Your pay has increased by $0.02. Your bonus pay is now $0.56.</p>\n            ","response":0,"trial_type":"html-button-response","trial_index":134,"time_elapsed":406209,"internal_node_id":"0.0-4.0-1.63","subject_id":"5fe3792db939ed02b8c1d0f8","study_id":"60edd13110225f80f9f3709b","session_id":"6196c4a2860a3164bf54efa3","condition":"contingent","relevant_dimensions":["antennae","pattern"],"bee_group":{"antennae":"B","wings":"X","pattern":"D","legs":"X"},"bonus":0.560000000000001},{"rt":5712,"stimulus":"You have completed the first part of this experiment.<br><br>You will now begin a shorter second part, in which you will receive no feedback.<br>The same rules regarding bonus pay apply.<br><br>Press any key to begin.","response":"a","trial_type":"html-keyboard-response","trial_index":135,"time_elapsed":411924,"internal_node_id":"0.0-5.0","subject_id":"5fe3792db939ed02b8c1d0f8","study_id":"60edd13110225f80f9f3709b","session_id":"6196c4a2860a3164bf54efa3","condition":"contingent","relevant_dimensions":["antennae","pattern"],"bee_group":{"antennae":"B","wings":"X","pattern":"D","legs":"X"},"bonus":0.560000000000001},{"rt":6717.699999988079,"stimulus":"bees-with-color/bee-B2DF.svg","response":0,"trial_type":"image-button-response","trial_index":136,"time_elapsed":418649,"internal_node_id":"0.0-6.0-0.0","subject_id":"5fe3792db939ed02b8c1d0f8","study_id":"60edd13110225f80f9f3709b","session_id":"6196c4a2860a3164bf54efa3","condition":"contingent","relevant_dimensions":["antennae","pattern"],"bee_group":{"antennae":"B","wings":"X","pattern":"D","legs":"X"},"bonus":0.560000000000001},{"rt":1709.5,"stimulus":"bees-with-color/bee-A2SF.svg","response":0,"trial_type":"image-button-response","trial_index":137,"time_elapsed":420362,"internal_node_id":"0.0-6.0-0.1","subject_id":"5fe3792db939ed02b8c1d0f8","study_id":"60edd13110225f80f9f3709b","session_id":"6196c4a2860a3164bf54efa3","condition":"contingent","relevant_dimensions":["antennae","pattern"],"bee_group":{"antennae":"B","wings":"X","pattern":"D","legs":"X"},"bonus":0.560000000000001},{"rt":1549.1000000238419,"stimulus":"bees-with-color/bee-B1SM.svg","response":1,"trial_type":"image-button-response","trial_index":138,"time_elapsed":421913,"internal_node_id":"0.0-6.0-0.2","subject_id":"5fe3792db939ed02b8c1d0f8","study_id":"60edd13110225f80f9f3709b","session_id":"6196c4a2860a3164bf54efa3","condition":"contingent","relevant_dimensions":["antennae","pattern"],"bee_group":{"antennae":"B","wings":"X","pattern":"D","legs":"X"},"bonus":0.560000000000001},{"rt":1429.5,"stimulus":"bees-with-color/bee-A1SM.svg","response":0,"trial_type":"image-button-response","trial_index":139,"time_elapsed":423345,"internal_node_id":"0.0-6.0-0.3","subject_id":"5fe3792db939ed02b8c1d0f8","study_id":"60edd13110225f80f9f3709b","session_id":"6196c4a2860a3164bf54efa3","condition":"contingent","relevant_dimensions":["antennae","pattern"],"bee_group":{"antennae":"B","wings":"X","pattern":"D","legs":"X"},"bonus":0.560000000000001},{"rt":1436.7999999523163,"stimulus":"bees-with-color/bee-A1DM.svg","response":1,"trial_type":"image-button-response","trial_index":140,"time_elapsed":424785,"internal_node_id":"0.0-6.0-0.4","subject_id":"5fe3792db939ed02b8c1d0f8","study_id":"60edd13110225f80f9f3709b","session_id":"6196c4a2860a3164bf54efa3","condition":"contingent","relevant_dimensions":["antennae","pattern"],"bee_group":{"antennae":"B","wings":"X","pattern":"D","legs":"X"},"bonus":0.560000000000001},{"rt":1318,"stimulus":"bees-with-color/bee-A1DF.svg","response":0,"trial_type":"image-button-response","trial_index":141,"time_elapsed":426105,"internal_node_id":"0.0-6.0-0.5","subject_id":"5fe3792db939ed02b8c1d0f8","study_id":"60edd13110225f80f9f3709b","session_id":"6196c4a2860a3164bf54efa3","condition":"contingent","relevant_dimensions":["antennae","pattern"],"bee_group":{"antennae":"B","wings":"X","pattern":"D","legs":"X"},"bonus":0.560000000000001},{"rt":1789.5999999642372,"stimulus":"bees-with-color/bee-B1DF.svg","response":1,"trial_type":"image-button-response","trial_index":142,"time_elapsed":427898,"internal_node_id":"0.0-6.0-0.6","subject_id":"5fe3792db939ed02b8c1d0f8","study_id":"60edd13110225f80f9f3709b","session_id":"6196c4a2860a3164bf54efa3","condition":"contingent","relevant_dimensions":["antennae","pattern"],"bee_group":{"antennae":"B","wings":"X","pattern":"D","legs":"X"},"bonus":0.560000000000001},{"rt":2196.900000035763,"stimulus":"bees-with-color/bee-A2SM.svg","response":0,"trial_type":"image-button-response","trial_index":143,"time_elapsed":430098,"internal_node_id":"0.0-6.0-0.7","subject_id":"5fe3792db939ed02b8c1d0f8","study_id":"60edd13110225f80f9f3709b","session_id":"6196c4a2860a3164bf54efa3","condition":"contingent","relevant_dimensions":["antennae","pattern"],"bee_group":{"antennae":"B","wings":"X","pattern":"D","legs":"X"},"bonus":0.560000000000001},{"rt":1212.8999999761581,"stimulus":"bees-with-color/bee-B2DM.svg","response":1,"trial_type":"image-button-response","trial_index":144,"time_elapsed":431313,"internal_node_id":"0.0-6.0-0.8","subject_id":"5fe3792db939ed02b8c1d0f8","study_id":"60edd13110225f80f9f3709b","session_id":"6196c4a2860a3164bf54efa3","condition":"contingent","relevant_dimensions":["antennae","pattern"],"bee_group":{"antennae":"B","wings":"X","pattern":"D","legs":"X"},"bonus":0.560000000000001},{"rt":1173.5,"stimulus":"bees-with-color/bee-A1SF.svg","response":0,"trial_type":"image-button-response","trial_index":145,"time_elapsed":432489,"internal_node_id":"0.0-6.0-0.9","subject_id":"5fe3792db939ed02b8c1d0f8","study_id":"60edd13110225f80f9f3709b","session_id":"6196c4a2860a3164bf54efa3","condition":"contingent","relevant_dimensions":["antennae","pattern"],"bee_group":{"antennae":"B","wings":"X","pattern":"D","legs":"X"},"bonus":0.560000000000001},{"rt":2558.7000000476837,"stimulus":"bees-with-color/bee-B1DM.svg","response":0,"trial_type":"image-button-response","trial_index":146,"time_elapsed":435050,"internal_node_id":"0.0-6.0-0.10","subject_id":"5fe3792db939ed02b8c1d0f8","study_id":"60edd13110225f80f9f3709b","session_id":"6196c4a2860a3164bf54efa3","condition":"contingent","relevant_dimensions":["antennae","pattern"],"bee_group":{"antennae":"B","wings":"X","pattern":"D","legs":"X"},"bonus":0.560000000000001},{"rt":1044.300000011921,"stimulus":"bees-with-color/bee-A2DF.svg","response":1,"trial_type":"image-button-response","trial_index":147,"time_elapsed":436097,"internal_node_id":"0.0-6.0-0.11","subject_id":"5fe3792db939ed02b8c1d0f8","study_id":"60edd13110225f80f9f3709b","session_id":"6196c4a2860a3164bf54efa3","condition":"contingent","relevant_dimensions":["antennae","pattern"],"bee_group":{"antennae":"B","wings":"X","pattern":"D","legs":"X"},"bonus":0.560000000000001},{"rt":1478.4000000357628,"stimulus":"bees-with-color/bee-B2SM.svg","response":0,"trial_type":"image-button-response","trial_index":148,"time_elapsed":437577,"internal_node_id":"0.0-6.0-0.12","subject_id":"5fe3792db939ed02b8c1d0f8","study_id":"60edd13110225f80f9f3709b","session_id":"6196c4a2860a3164bf54efa3","condition":"contingent","relevant_dimensions":["antennae","pattern"],"bee_group":{"antennae":"B","wings":"X","pattern":"D","legs":"X"},"bonus":0.560000000000001},{"rt":4566.300000011921,"stimulus":"bees-with-color/bee-A2DM.svg","response":1,"trial_type":"image-button-response","trial_index":149,"time_elapsed":442145,"internal_node_id":"0.0-6.0-0.13","subject_id":"5fe3792db939ed02b8c1d0f8","study_id":"60edd13110225f80f9f3709b","session_id":"6196c4a2860a3164bf54efa3","condition":"contingent","relevant_dimensions":["antennae","pattern"],"bee_group":{"antennae":"B","wings":"X","pattern":"D","legs":"X"},"bonus":0.560000000000001},{"rt":1564.699999988079,"stimulus":"bees-with-color/bee-B2SF.svg","response":1,"trial_type":"image-button-response","trial_index":150,"time_elapsed":443713,"internal_node_id":"0.0-6.0-0.14","subject_id":"5fe3792db939ed02b8c1d0f8","study_id":"60edd13110225f80f9f3709b","session_id":"6196c4a2860a3164bf54efa3","condition":"contingent","relevant_dimensions":["antennae","pattern"],"bee_group":{"antennae":"B","wings":"X","pattern":"D","legs":"X"},"bonus":0.560000000000001},{"rt":959,"stimulus":"bees-with-color/bee-B1SF.svg","response":0,"trial_type":"image-button-response","trial_index":151,"time_elapsed":444673,"internal_node_id":"0.0-6.0-0.15","subject_id":"5fe3792db939ed02b8c1d0f8","study_id":"60edd13110225f80f9f3709b","session_id":"6196c4a2860a3164bf54efa3","condition":"contingent","relevant_dimensions":["antennae","pattern"],"bee_group":{"antennae":"B","wings":"X","pattern":"D","legs":"X"},"bonus":0.560000000000001},{"rt":2718.699999988079,"stimulus":"bees-with-color/bee-B1SF.svg","response":1,"trial_type":"image-button-response","trial_index":152,"time_elapsed":447393,"internal_node_id":"0.0-6.0-0.16","subject_id":"5fe3792db939ed02b8c1d0f8","study_id":"60edd13110225f80f9f3709b","session_id":"6196c4a2860a3164bf54efa3","condition":"contingent","relevant_dimensions":["antennae","pattern"],"bee_group":{"antennae":"B","wings":"X","pattern":"D","legs":"X"},"bonus":0.560000000000001},{"rt":1037.5999999642372,"stimulus":"bees-with-color/bee-A1DM.svg","response":0,"trial_type":"image-button-response","trial_index":153,"time_elapsed":448433,"internal_node_id":"0.0-6.0-0.17","subject_id":"5fe3792db939ed02b8c1d0f8","study_id":"60edd13110225f80f9f3709b","session_id":"6196c4a2860a3164bf54efa3","condition":"contingent","relevant_dimensions":["antennae","pattern"],"bee_group":{"antennae":"B","wings":"X","pattern":"D","legs":"X"},"bonus":0.560000000000001},{"rt":1591.5,"stimulus":"bees-with-color/bee-B1SM.svg","response":0,"trial_type":"image-button-response","trial_index":154,"time_elapsed":450026,"internal_node_id":"0.0-6.0-0.18","subject_id":"5fe3792db939ed02b8c1d0f8","study_id":"60edd13110225f80f9f3709b","session_id":"6196c4a2860a3164bf54efa3","condition":"contingent","relevant_dimensions":["antennae","pattern"],"bee_group":{"antennae":"B","wings":"X","pattern":"D","legs":"X"},"bonus":0.560000000000001},{"rt":949.5,"stimulus":"bees-with-color/bee-B2DF.svg","response":1,"trial_type":"image-button-response","trial_index":155,"time_elapsed":450977,"internal_node_id":"0.0-6.0-0.19","subject_id":"5fe3792db939ed02b8c1d0f8","study_id":"60edd13110225f80f9f3709b","session_id":"6196c4a2860a3164bf54efa3","condition":"contingent","relevant_dimensions":["antennae","pattern"],"bee_group":{"antennae":"B","wings":"X","pattern":"D","legs":"X"},"bonus":0.560000000000001},{"rt":1334.9000000357628,"stimulus":"bees-with-color/bee-B2SF.svg","response":0,"trial_type":"image-button-response","trial_index":156,"time_elapsed":452313,"internal_node_id":"0.0-6.0-0.20","subject_id":"5fe3792db939ed02b8c1d0f8","study_id":"60edd13110225f80f9f3709b","session_id":"6196c4a2860a3164bf54efa3","condition":"contingent","relevant_dimensions":["antennae","pattern"],"bee_group":{"antennae":"B","wings":"X","pattern":"D","legs":"X"},"bonus":0.560000000000001},{"rt":1549.6000000238419,"stimulus":"bees-with-color/bee-A1SF.svg","response":0,"trial_type":"image-button-response","trial_index":157,"time_elapsed":453865,"internal_node_id":"0.0-6.0-0.21","subject_id":"5fe3792db939ed02b8c1d0f8","study_id":"60edd13110225f80f9f3709b","session_id":"6196c4a2860a3164bf54efa3","condition":"contingent","relevant_dimensions":["antennae","pattern"],"bee_group":{"antennae":"B","wings":"X","pattern":"D","legs":"X"},"bonus":0.560000000000001},{"rt":1477.5999999642372,"stimulus":"bees-with-color/bee-B2DM.svg","response":1,"trial_type":"image-button-response","trial_index":158,"time_elapsed":455345,"internal_node_id":"0.0-6.0-0.22","subject_id":"5fe3792db939ed02b8c1d0f8","study_id":"60edd13110225f80f9f3709b","session_id":"6196c4a2860a3164bf54efa3","condition":"contingent","relevant_dimensions":["antennae","pattern"],"bee_group":{"antennae":"B","wings":"X","pattern":"D","legs":"X"},"bonus":0.560000000000001},{"rt":1893.300000011921,"stimulus":"bees-with-color/bee-A2SM.svg","response":0,"trial_type":"image-button-response","trial_index":159,"time_elapsed":457241,"internal_node_id":"0.0-6.0-0.23","subject_id":"5fe3792db939ed02b8c1d0f8","study_id":"60edd13110225f80f9f3709b","session_id":"6196c4a2860a3164bf54efa3","condition":"contingent","relevant_dimensions":["antennae","pattern"],"bee_group":{"antennae":"B","wings":"X","pattern":"D","legs":"X"},"bonus":0.560000000000001},{"rt":1270.3999999761581,"stimulus":"bees-with-color/bee-B1DM.svg","response":0,"trial_type":"image-button-response","trial_index":160,"time_elapsed":458514,"internal_node_id":"0.0-6.0-0.24","subject_id":"5fe3792db939ed02b8c1d0f8","study_id":"60edd13110225f80f9f3709b","session_id":"6196c4a2860a3164bf54efa3","condition":"contingent","relevant_dimensions":["antennae","pattern"],"bee_group":{"antennae":"B","wings":"X","pattern":"D","legs":"X"},"bonus":0.560000000000001},{"rt":3077.300000011921,"stimulus":"bees-with-color/bee-A1SM.svg","response":1,"trial_type":"image-button-response","trial_index":161,"time_elapsed":461593,"internal_node_id":"0.0-6.0-0.25","subject_id":"5fe3792db939ed02b8c1d0f8","study_id":"60edd13110225f80f9f3709b","session_id":"6196c4a2860a3164bf54efa3","condition":"contingent","relevant_dimensions":["antennae","pattern"],"bee_group":{"antennae":"B","wings":"X","pattern":"D","legs":"X"},"bonus":0.560000000000001},{"rt":1333.699999988079,"stimulus":"bees-with-color/bee-A2DM.svg","response":1,"trial_type":"image-button-response","trial_index":162,"time_elapsed":462929,"internal_node_id":"0.0-6.0-0.26","subject_id":"5fe3792db939ed02b8c1d0f8","study_id":"60edd13110225f80f9f3709b","session_id":"6196c4a2860a3164bf54efa3","condition":"contingent","relevant_dimensions":["antennae","pattern"],"bee_group":{"antennae":"B","wings":"X","pattern":"D","legs":"X"},"bonus":0.560000000000001},{"rt":998.1000000238419,"