[{"success":true,"trial_type":"fullscreen","trial_index":0,"time_elapsed":7848,"internal_node_id":"0.0-0.0","subject_id":"6052437c8108f7a8de98b6c9","study_id":"60edd13110225f80f9f3709b","session_id":"6196c706194820db3e0c299c","condition":"full-information","relevant_dimensions":["antennae","wings"],"bee_group":{"antennae":"A","wings":"1","pattern":"X","legs":"X"},"bonus":1.2000000000000013},{"success":true,"timeout":false,"failed_images":[],"failed_audio":[],"failed_video":[],"trial_type":"preload","trial_index":1,"time_elapsed":9183,"internal_node_id":"0.0-1.0","subject_id":"6052437c8108f7a8de98b6c9","study_id":"60edd13110225f80f9f3709b","session_id":"6196c706194820db3e0c299c","condition":"full-information","relevant_dimensions":["antennae","wings"],"bee_group":{"antennae":"A","wings":"1","pattern":"X","legs":"X"},"bonus":1.2000000000000013},{"rt":1810.0999999977648,"stimulus":"Welcome! Press any key to begin.","response":" ","trial_type":"html-keyboard-response","trial_index":2,"time_elapsed":10994,"internal_node_id":"0.0-2.0","subject_id":"6052437c8108f7a8de98b6c9","study_id":"60edd13110225f80f9f3709b","session_id":"6196c706194820db3e0c299c","condition":"full-information","relevant_dimensions":["antennae","wings"],"bee_group":{"antennae":"A","wings":"1","pattern":"X","legs":"X"},"bonus":1.2000000000000013},{"view_history":[{"page_index":0,"viewing_time":5672.800000000745},{"page_index":1,"viewing_time":41812.400000002235},{"page_index":2,"viewing_time":26383.79999999702},{"page_index":3,"viewing_time":32914.20000000298},{"page_index":4,"viewing_time":10682.699999999255},{"page_index":5,"viewing_time":14889.300000000745},{"page_index":6,"viewing_time":28438.29999999702},{"page_index":7,"viewing_time":24966.5},{"page_index":8,"viewing_time":7044.400000002235},{"page_index":9,"viewing_time":7167.89999999851},{"page_index":10,"viewing_time":7599.800000000745},{"page_index":11,"viewing_time":28738.699999999255},{"page_index":12,"viewing_time":20288.199999999255},{"page_index":13,"viewing_time":8104.5},{"page_index":14,"viewing_time":1225.9000000022352}],"rt":265929.6000000015,"trial_type":"instructions","trial_index":3,"time_elapsed":276924,"internal_node_id":"0.0-3.0-0.0","subject_id":"6052437c8108f7a8de98b6c9","study_id":"60edd13110225f80f9f3709b","session_id":"6196c706194820db3e0c299c","condition":"full-information","relevant_dimensions":["antennae","wings"],"bee_group":{"antennae":"A","wings":"1","pattern":"X","legs":"X"},"bonus":1.2000000000000013},{"rt":14876.5,"response":{"Q0":["Two or six legs","Stripes or spots on body","Single or double wings","Antennae or no antennae"]},"question_order":[0],"trial_type":"survey-multi-select","trial_index":4,"time_elapsed":291804,"internal_node_id":"0.0-3.0-1.0","subject_id":"6052437c8108f7a8de98b6c9","study_id":"60edd13110225f80f9f3709b","session_id":"6196c706194820db3e0c299c","condition":"full-information","relevant_dimensions":["antennae","wings"],"bee_group":{"antennae":"A","wings":"1","pattern":"X","legs":"X"},"correct":true,"bonus":1.2000000000000013},{"rt":23290.599999997765,"response":{"Q1":"No.","Q2":"Based on the four features of the bee.","Q3":"You learn if it was friendly or dangerous, but do not alter your bonus."},"question_order":[0,1,2],"trial_type":"survey-multi-choice","trial_index":5,"time_elapsed":315096,"internal_node_id":"0.0-3.0-2.0","subject_id":"6052437c8108f7a8de98b6c9","study_id":"60edd13110225f80f9f3709b","session_id":"6196c706194820db3e0c299c","condition":"full-information","relevant_dimensions":["antennae","wings"],"bee_group":{"antennae":"A","wings":"1","pattern":"X","legs":"X"},"correct":true,"bonus":1.2000000000000013},{"rt":9435.29999999702,"stimulus":"<p>Congrats, you got everything right<br>When you're ready, click the button below to continue to the experiment.</p>","response":0,"trial_type":"html-button-response","trial_index":6,"time_elapsed":324533,"internal_node_id":"0.0-3.0-3.0","subject_id":"6052437c8108f7a8de98b6c9","study_id":"60edd13110225f80f9f3709b","session_id":"6196c706194820db3e0c299c","condition":"full-information","relevant_dimensions":["antennae","wings"],"bee_group":{"antennae":"A","wings":"1","pattern":"X","legs":"X"},"bonus":1.2000000000000013},{"rt":52235.39999999851,"stimulus":"bees-with-color/bee-A1DM.svg","response":1,"trial_type":"image-button-response","trial_index":7,"time_elapsed":376770,"internal_node_id":"0.0-4.0-0.0","subject_id":"6052437c8108f7a8de98b6c9","study_id":"60edd13110225f80f9f3709b","session_id":"6196c706194820db3e0c299c","condition":"full-information","relevant_dimensions":["antennae","wings"],"bee_group":{"antennae":"A","wings":"1","pattern":"X","legs":"X"},"action":"avoid","summary":"good-avoid","bonus":1.2000000000000013},{"rt":9791.39999999851,"stimulus":"\n                    <p><b>Action: <em>avoid</em></b></p>\n                    <p>This is the bee that you just saw.</p>\n                    <img src=\"bees-with-color/bee-A1DM.svg\" width=\"200\">\n                    <p><span class=\"greenText\">Good choice!</span>  This bee would have stung you.<br>Your bonus pay is unchanged, and remains at $0.54.</p>\n            ","response":0,"trial_type":"html-button-response","trial_index":8,"time_elapsed":386564,"internal_node_id":"0.0-4.0-1.0","subject_id":"6052437c8108f7a8de98b6c9","study_id":"60edd13110225f80f9f3709b","session_id":"6196c706194820db3e0c299c","condition":"full-information","relevant_dimensions":["antennae","wings"],"bee_group":{"antennae":"A","wings":"1","pattern":"X","legs":"X"},"bonus":1.2000000000000013},{"rt":20160.699999999255,"stimulus":"bees-with-color/bee-A2DM.svg","response":1,"trial_type":"image-button-response","trial_index":9,"time_elapsed":406726,"internal_node_id":"0.0-4.0-0.1","subject_id":"6052437c8108f7a8de98b6c9","study_id":"60edd13110225f80f9f3709b","session_id":"6196c706194820db3e0c299c","condition":"full-information","relevant_dimensions":["antennae","wings"],"bee_group":{"antennae":"A","wings":"1","pattern":"X","legs":"X"},"action":"avoid","summary":"bad-avoid","bonus":1.2000000000000013},{"rt":25656.60000000149,"stimulus":"\n                    <p><b>Action: <em>avoid</em></b></p>\n                    <p>This is the bee that you just saw.</p>\n                    <img src=\"bees-with-color/bee-A2DM.svg\" width=\"200\">\n                    <p><span class=\"redText\">Bad choice,</span> the bee was friendly.<br>Your bonus pay is unchanged, and remains at $0.54.</p>\n            ","response":0,"trial_type":"html-button-response","trial_index":10,"time_elapsed":432384,"internal_node_id":"0.0-4.0-1.1","subject_id":"6052437c8108f7a8de98b6c9","study_id":"60edd13110225f80f9f3709b","session_id":"6196c706194820db3e0c299c","condition":"full-information","relevant_dimensions":["antennae","wings"],"bee_group":{"antennae":"A","wings":"1","pattern":"X","legs":"X"},"bonus":1.2000000000000013},{"rt":29146.400000002235,"stimulus":"bees-with-color/bee-B2DF.svg","response":1,"trial_type":"image-button-response","trial_index":11,"time_elapsed":461532,"internal_node_id":"0.0-4.0-0.2","subject_id":"6052437c8108f7a8de98b6c9","study_id":"60edd13110225f80f9f3709b","session_id":"6196c706194820db3e0c299c","condition":"full-information","relevant_dimensions":["antennae","wings"],"bee_group":{"antennae":"A","wings":"1","pattern":"X","legs":"X"},"action":"avoid","summary":"bad-avoid","bonus":1.2000000000000013},{"rt":8997.60000000149,"stimulus":"\n                    <p><b>Action: <em>avoid</em></b></p>\n                    <p>This is the bee that you just saw.</p>\n                    <img src=\"bees-with-color/bee-B2DF.svg\" width=\"200\">\n                    <p><span class=\"redText\">Bad choice,</span> the bee was friendly.<br>Your bonus pay is unchanged, and remains at $0.54.</p>\n            ","response":0,"trial_type":"html-button-response","trial_index":12,"time_elapsed":470531,"internal_node_id":"0.0-4.0-1.2","subject_id":"6052437c8108f7a8de98b6c9","study_id":"60edd13110225f80f9f3709b","session_id":"6196c706194820db3e0c299c","condition":"full-information","relevant_dimensions":["antennae","wings"],"bee_group":{"antennae":"A","wings":"1","pattern":"X","legs":"X"},"bonus":1.2000000000000013},{"rt":22876.300000000745,"stimulus":"bees-with-color/bee-A2SM.svg","response":0,"trial_type":"image-button-response","trial_index":13,"time_elapsed":493409,"internal_node_id":"0.0-4.0-0.3","subject_id":"6052437c8108f7a8de98b6c9","study_id":"60edd13110225f80f9f3709b","session_id":"6196c706194820db3e0c299c","condition":"full-information","relevant_dimensions":["antennae","wings"],"bee_group":{"antennae":"A","wings":"1","pattern":"X","legs":"X"},"action":"harvest","summary":"good-harvest","bonus":1.2000000000000013},{"rt":8038.10000000149,"stimulus":"\n                    <p><b>Action: <em>harvest</em></b></p>\n                    <p>This is the bee that you just saw.</p>\n                    <img src=\"bees-with-color/bee-A2SM.svg\" width=\"200\">\n                    <p><span class=\"greenText\"><b>Successful harvest!</b></span><br>Your pay has increased by $0.02. Your bonus pay is now $0.56.</p>\n            ","response":0,"trial_type":"html-button-response","trial_index":14,"time_elapsed":501448,"internal_node_id":"0.0-4.0-1.3","subject_id":"6052437c8108f7a8de98b6c9","study_id":"60edd13110225f80f9f3709b","session_id":"6196c706194820db3e0c299c","condition":"full-information","relevant_dimensions":["antennae","wings"],"bee_group":{"antennae":"A","wings":"1","pattern":"X","legs":"X"},"bonus":1.2000000000000013},{"rt":24482.89999999851,"stimulus":"bees-with-color/bee-A1DF.svg","response":0,"trial_type":"image-button-response","trial_index":15,"time_elapsed":525932,"internal_node_id":"0.0-4.0-0.4","subject_id":"6052437c8108f7a8de98b6c9","study_id":"60edd13110225f80f9f3709b","session_id":"6196c706194820db3e0c299c","condition":"full-information","relevant_dimensions":["antennae","wings"],"bee_group":{"antennae":"A","wings":"1","pattern":"X","legs":"X"},"action":"harvest","summary":"bad-harvest","bonus":1.2000000000000013},{"rt":42992.5,"stimulus":"\n                    <p><b>Action: <em>harvest</em></b></p>\n                    <p>This is the bee that you just saw.</p>\n                    <img src=\"bees-with-color/bee-A1DF.svg\" width=\"200\">\n                    <p><span class=\"redText\">Bad choice, the bee was angry.</span><br><b>You have been stung!</b><br>Your pay has been decreased by $0.10. Your bonus pay is now $0.46.</p>\n            ","response":0,"trial_type":"html-button-response","trial_index":16,"time_elapsed":568926,"internal_node_id":"0.0-4.0-1.4","subject_id":"6052437c8108f7a8de98b6c9","study_id":"60edd13110225f80f9f3709b","session_id":"6196c706194820db3e0c299c","condition":"full-information","relevant_dimensions":["antennae","wings"],"bee_group":{"antennae":"A","wings":"1","pattern":"X","legs":"X"},"bonus":1.2000000000000013},{"rt":26945,"stimulus":"bees-with-color/bee-A2DF.svg","response":0,"trial_type":"image-button-response","trial_index":17,"time_elapsed":595872,"internal_node_id":"0.0-4.0-0.5","subject_id":"6052437c8108f7a8de98b6c9","study_id":"60edd13110225f80f9f3709b","session_id":"6196c706194820db3e0c299c","condition":"full-information","relevant_dimensions":["antennae","wings"],"bee_group":{"antennae":"A","wings":"1","pattern":"X","legs":"X"},"action":"harvest","summary":"good-harvest","bonus":1.2000000000000013},{"rt":6604.60000000149,"stimulus":"\n                    <p><b>Action: <em>harvest</em></b></p>\n                    <p>This is the bee that you just saw.</p>\n                    <img src=\"bees-with-color/bee-A2DF.svg\" width=\"200\">\n                    <p><span class=\"greenText\"><b>Successful harvest!</b></span><br>Your pay has increased by $0.02. Your bonus pay is now $0.48.</p>\n            ","response":0,"trial_type":"html-button-response","trial_index":18,"time_elapsed":602478,"internal_node_id":"0.0-4.0-1.5","subject_id":"6052437c8108f7a8de98b6c9","study_id":"60edd13110225f80f9f3709b","session_id":"6196c706194820db3e0c299c","condition":"full-information","relevant_dimensions":["antennae","wings"],"bee_group":{"antennae":"A","wings":"1","pattern":"X","legs":"X"},"bonus":1.2000000000000013},{"rt":21873.10000000149,"stimulus":"bees-with-color/bee-B1DM.svg","response":1,"trial_type":"image-button-response","trial_index":19,"time_elapsed":624353,"internal_node_id":"0.0-4.0-0.6","subject_id":"6052437c8108f7a8de98b6c9","study_id":"60edd13110225f80f9f3709b","session_id":"6196c706194820db3e0c299c","condition":"full-information","relevant_dimensions":["antennae","wings"],"bee_group":{"antennae":"A","wings":"1","pattern":"X","legs":"X"},"action":"avoid","summary":"bad-avoid","bonus":1.2000000000000013},{"rt":7458,"stimulus":"\n                    <p><b>Action: <em>avoid</em></b></p>\n                    <p>This is the bee that you just saw.</p>\n                    <img src=\"bees-with-color/bee-B1DM.svg\" width=\"200\">\n                    <p><span class=\"redText\">Bad choice,</span> the bee was friendly.<br>Your bonus pay is unchanged, and remains at $0.48.</p>\n            ","response":0,"trial_type":"html-button-response","trial_index":20,"time_elapsed":631813,"internal_node_id":"0.0-4.0-1.6","subject_id":"6052437c8108f7a8de98b6c9","study_id":"60edd13110225f80f9f3709b","session_id":"6196c706194820db3e0c299c","condition":"full-information","relevant_dimensions":["antennae","wings"],"bee_group":{"antennae":"A","wings":"1","pattern":"X","legs":"X"},"bonus":1.2000000000000013},{"rt":13266,"stimulus":"bees-with-color/bee-B1SF.svg","response":0,"trial_type":"image-button-response","trial_index":21,"time_elapsed":645080,"internal_node_id":"0.0-4.0-0.7","subject_id":"6052437c8108f7a8de98b6c9","study_id":"60edd13110225f80f9f3709b","session_id":"6196c706194820db3e0c299c","condition":"full-information","relevant_dimensions":["antennae","wings"],"bee_group":{"antennae":"A","wings":"1","pattern":"X","legs":"X"},"action":"harvest","summary":"good-harvest","bonus":1.2000000000000013},{"rt":16534.900000002235,"stimulus":"\n                    <p><b>Action: <em>harvest</em></b></p>\n                    <p>This is the bee that you just saw.</p>\n                    <img src=\"bees-with-color/bee-B1SF.svg\" width=\"200\">\n                    <p><span class=\"greenText\"><b>Successful harvest!</b></span><br>Your pay has increased by $0.02. Your bonus pay is now $0.50.</p>\n            ","response":0,"trial_type":"html-button-response","trial_index":22,"time_elapsed":661616,"internal_node_id":"0.0-4.0-1.7","subject_id":"6052437c8108f7a8de98b6c9","study_id":"60edd13110225f80f9f3709b","session_id":"6196c706194820db3e0c299c","condition":"full-information","relevant_dimensions":["antennae","wings"],"bee_group":{"antennae":"A","wings":"1","pattern":"X","legs":"X"},"bonus":1.2000000000000013},{"rt":29557.89999999851,"stimulus":"bees-with-color/bee-A2SF.svg","response":1,"trial_type":"image-button-response","trial_index":23,"time_elapsed":691176,"internal_node_id":"0.0-4.0-0.8","subject_id":"6052437c8108f7a8de98b6c9","study_id":"60edd13110225f80f9f3709b","session_id":"6196c706194820db3e0c299c","condition":"full-information","relevant_dimensions":["antennae","wings"],"bee_group":{"antennae":"A","wings":"1","pattern":"X","legs":"X"},"action":"avoid","summary":"bad-avoid","bonus":1.2000000000000013},{"rt":5238.699999999255,"stimulus":"\n                    <p><b>Action: <em>avoid</em></b></p>\n                    <p>This is the bee that you just saw.</p>\n                    <img src=\"bees-with-color/bee-A2SF.svg\" width=\"200\">\n                    <p><span class=\"redText\">Bad choice,</span> the bee was friendly.<br>Your bonus pay is unchanged, and remains at $0.50.</p>\n            ","response":0,"trial_type":"html-button-response","trial_index":24,"time_elapsed":696416,"internal_node_id":"0.0-4.0-1.8","subject_id":"6052437c8108f7a8de98b6c9","study_id":"60edd13110225f80f9f3709b","session_id":"6196c706194820db3e0c299c","condition":"full-information","relevant_dimensions":["antennae","wings"],"bee_group":{"antennae":"A","wings":"1","pattern":"X","legs":"X"},"bonus":1.2000000000000013},{"rt":35397.60000000149,"stimulus":"bees-with-color/bee-A1SM.svg","response":0,"trial_type":"image-button-response","trial_index":25,"time_elapsed":731815,"internal_node_id":"0.0-4.0-0.9","subject_id":"6052437c8108f7a8de98b6c9","study_id":"60edd13110225f80f9f3709b","session_id":"6196c706194820db3e0c299c","condition":"full-information","relevant_dimensions":["antennae","wings"],"bee_group":{"antennae":"A","wings":"1","pattern":"X","legs":"X"},"action":"harvest","summary":"bad-harvest","bonus":1.2000000000000013},{"rt":9798.79999999702,"stimulus":"\n                    <p><b>Action: <em>harvest</em></b></p>\n                    <p>This is the bee that you just saw.</p>\n                    <img src=\"bees-with-color/bee-A1SM.svg\" width=\"200\">\n                    <p><span class=\"redText\">Bad choice, the bee was angry.</span><br><b>You have been stung!</b><br>Your pay has been decreased by $0.10. Your bonus pay is now $0.40.</p>\n            ","response":0,"trial_type":"html-button-response","trial_index":26,"time_elapsed":741615,"internal_node_id":"0.0-4.0-1.9","subject_id":"6052437c8108f7a8de98b6c9","study_id":"60edd13110225f80f9f3709b","session_id":"6196c706194820db3e0c299c","condition":"full-information","relevant_dimensions":["antennae","wings"],"bee_group":{"antennae":"A","wings":"1","pattern":"X","legs":"X"},"bonus":1.2000000000000013},{"rt":41667.89999999851,"stimulus":"bees-with-color/bee-B1DF.svg","response":1,"trial_type":"image-button-response","trial_index":27,"time_elapsed":783284,"internal_node_id":"0.0-4.0-0.10","subject_id":"6052437c8108f7a8de98b6c9","study_id":"60edd13110225f80f9f3709b","session_id":"6196c706194820db3e0c299c","condition":"full-information","relevant_dimensions":["antennae","wings"],"bee_group":{"antennae":"A","wings":"1","pattern":"X","legs":"X"},"action":"avoid","summary":"bad-avoid","bonus":1.2000000000000013},{"rt":7979.60000000149,"stimulus":"\n                    <p><b>Action: <em>avoid</em></b></p>\n                    <p>This is the bee that you just saw.</p>\n                    <img src=\"bees-with-color/bee-B1DF.svg\" width=\"200\">\n                    <p><span class=\"redText\">Bad choice,</span> the bee was friendly.<br>Your bonus pay is unchanged, and remains at $0.40.</p>\n            ","response":0,"trial_type":"html-button-response","trial_index":28,"time_elapsed":791264,"internal_node_id":"0.0-4.0-1.10","subject_id":"6052437c8108f7a8de98b6c9","study_id":"60edd13110225f80f9f3709b","session_id":"6196c706194820db3e0c299c","condition":"full-information","relevant_dimensions":["antennae","wings"],"bee_group":{"antennae":"A","wings":"1","pattern":"X","legs":"X"},"bonus":1.2000000000000013},{"rt":50688.800000000745,"stimulus":"bees-with-color/bee-B2SF.svg","response":0,"trial_type":"image-button-response","trial_index":29,"time_elapsed":841954,"internal_node_id":"0.0-4.0-0.11","subject_id":"6052437c8108f7a8de98b6c9","study_id":"60edd13110225f80f9f3709b","session_id":"6196c706194820db3e0c299c","condition":"full-information","relevant_dimensions":["antennae","wings"],"bee_group":{"antennae":"A","wings":"1","pattern":"X","legs":"X"},"action":"harvest","summary":"good-harvest","bonus":1.2000000000000013},{"rt":41781,"stimulus":"\n                    <p><b>Action: <em>harvest</em></b></p>\n                    <p>This is the bee that you just saw.</p>\n                    <img src=\"bees-with-color/bee-B2SF.svg\" width=\"200\">\n                    <p><span class=\"greenText\"><b>Successful harvest!</b></span><br>Your pay has increased by $0.02. Your bonus pay is now $0.42.</p>\n            ","response":0,"trial_type":"html-button-response","trial_index":30,"time_elapsed":883737,"internal_node_id":"0.0-4.0-1.11","subject_id":"6052437c8108f7a8de98b6c9","study_id":"60edd13110225f80f9f3709b","session_id":"6196c706194820db3e0c299c","condition":"full-information","relevant_dimensions":["antennae","wings"],"bee_group":{"antennae":"A","wings":"1","pattern":"X","legs":"X"},"bonus":1.2000000000000013},{"rt":35840.099999997765,"stimulus":"bees-with-color/bee-B1SM.svg","response":1,"trial_type":"image-button-response","trial_index":31,"time_elapsed":919579,"internal_node_id":"0.0-4.0-0.12","subject_id":"6052437c8108f7a8de98b6c9","study_id":"60edd13110225f80f9f3709b","session_id":"6196c706194820db3e0c299c","condition":"full-information","relevant_dimensions":["antennae","wings"],"bee_group":{"antennae":"A","wings":"1","pattern":"X","legs":"X"},"action":"avoid","summary":"bad-avoid","bonus":1.2000000000000013},{"rt":7468.300000000745,"stimulus":"\n                    <p><b>Action: <em>avoid</em></b></p>\n                    <p>This is the bee that you just saw.</p>\n                    <img src=\"bees-with-color/bee-B1SM.svg\" width=\"200\">\n                    <p><span class=\"redText\">Bad choice,</span> the bee was friendly.<br>Your bonus pay is unchanged, and remains at $0.42.</p>\n            ","response":0,"trial_type":"html-button-response","trial_index":32,"time_elapsed":927049,"internal_node_id":"0.0-4.0-1.12","subject_id":"6052437c8108f7a8de98b6c9","study_id":"60edd13110225f80f9f3709b","session_id":"6196c706194820db3e0c299c","condition":"full-information","relevant_dimensions":["antennae","wings"],"bee_group":{"antennae":"A","wings":"1","pattern":"X","legs":"X"},"bonus":1.2000000000000013},{"rt":59538.89999999851,"stimulus":"bees-with-color/bee-B2SM.svg","response":0,"trial_type":"image-button-response","trial_index":33,"time_elapsed":986589,"internal_node_id":"0.0-4.0-0.13","subject_id":"6052437c8108f7a8de98b6c9","study_id":"60edd13110225f80f9f3709b","session_id":"6196c706194820db3e0c299c","condition":"full-information","relevant_dimensions":["antennae","wings"],"bee_group":{"antennae":"A","wings":"1","pattern":"X","legs":"X"},"action":"harvest","summary":"good-harvest","bonus":1.2000000000000013},{"rt":5400.699999999255,"stimulus":"\n                    <p><b>Action: <em>harvest</em></b></p>\n                    <p>This is the bee that you just saw.</p>\n                    <img src=\"bees-with-color/bee-B2SM.svg\" width=\"200\">\n                    <p><span class=\"greenText\"><b>Successful harvest!</b></span><br>Your pay has increased by $0.02. Your bonus pay is now $0.44.</p>\n            ","response":0,"trial_type":"html-button-response","trial_index":34,"time_elapsed":991991,"internal_node_id":"0.0-4.0-1.13","subject_id":"6052437c8108f7a8de98b6c9","study_id":"60edd13110225f80f9f3709b","session_id":"6196c706194820db3e0c299c","condition":"full-information","relevant_dimensions":["antennae","wings"],"bee_group":{"antennae":"A","wings":"1","pattern":"X","legs":"X"},"bonus":1.2000000000000013},{"rt":35357.400000002235,"stimulus":"bees-with-color/bee-B2DM.svg","response":1,"trial_type":"image-button-response","trial_index":35,"time_elapsed":1027350,"internal_node_id":"0.0-4.0-0.14","subject_id":"6052437c8108f7a8de98b6c9","study_id":"60edd13110225f80f9f3709b","session_id":"6196c706194820db3e0c299c","condition":"full-information","relevant_dimensions":["antennae","wings"],"bee_group":{"antennae":"A","wings":"1","pattern":"X","legs":"X"},"action":"avoid","summary":"bad-avoid","bonus":1.2000000000000013},{"rt":5138.60000000149,"stimulus":"\n                    <p><b>Action: <em>avoid</em></b></p>\n                    <p>This is the bee that you just saw.</p>\n                    <img src=\"bees-with-color/bee-B2DM.svg\" width=\"200\">\n                    <p><span class=\"redText\">Bad choice,</span> the bee was friendly.<br>Your bonus pay is unchanged, and remains at $0.44.</p>\n            ","response":0,"trial_type":"html-button-response","trial_index":36,"time_elapsed":1032489,"internal_node_id":"0.0-4.0-1.14","subject_id":"6052437c8108f7a8de98b6c9","study_id":"60edd13110225f80f9f3709b","session_id":"6196c706194820db3e0c299c","condition":"full-information","relevant_dimensions":["antennae","wings"],"bee_group":{"antennae":"A","wings":"1","pattern":"X","legs":"X"},"bonus":1.2000000000000013},{"rt":42262.39999999851,"stimulus":"bees-with-color/bee-A1SF.svg","response":0,"trial_type":"image-button-response","trial_index":37,"time_elapsed":1074753,"internal_node_id":"0.0-4.0-0.15","subject_id":"6052437c8108f7a8de98b6c9","study_id":"60edd13110225f80f9f3709b","session_id":"6196c706194820db3e0c299c","condition":"full-information","relevant_dimensions":["antennae","wings"],"bee_group":{"antennae":"A","wings":"1","pattern":"X","legs":"X"},"action":"harvest","summary":"bad-harvest","bonus":1.2000000000000013},{"rt":6717.199999999255,"stimulus":"\n                    <p><b>Action: <em>harvest</em></b></p>\n                    <p>This is the bee that you just saw.</p>\n                    <img src=\"bees-with-color/bee-A1SF.svg\" width=\"200\">\n                    <p><span class=\"redText\">Bad choice, the bee was angry.</span><br><b>You have been stung!</b><br>Your pay has been decreased by $0.10. Your bonus pay is now $0.34.</p>\n            ","response":0,"trial_type":"html-button-response","trial_index":38,"time_elapsed":1081471,"internal_node_id":"0.0-4.0-1.15","subject_id":"6052437c8108f7a8de98b6c9","study_id":"60edd13110225f80f9f3709b","session_id":"6196c706194820db3e0c299c","condition":"full-information","relevant_dimensions":["antennae","wings"],"bee_group":{"antennae":"A","wings":"1","pattern":"X","legs":"X"},"bonus":1.2000000000000013},{"rt":20332.400000002235,"stimulus":"bees-with-color/bee-B2DF.svg","response":0,"trial_type":"image-button-response","trial_index":39,"time_elapsed":1101805,"internal_node_id":"0.0-4.0-0.16","subject_id":"6052437c8108f7a8de98b6c9","study_id":"60edd13110225f80f9f3709b","session_id":"6196c706194820db3e0c299c","condition":"full-information","relevant_dimensions":["antennae","wings"],"bee_group":{"antennae":"A","wings":"1","pattern":"X","legs":"X"},"action":"harvest","summary":"good-harvest","bonus":1.2000000000000013},{"rt":8032.60000000149,"stimulus":"\n                    <p><b>Action: <em>harvest</em></b></p>\n                    <p>This is the bee that you just saw.</p>\n                    <img src=\"bees-with-color/bee-B2DF.svg\" width=\"200\">\n                    <p><span class=\"greenText\"><b>Successful harvest!</b></span><br>Your pay has increased by $0.02. Your bonus pay is now $0.36.</p>\n            ","response":0,"trial_type":"html-button-response","trial_index":40,"time_elapsed":1109839,"internal_node_id":"0.0-4.0-1.16","subject_id":"6052437c8108f7a8de98b6c9","study_id":"60edd13110225f80f9f3709b","session_id":"6196c706194820db3e0c299c","condition":"full-information","relevant_dimensions":["antennae","wings"],"bee_group":{"antennae":"A","wings":"1","pattern":"X","legs":"X"},"bonus":1.2000000000000013},{"rt":3595.300000000745,"stimulus":"bees-with-color/bee-A2SF.svg","response":1,"trial_type":"image-button-response","trial_index":41,"time_elapsed":1113436,"internal_node_id":"0.0-4.0-0.17","subject_id":"6052437c8108f7a8de98b6c9","study_id":"60edd13110225f80f9f3709b","session_id":"6196c706194820db3e0c299c","condition":"full-information","relevant_dimensions":["antennae","wings"],"bee_group":{"antennae":"A","wings":"1","pattern":"X","legs":"X"},"action":"avoid","summary":"bad-avoid","bonus":1.2000000000000013},{"rt":1430.5,"stimulus":"\n                    <p><b>Action: <em>avoid</em></b></p>\n                    <p>This is the bee that you just saw.</p>\n                    <img src=\"bees-with-color/bee-A2SF.svg\" width=\"200\">\n                    <p><span class=\"redText\">Bad choice,</span> the bee was friendly.<br>Your bonus pay is unchanged, and remains at $0.36.</p>\n            ","response":0,"trial_type":"html-button-response","trial_index":42,"time_elapsed":1114867,"internal_node_id":"0.0-4.0-1.17","subject_id":"6052437c8108f7a8de98b6c9","study_id":"60edd13110225f80f9f3709b","session_id":"6196c706194820db3e0c299c","condition":"full-information","relevant_dimensions":["antennae","wings"],"bee_group":{"antennae":"A","wings":"1","pattern":"X","legs":"X"},"bonus":1.2000000000000013},{"rt":19512.099999997765,"stimulus":"bees-with-color/bee-B1SM.svg","response":0,"trial_type":"image-button-response","trial_index":43,"time_elapsed":1134381,"internal_node_id":"0.0-4.0-0.18","subject_id":"6052437c8108f7a8de98b6c9","study_id":"60edd13110225f80f9f3709b","session_id":"6196c706194820db3e0c299c","condition":"full-information","relevant_dimensions":["antennae","wings"],"bee_group":{"antennae":"A","wings":"1","pattern":"X","legs":"X"},"action":"harvest","summary":"good-harvest","bonus":1.2000000000000013},{"rt":3887.5,"stimulus":"\n                    <p><b>Action: <em>harvest</em></b></p>\n                    <p>This is the bee that you just saw.</p>\n                    <img src=\"bees-with-color/bee-B1SM.svg\" width=\"200\">\n                    <p><span class=\"greenText\"><b>Successful harvest!</b></span><br>Your pay has increased by $0.02. Your bonus pay is now $0.38.</p>\n            ","response":0,"trial_type":"html-button-response","trial_index":44,"time_elapsed":1138269,"internal_node_id":"0.0-4.0-1.18","subject_id":"6052437c8108f7a8de98b6c9","study_id":"60edd13110225f80f9f3709b","session_id":"6196c706194820db3e0c299c","condition":"full-information","relevant_dimensions":["antennae","wings"],"bee_group":{"antennae":"A","wings":"1","pattern":"X","legs":"X"},"bonus":1.2000000000000013},{"rt":8574.20000000298,"stimulus":"bees-with-color/bee-A1SF.svg","response":1,"trial_type":"image-button-response","trial_index":45,"time_elapsed":1146845,"internal_node_id":"0.0-4.0-0.19","subject_id":"6052437c8108f7a8de98b6c9","study_id":"60edd13110225f80f9f3709b","session_id":"6196c706194820db3e0c299c","condition":"full-information","relevant_dimensions":["antennae","wings"],"bee_group":{"antennae":"A","wings":"1","pattern":"X","legs":"X"},"action":"avoid","summary":"good-avoid","bonus":1.2000000000000013},{"rt":1052.8999999985099,"stimulus":"\n                    <p><b>Action: <em>avoid</em></b></p>\n                    <p>This is the bee that you just saw.</p>\n                    <img src=\"bees-with-color/bee-A1SF.svg\" width=\"200\">\n                    <p><span class=\"greenText\">Good choice!</span>  This bee would have stung you.<br>Your bonus pay is unchanged, and remains at $0.38.</p>\n            ","response":0,"trial_type":"html-button-response","trial_index":46,"time_elapsed":1147899,"internal_node_id":"0.0-4.0-1.19","subject_id":"6052437c8108f7a8de98b6c9","study_id":"60edd13110225f80f9f3709b","session_id":"6196c706194820db3e0c299c","condition":"full-information","relevant_dimensions":["antennae","wings"],"bee_group":{"antennae":"A","wings":"1","pattern":"X","legs":"X"},"bonus":1.2000000000000013},{"rt":12674.70000000298,"stimulus":"bees-with-color/bee-B2SF.svg","response":0,"trial_type":"image-button-response","trial_index":47,"time_elapsed":1160575,"internal_node_id":"0.0-4.0-0.20","subject_id":"6052437c8108f7a8de98b6c9","study_id":"60edd13110225f80f9f3709b","session_id":"6196c706194820db3e0c299c","condition":"full-information","relevant_dimensions":["antennae","wings"],"bee_group":{"antennae":"A","wings":"1","pattern":"X","legs":"X"},"action":"harvest","summary":"good-harvest","bonus":1.2000000000000013},{"rt":1154.6000000014901,"stimulus":"\n                    <p><b>Action: <em>harvest</em></b></p>\n                    <p>This is the bee that you just saw.</p>\n                    <img src=\"bees-with-color/bee-B2SF.svg\" width=\"200\">\n                    <p><span class=\"greenText\"><b>Successful harvest!</b></span><br>Your pay has increased by $0.02. Your bonus pay is now $0.40.</p>\n            ","response":0,"trial_type":"html-button-response","trial_index":48,"time_elapsed":1161731,"internal_node_id":"0.0-4.0-1.20","subject_id":"6052437c8108f7a8de98b6c9","study_id":"60edd13110225f80f9f3709b","session_id":"6196c706194820db3e0c299c","condition":"full-information","relevant_dimensions":["antennae","wings"],"bee_group":{"antennae":"A","wings":"1","pattern":"X","legs":"X"},"bonus":1.2000000000000013},{"rt":50765.39999999851,"stimulus":"bees-with-color/bee-A1DM.svg","response":1,"trial_type":"image-button-response","trial_index":49,"time_elapsed":1212497,"internal_node_id":"0.0-4.0-0.21","subject_id":"6052437c8108f7a8de98b6c9","study_id":"60edd13110225f80f9f3709b","session_id":"6196c706194820db3e0c299c","condition":"full-information","relevant_dimensions":["antennae","wings"],"bee_group":{"antennae":"A","wings":"1","pattern":"X","legs":"X"},"action":"avoid","summary":"good-avoid","bonus":1.2000000000000013},{"rt":2948.599999997765,"stimulus":"\n                    <p><b>Action: <em>avoid</em></b></p>\n                    <p>This is the bee that you just saw.</p>\n                    <img src=\"bees-with-color/bee-A1DM.svg\" width=\"200\">\n                    <p><span class=\"greenText\">Good choice!</span>  This bee would have stung you.<br>Your bonus pay is unchanged, and remains at $0.40.</p>\n            ","response":0,"trial_type":"html-button-response","trial_index":50,"time_elapsed":1215447,"internal_node_id":"0.0-4.0-1.21","subject_id":"6052437c8108f7a8de98b6c9","study_id":"60edd13110225f80f9f3709b","session_id":"6196c706194820db3e0c299c","condition":"full-information","relevant_dimensions":["antennae","wings"],"bee_group":{"antennae":"A","wings":"1","pattern":"X","legs":"X"},"bonus":1.2000000000000013},{"rt":14910.800000000745,"stimulus":"bees-with-color/bee-B1SF.svg","response":0,"trial_type":"image-button-response","trial_index":51,"time_elapsed":1230359,"internal_node_id":"0.0-4.0-0.22","subject_id":"6052437c8108f7a8de98b6c9","study_id":"60edd13110225f80f9f3709b","session_id":"6196c706194820db3e0c299c","condition":"full-information","relevant_dimensions":["antennae","wings"],"bee_group":{"antennae":"A","wings":"1","pattern":"X","legs":"X"},"action":"harvest","summary":"good-harvest","bonus":1.2000000000000013},{"rt":1357.6000000014901,"stimulus":"\n                    <p><b>Action: <em>harvest</em></b></p>\n                    <p>This is the bee that you just saw.</p>\n                    <img src=\"bees-with-color/bee-B1SF.svg\" width=\"200\">\n                    <p><span class=\"greenText\"><b>Successful harvest!</b></span><br>Your pay has increased by $0.02. Your bonus pay is now $0.42.</p>\n            ","response":0,"trial_type":"html-button-response","trial_index":52,"time_elapsed":1231717,"internal_node_id":"0.0-4.0-1.22","subject_id":"6052437c8108f7a8de98b6c9","study_id":"60edd13110225f80f9f3709b","session_id":"6196c706194820db3e0c299c","condition":"full-information","relevant_dimensions":["antennae","wings"],"bee_group":{"antennae":"A","wings":"1","pattern":"X","legs":"X"},"bonus":1.2000000000000013},{"rt":10752.699999999255,"stimulus":"bees-with-color/bee-B2SM.svg","response":0,"trial_type":"image-button-response","trial_index":53,"time_elapsed":1242471,"internal_node_id":"0.0-4.0-0.23","subject_id":"6052437c8108f7a8de98b6c9","study_id":"60edd13110225f80f9f3709b","session_id":"6196c706194820db3e0c299c","condition":"full-information","relevant_dimensions":["antennae","wings"],"bee_group":{"antennae":"A","wings":"1","pattern":"X","legs":"X"},"action":"harvest","summary":"good-harvest","bonus":1.2000000000000013},{"rt":2062.2000000029802,"stimulus":"\n                    <p><b>Action: <em>harvest</em></b></p>\n                    <p>This is the bee that you just saw.</p>\n                    <img src=\"bees-with-color/bee-B2SM.svg\" width=\"200\">\n                    <p><span class=\"greenText\"><b>Successful harvest!</b></span><br>Your pay has increased by $0.02. Your bonus pay is now $0.44.</p>\n            ","response":0,"trial_type":"html-button-response","trial_index":54,"time_elapsed":1244535,"internal_node_id":"0.0-4.0-1.23","subject_id":"6052437c8108f7a8de98b6c9","study_id":"60edd13110225f80f9f3709b","session_id":"6196c706194820db3e0c299c","condition":"full-information","relevant_dimensions":["antennae","wings"],"bee_group":{"antennae":"A","wings":"1","pattern":"X","legs":"X"},"bonus":1.2000000000000013},{"rt":18478.699999999255,"stimulus":"bees-with-color/bee-B1DF.svg","response":0,"trial_type":"image-button-response","trial_index":55,"time_elapsed":1263015,"internal_node_id":"0.0-4.0-0.24","subject_id":"6052437c8108f7a8de98b6c9","study_id":"60edd13110225f80f9f3709b","session_id":"6196c706194820db3e0c299c","condition":"full-information","relevant_dimensions":["antennae","wings"],"bee_group":{"antennae":"A","wings":"1","pattern":"X","legs":"X"},"action":"harvest","summary":"good-harvest","bonus":1.2000000000000013},{"rt":2087.599999997765,"stimulus":"\n                    <p><b>Action: <em>harvest</em></b></p>\n                    <p>This is the bee that you just saw.</p>\n                    <img src=\"bees-with-color/bee-B1DF.svg\" width=\"200\">\n                    <p><span class=\"greenText\"><b>Successful harvest!</b></span><br>Your pay has increased by $0.02. Your bonus pay is now $0.46.</p>\n            ","response":0,"trial_type":"html-button-response","trial_index":56,"time_elapsed":1265104,"internal_node_id":"0.0-4.0-1.24","subject_id":"6052437c8108f7a8de98b6c9","study_id":"60edd13110225f80f9f3709b","session_id":"6196c706194820db3e0c299c","condition":"full-information","relevant_dimensions":["antennae","wings"],"bee_group":{"antennae":"A","wings":"1","pattern":"X","legs":"X"},"bonus":1.2000000000000013},{"rt":15267.699999999255,"stimulus":"bees-with-color/bee-A1DF.svg","response":0,"trial_type":"image-button-response","trial_index":57,"time_elapsed":1280373,"internal_node_id":"0.0-4.0-0.25","subject_id":"6052437c8108f7a8de98b6c9","study_id":"60edd13110225f80f9f3709b","session_id":"6196c706194820db3e0c299c","condition":"full-information","relevant_dimensions":["antennae","wings"],"bee_group":{"antennae":"A","wings":"1","pattern":"X","legs":"X"},"action":"harvest","summary":"bad-harvest","bonus":1.2000000000000013},{"rt":11207.89999999851,"stimulus":"\n                    <p><b>Action: <em>harvest</em></b></p>\n                    <p>This is the bee that you just saw.</p>\n                    <img src=\"bees-with-color/bee-A1DF.svg\" width=\"200\">\n                    <p><span class=\"redText\">Bad choice, the bee was angry.</span><br><b>You have been stung!</b><br>Your pay has been decreased by $0.10. Your bonus pay is now $0.36.</p>\n            ","response":0,"trial_type":"html-button-response","trial_index":58,"time_elapsed":1291582,"internal_node_id":"0.0-4.0-1.25","subject_id":"6052437c8108f7a8de98b6c9","study_id":"60edd13110225f80f9f3709b","session_id":"6196c706194820db3e0c299c","condition":"full-information","relevant_dimensions":["antennae","wings"],"bee_group":{"antennae":"A","wings":"1","pattern":"X","legs":"X"},"bonus":1.2000000000000013},{"rt":82079.29999999702,"stimulus":"bees-with-color/bee-B2DM.svg","response":1,"trial_type":"image-button-response","trial_index":59,"time_elapsed":1373663,"internal_node_id":"0.0-4.0-0.26","subject_id":"6052437c8108f7a8de98b6c9","study_id":"60edd13110225f80f9f3709b","session_id":"6196c706194820db3e0c299c","condition":"full-information","relevant_dimensions":["antennae","wings"],"bee_group":{"antennae":"A","wings":"1","pattern":"X","legs":"X"},"action":"avoid","summary":"bad-avoid","bonus":1.2000000000000013},{"rt":14183,"stimulus":"\n                    <p><b>Action: <em>avoid</em></b></p>\n                    <p>This is the bee that you just saw.</p>\n                    <img src=\"bees-with-color/bee-B2DM.svg\" width=\"200\">\n                    <p><span class=\"redText\">Bad choice,</span> the bee was friendly.<br>Your bonus pay is unchanged, and remains at $0.36.</p>\n            ","response":0,"trial_type":"html-button-response","trial_index":60,"time_elapsed":1387847,"internal_node_id":"0.0-4.0-1.26","subject_id":"6052437c8108f7a8de98b6c9","study_id":"60edd13110225f80f9f3709b","session_id":"6196c706194820db3e0c299c","condition":"full-information","relevant_dimensions":["antennae","wings"],"bee_group":{"antennae":"A","wings":"1","pattern":"X","legs":"X"},"bonus":1.2000000000000013},{"rt":17916.199999999255,"stimulus":"bees-with-color/bee-A2DF.svg","response":0,"trial_type":"image-button-response","trial_index":61,"time_elapsed":1405765,"internal_node_id":"0.0-4.0-0.27","subject_id":"6052437c8108f7a8de98b6c9","study_id":"60edd13110225f80f9f3709b","session_id":"6196c706194820db3e0c299c","condition":"full-information","relevant_dimensions":["antennae","wings"],"bee_group":{"antennae":"A","wings":"1","pattern":"X","legs":"X"},"action":"harvest","summary":"good-harvest","bonus":1.2000000000000013},{"rt":1234.699999999255,"stimulus":"\n                    <p><b>Action: <em>harvest</em></b></p>\n                    <p>This is the bee that you just saw.</p>\n                    <img src=\"bees-with-color/bee-A2DF.svg\" width=\"200\">\n                    <p><span class=\"greenText\"><b>Successful harvest!</b></span><br>Your pay has increased by $0.02. Your bonus pay is now $0.38.</p>\n            ","response":0,"trial_type":"html-button-response","trial_index":62,"time_elapsed":1407001,"internal_node_id":"0.0-4.0-1.27","subject_id":"6052437c8108f7a8de98b6c9","study_id":"60edd13110225f80f9f3709b","session_id":"6196c706194820db3e0c299c","condition":"full-information","relevant_dimensions":["antennae","wings"],"bee_group":{"antennae":"A","wings":"1","pattern":"X","legs":"X"},"bonus":1.2000000000000013},{"rt":11176.70000000298,"stimulus":"bees-with-color/bee-A1SM.svg","response":1,"trial_type":"image-button-response","trial_index":63,"time_elapsed":1418179,"internal_node_id":"0.0-4.0-0.28","subject_id":"6052437c8108f7a8de98b6c9","study_id":"60edd13110225f80f9f3709b","session_id":"6196c706194820db3e0c299c","condition":"full-information","relevant_dimensions":["antennae","wings"],"bee_group":{"antennae":"A","wings":"1","pattern":"X","legs":"X"},"action":"avoid","summary":"good-avoid","bonus":1.2000000000000013},{"rt":1649.300000000745,"stimulus":"\n                    <p><b>Action: <em>avoid</em></b></p>\n                    <p>This is the bee that you just saw.</p>\n                    <img src=\"bees-with-color/bee-A1SM.svg\" width=\"200\">\n                    <p><span class=\"greenText\">Good choice!</span>  This bee would have stung you.<br>Your bonus pay is unchanged, and remains at $0.38.</p>\n            ","response":0,"trial_type":"html-button-response","trial_index":64,"time_elapsed":1419830,"internal_node_id":"0.0-4.0-1.28","subject_id":"6052437c8108f7a8de98b6c9","study_id":"60edd13110225f80f9f3709b","session_id":"6196c706194820db3e0c299c","condition":"full-information","relevant_dimensions":["antennae","wings"],"bee_group":{"antennae":"A","wings":"1","pattern":"X","legs":"X"},"bonus":1.2000000000000013},{"rt":32384.10000000149,"stimulus":"bees-with-color/bee-A2SM.svg","response":0,"trial_type":"image-button-response","trial_index":65,"time_elapsed":1452215,"internal_node_id":"0.0-4.0-0.29","subject_id":"6052437c8108f7a8de98b6c9","study_id":"60edd13110225f80f9f3709b","session_id":"6196c706194820db3e0c299c","condition":"full-information","relevant_dimensions":["antennae","wings"],"bee_group":{"antennae":"A","wings":"1","pattern":"X","legs":"X"},"action":"harvest","summary":"good-harvest","bonus":1.2000000000000013},{"rt":1189.300000000745,"stimulus":"\n                    <p><b>Action: <em>harvest</em></b></p>\n                    <p>This is the bee that you just saw.</p>\n                    <img src=\"bees-with-color/bee-A2SM.svg\" width=\"200\">\n                    <p><span class=\"greenText\"><b>Successful harvest!</b></span><br>Your pay has increased by $0.02. Your bonus pay is now $0.40.</p>\n            ","response":0,"trial_type":"html-button-response","trial_index":66,"time_elapsed":1453406,"internal_node_id":"0.0-4.0-1.29","subject_id":"6052437c8108f7a8de98b6c9","study_id":"60edd13110225f80f9f3709b","session_id":"6196c706194820db3e0c299c","condition":"full-information","relevant_dimensions":["antennae","wings"],"bee_group":{"antennae":"A","wings":"1","pattern":"X","legs":"X"},"bonus":1.2000000000000013},{"rt":49742.199999999255,"stimulus":"bees-with-color/bee-A2DM.svg","response":0,"trial_type":"image-button-response","trial_index":67,"time_elapsed":1503149,"internal_node_id":"0.0-4.0-0.30","subject_id":"6052437c8108f7a8de98b6c9","study_id":"60edd13110225f80f9f3709b","session_id":"6196c706194820db3e0c299c","condition":"full-information","relevant_dimensions":["antennae","wings"],"bee_group":{"antennae":"A","wings":"1","pattern":"X","legs":"X"},"action":"harvest","summary":"good-harvest","bonus":1.2000000000000013},{"rt":941.1000000014901,"stimulus":"\n                    <p><b>Action: <em>harvest</em></b></p>\n                    <p>This is the bee that you just saw.</p>\n                    <img src=\"bees-with-color/bee-A2DM.svg\" width=\"200\">\n                    <p><span class=\"greenText\"><b>Successful harvest!</b></span><br>Your pay has increased by $0.02. Your bonus pay is now $0.42.</p>\n            ","response":0,"trial_type":"html-button-response","trial_index":68,"time_elapsed":1504091,"internal_node_id":"0.0-4.0-1.30","subject_id":"6052437c8108f7a8de98b6c9","study_id":"60edd13110225f80f9f3709b","session_id":"6196c706194820db3e0c299c","condition":"full-information","relevant_dimensions":["antennae","wings"],"bee_group":{"antennae":"A","wings":"1","pattern":"X","legs":"X"},"bonus":1.2000000000000013},{"rt":17452.60000000149,"stimulus":"bees-with-color/bee-B1DM.svg","response":0,"trial_type":"image-button-response","trial_index":69,"time_elapsed":1521546,"internal_node_id":"0.0-4.0-0.31","subject_id":"6052437c8108f7a8de98b6c9","study_id":"60edd13110225f80f9f3709b","session_id":"6196c706194820db3e0c299c","condition":"full-information","relevant_dimensions":["antennae","wings"],"bee_group":{"antennae":"A","wings":"1","pattern":"X","legs":"X"},"action":"harvest","summary":"good-harvest","bonus":1.2000000000000013},{"rt":1087.1000000014901,"stimulus":"\n                    <p><b>Action: <em>harvest</em></b></p>\n                    <p>This is the bee that you just saw.</p>\n                    <img src=\"bees-with-color/bee-B1DM.svg\" width=\"200\">\n                    <p><span class=\"greenText\"><b>Successful harvest!</b></span><br>Your pay has increased by $0.02. Your bonus pay is now $0.44.</p>\n            ","response":0,"trial_type":"html-button-response","trial_index":70,"time_elapsed":1522634,"internal_node_id":"0.0-4.0-1.31","subject_id":"6052437c8108f7a8de98b6c9","study_id":"60edd13110225f80f9f3709b","session_id":"6196c706194820db3e0c299c","condition":"full-information","relevant_dimensions":["antennae","wings"],"bee_group":{"antennae":"A","wings":"1","pattern":"X","legs":"X"},"bonus":1.2000000000000013},{"rt":41259.60000000149,"stimulus":"bees-with-color/bee-A1SF.svg","response":1,"trial_type":"image-button-response","trial_index":71,"time_elapsed":1563895,"internal_node_id":"0.0-4.0-0.32","subject_id":"6052437c8108f7a8de98b6c9","study_id":"60edd13110225f80f9f3709b","session_id":"6196c706194820db3e0c299c","condition":"full-information","relevant_dimensions":["antennae","wings"],"bee_group":{"antennae":"A","wings":"1","pattern":"X","legs":"X"},"action":"avoid","summary":"good-avoid","bonus":1.2000000000000013},{"rt":1339.7000000029802,"stimulus":"\n                    <p><b>Action: <em>avoid</em></b></p>\n                    <p>This is the bee that you just saw.</p>\n                    <img src=\"bees-with-color/bee-A1SF.svg\" width=\"200\">\n                    <p><span class=\"greenText\">Good choice!</span>  This bee would have stung you.<br>Your bonus pay is unchanged, and remains at $0.44.</p>\n            ","response":0,"trial_type":"html-button-response","trial_index":72,"time_elapsed":1565236,"internal_node_id":"0.0-4.0-1.32","subject_id":"6052437c8108f7a8de98b6c9","study_id":"60edd13110225f80f9f3709b","session_id":"6196c706194820db3e0c299c","condition":"full-information","relevant_dimensions":["antennae","wings"],"bee_group":{"antennae":"A","wings":"1","pattern":"X","legs":"X"},"bonus":1.2000000000000013},{"rt":11689.199999999255,"stimulus":"bees-with-color/bee-B1SF.svg","response":0,"trial_type":"image-button-response","trial_index":73,"time_elapsed":1576926,"internal_node_id":"0.0-4.0-0.33","subject_id":"6052437c8108f7a8de98b6c9","study_id":"60edd13110225f80f9f3709b","session_id":"6196c706194820db3e0c299c","condition":"full-information","relevant_dimensions":["antennae","wings"],"bee_group":{"antennae":"A","wings":"1","pattern":"X","legs":"X"},"action":"harvest","summary":"good-harvest","bonus":1.2000000000000013},{"rt":854.6999999992549,"stimulus":"\n                    <p><b>Action: <em>harvest</em></b></p>\n                    <p>This is the bee that you just saw.</p>\n                    <img src=\"bees-with-color/bee-B1SF.svg\" width=\"200\">\n                    <p><span class=\"greenText\"><b>Successful harvest!</b></span><br>Your pay has increased by $0.02. Your bonus pay is now $0.46.</p>\n            ","response":0,"trial_type":"html-button-response","trial_index":74,"time_elapsed":1577782,"internal_node_id":"0.0-4.0-1.33","subject_id":"6052437c8108f7a8de98b6c9","study_id":"60edd13110225f80f9f3709b","session_id":"6196c706194820db3e0c299c","condition":"full-information","relevant_dimensions":["antennae","wings"],"bee_group":{"antennae":"A","wings":"1","pattern":"X","legs":"X"},"bonus":1.2000000000000013},{"rt":10458.300000000745,"stimulus":"bees-with-color/bee-A2SF.svg","response":0,"trial_type":"image-button-response","trial_index":75,"time_elapsed":1588241,"internal_node_id":"0.0-4.0-0.34","subject_id":"6052437c8108f7a8de98b6c9","study_id":"60edd13110225f80f9f3709b","session_id":"6196c706194820db3e0c299c","condition":"full-information","relevant_dimensions":["antennae","wings"],"bee_group":{"antennae":"A","wings":"1","pattern":"X","legs":"X"},"action":"harvest","summary":"good-harvest","bonus":1.2000000000000013},{"rt":1109.6000000014901,"stimulus":"\n                    <p><b>Action: <em>harvest</em></b></p>\n                    <p>This is the bee that you just saw.</p>\n                    <img src=\"bees-with-color/bee-A2SF.svg\" width=\"200\">\n                    <p><span class=\"greenText\"><b>Successful harvest!</b></span><br>Your pay has increased by $0.02. Your bonus pay is now $0.48.</p>\n            ","response":0,"trial_type":"html-button-response","trial_index":76,"time_elapsed":1589351,"internal_node_id":"0.0-4.0-1.34","subject_id":"6052437c8108f7a8de98b6c9","study_id":"60edd13110225f80f9f3709b","session_id":"6196c706194820db3e0c299c","condition":"full-information","relevant_dimensions":["antennae","wings"],"bee_group":{"antennae":"A","wings":"1","pattern":"X","legs":"X"},"bonus":1.2000000000000013},{"rt":12338.800000000745,"stimulus":"bees-with-color/bee-B1SM.svg","response":0,"trial_type":"image-button-response","trial_index":77,"time_elapsed":1601691,"internal_node_id":"0.0-4.0-0.35","subject_id":"6052437c8108f7a8de98b6c9","study_id":"60edd13110225f80f9f3709b","session_id":"6196c706194820db3e0c299c","condition":"full-information","relevant_dimensions":["antennae","wings"],"bee_group":{"antennae":"A","wings":"1","pattern":"X","legs":"X"},"action":"harvest","summary":"good-harvest","bonus":1.2000000000000013},{"rt":897.1999999992549,"stimulus":"\n                    <p><b>Action: <em>harvest</em></b></p>\n                    <p>This is the bee that you just saw.</p>\n                    <img src=\"bees-with-color/bee-B1SM.svg\" width=\"200\">\n                    <p><span class=\"greenText\"><b>Successful harvest!</b></span><br>Your pay has increased by $0.02. Your bonus pay is now $0.50.</p>\n            ","response":0,"trial_type":"html-button-response","trial_index":78,"time_elapsed":1602590,"internal_node_id":"0.0-4.0-1.35","subject_id":"6052437c8108f7a8de98b6c9","study_id":"60edd13110225f80f9f3709b","session_id":"6196c706194820db3e0c299c","condition":"full-information","relevant_dimensions":["antennae","wings"],"bee_group":{"antennae":"A","wings":"1","pattern":"X","legs":"X"},"bonus":1.2000000000000013},{"rt":40450.699999999255,"stimulus":"bees-with-color/bee-B1DM.svg","response":0,"trial_type":"image-button-response","trial_index":79,"time_elapsed":1643041,"internal_node_id":"0.0-4.0-0.36","subject_id":"6052437c8108f7a8de98b6c9","study_id":"60edd13110225f80f9f3709b","session_id":"6196c706194820db3e0c299c","condition":"full-information","relevant_dimensions":["antennae","wings"],"bee_group":{"antennae":"A","wings":"1","pattern":"X","legs":"X"},"action":"harvest","summary":"good-harvest","bonus":1.2000000000000013},{"rt":1174.699999999255,"stimulus":"\n                    <p><b>Action: <em>harvest</em></b></p>\n                    <p>This is the bee that you just saw.</p>\n                    <img src=\"bees-with-color/bee-B1DM.svg\" width=\"200\">\n                    <p><span class=\"greenText\"><b>Successful harvest!</b></span><br>Your pay has increased by $0.02. Your bonus pay is now $0.52.</p>\n            ","response":0,"trial_type":"html-button-response","trial_index":80,"time_elapsed":1644217,"internal_node_id":"0.0-4.0-1.36","subject_id":"6052437c8108f7a8de98b6c9","study_id":"60edd13110225f80f9f3709b","session_id":"6196c706194820db3e0c299c","condition":"full-information","relevant_dimensions":["antennae","wings"],"bee_group":{"antennae":"A","wings":"1","pattern":"X","legs":"X"},"bonus":1.2000000000000013},{"rt":39248.800000000745,"stimulus":"bees-with-color/bee-A1SM.svg","response":0,"trial_type":"image-button-response","trial_index":81,"time_elapsed":1683467,"internal_node_id":"0.0-4.0-0.37","subject_id":"6052437c8108f7a8de98b6c9","study_id":"60edd13110225f80f9f3709b","session_id":"6196c706194820db3e0c299c","condition":"full-information","relevant_dimensions":["antennae","wings"],"bee_group":{"antennae":"A","wings":"1","pattern":"X","legs":"X"},"action":"harvest","summary":"bad-harvest","bonus":1.2000000000000013},{"rt":6793.70000000298,"stimulus":"\n                    <p><b>Action: <em>harvest</em></b></p>\n                    <p>This is the bee that you just saw.</p>\n                    <img src=\"bees-with-color/bee-A1SM.svg\" width=\"200\">\n                    <p><span class=\"redText\">Bad choice, the bee was angry.</span><br><b>You have been stung!</b><br>Your pay has been decreased by $0.10. Your bonus pay is now $0.42.</p>\n            ","response":0,"trial_type":"html-button-response","trial_index":82,"time_elapsed":1690262,"internal_node_id":"0.0-4.0-1.37","subject_id":"6052437c8108f7a8de98b6c9","study_id":"60edd13110225f80f9f3709b","session_id":"6196c706194820db3e0c299c","condition":"full-information","relevant_dimensions":["antennae","wings"],"bee_group":{"antennae":"A","wings":"1","pattern":"X","legs":"X"},"bonus":1.2000000000000013},{"rt":21388,"stimulus":"bees-with-color/bee-A2DF.svg","response":0,"trial_type":"image-button-response","trial_index":83,"time_elapsed":1711651,"internal_node_id":"0.0-4.0-0.38","subject_id":"6052437c8108f7a8de98b6c9","study_id":"60edd13110225f80f9f3709b","session_id":"6196c706194820db3e0c299c","condition":"full-information","relevant_dimensions":["antennae","wings"],"bee_group":{"antennae":"A","wings":"1","pattern":"X","legs":"X"},"action":"harvest","summary":"good-harvest","bonus":1.2000000000000013},{"rt":1477.5,"stimulus":"\n                    <p><b>Action: <em>harvest</em></b></p>\n                    <p>This is the bee that you just saw.</p>\n                    <img src=\"bees-with-color/bee-A2DF.svg\" width=\"200\">\n                    <p><span class=\"greenText\"><b>Successful harvest!</b></span><br>Your pay has increased by $0.02. Your bonus pay is now $0.44.</p>\n            ","response":0,"trial_type":"html-button-response","trial_index":84,"time_elapsed":1713130,"internal_node_id":"0.0-4.0-1.38","subject_id":"6052437c8108f7a8de98b6c9","study_id":"60edd13110225f80f9f3709b","session_id":"6196c706194820db3e0c299c","condition":"full-information","relevant_dimensions":["antennae","wings"],"bee_group":{"antennae":"A","wings":"1","pattern":"X","legs":"X"},"bonus":1.2000000000000013},{"rt":6092.10000000149,"stimulus":"bees-with-color/bee-A2DM.svg","response":0,"trial_type":"image-button-response","trial_index":85,"time_elapsed":1719223,"internal_node_id":"0.0-4.0-0.39","subject_id":"6052437c8108f7a8de98b6c9","study_id":"60edd13110225f80f9f3709b","session_id":"6196c706194820db3e0c299c","condition":"full-information","relevant_dimensions":["antennae","wings"],"bee_group":{"antennae":"A","wings":"1","pattern":"X","legs":"X"},"action":"harvest","summary":"good-harvest","bonus":1.2000000000000013},{"rt":1006.5999999977648,"stimulus":"\n                    <p><b>Action: <em>harvest</em></b></p>\n                    <p>This is the bee that you just saw.</p>\n                    <img src=\"bees-with-color/bee-A2DM.svg\" width=\"200\">\n                    <p><span class=\"greenText\"><b>Successful harvest!</b></span><br>Your pay has increased by $0.02. Your bonus pay is now $0.46.</p>\n            ","response":0,"trial_type":"html-button-response","trial_index":86,"time_elapsed":1720231,"internal_node_id":"0.0-4.0-1.39","subject_id":"6052437c8108f7a8de98b6c9","study_id":"60edd13110225f80f9f3709b","session_id":"6196c706194820db3e0c299c","condition":"full-information","relevant_dimensions":["antennae","wings"],"bee_group":{"antennae":"A","wings":"1","pattern":"X","legs":"X"},"bonus":1.2000000000000013},{"rt":1712.6000000014901,"stimulus":"bees-with-color/bee-B2DM.svg","response":0,"trial_type":"image-button-response","trial_index":87,"time_elapsed":1721945,"internal_node_id":"0.0-4.0-0.40","subject_id":"6052437c8108f7a8de98b6c9","study_id":"60edd13110225f80f9f3709b","session_id":"6196c706194820db3e0c299c","condition":"full-information","relevant_dimensions":["antennae","wings"],"bee_group":{"antennae":"A","wings":"1","pattern":"X","legs":"X"},"action":"harvest","summary":"good-harvest","bonus":1.2000000000000013},{"rt":962.9000000022352,"stimulus":"\n                    <p><b>Action: <em>harvest</em></b></p>\n                    <p>This is the bee that you just saw.</p>\n                    <img src=\"bees-with-color/bee-B2DM.svg\" width=\"200\">\n                    <p><span class=\"greenText\"><b>Successful harvest!</b></span><br>Your pay has increased by $0.02. Your bonus pay is now $0.48.</p>\n            ","response":0,"trial_type":"html-button-response","trial_index":88,"time_elapsed":1722909,"internal_node_id":"0.0-4.0-1.40","subject_id":"6052437c8108f7a8de98b6c9","study_id":"60edd13110225f80f9f3709b","session_id":"6196c706194820db3e0c299c","condition":"full-information","relevant_dimensions":["antennae","wings"],"bee_group":{"antennae":"A","wings":"1","pattern":"X","legs":"X"},"bonus":1.2000000000000013},{"rt":21304.89999999851,"stimulus":"bees-with-color/bee-A1DF.svg","response":1,"trial_type":"image-button-response","trial_index":89,"time_elapsed":1744215,"internal_node_id":"0.0-4.0-0.41","subject_id":"6052437c8108f7a8de98b6c9","study_id":"60edd13110225f80f9f3709b","session_id":"6196c706194820db3e0c299c","condition":"full-information","relevant_dimensions":["antennae","wings"],"bee_group":{"antennae":"A","wings":"1","pattern":"X","legs":"X"},"action":"avoid","summary":"good-avoid","bonus":1.2000000000000013},{"rt":4751,"stimulus":"\n                    <p><b>Action: <em>avoid</em></b></p>\n                    <p>This is the bee that you just saw.</p>\n                    <img src=\"bees-with-color/bee-A1DF.svg\" width=\"200\">\n                    <p><span class=\"greenText\">Good choice!</span>  This bee would have stung you.<br>Your bonus pay is unchanged, and remains at $0.48.</p>\n            ","response":0,"trial_type":"html-button-response","trial_index":90,"time_elapsed":1748968,"internal_node_id":"0.0-4.0-1.41","subject_id":"6052437c8108f7a8de98b6c9","study_id":"60edd13110225f80f9f3709b","session_id":"6196c706194820db3e0c299c","condition":"full-information","relevant_dimensions":["antennae","wings"],"bee_group":{"antennae":"A","wings":"1","pattern":"X","legs":"X"},"bonus":1.2000000000000013},{"rt":58178.900000002235,"stimulus":"bees-with-color/bee-B2SF.svg","response":0,"trial_type":"image-button-response","trial_index":91,"time_elapsed":1807149,"internal_node_id":"0.0-4.0-0.42","subject_id":"6052437c8108f7a8de98b6c9","study_id":"60edd13110225f80f9f3709b","session_id":"6196c706194820db3e0c299c","condition":"full-information","relevant_dimensions":["antennae","wings"],"bee_group":{"antennae":"A","wings":"1","pattern":"X","legs":"X"},"action":"harvest","summary":"good-harvest","bonus":1.2000000000000013},{"rt":800.3000000007451,"stimulus":"\n                    <p><b>Action: <em>harvest</em></b></p>\n                    <p>This is the bee that you just saw.</p>\n                    <img src=\"bees-with-color/bee-B2SF.svg\" width=\"200\">\n                    <p><span class=\"greenText\"><b>Successful harvest!</b></span><br>Your pay has increased by $0.02. Your bonus pay is now $0.50.</p>\n            ","response":0,"trial_type":"html-button-response","trial_index":92,"time_elapsed":1807950,"internal_node_id":"0.0-4.0-1.42","subject_id":"6052437c8108f7a8de98b6c9","study_id":"60edd13110225f80f9f3709b","session_id":"6196c706194820db3e0c299c","condition":"full-information","relevant_dimensions":["antennae","wings"],"bee_group":{"antennae":"A","wings":"1","pattern":"X","legs":"X"},"bonus":1.2000000000000013},{"rt":5238.300000000745,"stimulus":"bees-with-color/bee-A2SM.svg","response":0,"trial_type":"image-button-response","trial_index":93,"time_elapsed":1813190,"internal_node_id":"0.0-4.0-0.43","subject_id":"6052437c8108f7a8de98b6c9","study_id":"60edd13110225f80f9f3709b","session_id":"6196c706194820db3e0c299c","condition":"full-information","relevant_dimensions":["antennae","wings"],"bee_group":{"antennae":"A","wings":"1","pattern":"X","legs":"X"},"action":"harvest","summary":"good-harvest","bonus":1.2000000000000013},{"rt":751.1999999992549,"stimulus":"\n                    <p><b>Action: <em>harvest</em></b></p>\n                    <p>This is the bee that you just saw.</p>\n                    <img src=\"bees-with-color/bee-A2SM.svg\" width=\"200\">\n                    <p><span class=\"greenText\"><b>Successful harvest!</b></span><br>Your pay has increased by $0.02. Your bonus pay is now $0.52.</p>\n            ","response":0,"trial_type":"html-button-response","trial_index":94,"time_elapsed":1813943,"internal_node_id":"0.0-4.0-1.43","subject_id":"6052437c8108f7a8de98b6c9","study_id":"60edd13110225f80f9f3709b","session_id":"6196c706194820db3e0c299c","condition":"full-information","relevant_dimensions":["antennae","wings"],"bee_group":{"antennae":"A","wings":"1","pattern":"X","legs":"X"},"bonus":1.2000000000000013},{"rt":5676.29999999702,"stimulus":"bees-with-color/bee-B2SM.svg","response":0,"trial_type":"image-button-response","trial_index":95,"time_elapsed":1819620,"internal_node_id":"0.0-4.0-0.44","subject_id":"6052437c8108f7a8de98b6c9","study_id":"60edd13110225f80f9f3709b","session_id":"6196c706194820db3e0c299c","condition":"full-information","relevant_dimensions":["antennae","wings"],"bee_group":{"antennae":"A","wings":"1","pattern":"X","legs":"X"},"action":"harvest","summary":"good-harvest","bonus":1.2000000000000013},{"rt":735.3000000007451,"stimulus":"\n                    <p><b>Action: <em>harvest</em></b></p>\n                    <p>This is the bee that you just saw.</p>\n                    <img src=\"bees-with-color/bee-B2SM.svg\" width=\"200\">\n                    <p><span class=\"greenText\"><b>Successful harvest!</b></span><br>Your pay has increased by $0.02. Your bonus pay is now $0.54.</p>\n            ","response":0,"trial_type":"html-button-response","trial_index":96,"time_elapsed":1820357,"internal_node_id":"0.0-4.0-1.44","subject_id":"6052437c8108f7a8de98b6c9","study_id":"60edd13110225f80f9f3709b","session_id":"6196c706194820db3e0c299c","condition":"full-information","relevant_dimensions":["antennae","wings"],"bee_group":{"antennae":"A","wings":"1","pattern":"X","legs":"X"},"bonus":1.2000000000000013},{"rt":4285.60000000149,"stimulus":"bees-with-color/bee-A1DM.svg","response":0,"trial_type":"image-button-response","trial_index":97,"time_elapsed":1824645,"internal_node_id":"0.0-4.0-0.45","subject_id":"6052437c8108f7a8de98b6c9","study_id":"60edd13110225f80f9f3709b","session_id":"6196c706194820db3e0c299c","condition":"full-information","relevant_dimensions":["antennae","wings"],"bee_group":{"antennae":"A","wings":"1","pattern":"X","legs":"X"},"action":"harvest","summary":"bad-harvest","bonus":1.2000000000000013},{"rt":26495.800000000745,"stimulus":"\n                    <p><b>Action: <em>harvest</em></b></p>\n                    <p>This is the bee that you just saw.</p>\n                    <img src=\"bees-with-color/bee-A1DM.svg\" width=\"200\">\n                    <p><span class=\"redText\">Bad choice, the bee was angry.</span><br><b>You have been stung!</b><br>Your pay has been decreased by $0.10. Your bonus pay is now $0.44.</p>\n            ","response":0,"trial_type":"html-button-response","trial_index":98,"time_elapsed":1851142,"internal_node_id":"0.0-4.0-1.45","subject_id":"6052437c8108f7a8de98b6c9","study_id":"60edd13110225f80f9f3709b","session_id":"6196c706194820db3e0c299c","condition":"full-information","relevant_dimensions":["antennae","wings"],"bee_group":{"antennae":"A","wings":"1","pattern":"X","legs":"X"},"bonus":1.2000000000000013},{"rt":12773,"stimulus":"bees-with-color/bee-B2DF.svg","response":0,"trial_type":"image-button-response","trial_index":99,"time_elapsed":1863916,"internal_node_id":"0.0-4.0-0.46","subject_id":"6052437c8108f7a8de98b6c9","study_id":"60edd13110225f80f9f3709b","session_id":"6196c706194820db3e0c299c","condition":"full-information","relevant_dimensions":["antennae","wings"],"bee_group":{"antennae":"A","wings":"1","pattern":"X","legs":"X"},"action":"harvest","summary":"good-harvest","bonus":1.2000000000000013},{"rt":923.3999999985099,"stimulus":"\n                    <p><b>Action: <em>harvest</em></b></p>\n                    <p>This is the bee that you just saw.</p>\n                    <img src=\"bees-with-color/bee-B2DF.svg\" width=\"200\">\n                    <p><span class=\"greenText\"><b>Successful harvest!</b></span><br>Your pay has increased by $0.02. Your bonus pay is now $0.46.</p>\n            ","response":0,"trial_type":"html-button-response","trial_index":100,"time_elapsed":1864841,"internal_node_id":"0.0-4.0-1.46","subject_id":"6052437c8108f7a8de98b6c9","study_id":"60edd13110225f80f9f3709b","session_id":"6196c706194820db3e0c299c","condition":"full-information","relevant_dimensions":["antennae","wings"],"bee_group":{"antennae":"A","wings":"1","pattern":"X","legs":"X"},"bonus":1.2000000000000013},{"rt":5566.79999999702,"stimulus":"bees-with-color/bee-B1DF.svg","response":0,"trial_type":"image-button-response","trial_index":101,"time_elapsed":1870409,"internal_node_id":"0.0-4.0-0.47","subject_id":"6052437c8108f7a8de98b6c9","study_id":"60edd13110225f80f9f3709b","session_id":"6196c706194820db3e0c299c","condition":"full-information","relevant_dimensions":["antennae","wings"],"bee_group":{"antennae":"A","wings":"1","pattern":"X","legs":"X"},"action":"harvest","summary":"good-harvest","bonus":1.2000000000000013},{"rt":970.6000000014901,"stimulus":"\n                    <p><b>Action: <em>harvest</em></b></p>\n                    <p>This is the bee that you just saw.</p>\n                    <img src=\"bees-with-color/bee-B1DF.svg\" width=\"200\">\n                    <p><span class=\"greenText\"><b>Successful harvest!</b></span><br>Your pay has increased by $0.02. Your bonus pay is now $0.48.</p>\n            ","response":0,"trial_type":"html-button-response","trial_index":102,"time_elapsed":1871380,"internal_node_id":"0.0-4.0-1.47","subject_id":"6052437c8108f7a8de98b6c9","study_id":"60edd13110225f80f9f3709b","session_id":"6196c706194820db3e0c299c","condition":"full-information","relevant_dimensions":["antennae","wings"],"bee_group":{"antennae":"A","wings":"1","pattern":"X","legs":"X"},"bonus":1.2000000000000013},{"rt":1750.7999999970198,"stimulus":"bees-with-color/bee-B1DF.svg","response":0,"trial_type":"image-button-response","trial_index":103,"time_elapsed":1873133,"internal_node_id":"0.0-4.0-0.48","subject_id":"6052437c8108f7a8de98b6c9","study_id":"60edd13110225f80f9f3709b","session_id":"6196c706194820db3e0c299c","condition":"full-information","relevant_dimensions":["antennae","wings"],"bee_group":{"antennae":"A","wings":"1","pattern":"X","legs":"X"},"action":"harvest","summary":"good-harvest","bonus":1.2000000000000013},{"rt":638.1000000014901,"stimulus":"\n                    <p><b>Action: <em>harvest</em></b></p>\n                    <p>This is the bee that you just saw.</p>\n                    <img src=\"bees-with-color/bee-B1DF.svg\" width=\"200\">\n                    <p><span class=\"greenText\"><b>Successful harvest!</b></span><br>Your pay has increased by $0.02. Your bonus pay is now $0.50.</p>\n            ","response":0,"trial_type":"html-button-response","trial_index":104,"time_elapsed":1873772,"internal_node_id":"0.0-4.0-1.48","subject_id":"6052437c8108f7a8de98b6c9","study_id":"60edd13110225f80f9f3709b","session_id":"6196c706194820db3e0c299c","condition":"full-information","relevant_dimensions":["antennae","wings"],"bee_group":{"antennae":"A","wings":"1","pattern":"X","legs":"X"},"bonus":1.2000000000000013},{"rt":8893.300000000745,"stimulus":"bees-with-color/bee-A2DM.svg","response":0,"trial_type":"image-button-response","trial_index":105,"time_elapsed":1882666,"internal_node_id":"0.0-4.0-0.49","subject_id":"6052437c8108f7a8de98b6c9","study_id":"60edd13110225f80f9f3709b","session_id":"6196c706194820db3e0c299c","condition":"full-information","relevant_dimensions":["antennae","wings"],"bee_group":{"antennae":"A","wings":"1","pattern":"X","legs":"X"},"action":"harvest","summary":"good-harvest","bonus":1.2000000000000013},{"rt":991.6000000014901,"stimulus":"\n                    <p><b>Action: <em>harvest</em></b></p>\n                    <p>This is the bee that you just saw.</p>\n                    <img src=\"bees-with-color/bee-A2DM.svg\" width=\"200\">\n                    <p><span class=\"greenText\"><b>Successful harvest!</b></span><br>Your pay has increased by $0.02. Your bonus pay is now $0.52.</p>\n            ","response":0,"trial_type":"html-button-response","trial_index":106,"time_elapsed":1883659,"internal_node_id":"0.0-4.0-1.49","subject_id":"6052437c8108f7a8de98b6c9","study_id":"60edd13110225f80f9f3709b","session_id":"6196c706194820db3e0c299c","condition":"full-information","relevant_dimensions":["antennae","wings"],"bee_group":{"antennae":"A","wings":"1","pattern":"X","legs":"X"},"bonus":1.2000000000000013},{"rt":5234.60000000149,"stimulus":"bees-with-color/bee-A1DF.svg","response":1,"trial_type":"image-button-response","trial_index":107,"time_elapsed":1888895,"internal_node_id":"0.0-4.0-0.50","subject_id":"6052437c8108f7a8de98b6c9","study_id":"60edd13110225f80f9f3709b","session_id":"6196c706194820db3e0c299c","condition":"full-information","relevant_dimensions":["antennae","wings"],"bee_group":{"antennae":"A","wings":"1","pattern":"X","legs":"X"},"action":"avoid","summary":"good-avoid","bonus":1.2000000000000013},{"rt":1012.3000000007451,"stimulus":"\n                    <p><b>Action: <em>avoid</em></b></p>\n                    <p>This is the bee that you just saw.</p>\n                    <img src=\"bees-with-color/bee-A1DF.svg\" width=\"200\">\n                    <p><span class=\"greenText\">Good choice!</span>  This bee would have stung you.<br>Your bonus pay is unchanged, and remains at $0.52.</p>\n            ","response":0,"trial_type":"html-button-response","trial_index":108,"time_elapsed":1889909,"internal_node_id":"0.0-4.0-1.50","subject_id":"6052437c8108f7a8de98b6c9","study_id":"60edd13110225f80f9f3709b","session_id":"6196c706194820db3e0c299c","condition":"full-information","relevant_dimensions":["antennae","wings"],"bee_group":{"antennae":"A","wings":"1","pattern":"X","legs":"X"},"bonus":1.2000000000000013},{"rt":5682.900000002235,"stimulus":"bees-with-color/bee-B2SF.svg","response":0,"trial_type":"image-button-response","trial_index":109,"time_elapsed":1895593,"internal_node_id":"0.0-4.0-0.51","subject_id":"6052437c8108f7a8de98b6c9","study_id":"60edd13110225f80f9f3709b","session_id":"6196c706194820db3e0c299c","condition":"full-information","relevant_dimensions":["antennae","wings"],"bee_group":{"antennae":"A","wings":"1","pattern":"X","legs":"X"},"action":"harvest","summary":"good-harvest","bonus":1.2000000000000013},{"rt":796.5,"stimulus":"\n                    <p><b>Action: <em>harvest</em></b></p>\n                    <p>This is the bee that you just saw.</p>\n                    <img src=\"bees-with-color/bee-B2SF.svg\" width=\"200\">\n                    <p><span class=\"greenText\"><b>Successful harvest!</b></span><br>Your pay has increased by $0.02. Your bonus pay is now $0.54.</p>\n            ","response":0,"trial_type":"html-button-response","trial_index":110,"time_elapsed":1896390,"internal_node_id":"0.0-4.0-1.51","subject_id":"6052437c8108f7a8de98b6c9","study_id":"60edd13110225f80f9f3709b","session_id":"6196c706194820db3e0c299c","condition":"full-information","relevant_dimensions":["antennae","wings"],"bee_group":{"antennae":"A","wings":"1","pattern":"X","legs":"X"},"bonus":1.2000000000000013},{"rt":9161.20000000298,"stimulus":"bees-with-color/bee-A2SF.svg","response":0,"trial_type":"image-button-response","trial_index":111,"time_elapsed":1905553,"internal_node_id":"0.0-4.0-0.52","subject_id":"6052437c8108f7a8de98b6c9","study_id":"60edd13110225f80f9f3709b","session_id":"6196c706194820db3e0c299c","condition":"full-information","relevant_dimensions":["antennae","wings"],"bee_group":{"antennae":"A","wings":"1","pattern":"X","legs":"X"},"action":"harvest","summary":"good-harvest","bonus":1.2000000000000013},{"rt":1295.2999999970198,"stimulus":"\n                    <p><b>Action: <em>harvest</em></b></p>\n                    <p>This is the bee that you just saw.</p>\n                    <img src=\"bees-with-color/bee-A2SF.svg\" width=\"200\">\n                    <p><span class=\"greenText\"><b>Successful harvest!</b></span><br>Your pay has increased by $0.02. Your bonus pay is now $0.56.</p>\n            ","response":0,"trial_type":"html-button-response","trial_index":112,"time_elapsed":1906849,"internal_node_id":"0.0-4.0-1.52","subject_id":"6052437c8108f7a8de98b6c9","study_id":"60edd13110225f80f9f3709b","session_id":"6196c706194820db3e0c299c","condition":"full-information","relevant_dimensions":["antennae","wings"],"bee_group":{"antennae":"A","wings":"1","pattern":"X","legs":"X"},"bonus":1.2000000000000013},{"rt":5697.699999999255,"stimulus":"bees-with-color/bee-B2DM.svg","response":0,"trial_type":"image-button-response","trial_index":113,"time_elapsed":1912548,"internal_node_id":"0.0-4.0-0.53","subject_id":"6052437c8108f7a8de98b6c9","study_id":"60edd13110225f80f9f3709b","session_id":"6196c706194820db3e0c299c","condition":"full-information","relevant_dimensions":["antennae","wings"],"bee_group":{"antennae":"A","wings":"1","pattern":"X","legs":"X"},"action":"harvest","summary":"good-harvest","bonus":1.2000000000000013},{"rt":741,"stimulus":"\n                    <p><b>Action: <em>harvest</em></b></p>\n                    <p>This is the bee that you just saw.</p>\n                    <img src=\"bees-with-color/bee-B2DM.svg\" width=\"200\">\n                    <p><span class=\"greenText\"><b>Successful harvest!</b></span><br>Your pay has increased by $0.02. Your bonus pay is now $0.58.</p>\n            ","response":0,"trial_type":"html-button-response","trial_index":114,"time_elapsed":1913291,"internal_node_id":"0.0-4.0-1.53","subject_id":"6052437c8108f7a8de98b6c9","study_id":"60edd13110225f80f9f3709b","session_id":"6196c706194820db3e0c299c","condition":"full-information","relevant_dimensions":["antennae","wings"],"bee_group":{"antennae":"A","wings":"1","pattern":"X","legs":"X"},"bonus":1.2000000000000013},{"rt":10276.599999997765,"stimulus":"bees-with-color/bee-A1SM.svg","response":1,"trial_type":"image-button-response","trial_index":115,"time_elapsed":1923569,"internal_node_id":"0.0-4.0-0.54","subject_id":"6052437c8108f7a8de98b6c9","study_id":"60edd13110225f80f9f3709b","session_id":"6196c706194820db3e0c299c","condition":"full-information","relevant_dimensions":["antennae","wings"],"bee_group":{"antennae":"A","wings":"1","pattern":"X","legs":"X"},"action":"avoid","summary":"good-avoid","bonus":1.2000000000000013},{"rt":2888.099999997765,"stimulus":"\n                    <p><b>Action: <em>avoid</em></b></p>\n                    <p>This is the bee that you just saw.</p>\n                    <img src=\"bees-with-color/bee-A1SM.svg\" width=\"200\">\n                    <p><span class=\"greenText\">Good choice!</span>  This bee would have stung you.<br>Your bonus pay is unchanged, and remains at $0.58.</p>\n            ","response":0,"trial_type":"html-button-response","trial_index":116,"time_elapsed":1926458,"internal_node_id":"0.0-4.0-1.54","subject_id":"6052437c8108f7a8de98b6c9","study_id":"60edd13110225f80f9f3709b","session_id":"6196c706194820db3e0c299c","condition":"full-information","relevant_dimensions":["antennae","wings"],"bee_group":{"antennae":"A","wings":"1","pattern":"X","legs":"X"},"bonus":1.2000000000000013},{"rt":7968.5,"stimulus":"bees-with-color/bee-A2DF.svg","response":0,"trial_type":"image-button-response","trial_index":117,"time_elapsed":1934428,"internal_node_id":"0.0-4.0-0.55","subject_id":"6052437c8108f7a8de98b6c9","study_id":"60edd13110225f80f9f3709b","session_id":"6196c706194820db3e0c299c","condition":"full-information","relevant_dimensions":["antennae","wings"],"bee_group":{"antennae":"A","wings":"1","pattern":"X","legs":"X"},"action":"harvest","summary":"good-harvest","bonus":1.2000000000000013},{"rt":761.1000000014901,"stimulus":"\n                    <p><b>Action: <em>harvest</em></b></p>\n                    <p>This is the bee that you just saw.</p>\n                    <img src=\"bees-with-color/bee-A2DF.svg\" width=\"200\">\n                    <p><span class=\"greenText\"><b>Successful harvest!</b></span><br>Your pay has increased by $0.02. Your bonus pay is now $0.60.</p>\n            ","response":0,"trial_type":"html-button-response","trial_index":118,"time_elapsed":1935190,"internal_node_id":"0.0-4.0-1.55","subject_id":"6052437c8108f7a8de98b6c9","study_id":"60edd13110225f80f9f3709b","session_id":"6196c706194820db3e0c299c","condition":"full-information","relevant_dimensions":["antennae","wings"],"bee_group":{"antennae":"A","wings":"1","pattern":"X","legs":"X"},"bonus":1.2000000000000013},{"rt":7532.5,"stimulus":"bees-with-color/bee-A2SM.svg","response":0,"trial_type":"image-button-response","trial_index":119,"time_elapsed":1942725,"internal_node_id":"0.0-4.0-0.56","subject_id":"6052437c8108f7a8de98b6c9","study_id":"60edd13110225f80f9f3709b","session_id":"6196c706194820db3e0c299c","condition":"full-information","relevant_dimensions":["antennae","wings"],"bee_group":{"antennae":"A","wings":"1","pattern":"X","legs":"X"},"action":"harvest","summary":"good-harvest","bonus":1.2000000000000013},{"rt":906.0999999977648,"stimulus":"\n                    <p><b>Action: <em>harvest</em></b></p>\n                    <p>This is the bee that you just saw.</p>\n                    <img src=\"bees-with-color/bee-A2SM.svg\" width=\"200\">\n                    <p><span class=\"greenText\"><b>Successful harvest!</b></span><br>Your pay has increased by $0.02. Your bonus pay is now $0.62.</p>\n            ","response":0,"trial_type":"html-button-response","trial_index":120,"time_elapsed":1943632,"internal_node_id":"0.0-4.0-1.56","subject_id":"6052437c8108f7a8de98b6c9","study_id":"60edd13110225f80f9f3709b","session_id":"6196c706194820db3e0c299c","condition":"full-information","relevant_dimensions":["antennae","wings"],"bee_group":{"antennae":"A","wings":"1","pattern":"X","legs":"X"},"bonus":1.2000000000000013},{"rt":6258.79999999702,"stimulus":"bees-with-color/bee-A1DM.svg","response":1,"trial_type":"image-button-response","trial_index":121,"time_elapsed":1949892,"internal_node_id":"0.0-4.0-0.57","subject_id":"6052437c8108f7a8de98b6c9","study_id":"60edd13110225f80f9f3709b","session_id":"6196c706194820db3e0c299c","condition":"full-information","relevant_dimensions":["antennae","wings"],"bee_group":{"antennae":"A","wings":"1","pattern":"X","legs":"X"},"action":"avoid","summary":"good-avoid","bonus":1.2000000000000013},{"rt":775.1000000014901,"stimulus":"\n                    <p><b>Action: <em>avoid</em></b></p>\n                    <p>This is the bee that you just saw.</p>\n                    <img src=\"bees-with-color/bee-A1DM.svg\" width=\"200\">\n                    <p><span class=\"greenText\">Good choice!</span>  This bee would have stung you.<br>Your bonus pay is unchanged, and remains at $0.62.</p>\n            ","response":0,"trial_type":"html-button-response","trial_index":122,"time_elapsed":1950669,"internal_node_id":"0.0-4.0-1.57","subject_id":"6052437c8108f7a8de98b6c9","study_id":"60edd13110225f80f9f3709b","session_id":"6196c706194820db3e0c299c","condition":"full-information","relevant_dimensions":["antennae","wings"],"bee_group":{"antennae":"A","wings":"1","pattern":"X","legs":"X"},"bonus":1.2000000000000013},{"rt":5622.5,"stimulus":"bees-with-color/bee-B1SM.svg","response":0,"trial_type":"image-button-response","trial_index":123,"time_elapsed":1956293,"internal_node_id":"0.0-4.0-0.58","subject_id":"6052437c8108f7a8de98b6c9","study_id":"60edd13110225f80f9f3709b","session_id":"6196c706194820db3e0c299c","condition":"full-information","relevant_dimensions":["antennae","wings"],"bee_group":{"antennae":"A","wings":"1","pattern":"X","legs":"X"},"action":"harvest","summary":"good-harvest","bonus":1.2000000000000013},{"rt":750.0999999977648,"stimulus":"\n                    <p><b>Action: <em>harvest</em></b></p>\n                    <p>This is the bee that you just saw.</p>\n                    <img src=\"bees-with-color/bee-B1SM.svg\" width=\"200\">\n                    <p><span class=\"greenText\"><b>Successful harvest!</b></span><br>Your pay has increased by $0.02. Your bonus pay is now $0.64.</p>\n            ","response":0,"trial_type":"html-button-response","trial_index":124,"time_elapsed":1957044,"internal_node_id":"0.0-4.0-1.58","subject_id":"6052437c8108f7a8de98b6c9","study_id":"60edd13110225f80f9f3709b","session_id":"6196c706194820db3e0c299c","condition":"full-information","relevant_dimensions":["antennae","wings"],"bee_group":{"antennae":"A","wings":"1","pattern":"X","legs":"X"},"bonus":1.2000000000000013},{"rt":8262.89999999851,"stimulus":"bees-with-color/bee-B2DF.svg","response":0,"trial_type":"image-button-response","trial_index":125,"time_elapsed":1965308,"internal_node_id":"0.0-4.0-0.59","subject_id":"6052437c8108f7a8de98b6c9","study_id":"60edd13110225f80f9f3709b","session_id":"6196c706194820db3e0c299c","condition":"full-information","relevant_dimensions":["antennae","wings"],"bee_group":{"antennae":"A","wings":"1","pattern":"X","legs":"X"},"action":"harvest","summary":"good-harvest","bonus":1.2000000000000013},{"rt":764.8000000007451,"stimulus":"\n                    <p><b>Action: <em>harvest</em></b></p>\n                    <p>This is the bee that you just saw.</p>\n                    <img src=\"bees-with-color/bee-B2DF.svg\" width=\"200\">\n                    <p><span class=\"greenText\"><b>Successful harvest!</b></span><br>Your pay has increased by $0.02. Your bonus pay is now $0.66.</p>\n            ","response":0,"trial_type":"html-button-response","trial_index":126,"time_elapsed":1966074,"internal_node_id":"0.0-4.0-1.59","subject_id":"6052437c8108f7a8de98b6c9","study_id":"60edd13110225f80f9f3709b","session_id":"6196c706194820db3e0c299c","condition":"full-information","relevant_dimensions":["antennae","wings"],"bee_group":{"antennae":"A","wings":"1","pattern":"X","legs":"X"},"bonus":1.2000000000000013},{"rt":6102.699999999255,"stimulus":"bees-with-color/bee-A1SF.svg","response":1,"trial_type":"image-button-response","trial_index":127,"time_elapsed":1972178,"internal_node_id":"0.0-4.0-0.60","subject_id":"6052437c8108f7a8de98b6c9","study_id":"60edd13110225f80f9f3709b","session_id":"6196c706194820db3e0c299c","condition":"full-information","relevant_dimensions":["antennae","wings"],"bee_group":{"antennae":"A","wings":"1","pattern":"X","legs":"X"},"action":"avoid","summary":"good-avoid","bonus":1.2000000000000013},{"rt":986.8999999985099,"stimulus":"\n                    <p><b>Action: <em>avoid</em></b></p>\n                    <p>This is the bee that you just saw.</p>\n                    <img src=\"bees-with-color/bee-A1SF.svg\" width=\"200\">\n                    <p><span class=\"greenText\">Good choice!</span>  This bee would have stung you.<br>Your bonus pay is unchanged, and remains at $0.66.</p>\n            ","response":0,"trial_type":"html-button-response","trial_index":128,"time_elapsed":1973166,"internal_node_id":"0.0-4.0-1.60","subject_id":"6052437c8108f7a8de98b6c9","study_id":"60edd13110225f80f9f3709b","session_id":"6196c706194820db3e0c299c","condition":"full-information","relevant_dimensions":["antennae","wings"],"bee_group":{"antennae":"A","wings":"1","pattern":"X","legs":"X"},"bonus":1.2000000000000013},{"rt":5884.800000000745,"stimulus":"bees-with-color/bee-B1DM.svg","response":0,"trial_type":"image-button-response","trial_index":129,"time_elapsed":1979053,"internal_node_id":"0.0-4.0-0.61","subject_id":"6052437c8108f7a8de98b6c9","study_id":"60edd13110225f80f9f3709b","session_id":"6196c706194820db3e0c299c","condition":"full-information","relevant_dimensions":["antennae","wings"],"bee_group":{"antennae":"A","wings":"1","pattern":"X","legs":"X"},"action":"harvest","summary":"good-harvest","bonus":1.2000000000000013},{"rt":755,"stimulus":"\n                    <p><b>Action: <em>harvest</em></b></p>\n                    <p>This is the bee that you just saw.</p>\n                    <img src=\"bees-with-color/bee-B1DM.svg\" width=\"200\">\n                    <p><span class=\"greenText\"><b>Successful harvest!</b></span><br>Your pay has increased by $0.02. Your bonus pay is now $0.68.</p>\n            ","response":0,"trial_type":"html-button-response","trial_index":130,"time_elapsed":1979811,"internal_node_id":"0.0-4.0-1.61","subject_id":"6052437c8108f7a8de98b6c9","study_id":"60edd13110225f80f9f3709b","session_id":"6196c706194820db3e0c299c","condition":"full-information","relevant_dimensions":["antennae","wings"],"bee_group":{"antennae":"A","wings":"1","pattern":"X","legs":"X"},"bonus":1.2000000000000013},{"rt":1152.199999999255,"stimulus":"bees-with-color/bee-B1SF.svg","response":0,"trial_type":"image-button-response","trial_index":131,"time_elapsed":1980964,"internal_node_id":"0.0-4.0-0.62","subject_id":"6052437c8108f7a8de98b6c9","study_id":"60edd13110225f80f9f3709b","session_id":"6196c706194820db3e0c299c","condition":"full-information","relevant_dimensions":["antennae","wings"],"bee_group":{"antennae":"A","wings":"1","pattern":"X","legs":"X"},"action":"harvest","summary":"good-harvest","bonus":1.2000000000000013},{"rt":1135.6000000014901,"stimulus":"\n                    <p><b>Action: <em>harvest</em></b></p>\n                    <p>This is the bee that you just saw.</p>\n                    <img src=\"bees-with-color/bee-B1SF.svg\" width=\"200\">\n                    <p><span class=\"greenText\"><b>Successful harvest!</b></span><br>Your pay has increased by $0.02. Your bonus pay is now $0.70.</p>\n            ","response":0,"trial_type":"html-button-response","trial_index":132,"time_elapsed":1982101,"internal_node_id":"0.0-4.0-1.62","subject_id":"6052437c8108f7a8de98b6c9","study_id":"60edd13110225f80f9f3709b","session_id":"6196c706194820db3e0c299c","condition":"full-information","relevant_dimensions":["antennae","wings"],"bee_group":{"antennae":"A","wings":"1","pattern":"X","legs":"X"},"bonus":1.2000000000000013},{"rt":24022.60000000149,"stimulus":"bees-with-color/bee-B2SM.svg","response":0,"trial_type":"image-button-response","trial_index":133,"time_elapsed":2006124,"internal_node_id":"0.0-4.0-0.63","subject_id":"6052437c8108f7a8de98b6c9","study_id":"60edd13110225f80f9f3709b","session_id":"6196c706194820db3e0c299c","condition":"full-information","relevant_dimensions":["antennae","wings"],"bee_group":{"antennae":"A","wings":"1","pattern":"X","legs":"X"},"action":"harvest","summary":"good-harvest","bonus":1.2000000000000013},{"rt":1355,"stimulus":"\n                    <p><b>Action: <em>harvest</em></b></p>\n                    <p>This is the bee that you just saw.</p>\n                    <img src=\"bees-with-color/bee-B2SM.svg\" width=\"200\">\n                    <p><span class=\"greenText\"><b>Successful harvest!</b></span><br>Your pay has increased by $0.02. Your bonus pay is now $0.72.</p>\n            ","response":0,"trial_type":"html-button-response","trial_index":134,"time_elapsed":2007480,"internal_node_id":"0.0-4.0-1.63","subject_id":"6052437c8108f7a8de98b6c9","study_id":"60edd13110225f80f9f3709b","session_id":"6196c706194820db3e0c299c","condition":"full-information","relevant_dimensions":["antennae","wings"],"bee_group":{"antennae":"A","wings":"1","pattern":"X","legs":"X"},"bonus":1.2000000000000013},{"rt":6842.39999999851,"stimulus":"You have completed the first part of this experiment.<br><br>You will now begin a shorter second part, in which you will receive no feedback.<br>The same rules regarding bonus pay apply.<br><br>Press any key to begin.","response":" ","trial_type":"html-keyboard-response","trial_index":135,"time_elapsed":2014324,"internal_node_id":"0.0-5.0","subject_id":"6052437c8108f7a8de98b6c9","study_id":"60edd13110225f80f9f3709b","session_id":"6196c706194820db3e0c299c","condition":"full-information","relevant_dimensions":["antennae","wings"],"bee_group":{"antennae":"A","wings":"1","pattern":"X","legs":"X"},"bonus":1.2000000000000013},{"rt":19783.800000000745,"stimulus":"bees-with-color/bee-A1DF.svg","response":1,"trial_type":"image-button-response","trial_index":136,"time_elapsed":2034115,"internal_node_id":"0.0-6.0-0.0","subject_id":"6052437c8108f7a8de98b6c9","study_id":"60edd13110225f80f9f3709b","session_id":"6196c706194820db3e0c299c","condition":"full-information","relevant_dimensions":["antennae","wings"],"bee_group":{"antennae":"A","wings":"1","pattern":"X","legs":"X"},"bonus":1.2000000000000013},{"rt":20216.300000000745,"stimulus":"bees-with-color/bee-A2DM.svg","response":0,"trial_type":"image-button-response","trial_index":137,"time_elapsed":2054333,"internal_node_id":"0.0-6.0-0.1","subject_id":"6052437c8108f7a8de98b6c9","study_id":"60edd13110225f80f9f3709b","session_id":"6196c706194820db3e0c299c","condition":"full-information","relevant_dimensions":["antennae","wings"],"bee_group":{"antennae":"A","wings":"1","pattern":"X","legs":"X"},"bonus":1.2000000000000013},{"rt":7600.199999999255,"stimulus":"bees-with-color/bee-A1SF.svg","response":1,"trial_type":"image-button-response","trial_index":138,"time_elapsed":2061935,"internal_node_id":"0.0-6.0-0.2","subject_id":"6052437c8108f7a8de98b6c9","study_id":"60edd13110225f80f9f3709b","session_id":"6196c706194820db3e0c299c","condition":"full-information","relevant_dimensions":["antennae","wings"],"bee_group":{"antennae":"A","wings":"1","pattern":"X","legs":"X"},"bonus":1.2000000000000013},{"rt":24536.699999999255,"stimulus":"bees-with-color/bee-B2SF.svg","response":0,"trial_type":"image-button-response","trial_index":139,"time_elapsed":2086474,"internal_node_id":"0.0-6.0-0.3","subject_id":"6052437c8108f7a8de98b6c9","study_id":"60edd13110225f80f9f3709b","session_id":"6196c706194820db3e0c299c","condition":"full-information","relevant_dimensions":["antennae","wings"],"bee_group":{"antennae":"A","wings":"1","pattern":"X","legs":"X"},"bonus":1.2000000000000013},{"rt":12467.29999999702,"stimulus":"bees-with-color/bee-B1SF.svg","response":0,"trial_type":"image-button-response","trial_index":140,"time_elapsed":2098945,"internal_node_id":"0.0-6.0-0.4","subject_id":"6052437c8108f7a8de98b6c9","study_id":"60edd13110225f80f9f3709b","session_id":"6196c706194820db3e0c299c","condition":"full-information","relevant_dimensions":["antennae","wings"],"bee_group":{"antennae":"A","wings":"1","pattern":"X","legs":"X"},"bonus":1.2000000000000013},{"rt":8960.300000000745,"stimulus":"bees-with-color/bee-B1SM.svg","response":0,"trial_type":"image-button-response","trial_index":141,"time_elapsed":2107907,"internal_node_id":"0.0-6.0-0.5","subject_id":"6052437c8108f7a8de98b6c9","study_id":"60edd13110225f80f9f3709b","session_id":"6196c706194820db3e0c299c","condition":"full-information","relevant_dimensions":["antennae","wings"],"bee_group":{"antennae":"A","wings":"1","pattern":"X","legs":"X"},"bonus":1.2000000000000013},{"rt":2629.5,"stimulus":"bees-with-color/bee-B2DF.svg","response":0,"trial_type":"image-button-response","trial_index":142,"time_elapsed":2110539,"internal_node_id":"0.0-6.0-0.6","subject_id":"6052437c8108f7a8de98b6c9","study_id":"60edd13110225f80f9f3709b","session_id":"6196c706194820db3e0c299c","condition":"full-information","relevant_dimensions":["antennae","wings"],"bee_group":{"antennae":"A","wings":"1","pattern":"X","legs":"X"},"bonus":1.2000000000000013},{"rt":4720.800000000745,"stimulus":"bees-with-color/bee-A2SF.svg","response":0,"trial_type":"image-button-response","trial_index":143,"time_elapsed":2115261,"internal_node_id":"0.0-6.0-0.7","subject_id":"6052437c8108f7a8de98b6c9","study_id":"60edd13110225f80f9f3709b","session_id":"6196c706194820db3e0c299c","condition":"full-information","relevant_dimensions":["antennae","wings"],"bee_group":{"antennae":"A","wings":"1","pattern":"X","legs":"X"},"bonus":1.2000000000000013},{"rt":5084.89999999851,"stimulus":"bees-with-color/bee-B1DM.svg","response":0,"trial_type":"image-button-response","trial_index":144,"time_elapsed":2120348,"internal_node_id":"0.0-6.0-0.8","subject_id":"6052437c8108f7a8de98b6c9","study_id":"60edd13110225f80f9f3709b","session_id":"6196c706194820db3e0c299c","condition":"full-information","relevant_dimensions":["antennae","wings"],"bee_group":{"antennae":"A","wings":"1","pattern":"X","legs":"X"},"bonus":1.2000000000000013},{"rt":6499.5,"stimulus":"bees-with-color/bee-A1SM.svg","response":1,"trial_type":"image-button-response","trial_index":145,"time_elapsed":2126850,"internal_node_id":"0.0-6.0-0.9","subject_id":"6052437c8108f7a8de98b6c9","study_id":"60edd13110225f80f9f3709b","session_id":"6196c706194820db3e0c299c","condition":"full-information","relevant_dimensions":["antennae","wings"],"bee_group":{"antennae":"A","wings":"1","pattern":"X","legs":"X"},"bonus":1.2000000000000013},{"rt":7822.599999997765,"stimulus":"bees-with-color/bee-A1DM.svg","response":1,"trial_type":"image-button-response","trial_index":146,"time_elapsed":2134675,"internal_node_id":"0.0-6.0-0.10","subject_id":"6052437c8108f7a8de98b6c9","study_id":"60edd13110225f80f9f3709b","session_id":"6196c706194820db3e0c299c","condition":"full-information","relevant_dimensions":["antennae","wings"],"bee_group":{"antennae":"A","wings":"1","pattern":"X","legs":"X"},"bonus":1.2000000000000013},{"rt":2786.10000000149,"stimulus":"bees-with-color/bee-A2SM.svg","response":0,"trial_type":"image-button-response","trial_index":147,"time_elapsed":2137462,"internal_node_id":"0.0-6.0-0.11","subject_id":"6052437c8108f7a8de98b6c9","study_id":"60edd13110225f80f9f3709b","session_id":"6196c706194820db3e0c299c","condition":"full-information","relevant_dimensions":["antennae","wings"],"bee_group":{"antennae":"A","wings":"1","pattern":"X","legs":"X"},"bonus":1.2000000000000013},{"rt":1396.199999999255,"stimulus":"bees-with-color/bee-B2SM.svg","response":0,"trial_type":"image-button-response","trial_index":148,"time_elapsed":2138860,"internal_node_id":"0.0-6.0-0.12","subject_id":"6052437c8108f7a8de98b6c9","study_id":"60edd13110225f80f9f3709b","session_id":"6196c706194820db3e0c299c","condition":"full-information","relevant_dimensions":["antennae","wings"],"bee_group":{"antennae":"A","wings":"1","pattern":"X","legs":"X"},"bonus":1.2000000000000013},{"rt":1043,"stimulus":"bees-with-color/bee-B2DM.svg","response":0,"trial_type":"image-button-response","trial_index":149,"time_elapsed":2139905,"internal_node_id":"0.0-6.0-0.13","subject_id":"6052437c8108f7a8de98b6c9","study_id":"60edd13110225f80f9f3709b","session_id":"6196c706194820db3e0c299c","condition":"full-information","relevant_dimensions":["antennae","wings"],"bee_group":{"antennae":"A","wings":"1","pattern":"X","legs":"X"},"bonus":1.2000000000000013},{"rt":1366,"stimulus":"bees-with-color/bee-B1DF.svg","response":0,"trial_type":"image-button-response","trial_index":150,"time_elapsed":2141272,"internal_node_id":"0.0-6.0-0.14","subject_id":"6052437c8108f7a8de98b6c9","study_id":"60edd13110225f80f9f3709b","session_id":"6196c706194820db3e0c299c","condition":"full-information","relevant_dimensions":["antennae","wings"],"bee_group":{"antennae":"A","wings":"1","pattern":"X","legs":"X"},"bonus":1.2000000000000013},{"rt":2700.2000000029802,"stimulus":"bees-with-color/bee-A2DF.svg","response":0,"trial_type":"image-button-response","trial_index":151,"time_elapsed":2143974,"internal_node_id":"0.0-6.0-0.15","subject_id":"6052437c8108f7a8de98b6c9","study_id":"60edd13110225f80f9f3709b","session_id":"6196c706194820db3e0c299c","condition":"full-information","relevant_dimensions":["antennae","wings"],"bee_group":{"antennae":"A","wings":"1","pattern":"X","legs":"X"},"bonus":1.2000000000000013},{"rt":2467.60000000149,"stimulus":"bees-with-color/bee-B1SF.svg","response":0,"trial_type":"image-button-response","trial_index":152,"time_elapsed":2146443,"internal_node_id":"0.0-6.0-0.16","subject_id":"6052437c8108f7a8de98b6c9","study_id":"60edd13110225f80f9f3709b","session_id":"6196c706194820db3e0c299c","condition":"full-information","relevant_dimensions":["antennae","wings"],"bee_group":{"antennae":"A","wings":"1","pattern":"X","legs":"X"},"bonus":1.2000000000000013},{"rt":2942.2000000029802,"stimulus":"bees-with-color/bee-B1SM.svg","response":0,"trial_type":"image-button-response","trial_index":153,"time_elapsed":2149386,"internal_node_id":"0.0-6.0-0.17","subject_id":"6052437c8108f7a8de98b6c9","study_id":"60edd13110225f80f9f3709b","session_id":"6196c706194820db3e0c299c","condition":"full-information","relevant_dimensions":["antennae","wings"],"bee_group":{"antennae":"A","wings":"1","pattern":"X","legs":"X"},"bonus":1.2000000000000013},{"rt":5254.5,"stimulus":"bees-with-color/bee-A2SM.svg","response":0,"trial_type":"image-button-response","trial_index":154,"time_elapsed":2154642,"internal_node_id":"0.0-6.0-0.18","subject_id":"6052437c8108f7a8de98b6c9","study_id":"60edd13110225f80f9f3709b","session_id":"6196c706194820db3e0c299c","condition":"full-information","relevant_dimensions":["antennae","wings"],"bee_group":{"antennae":"A","wings":"1","pattern":"X","legs":"X"},"bonus":1.2000000000000013},{"rt":1981.5,"stimulus":"bees-with-color/bee-B2DF.svg","response":0,"trial_type":"image-button-response","trial_index":155,"time_elapsed":2156625,"internal_node_id":"0.0-6.0-0.19","subject_id":"6052437c8108f7a8de98b6c9","study_id":"60edd13110225f80f9f3709b","session_id":"6196c706194820db3e0c299c","condition":"full-information","relevant_dimensions":["antennae","wings"],"bee_group":{"antennae":"A","wings":"1","pattern":"X","legs":"X"},"bonus":1.2000000000000013},{"rt":2147.5,"stimulus":"bees-with-color/bee-B1DM.svg","response":0,"trial_type":"image-button-response","trial_index":156,"time_elapsed":2158774,"internal_node_id":"0.0-6.0-0.20","subject_id":"6052437c8108f7a8de98b6c9","study_id":"60edd13110225f80f9f3709b","session_id":"6196c706194820db3e0c299c","condition":"full-informati