[{"success":true,"trial_type":"fullscreen","trial_index":0,"time_elapsed":4793,"internal_node_id":"0.0-0.0","subject_id":"616721ae6f6c6b77a7242f41","study_id":"6197b3f67c2b5cd3b6d9596a","session_id":"619bfbdc6fcf9520f99b5344","condition":"full-information","relevant_dimensions":["antennae","legs"],"bee_group":{"antennae":"B","wings":"X","pattern":"X","legs":"M"},"bonus":0.2600000000000013},{"success":true,"timeout":false,"failed_images":[],"failed_audio":[],"failed_video":[],"trial_type":"preload","trial_index":1,"time_elapsed":8267,"internal_node_id":"0.0-1.0","subject_id":"616721ae6f6c6b77a7242f41","study_id":"6197b3f67c2b5cd3b6d9596a","session_id":"619bfbdc6fcf9520f99b5344","condition":"full-information","relevant_dimensions":["antennae","legs"],"bee_group":{"antennae":"B","wings":"X","pattern":"X","legs":"M"},"bonus":0.2600000000000013},{"rt":1818,"stimulus":"Welcome! Press any key to begin.","response":" ","trial_type":"html-keyboard-response","trial_index":2,"time_elapsed":10086,"internal_node_id":"0.0-2.0","subject_id":"616721ae6f6c6b77a7242f41","study_id":"6197b3f67c2b5cd3b6d9596a","session_id":"619bfbdc6fcf9520f99b5344","condition":"full-information","relevant_dimensions":["antennae","legs"],"bee_group":{"antennae":"B","wings":"X","pattern":"X","legs":"M"},"bonus":0.2600000000000013},{"view_history":[{"page_index":0,"viewing_time":2697.800000011921},{"page_index":1,"viewing_time":9603.199999988079},{"page_index":2,"viewing_time":8451.5},{"page_index":3,"viewing_time":9764.5},{"page_index":4,"viewing_time":7497.200000047684},{"page_index":5,"viewing_time":6183.5},{"page_index":6,"viewing_time":7335.5},{"page_index":7,"viewing_time":4251.299999952316},{"page_index":8,"viewing_time":6513.700000047684},{"page_index":9,"viewing_time":2350.699999988079},{"page_index":10,"viewing_time":4233.599999964237},{"page_index":11,"viewing_time":6601.100000023842},{"page_index":12,"viewing_time":6116.899999976158},{"page_index":13,"viewing_time":1081.9000000357628},{"page_index":14,"viewing_time":1532.8999999761581}],"rt":84216.40000003576,"trial_type":"instructions","trial_index":3,"time_elapsed":94302,"internal_node_id":"0.0-3.0-0.0","subject_id":"616721ae6f6c6b77a7242f41","study_id":"6197b3f67c2b5cd3b6d9596a","session_id":"619bfbdc6fcf9520f99b5344","condition":"full-information","relevant_dimensions":["antennae","legs"],"bee_group":{"antennae":"B","wings":"X","pattern":"X","legs":"M"},"bonus":0.2600000000000013},{"rt":10291,"response":{"Q0":["Two or six legs","Stripes or spots on body","Single or double wings","Antennae or no antennae"]},"question_order":[0],"trial_type":"survey-multi-select","trial_index":4,"time_elapsed":104603,"internal_node_id":"0.0-3.0-1.0","subject_id":"616721ae6f6c6b77a7242f41","study_id":"6197b3f67c2b5cd3b6d9596a","session_id":"619bfbdc6fcf9520f99b5344","condition":"full-information","relevant_dimensions":["antennae","legs"],"bee_group":{"antennae":"B","wings":"X","pattern":"X","legs":"M"},"correct":true,"bonus":0.2600000000000013},{"rt":12641.800000011921,"response":{"Q1":"No.","Q2":"Based on the four features of the bee.","Q3":"You learn if it was friendly or dangerous, but do not alter your bonus."},"question_order":[0,1,2],"trial_type":"survey-multi-choice","trial_index":5,"time_elapsed":117254,"internal_node_id":"0.0-3.0-2.0","subject_id":"616721ae6f6c6b77a7242f41","study_id":"6197b3f67c2b5cd3b6d9596a","session_id":"619bfbdc6fcf9520f99b5344","condition":"full-information","relevant_dimensions":["antennae","legs"],"bee_group":{"antennae":"B","wings":"X","pattern":"X","legs":"M"},"correct":true,"bonus":0.2600000000000013},{"rt":1856.699999988079,"stimulus":"<p>Congrats, you got everything right<br>When you're ready, click the button below to continue to the experiment.</p>","response":0,"trial_type":"html-button-response","trial_index":6,"time_elapsed":119119,"internal_node_id":"0.0-3.0-3.0","subject_id":"616721ae6f6c6b77a7242f41","study_id":"6197b3f67c2b5cd3b6d9596a","session_id":"619bfbdc6fcf9520f99b5344","condition":"full-information","relevant_dimensions":["antennae","legs"],"bee_group":{"antennae":"B","wings":"X","pattern":"X","legs":"M"},"bonus":0.2600000000000013},{"rt":3644.5,"stimulus":"bees-with-color/bee-B1SF.svg","response":0,"trial_type":"image-button-response","trial_index":7,"time_elapsed":122768,"internal_node_id":"0.0-4.0-0.0","subject_id":"616721ae6f6c6b77a7242f41","study_id":"6197b3f67c2b5cd3b6d9596a","session_id":"619bfbdc6fcf9520f99b5344","condition":"full-information","relevant_dimensions":["antennae","legs"],"bee_group":{"antennae":"B","wings":"X","pattern":"X","legs":"M"},"action":"harvest","summary":"good-harvest","bonus":0.2600000000000013},{"rt":10397.399999976158,"stimulus":"\n                    <p><b>Action: <em>harvest</em></b></p>\n                    <p>This is the bee that you just saw.</p>\n                    <img src=\"bees-with-color/bee-B1SF.svg\" width=\"200\">\n                    <p><span class=\"greenText\"><b>Successful harvest!</b></span><br>Your pay has increased by $0.02. Your bonus pay is now $0.56.</p>\n            ","response":0,"trial_type":"html-button-response","trial_index":8,"time_elapsed":133169,"internal_node_id":"0.0-4.0-1.0","subject_id":"616721ae6f6c6b77a7242f41","study_id":"6197b3f67c2b5cd3b6d9596a","session_id":"619bfbdc6fcf9520f99b5344","condition":"full-information","relevant_dimensions":["antennae","legs"],"bee_group":{"antennae":"B","wings":"X","pattern":"X","legs":"M"},"bonus":0.2600000000000013},{"rt":2116.399999976158,"stimulus":"bees-with-color/bee-B1SM.svg","response":1,"trial_type":"image-button-response","trial_index":9,"time_elapsed":135288,"internal_node_id":"0.0-4.0-0.1","subject_id":"616721ae6f6c6b77a7242f41","study_id":"6197b3f67c2b5cd3b6d9596a","session_id":"619bfbdc6fcf9520f99b5344","condition":"full-information","relevant_dimensions":["antennae","legs"],"bee_group":{"antennae":"B","wings":"X","pattern":"X","legs":"M"},"action":"avoid","summary":"good-avoid","bonus":0.2600000000000013},{"rt":5532.199999988079,"stimulus":"\n                    <p><b>Action: <em>avoid</em></b></p>\n                    <p>This is the bee that you just saw.</p>\n                    <img src=\"bees-with-color/bee-B1SM.svg\" width=\"200\">\n                    <p><span class=\"greenText\">Good choice!</span>  This bee would have stung you.<br>Your bonus pay is unchanged, and remains at $0.56.</p>\n            ","response":0,"trial_type":"html-button-response","trial_index":10,"time_elapsed":140823,"internal_node_id":"0.0-4.0-1.1","subject_id":"616721ae6f6c6b77a7242f41","study_id":"6197b3f67c2b5cd3b6d9596a","session_id":"619bfbdc6fcf9520f99b5344","condition":"full-information","relevant_dimensions":["antennae","legs"],"bee_group":{"antennae":"B","wings":"X","pattern":"X","legs":"M"},"bonus":0.2600000000000013},{"rt":3062.7000000476837,"stimulus":"bees-with-color/bee-A1SM.svg","response":1,"trial_type":"image-button-response","trial_index":11,"time_elapsed":143889,"internal_node_id":"0.0-4.0-0.2","subject_id":"616721ae6f6c6b77a7242f41","study_id":"6197b3f67c2b5cd3b6d9596a","session_id":"619bfbdc6fcf9520f99b5344","condition":"full-information","relevant_dimensions":["antennae","legs"],"bee_group":{"antennae":"B","wings":"X","pattern":"X","legs":"M"},"action":"avoid","summary":"bad-avoid","bonus":0.2600000000000013},{"rt":3144.7999999523163,"stimulus":"\n                    <p><b>Action: <em>avoid</em></b></p>\n                    <p>This is the bee that you just saw.</p>\n                    <img src=\"bees-with-color/bee-A1SM.svg\" width=\"200\">\n                    <p><span class=\"redText\">Bad choice,</span> the bee was friendly.<br>Your bonus pay is unchanged, and remains at $0.56.</p>\n            ","response":0,"trial_type":"html-button-response","trial_index":12,"time_elapsed":147037,"internal_node_id":"0.0-4.0-1.2","subject_id":"616721ae6f6c6b77a7242f41","study_id":"6197b3f67c2b5cd3b6d9596a","session_id":"619bfbdc6fcf9520f99b5344","condition":"full-information","relevant_dimensions":["antennae","legs"],"bee_group":{"antennae":"B","wings":"X","pattern":"X","legs":"M"},"bonus":0.2600000000000013},{"rt":1780.4000000357628,"stimulus":"bees-with-color/bee-B1DM.svg","response":1,"trial_type":"image-button-response","trial_index":13,"time_elapsed":148821,"internal_node_id":"0.0-4.0-0.3","subject_id":"616721ae6f6c6b77a7242f41","study_id":"6197b3f67c2b5cd3b6d9596a","session_id":"619bfbdc6fcf9520f99b5344","condition":"full-information","relevant_dimensions":["antennae","legs"],"bee_group":{"antennae":"B","wings":"X","pattern":"X","legs":"M"},"action":"avoid","summary":"good-avoid","bonus":0.2600000000000013},{"rt":4597,"stimulus":"\n                    <p><b>Action: <em>avoid</em></b></p>\n                    <p>This is the bee that you just saw.</p>\n                    <img src=\"bees-with-color/bee-B1DM.svg\" width=\"200\">\n                    <p><span class=\"greenText\">Good choice!</span>  This bee would have stung you.<br>Your bonus pay is unchanged, and remains at $0.56.</p>\n            ","response":0,"trial_type":"html-button-response","trial_index":14,"time_elapsed":153422,"internal_node_id":"0.0-4.0-1.3","subject_id":"616721ae6f6c6b77a7242f41","study_id":"6197b3f67c2b5cd3b6d9596a","session_id":"619bfbdc6fcf9520f99b5344","condition":"full-information","relevant_dimensions":["antennae","legs"],"bee_group":{"antennae":"B","wings":"X","pattern":"X","legs":"M"},"bonus":0.2600000000000013},{"rt":1897.199999988079,"stimulus":"bees-with-color/bee-A1DM.svg","response":1,"trial_type":"image-button-response","trial_index":15,"time_elapsed":155323,"internal_node_id":"0.0-4.0-0.4","subject_id":"616721ae6f6c6b77a7242f41","study_id":"6197b3f67c2b5cd3b6d9596a","session_id":"619bfbdc6fcf9520f99b5344","condition":"full-information","relevant_dimensions":["antennae","legs"],"bee_group":{"antennae":"B","wings":"X","pattern":"X","legs":"M"},"action":"avoid","summary":"bad-avoid","bonus":0.2600000000000013},{"rt":1245.8999999761581,"stimulus":"\n                    <p><b>Action: <em>avoid</em></b></p>\n                    <p>This is the bee that you just saw.</p>\n                    <img src=\"bees-with-color/bee-A1DM.svg\" width=\"200\">\n                    <p><span class=\"redText\">Bad choice,</span> the bee was friendly.<br>Your bonus pay is unchanged, and remains at $0.56.</p>\n            ","response":0,"trial_type":"html-button-response","trial_index":16,"time_elapsed":156572,"internal_node_id":"0.0-4.0-1.4","subject_id":"616721ae6f6c6b77a7242f41","study_id":"6197b3f67c2b5cd3b6d9596a","session_id":"619bfbdc6fcf9520f99b5344","condition":"full-information","relevant_dimensions":["antennae","legs"],"bee_group":{"antennae":"B","wings":"X","pattern":"X","legs":"M"},"bonus":0.2600000000000013},{"rt":2046,"stimulus":"bees-with-color/bee-A2SF.svg","response":1,"trial_type":"image-button-response","trial_index":17,"time_elapsed":158621,"internal_node_id":"0.0-4.0-0.5","subject_id":"616721ae6f6c6b77a7242f41","study_id":"6197b3f67c2b5cd3b6d9596a","session_id":"619bfbdc6fcf9520f99b5344","condition":"full-information","relevant_dimensions":["antennae","legs"],"bee_group":{"antennae":"B","wings":"X","pattern":"X","legs":"M"},"action":"avoid","summary":"bad-avoid","bonus":0.2600000000000013},{"rt":2246.100000023842,"stimulus":"\n                    <p><b>Action: <em>avoid</em></b></p>\n                    <p>This is the bee that you just saw.</p>\n                    <img src=\"bees-with-color/bee-A2SF.svg\" width=\"200\">\n                    <p><span class=\"redText\">Bad choice,</span> the bee was friendly.<br>Your bonus pay is unchanged, and remains at $0.56.</p>\n            ","response":0,"trial_type":"html-button-response","trial_index":18,"time_elapsed":160870,"internal_node_id":"0.0-4.0-1.5","subject_id":"616721ae6f6c6b77a7242f41","study_id":"6197b3f67c2b5cd3b6d9596a","session_id":"619bfbdc6fcf9520f99b5344","condition":"full-information","relevant_dimensions":["antennae","legs"],"bee_group":{"antennae":"B","wings":"X","pattern":"X","legs":"M"},"bonus":0.2600000000000013},{"rt":2750.300000011921,"stimulus":"bees-with-color/bee-A2DF.svg","response":1,"trial_type":"image-button-response","trial_index":19,"time_elapsed":163623,"internal_node_id":"0.0-4.0-0.6","subject_id":"616721ae6f6c6b77a7242f41","study_id":"6197b3f67c2b5cd3b6d9596a","session_id":"619bfbdc6fcf9520f99b5344","condition":"full-information","relevant_dimensions":["antennae","legs"],"bee_group":{"antennae":"B","wings":"X","pattern":"X","legs":"M"},"action":"avoid","summary":"bad-avoid","bonus":0.2600000000000013},{"rt":1229.6000000238419,"stimulus":"\n                    <p><b>Action: <em>avoid</em></b></p>\n                    <p>This is the bee that you just saw.</p>\n                    <img src=\"bees-with-color/bee-A2DF.svg\" width=\"200\">\n                    <p><span class=\"redText\">Bad choice,</span> the bee was friendly.<br>Your bonus pay is unchanged, and remains at $0.56.</p>\n            ","response":0,"trial_type":"html-button-response","trial_index":20,"time_elapsed":164855,"internal_node_id":"0.0-4.0-1.6","subject_id":"616721ae6f6c6b77a7242f41","study_id":"6197b3f67c2b5cd3b6d9596a","session_id":"619bfbdc6fcf9520f99b5344","condition":"full-information","relevant_dimensions":["antennae","legs"],"bee_group":{"antennae":"B","wings":"X","pattern":"X","legs":"M"},"bonus":0.2600000000000013},{"rt":2444.699999988079,"stimulus":"bees-with-color/bee-B2SF.svg","response":0,"trial_type":"image-button-response","trial_index":21,"time_elapsed":167302,"internal_node_id":"0.0-4.0-0.7","subject_id":"616721ae6f6c6b77a7242f41","study_id":"6197b3f67c2b5cd3b6d9596a","session_id":"619bfbdc6fcf9520f99b5344","condition":"full-information","relevant_dimensions":["antennae","legs"],"bee_group":{"antennae":"B","wings":"X","pattern":"X","legs":"M"},"action":"harvest","summary":"good-harvest","bonus":0.2600000000000013},{"rt":1732.699999988079,"stimulus":"\n                    <p><b>Action: <em>harvest</em></b></p>\n                    <p>This is the bee that you just saw.</p>\n                    <img src=\"bees-with-color/bee-B2SF.svg\" width=\"200\">\n                    <p><span class=\"greenText\"><b>Successful harvest!</b></span><br>Your pay has increased by $0.02. Your bonus pay is now $0.58.</p>\n            ","response":0,"trial_type":"html-button-response","trial_index":22,"time_elapsed":169038,"internal_node_id":"0.0-4.0-1.7","subject_id":"616721ae6f6c6b77a7242f41","study_id":"6197b3f67c2b5cd3b6d9596a","session_id":"619bfbdc6fcf9520f99b5344","condition":"full-information","relevant_dimensions":["antennae","legs"],"bee_group":{"antennae":"B","wings":"X","pattern":"X","legs":"M"},"bonus":0.2600000000000013},{"rt":1396.199999988079,"stimulus":"bees-with-color/bee-A2SM.svg","response":1,"trial_type":"image-button-response","trial_index":23,"time_elapsed":170437,"internal_node_id":"0.0-4.0-0.8","subject_id":"616721ae6f6c6b77a7242f41","study_id":"6197b3f67c2b5cd3b6d9596a","session_id":"619bfbdc6fcf9520f99b5344","condition":"full-information","relevant_dimensions":["antennae","legs"],"bee_group":{"antennae":"B","wings":"X","pattern":"X","legs":"M"},"action":"avoid","summary":"bad-avoid","bonus":0.2600000000000013},{"rt":1081.800000011921,"stimulus":"\n                    <p><b>Action: <em>avoid</em></b></p>\n                    <p>This is the bee that you just saw.</p>\n                    <img src=\"bees-with-color/bee-A2SM.svg\" width=\"200\">\n                    <p><span class=\"redText\">Bad choice,</span> the bee was friendly.<br>Your bonus pay is unchanged, and remains at $0.58.</p>\n            ","response":0,"trial_type":"html-button-response","trial_index":24,"time_elapsed":171520,"internal_node_id":"0.0-4.0-1.8","subject_id":"616721ae6f6c6b77a7242f41","study_id":"6197b3f67c2b5cd3b6d9596a","session_id":"619bfbdc6fcf9520f99b5344","condition":"full-information","relevant_dimensions":["antennae","legs"],"bee_group":{"antennae":"B","wings":"X","pattern":"X","legs":"M"},"bonus":0.2600000000000013},{"rt":3665,"stimulus":"bees-with-color/bee-B1DF.svg","response":0,"trial_type":"image-button-response","trial_index":25,"time_elapsed":175187,"internal_node_id":"0.0-4.0-0.9","subject_id":"616721ae6f6c6b77a7242f41","study_id":"6197b3f67c2b5cd3b6d9596a","session_id":"619bfbdc6fcf9520f99b5344","condition":"full-information","relevant_dimensions":["antennae","legs"],"bee_group":{"antennae":"B","wings":"X","pattern":"X","legs":"M"},"action":"harvest","summary":"good-harvest","bonus":0.2600000000000013},{"rt":1181.699999988079,"stimulus":"\n                    <p><b>Action: <em>harvest</em></b></p>\n                    <p>This is the bee that you just saw.</p>\n                    <img src=\"bees-with-color/bee-B1DF.svg\" width=\"200\">\n                    <p><span class=\"greenText\"><b>Successful harvest!</b></span><br>Your pay has increased by $0.02. Your bonus pay is now $0.60.</p>\n            ","response":0,"trial_type":"html-button-response","trial_index":26,"time_elapsed":176372,"internal_node_id":"0.0-4.0-1.9","subject_id":"616721ae6f6c6b77a7242f41","study_id":"6197b3f67c2b5cd3b6d9596a","session_id":"619bfbdc6fcf9520f99b5344","condition":"full-information","relevant_dimensions":["antennae","legs"],"bee_group":{"antennae":"B","wings":"X","pattern":"X","legs":"M"},"bonus":0.2600000000000013},{"rt":2776.399999976158,"stimulus":"bees-with-color/bee-B2DM.svg","response":0,"trial_type":"image-button-response","trial_index":27,"time_elapsed":179152,"internal_node_id":"0.0-4.0-0.10","subject_id":"616721ae6f6c6b77a7242f41","study_id":"6197b3f67c2b5cd3b6d9596a","session_id":"619bfbdc6fcf9520f99b5344","condition":"full-information","relevant_dimensions":["antennae","legs"],"bee_group":{"antennae":"B","wings":"X","pattern":"X","legs":"M"},"action":"harvest","summary":"bad-harvest","bonus":0.2600000000000013},{"rt":1548.5,"stimulus":"\n                    <p><b>Action: <em>harvest</em></b></p>\n                    <p>This is the bee that you just saw.</p>\n                    <img src=\"bees-with-color/bee-B2DM.svg\" width=\"200\">\n                    <p><span class=\"redText\">Bad choice, the bee was angry.</span><br><b>You have been stung!</b><br>Your pay has been decreased by $0.10. Your bonus pay is now $0.50.</p>\n            ","response":0,"trial_type":"html-button-response","trial_index":28,"time_elapsed":180704,"internal_node_id":"0.0-4.0-1.10","subject_id":"616721ae6f6c6b77a7242f41","study_id":"6197b3f67c2b5cd3b6d9596a","session_id":"619bfbdc6fcf9520f99b5344","condition":"full-information","relevant_dimensions":["antennae","legs"],"bee_group":{"antennae":"B","wings":"X","pattern":"X","legs":"M"},"bonus":0.2600000000000013},{"rt":1447.699999988079,"stimulus":"bees-with-color/bee-A1SF.svg","response":0,"trial_type":"image-button-response","trial_index":29,"time_elapsed":182154,"internal_node_id":"0.0-4.0-0.11","subject_id":"616721ae6f6c6b77a7242f41","study_id":"6197b3f67c2b5cd3b6d9596a","session_id":"619bfbdc6fcf9520f99b5344","condition":"full-information","relevant_dimensions":["antennae","legs"],"bee_group":{"antennae":"B","wings":"X","pattern":"X","legs":"M"},"action":"harvest","summary":"good-harvest","bonus":0.2600000000000013},{"rt":979.8000000119209,"stimulus":"\n                    <p><b>Action: <em>harvest</em></b></p>\n                    <p>This is the bee that you just saw.</p>\n                    <img src=\"bees-with-color/bee-A1SF.svg\" width=\"200\">\n                    <p><span class=\"greenText\"><b>Successful harvest!</b></span><br>Your pay has increased by $0.02. Your bonus pay is now $0.52.</p>\n            ","response":0,"trial_type":"html-button-response","trial_index":30,"time_elapsed":183137,"internal_node_id":"0.0-4.0-1.11","subject_id":"616721ae6f6c6b77a7242f41","study_id":"6197b3f67c2b5cd3b6d9596a","session_id":"619bfbdc6fcf9520f99b5344","condition":"full-information","relevant_dimensions":["antennae","legs"],"bee_group":{"antennae":"B","wings":"X","pattern":"X","legs":"M"},"bonus":0.2600000000000013},{"rt":1615,"stimulus":"bees-with-color/bee-B2DF.svg","response":0,"trial_type":"image-button-response","trial_index":31,"time_elapsed":184754,"internal_node_id":"0.0-4.0-0.12","subject_id":"616721ae6f6c6b77a7242f41","study_id":"6197b3f67c2b5cd3b6d9596a","session_id":"619bfbdc6fcf9520f99b5344","condition":"full-information","relevant_dimensions":["antennae","legs"],"bee_group":{"antennae":"B","wings":"X","pattern":"X","legs":"M"},"action":"harvest","summary":"good-harvest","bonus":0.2600000000000013},{"rt":2115.600000023842,"stimulus":"\n                    <p><b>Action: <em>harvest</em></b></p>\n                    <p>This is the bee that you just saw.</p>\n                    <img src=\"bees-with-color/bee-B2DF.svg\" width=\"200\">\n                    <p><span class=\"greenText\"><b>Successful harvest!</b></span><br>Your pay has increased by $0.02. Your bonus pay is now $0.54.</p>\n            ","response":0,"trial_type":"html-button-response","trial_index":32,"time_elapsed":186872,"internal_node_id":"0.0-4.0-1.12","subject_id":"616721ae6f6c6b77a7242f41","study_id":"6197b3f67c2b5cd3b6d9596a","session_id":"619bfbdc6fcf9520f99b5344","condition":"full-information","relevant_dimensions":["antennae","legs"],"bee_group":{"antennae":"B","wings":"X","pattern":"X","legs":"M"},"bonus":0.2600000000000013},{"rt":1331.800000011921,"stimulus":"bees-with-color/bee-B2SM.svg","response":0,"trial_type":"image-button-response","trial_index":33,"time_elapsed":188206,"internal_node_id":"0.0-4.0-0.13","subject_id":"616721ae6f6c6b77a7242f41","study_id":"6197b3f67c2b5cd3b6d9596a","session_id":"619bfbdc6fcf9520f99b5344","condition":"full-information","relevant_dimensions":["antennae","legs"],"bee_group":{"antennae":"B","wings":"X","pattern":"X","legs":"M"},"action":"harvest","summary":"bad-harvest","bonus":0.2600000000000013},{"rt":1162.6000000238419,"stimulus":"\n                    <p><b>Action: <em>harvest</em></b></p>\n                    <p>This is the bee that you just saw.</p>\n                    <img src=\"bees-with-color/bee-B2SM.svg\" width=\"200\">\n                    <p><span class=\"redText\">Bad choice, the bee was angry.</span><br><b>You have been stung!</b><br>Your pay has been decreased by $0.10. Your bonus pay is now $0.44.</p>\n            ","response":0,"trial_type":"html-button-response","trial_index":34,"time_elapsed":189370,"internal_node_id":"0.0-4.0-1.13","subject_id":"616721ae6f6c6b77a7242f41","study_id":"6197b3f67c2b5cd3b6d9596a","session_id":"619bfbdc6fcf9520f99b5344","condition":"full-information","relevant_dimensions":["antennae","legs"],"bee_group":{"antennae":"B","wings":"X","pattern":"X","legs":"M"},"bonus":0.2600000000000013},{"rt":1447.800000011921,"stimulus":"bees-with-color/bee-A1DF.svg","response":0,"trial_type":"image-button-response","trial_index":35,"time_elapsed":190821,"internal_node_id":"0.0-4.0-0.14","subject_id":"616721ae6f6c6b77a7242f41","study_id":"6197b3f67c2b5cd3b6d9596a","session_id":"619bfbdc6fcf9520f99b5344","condition":"full-information","relevant_dimensions":["antennae","legs"],"bee_group":{"antennae":"B","wings":"X","pattern":"X","legs":"M"},"action":"harvest","summary":"good-harvest","bonus":0.2600000000000013},{"rt":863.8000000119209,"stimulus":"\n                    <p><b>Action: <em>harvest</em></b></p>\n                    <p>This is the bee that you just saw.</p>\n                    <img src=\"bees-with-color/bee-A1DF.svg\" width=\"200\">\n                    <p><span class=\"greenText\"><b>Successful harvest!</b></span><br>Your pay has increased by $0.02. Your bonus pay is now $0.46.</p>\n            ","response":0,"trial_type":"html-button-response","trial_index":36,"time_elapsed":191688,"internal_node_id":"0.0-4.0-1.14","subject_id":"616721ae6f6c6b77a7242f41","study_id":"6197b3f67c2b5cd3b6d9596a","session_id":"619bfbdc6fcf9520f99b5344","condition":"full-information","relevant_dimensions":["antennae","legs"],"bee_group":{"antennae":"B","wings":"X","pattern":"X","legs":"M"},"bonus":0.2600000000000013},{"rt":2180.7000000476837,"stimulus":"bees-with-color/bee-A2DM.svg","response":1,"trial_type":"image-button-response","trial_index":37,"time_elapsed":193871,"internal_node_id":"0.0-4.0-0.15","subject_id":"616721ae6f6c6b77a7242f41","study_id":"6197b3f67c2b5cd3b6d9596a","session_id":"619bfbdc6fcf9520f99b5344","condition":"full-information","relevant_dimensions":["antennae","legs"],"bee_group":{"antennae":"B","wings":"X","pattern":"X","legs":"M"},"action":"avoid","summary":"bad-avoid","bonus":0.2600000000000013},{"rt":1100.800000011921,"stimulus":"\n                    <p><b>Action: <em>avoid</em></b></p>\n                    <p>This is the bee that you just saw.</p>\n                    <img src=\"bees-with-color/bee-A2DM.svg\" width=\"200\">\n                    <p><span class=\"redText\">Bad choice,</span> the bee was friendly.<br>Your bonus pay is unchanged, and remains at $0.46.</p>\n            ","response":0,"trial_type":"html-button-response","trial_index":38,"time_elapsed":194973,"internal_node_id":"0.0-4.0-1.15","subject_id":"616721ae6f6c6b77a7242f41","study_id":"6197b3f67c2b5cd3b6d9596a","session_id":"619bfbdc6fcf9520f99b5344","condition":"full-information","relevant_dimensions":["antennae","legs"],"bee_group":{"antennae":"B","wings":"X","pattern":"X","legs":"M"},"bonus":0.2600000000000013},{"rt":1964.199999988079,"stimulus":"bees-with-color/bee-B1SM.svg","response":0,"trial_type":"image-button-response","trial_index":39,"time_elapsed":196939,"internal_node_id":"0.0-4.0-0.16","subject_id":"616721ae6f6c6b77a7242f41","study_id":"6197b3f67c2b5cd3b6d9596a","session_id":"619bfbdc6fcf9520f99b5344","condition":"full-information","relevant_dimensions":["antennae","legs"],"bee_group":{"antennae":"B","wings":"X","pattern":"X","legs":"M"},"action":"harvest","summary":"bad-harvest","bonus":0.2600000000000013},{"rt":2431.300000011921,"stimulus":"\n                    <p><b>Action: <em>harvest</em></b></p>\n                    <p>This is the bee that you just saw.</p>\n                    <img src=\"bees-with-color/bee-B1SM.svg\" width=\"200\">\n                    <p><span class=\"redText\">Bad choice, the bee was angry.</span><br><b>You have been stung!</b><br>Your pay has been decreased by $0.10. Your bonus pay is now $0.36.</p>\n            ","response":0,"trial_type":"html-button-response","trial_index":40,"time_elapsed":199372,"internal_node_id":"0.0-4.0-1.16","subject_id":"616721ae6f6c6b77a7242f41","study_id":"6197b3f67c2b5cd3b6d9596a","session_id":"619bfbdc6fcf9520f99b5344","condition":"full-information","relevant_dimensions":["antennae","legs"],"bee_group":{"antennae":"B","wings":"X","pattern":"X","legs":"M"},"bonus":0.2600000000000013},{"rt":1112.9000000357628,"stimulus":"bees-with-color/bee-A1SF.svg","response":0,"trial_type":"image-button-response","trial_index":41,"time_elapsed":200488,"internal_node_id":"0.0-4.0-0.17","subject_id":"616721ae6f6c6b77a7242f41","study_id":"6197b3f67c2b5cd3b6d9596a","session_id":"619bfbdc6fcf9520f99b5344","condition":"full-information","relevant_dimensions":["antennae","legs"],"bee_group":{"antennae":"B","wings":"X","pattern":"X","legs":"M"},"action":"harvest","summary":"good-harvest","bonus":0.2600000000000013},{"rt":881,"stimulus":"\n                    <p><b>Action: <em>harvest</em></b></p>\n                    <p>This is the bee that you just saw.</p>\n                    <img src=\"bees-with-color/bee-A1SF.svg\" width=\"200\">\n                    <p><span class=\"greenText\"><b>Successful harvest!</b></span><br>Your pay has increased by $0.02. Your bonus pay is now $0.38.</p>\n            ","response":0,"trial_type":"html-button-response","trial_index":42,"time_elapsed":201372,"internal_node_id":"0.0-4.0-1.17","subject_id":"616721ae6f6c6b77a7242f41","study_id":"6197b3f67c2b5cd3b6d9596a","session_id":"619bfbdc6fcf9520f99b5344","condition":"full-information","relevant_dimensions":["antennae","legs"],"bee_group":{"antennae":"B","wings":"X","pattern":"X","legs":"M"},"bonus":0.2600000000000013},{"rt":1146.1000000238419,"stimulus":"bees-with-color/bee-B2SM.svg","response":1,"trial_type":"image-button-response","trial_index":43,"time_elapsed":202521,"internal_node_id":"0.0-4.0-0.18","subject_id":"616721ae6f6c6b77a7242f41","study_id":"6197b3f67c2b5cd3b6d9596a","session_id":"619bfbdc6fcf9520f99b5344","condition":"full-information","relevant_dimensions":["antennae","legs"],"bee_group":{"antennae":"B","wings":"X","pattern":"X","legs":"M"},"action":"avoid","summary":"good-avoid","bonus":0.2600000000000013},{"rt":2447.800000011921,"stimulus":"\n                    <p><b>Action: <em>avoid</em></b></p>\n                    <p>This is the bee that you just saw.</p>\n                    <img src=\"bees-with-color/bee-B2SM.svg\" width=\"200\">\n                    <p><span class=\"greenText\">Good choice!</span>  This bee would have stung you.<br>Your bonus pay is unchanged, and remains at $0.38.</p>\n            ","response":0,"trial_type":"html-button-response","trial_index":44,"time_elapsed":204971,"internal_node_id":"0.0-4.0-1.18","subject_id":"616721ae6f6c6b77a7242f41","study_id":"6197b3f67c2b5cd3b6d9596a","session_id":"619bfbdc6fcf9520f99b5344","condition":"full-information","relevant_dimensions":["antennae","legs"],"bee_group":{"antennae":"B","wings":"X","pattern":"X","legs":"M"},"bonus":0.2600000000000013},{"rt":1733.3999999761581,"stimulus":"bees-with-color/bee-A2DM.svg","response":0,"trial_type":"image-button-response","trial_index":45,"time_elapsed":206707,"internal_node_id":"0.0-4.0-0.19","subject_id":"616721ae6f6c6b77a7242f41","study_id":"6197b3f67c2b5cd3b6d9596a","session_id":"619bfbdc6fcf9520f99b5344","condition":"full-information","relevant_dimensions":["antennae","legs"],"bee_group":{"antennae":"B","wings":"X","pattern":"X","legs":"M"},"action":"harvest","summary":"good-harvest","bonus":0.2600000000000013},{"rt":877.5999999642372,"stimulus":"\n                    <p><b>Action: <em>harvest</em></b></p>\n                    <p>This is the bee that you just saw.</p>\n                    <img src=\"bees-with-color/bee-A2DM.svg\" width=\"200\">\n                    <p><span class=\"greenText\"><b>Successful harvest!</b></span><br>Your pay has increased by $0.02. Your bonus pay is now $0.40.</p>\n            ","response":0,"trial_type":"html-button-response","trial_index":46,"time_elapsed":207587,"internal_node_id":"0.0-4.0-1.19","subject_id":"616721ae6f6c6b77a7242f41","study_id":"6197b3f67c2b5cd3b6d9596a","session_id":"619bfbdc6fcf9520f99b5344","condition":"full-information","relevant_dimensions":["antennae","legs"],"bee_group":{"antennae":"B","wings":"X","pattern":"X","legs":"M"},"bonus":0.2600000000000013},{"rt":1480.5,"stimulus":"bees-with-color/bee-A2DF.svg","response":0,"trial_type":"image-button-response","trial_index":47,"time_elapsed":209071,"internal_node_id":"0.0-4.0-0.20","subject_id":"616721ae6f6c6b77a7242f41","study_id":"6197b3f67c2b5cd3b6d9596a","session_id":"619bfbdc6fcf9520f99b5344","condition":"full-information","relevant_dimensions":["antennae","legs"],"bee_group":{"antennae":"B","wings":"X","pattern":"X","legs":"M"},"action":"harvest","summary":"good-harvest","bonus":0.2600000000000013},{"rt":913.8999999761581,"stimulus":"\n                    <p><b>Action: <em>harvest</em></b></p>\n                    <p>This is the bee that you just saw.</p>\n                    <img src=\"bees-with-color/bee-A2DF.svg\" width=\"200\">\n                    <p><span class=\"greenText\"><b>Successful harvest!</b></span><br>Your pay has increased by $0.02. Your bonus pay is now $0.42.</p>\n            ","response":0,"trial_type":"html-button-response","trial_index":48,"time_elapsed":209988,"internal_node_id":"0.0-4.0-1.20","subject_id":"616721ae6f6c6b77a7242f41","study_id":"6197b3f67c2b5cd3b6d9596a","session_id":"619bfbdc6fcf9520f99b5344","condition":"full-information","relevant_dimensions":["antennae","legs"],"bee_group":{"antennae":"B","wings":"X","pattern":"X","legs":"M"},"bonus":0.2600000000000013},{"rt":1497.699999988079,"stimulus":"bees-with-color/bee-A1SM.svg","response":1,"trial_type":"image-button-response","trial_index":49,"time_elapsed":211488,"internal_node_id":"0.0-4.0-0.21","subject_id":"616721ae6f6c6b77a7242f41","study_id":"6197b3f67c2b5cd3b6d9596a","session_id":"619bfbdc6fcf9520f99b5344","condition":"full-information","relevant_dimensions":["antennae","legs"],"bee_group":{"antennae":"B","wings":"X","pattern":"X","legs":"M"},"action":"avoid","summary":"bad-avoid","bonus":0.2600000000000013},{"rt":964,"stimulus":"\n                    <p><b>Action: <em>avoid</em></b></p>\n                    <p>This is the bee that you just saw.</p>\n                    <img src=\"bees-with-color/bee-A1SM.svg\" width=\"200\">\n                    <p><span class=\"redText\">Bad choice,</span> the bee was friendly.<br>Your bonus pay is unchanged, and remains at $0.42.</p>\n            ","response":0,"trial_type":"html-button-response","trial_index":50,"time_elapsed":212455,"internal_node_id":"0.0-4.0-1.21","subject_id":"616721ae6f6c6b77a7242f41","study_id":"6197b3f67c2b5cd3b6d9596a","session_id":"619bfbdc6fcf9520f99b5344","condition":"full-information","relevant_dimensions":["antennae","legs"],"bee_group":{"antennae":"B","wings":"X","pattern":"X","legs":"M"},"bonus":0.2600000000000013},{"rt":1014.5,"stimulus":"bees-with-color/bee-A1DF.svg","response":1,"trial_type":"image-button-response","trial_index":51,"time_elapsed":213473,"internal_node_id":"0.0-4.0-0.22","subject_id":"616721ae6f6c6b77a7242f41","study_id":"6197b3f67c2b5cd3b6d9596a","session_id":"619bfbdc6fcf9520f99b5344","condition":"full-information","relevant_dimensions":["antennae","legs"],"bee_group":{"antennae":"B","wings":"X","pattern":"X","legs":"M"},"action":"avoid","summary":"bad-avoid","bonus":0.2600000000000013},{"rt":746.3000000119209,"stimulus":"\n                    <p><b>Action: <em>avoid</em></b></p>\n                    <p>This is the bee that you just saw.</p>\n                    <img src=\"bees-with-color/bee-A1DF.svg\" width=\"200\">\n                    <p><span class=\"redText\">Bad choice,</span> the bee was friendly.<br>Your bonus pay is unchanged, and remains at $0.42.</p>\n            ","response":0,"trial_type":"html-button-response","trial_index":52,"time_elapsed":214222,"internal_node_id":"0.0-4.0-1.22","subject_id":"616721ae6f6c6b77a7242f41","study_id":"6197b3f67c2b5cd3b6d9596a","session_id":"619bfbdc6fcf9520f99b5344","condition":"full-information","relevant_dimensions":["antennae","legs"],"bee_group":{"antennae":"B","wings":"X","pattern":"X","legs":"M"},"bonus":0.2600000000000013},{"rt":1579.800000011921,"stimulus":"bees-with-color/bee-B2DF.svg","response":1,"trial_type":"image-button-response","trial_index":53,"time_elapsed":215804,"internal_node_id":"0.0-4.0-0.23","subject_id":"616721ae6f6c6b77a7242f41","study_id":"6197b3f67c2b5cd3b6d9596a","session_id":"619bfbdc6fcf9520f99b5344","condition":"full-information","relevant_dimensions":["antennae","legs"],"bee_group":{"antennae":"B","wings":"X","pattern":"X","legs":"M"},"action":"avoid","summary":"bad-avoid","bonus":0.2600000000000013},{"rt":830.6000000238419,"stimulus":"\n                    <p><b>Action: <em>avoid</em></b></p>\n                    <p>This is the bee that you just saw.</p>\n                    <img src=\"bees-with-color/bee-B2DF.svg\" width=\"200\">\n                    <p><span class=\"redText\">Bad choice,</span> the bee was friendly.<br>Your bonus pay is unchanged, and remains at $0.42.</p>\n            ","response":0,"trial_type":"html-button-response","trial_index":54,"time_elapsed":216638,"internal_node_id":"0.0-4.0-1.23","subject_id":"616721ae6f6c6b77a7242f41","study_id":"6197b3f67c2b5cd3b6d9596a","session_id":"619bfbdc6fcf9520f99b5344","condition":"full-information","relevant_dimensions":["antennae","legs"],"bee_group":{"antennae":"B","wings":"X","pattern":"X","legs":"M"},"bonus":0.2600000000000013},{"rt":963.5,"stimulus":"bees-with-color/bee-B1DM.svg","response":1,"trial_type":"image-button-response","trial_index":55,"time_elapsed":217605,"internal_node_id":"0.0-4.0-0.24","subject_id":"616721ae6f6c6b77a7242f41","study_id":"6197b3f67c2b5cd3b6d9596a","session_id":"619bfbdc6fcf9520f99b5344","condition":"full-information","relevant_dimensions":["antennae","legs"],"bee_group":{"antennae":"B","wings":"X","pattern":"X","legs":"M"},"action":"avoid","summary":"good-avoid","bonus":0.2600000000000013},{"rt":831.3999999761581,"stimulus":"\n                    <p><b>Action: <em>avoid</em></b></p>\n                    <p>This is the bee that you just saw.</p>\n                    <img src=\"bees-with-color/bee-B1DM.svg\" width=\"200\">\n                    <p><span class=\"greenText\">Good choice!</span>  This bee would have stung you.<br>Your bonus pay is unchanged, and remains at $0.42.</p>\n            ","response":0,"trial_type":"html-button-response","trial_index":56,"time_elapsed":218439,"internal_node_id":"0.0-4.0-1.24","subject_id":"616721ae6f6c6b77a7242f41","study_id":"6197b3f67c2b5cd3b6d9596a","session_id":"619bfbdc6fcf9520f99b5344","condition":"full-information","relevant_dimensions":["antennae","legs"],"bee_group":{"antennae":"B","wings":"X","pattern":"X","legs":"M"},"bonus":0.2600000000000013},{"rt":1147.300000011921,"stimulus":"bees-with-color/bee-A1DM.svg","response":0,"trial_type":"image-button-response","trial_index":57,"time_elapsed":219589,"internal_node_id":"0.0-4.0-0.25","subject_id":"616721ae6f6c6b77a7242f41","study_id":"6197b3f67c2b5cd3b6d9596a","session_id":"619bfbdc6fcf9520f99b5344","condition":"full-information","relevant_dimensions":["antennae","legs"],"bee_group":{"antennae":"B","wings":"X","pattern":"X","legs":"M"},"action":"harvest","summary":"good-harvest","bonus":0.2600000000000013},{"rt":1714.6000000238419,"stimulus":"\n                    <p><b>Action: <em>harvest</em></b></p>\n                    <p>This is the bee that you just saw.</p>\n                    <img src=\"bees-with-color/bee-A1DM.svg\" width=\"200\">\n                    <p><span class=\"greenText\"><b>Successful harvest!</b></span><br>Your pay has increased by $0.02. Your bonus pay is now $0.44.</p>\n            ","response":0,"trial_type":"html-button-response","trial_index":58,"time_elapsed":221306,"internal_node_id":"0.0-4.0-1.25","subject_id":"616721ae6f6c6b77a7242f41","study_id":"6197b3f67c2b5cd3b6d9596a","session_id":"619bfbdc6fcf9520f99b5344","condition":"full-information","relevant_dimensions":["antennae","legs"],"bee_group":{"antennae":"B","wings":"X","pattern":"X","legs":"M"},"bonus":0.2600000000000013},{"rt":1363.9000000357628,"stimulus":"bees-with-color/bee-A2SF.svg","response":0,"trial_type":"image-button-response","trial_index":59,"time_elapsed":222671,"internal_node_id":"0.0-4.0-0.26","subject_id":"616721ae6f6c6b77a7242f41","study_id":"6197b3f67c2b5cd3b6d9596a","session_id":"619bfbdc6fcf9520f99b5344","condition":"full-information","relevant_dimensions":["antennae","legs"],"bee_group":{"antennae":"B","wings":"X","pattern":"X","legs":"M"},"action":"harvest","summary":"good-harvest","bonus":0.2600000000000013},{"rt":863,"stimulus":"\n                    <p><b>Action: <em>harvest</em></b></p>\n                    <p>This is the bee that you just saw.</p>\n                    <img src=\"bees-with-color/bee-A2SF.svg\" width=\"200\">\n                    <p><span class=\"greenText\"><b>Successful harvest!</b></span><br>Your pay has increased by $0.02. Your bonus pay is now $0.46.</p>\n            ","response":0,"trial_type":"html-button-response","trial_index":60,"time_elapsed":223536,"internal_node_id":"0.0-4.0-1.26","subject_id":"616721ae6f6c6b77a7242f41","study_id":"6197b3f67c2b5cd3b6d9596a","session_id":"619bfbdc6fcf9520f99b5344","condition":"full-information","relevant_dimensions":["antennae","legs"],"bee_group":{"antennae":"B","wings":"X","pattern":"X","legs":"M"},"bonus":0.2600000000000013},{"rt":1599.699999988079,"stimulus":"bees-with-color/bee-B1SF.svg","response":1,"trial_type":"image-button-response","trial_index":61,"time_elapsed":225138,"internal_node_id":"0.0-4.0-0.27","subject_id":"616721ae6f6c6b77a7242f41","study_id":"6197b3f67c2b5cd3b6d9596a","session_id":"619bfbdc6fcf9520f99b5344","condition":"full-information","relevant_dimensions":["antennae","legs"],"bee_group":{"antennae":"B","wings":"X","pattern":"X","legs":"M"},"action":"avoid","summary":"bad-avoid","bonus":0.2600000000000013},{"rt":914.1000000238419,"stimulus":"\n                    <p><b>Action: <em>avoid</em></b></p>\n                    <p>This is the bee that you just saw.</p>\n                    <img src=\"bees-with-color/bee-B1SF.svg\" width=\"200\">\n                    <p><span class=\"redText\">Bad choice,</span> the bee was friendly.<br>Your bonus pay is unchanged, and remains at $0.46.</p>\n            ","response":0,"trial_type":"html-button-response","trial_index":62,"time_elapsed":226055,"internal_node_id":"0.0-4.0-1.27","subject_id":"616721ae6f6c6b77a7242f41","study_id":"6197b3f67c2b5cd3b6d9596a","session_id":"619bfbdc6fcf9520f99b5344","condition":"full-information","relevant_dimensions":["antennae","legs"],"bee_group":{"antennae":"B","wings":"X","pattern":"X","legs":"M"},"bonus":0.2600000000000013},{"rt":2881.399999976158,"stimulus":"bees-with-color/bee-B2DM.svg","response":1,"trial_type":"image-button-response","trial_index":63,"time_elapsed":228938,"internal_node_id":"0.0-4.0-0.28","subject_id":"616721ae6f6c6b77a7242f41","study_id":"6197b3f67c2b5cd3b6d9596a","session_id":"619bfbdc6fcf9520f99b5344","condition":"full-information","relevant_dimensions":["antennae","legs"],"bee_group":{"antennae":"B","wings":"X","pattern":"X","legs":"M"},"action":"avoid","summary":"good-avoid","bonus":0.2600000000000013},{"rt":799.1999999880791,"stimulus":"\n                    <p><b>Action: <em>avoid</em></b></p>\n                    <p>This is the bee that you just saw.</p>\n                    <img src=\"bees-with-color/bee-B2DM.svg\" width=\"200\">\n                    <p><span class=\"greenText\">Good choice!</span>  This bee would have stung you.<br>Your bonus pay is unchanged, and remains at $0.46.</p>\n            ","response":0,"trial_type":"html-button-response","trial_index":64,"time_elapsed":229739,"internal_node_id":"0.0-4.0-1.28","subject_id":"616721ae6f6c6b77a7242f41","study_id":"6197b3f67c2b5cd3b6d9596a","session_id":"619bfbdc6fcf9520f99b5344","condition":"full-information","relevant_dimensions":["antennae","legs"],"bee_group":{"antennae":"B","wings":"X","pattern":"X","legs":"M"},"bonus":0.2600000000000013},{"rt":961.6000000238419,"stimulus":"bees-with-color/bee-B1DF.svg","response":0,"trial_type":"image-button-response","trial_index":65,"time_elapsed":230704,"internal_node_id":"0.0-4.0-0.29","subject_id":"616721ae6f6c6b77a7242f41","study_id":"6197b3f67c2b5cd3b6d9596a","session_id":"619bfbdc6fcf9520f99b5344","condition":"full-information","relevant_dimensions":["antennae","legs"],"bee_group":{"antennae":"B","wings":"X","pattern":"X","legs":"M"},"action":"harvest","summary":"good-harvest","bonus":0.2600000000000013},{"rt":1349.5,"stimulus":"\n                    <p><b>Action: <em>harvest</em></b></p>\n                    <p>This is the bee that you just saw.</p>\n                    <img src=\"bees-with-color/bee-B1DF.svg\" width=\"200\">\n                    <p><span class=\"greenText\"><b>Successful harvest!</b></span><br>Your pay has increased by $0.02. Your bonus pay is now $0.48.</p>\n            ","response":0,"trial_type":"html-button-response","trial_index":66,"time_elapsed":232055,"internal_node_id":"0.0-4.0-1.29","subject_id":"616721ae6f6c6b77a7242f41","study_id":"6197b3f67c2b5cd3b6d9596a","session_id":"619bfbdc6fcf9520f99b5344","condition":"full-information","relevant_dimensions":["antennae","legs"],"bee_group":{"antennae":"B","wings":"X","pattern":"X","legs":"M"},"bonus":0.2600000000000013},{"rt":2497.100000023842,"stimulus":"bees-with-color/bee-B2SF.svg","response":0,"trial_type":"image-button-response","trial_index":67,"time_elapsed":234554,"internal_node_id":"0.0-4.0-0.30","subject_id":"616721ae6f6c6b77a7242f41","study_id":"6197b3f67c2b5cd3b6d9596a","session_id":"619bfbdc6fcf9520f99b5344","condition":"full-information","relevant_dimensions":["antennae","legs"],"bee_group":{"antennae":"B","wings":"X","pattern":"X","legs":"M"},"action":"harvest","summary":"good-harvest","bonus":0.2600000000000013},{"rt":1414.0999999642372,"stimulus":"\n                    <p><b>Action: <em>harvest</em></b></p>\n                    <p>This is the bee that you just saw.</p>\n                    <img src=\"bees-with-color/bee-B2SF.svg\" width=\"200\">\n                    <p><span class=\"greenText\"><b>Successful harvest!</b></span><br>Your pay has increased by $0.02. Your bonus pay is now $0.50.</p>\n            ","response":0,"trial_type":"html-button-response","trial_index":68,"time_elapsed":235971,"internal_node_id":"0.0-4.0-1.30","subject_id":"616721ae6f6c6b77a7242f41","study_id":"6197b3f67c2b5cd3b6d9596a","session_id":"619bfbdc6fcf9520f99b5344","condition":"full-information","relevant_dimensions":["antennae","legs"],"bee_group":{"antennae":"B","wings":"X","pattern":"X","legs":"M"},"bonus":0.2600000000000013},{"rt":1530.3999999761581,"stimulus":"bees-with-color/bee-A2SM.svg","response":0,"trial_type":"image-button-response","trial_index":69,"time_elapsed":237505,"internal_node_id":"0.0-4.0-0.31","subject_id":"616721ae6f6c6b77a7242f41","study_id":"6197b3f67c2b5cd3b6d9596a","session_id":"619bfbdc6fcf9520f99b5344","condition":"full-information","relevant_dimensions":["antennae","legs"],"bee_group":{"antennae":"B","wings":"X","pattern":"X","legs":"M"},"action":"harvest","summary":"good-harvest","bonus":0.2600000000000013},{"rt":963.5,"stimulus":"\n                    <p><b>Action: <em>harvest</em></b></p>\n                    <p>This is the bee that you just saw.</p>\n                    <img src=\"bees-with-color/bee-A2SM.svg\" width=\"200\">\n                    <p><span class=\"greenText\"><b>Successful harvest!</b></span><br>Your pay has increased by $0.02. Your bonus pay is now $0.52.</p>\n            ","response":0,"trial_type":"html-button-response","trial_index":70,"time_elapsed":238471,"internal_node_id":"0.0-4.0-1.31","subject_id":"616721ae6f6c6b77a7242f41","study_id":"6197b3f67c2b5cd3b6d9596a","session_id":"619bfbdc6fcf9520f99b5344","condition":"full-information","relevant_dimensions":["antennae","legs"],"bee_group":{"antennae":"B","wings":"X","pattern":"X","legs":"M"},"bonus":0.2600000000000013},{"rt":2580.599999964237,"stimulus":"bees-with-color/bee-B2SF.svg","response":1,"trial_type":"image-button-response","trial_index":71,"time_elapsed":241054,"internal_node_id":"0.0-4.0-0.32","subject_id":"616721ae6f6c6b77a7242f41","study_id":"6197b3f67c2b5cd3b6d9596a","session_id":"619bfbdc6fcf9520f99b5344","condition":"full-information","relevant_dimensions":["antennae","legs"],"bee_group":{"antennae":"B","wings":"X","pattern":"X","legs":"M"},"action":"avoid","summary":"bad-avoid","bonus":0.2600000000000013},{"rt":781.1000000238419,"stimulus":"\n                    <p><b>Action: <em>avoid</em></b></p>\n                    <p>This is the bee that you just saw.</p>\n                    <img src=\"bees-with-color/bee-B2SF.svg\" width=\"200\">\n                    <p><span class=\"redText\">Bad choice,</span> the bee was friendly.<br>Your bonus pay is unchanged, and remains at $0.52.</p>\n            ","response":0,"trial_type":"html-button-response","trial_index":72,"time_elapsed":241838,"internal_node_id":"0.0-4.0-1.32","subject_id":"616721ae6f6c6b77a7242f41","study_id":"6197b3f67c2b5cd3b6d9596a","session_id":"619bfbdc6fcf9520f99b5344","condition":"full-information","relevant_dimensions":["antennae","legs"],"bee_group":{"antennae":"B","wings":"X","pattern":"X","legs":"M"},"bonus":0.2600000000000013},{"rt":1315.300000011921,"stimulus":"bees-with-color/bee-A2SF.svg","response":1,"trial_type":"image-button-response","trial_index":73,"time_elapsed":243156,"internal_node_id":"0.0-4.0-0.33","subject_id":"616721ae6f6c6b77a7242f41","study_id":"6197b3f67c2b5cd3b6d9596a","session_id":"619bfbdc6fcf9520f99b5344","condition":"full-information","relevant_dimensions":["antennae","legs"],"bee_group":{"antennae":"B","wings":"X","pattern":"X","legs":"M"},"action":"avoid","summary":"bad-avoid","bonus":0.2600000000000013},{"rt":664,"stimulus":"\n                    <p><b>Action: <em>avoid</em></b></p>\n                    <p>This is the bee that you just saw.</p>\n                    <img src=\"bees-with-color/bee-A2SF.svg\" width=\"200\">\n                    <p><span class=\"redText\">Bad choice,</span> the bee was friendly.<br>Your bonus pay is unchanged, and remains at $0.52.</p>\n            ","response":0,"trial_type":"html-button-response","trial_index":74,"time_elapsed":243822,"internal_node_id":"0.0-4.0-1.33","subject_id":"616721ae6f6c6b77a7242f41","study_id":"6197b3f67c2b5cd3b6d9596a","session_id":"619bfbdc6fcf9520f99b5344","condition":"full-information","relevant_dimensions":["antennae","legs"],"bee_group":{"antennae":"B","wings":"X","pattern":"X","legs":"M"},"bonus":0.2600000000000013},{"rt":1163.8999999761581,"stimulus":"bees-with-color/bee-B1DM.svg","response":1,"trial_type":"image-button-response","trial_index":75,"time_elapsed":244989,"internal_node_id":"0.0-4.0-0.34","subject_id":"616721ae6f6c6b77a7242f41","study_id":"6197b3f67c2b5cd3b6d9596a","session_id":"619bfbdc6fcf9520f99b5344","condition":"full-information","relevant_dimensions":["antennae","legs"],"bee_group":{"antennae":"B","wings":"X","pattern":"X","legs":"M"},"action":"avoid","summary":"good-avoid","bonus":0.2600000000000013},{"rt":1164.0999999642372,"stimulus":"\n                    <p><b>Action: <em>avoid</em></b></p>\n                    <p>This is the bee that you just saw.</p>\n                    <img src=\"bees-with-color/bee-B1DM.svg\" width=\"200\">\n                    <p><span class=\"greenText\">Good choice!</span>  This bee would have stung you.<br>Your bonus pay is unchanged, and remains at $0.52.</p>\n            ","response":0,"trial_type":"html-button-response","trial_index":76,"time_elapsed":246155,"internal_node_id":"0.0-4.0-1.34","subject_id":"616721ae6f6c6b77a7242f41","study_id":"6197b3f67c2b5cd3b6d9596a","session_id":"619bfbdc6fcf9520f99b5344","condition":"full-information","relevant_dimensions":["antennae","legs"],"bee_group":{"antennae":"B","wings":"X","pattern":"X","legs":"M"},"bonus":0.2600000000000013},{"rt":930.6999999880791,"stimulus":"bees-with-color/bee-B2DF.svg","response":0,"trial_type":"image-button-response","trial_index":77,"time_elapsed":247088,"internal_node_id":"0.0-4.0-0.35","subject_id":"616721ae6f6c6b77a7242f41","study_id":"6197b3f67c2b5cd3b6d9596a","session_id":"619bfbdc6fcf9520f99b5344","condition":"full-information","relevant_dimensions":["antennae","legs"],"bee_group":{"antennae":"B","wings":"X","pattern":"X","legs":"M"},"action":"harvest","summary":"good-harvest","bonus":0.2600000000000013},{"rt":863.5999999642372,"stimulus":"\n                    <p><b>Action: <em>harvest</em></b></p>\n                    <p>This is the bee that you just saw.</p>\n                    <img src=\"bees-with-color/bee-B2DF.svg\" width=\"200\">\n                    <p><span class=\"greenText\"><b>Successful harvest!</b></span><br>Your pay has increased by $0.02. Your bonus pay is now $0.54.</p>\n            ","response":0,"trial_type":"html-button-response","trial_index":78,"time_elapsed":247954,"internal_node_id":"0.0-4.0-1.35","subject_id":"616721ae6f6c6b77a7242f41","study_id":"6197b3f67c2b5cd3b6d9596a","session_id":"619bfbdc6fcf9520f99b5344","condition":"full-information","relevant_dimensions":["antennae","legs"],"bee_group":{"antennae":"B","wings":"X","pattern":"X","legs":"M"},"bonus":0.2600000000000013},{"rt":2182.899999976158,"stimulus":"bees-with-color/bee-A1DM.svg","response":0,"trial_type":"image-button-response","trial_index":79,"time_elapsed":250140,"internal_node_id":"0.0-4.0-0.36","subject_id":"616721ae6f6c6b77a7242f41","study_id":"6197b3f67c2b5cd3b6d9596a","session_id":"619bfbdc6fcf9520f99b5344","condition":"full-information","relevant_dimensions":["antennae","legs"],"bee_group":{"antennae":"B","wings":"X","pattern":"X","legs":"M"},"action":"harvest","summary":"good-harvest","bonus":0.2600000000000013},{"rt":830.0999999642372,"stimulus":"\n                    <p><b>Action: <em>harvest</em></b></p>\n                    <p>This is the bee that you just saw.</p>\n                    <img src=\"bees-with-color/bee-A1DM.svg\" width=\"200\">\n                    <p><span class=\"greenText\"><b>Successful harvest!</b></span><br>Your pay has increased by $0.02. Your bonus pay is now $0.56.</p>\n            ","response":0,"trial_type":"html-button-response","trial_index":80,"time_elapsed":250972,"internal_node_id":"0.0-4.0-1.36","subject_id":"616721ae6f6c6b77a7242f41","study_id":"6197b3f67c2b5cd3b6d9596a","session_id":"619bfbdc6fcf9520f99b5344","condition":"full-information","relevant_dimensions":["antennae","legs"],"bee_group":{"antennae":"B","wings":"X","pattern":"X","legs":"M"},"bonus":0.2600000000000013},{"rt":1894.5,"stimulus":"bees-with-color/bee-B1SM.svg","response":0,"trial_type":"image-button-response","trial_index":81,"time_elapsed":252868,"internal_node_id":"0.0-4.0-0.37","subject_id":"616721ae6f6c6b77a7242f41","study_id":"6197b3f67c2b5cd3b6d9596a","session_id":"619bfbdc6fcf9520f99b5344","condition":"full-information","relevant_dimensions":["antennae","legs"],"bee_group":{"antennae":"B","wings":"X","pattern":"X","legs":"M"},"action":"harvest","summary":"bad-harvest","bonus":0.2600000000000013},{"rt":1053.199999988079,"stimulus":"\n                    <p><b>Action: <em>harvest</em></b></p>\n                    <p>This is the bee that you just saw.</p>\n                    <img src=\"bees-with-color/bee-B1SM.svg\" width=\"200\">\n                    <p><span class=\"redText\">Bad choice, the bee was angry.</span><br><b>You have been stung!</b><br>Your pay has been decreased by $0.10. Your bonus pay is now $0.46.</p>\n            ","response":0,"trial_type":"html-button-response","trial_index":82,"time_elapsed":253923,"internal_node_id":"0.0-4.0-1.37","subject_id":"616721ae6f6c6b77a7242f41","study_id":"6197b3f67c2b5cd3b6d9596a","session_id":"619bfbdc6fcf9520f99b5344","condition":"full-information","relevant_dimensions":["antennae","legs"],"bee_group":{"antennae":"B","wings":"X","pattern":"X","legs":"M"},"bonus":0.2600000000000013},{"rt":1095.9000000357628,"stimulus":"bees-with-color/bee-A2SM.svg","response":0,"trial_type":"image-button-response","trial_index":83,"time_elapsed":255022,"internal_node_id":"0.0-4.0-0.38","subject_id":"616721ae6f6c6b77a7242f41","study_id":"6197b3f67c2b5cd3b6d9596a","session_id":"619bfbdc6fcf9520f99b5344","condition":"full-information","relevant_dimensions":["antennae","legs"],"bee_group":{"antennae":"B","wings":"X","pattern":"X","legs":"M"},"action":"harvest","summary":"good-harvest","bonus":0.2600000000000013},{"rt":664.3000000119209,"stimulus":"\n                    <p><b>Action: <em>harvest</em></b></p>\n                    <p>This is the bee that you just saw.</p>\n                    <img src=\"bees-with-color/bee-A2SM.svg\" width=\"200\">\n                    <p><span class=\"greenText\"><b>Successful harvest!</b></span><br>Your pay has increased by $0.02. Your bonus pay is now $0.48.</p>\n            ","response":0,"trial_type":"html-button-response","trial_index":84,"time_elapsed":255689,"internal_node_id":"0.0-4.0-1.38","subject_id":"616721ae6f6c6b77a7242f41","study_id":"6197b3f67c2b5cd3b6d9596a","session_id":"619bfbdc6fcf9520f99b5344","condition":"full-information","relevant_dimensions":["antennae","legs"],"bee_group":{"antennae":"B","wings":"X","pattern":"X","legs":"M"},"bonus":0.2600000000000013},{"rt":847.6000000238419,"stimulus":"bees-with-color/bee-B1SF.svg","response":0,"trial_type":"image-button-response","trial_index":85,"time_elapsed":256539,"internal_node_id":"0.0-4.0-0.39","subject_id":"616721ae6f6c6b77a7242f41","study_id":"6197b3f67c2b5cd3b6d9596a","session_id":"619bfbdc6fcf9520f99b5344","condition":"full-information","relevant_dimensions":["antennae","legs"],"bee_group":{"antennae":"B","wings":"X","pattern":"X","legs":"M"},"action":"harvest","summary":"good-harvest","bonus":0.2600000000000013},{"rt":1429.5,"stimulus":"\n                    <p><b>Action: <em>harvest</em></b></p>\n                    <p>This is the bee that you just saw.</p>\n                    <img src=\"bees-with-color/bee-B1SF.svg\" width=\"200\">\n                    <p><span class=\"greenText\"><b>Successful harvest!</b></span><br>Your pay has increased by $0.02. Your bonus pay is now $0.50.</p>\n            ","response":0,"trial_type":"html-button-response","trial_index":86,"time_elapsed":257972,"internal_node_id":"0.0-4.0-1.39","subject_id":"616721ae6f6c6b77a7242f41","study_id":"6197b3f67c2b5cd3b6d9596a","session_id":"619bfbdc6fcf9520f99b5344","condition":"full-information","relevant_dimensions":["antennae","legs"],"bee_group":{"antennae":"B","wings":"X","pattern":"X","legs":"M"},"bonus":0.2600000000000013},{"rt":1679.300000011921,"stimulus":"bees-with-color/bee-B1DF.svg","response":0,"trial_type":"image-button-response","trial_index":87,"time_elapsed":259653,"internal_node_id":"0.0-4.0-0.40","subject_id":"616721ae6f6c6b77a7242f41","study_id":"6197b3f67c2b5cd3b6d9596a","session_id":"619bfbdc6fcf9520f99b5344","condition":"full-information","relevant_dimensions":["antennae","legs"],"bee_group":{"antennae":"B","wings":"X","pattern":"X","legs":"M"},"action":"harvest","summary":"good-harvest","bonus":0.2600000000000013},{"rt":750,"stimulus":"\n                    <p><b>Action: <em>harvest</em></b></p>\n                    <p>This is the bee that you just saw.</p>\n                    <img src=\"bees-with-color/bee-B1DF.svg\" width=\"200\">\n                    <p><span class=\"greenText\"><b>Successful harvest!</b></span><br>Your pay has increased by $0.02. Your bonus pay is now $0.52.</p>\n            ","response":0,"trial_type":"html-button-response","trial_index":88,"time_elapsed":260406,"internal_node_id":"0.0-4.0-1.40","subject_id":"616721ae6f6c6b77a7242f41","study_id":"6197b3f67c2b5cd3b6d9596a","session_id":"619bfbdc6fcf9520f99b5344","condition":"full-information","relevant_dimensions":["antennae","legs"],"bee_group":{"antennae":"B","wings":"X","pattern":"X","legs":"M"},"bonus":0.2600000000000013},{"rt":4094.899999976158,"stimulus":"bees-with-color/bee-B2SM.svg","response":0,"trial_type":"image-button-response","trial_index":89,"time_elapsed":264503,"internal_node_id":"0.0-4.0-0.41","subject_id":"616721ae6f6c6b77a7242f41","study_id":"6197b3f67c2b5cd3b6d9596a","session_id":"619bfbdc6fcf9520f99b5344","condition":"full-information","relevant_dimensions":["antennae","legs"],"bee_group":{"antennae":"B","wings":"X","pattern":"X","legs":"M"},"action":"harvest","summary":"bad-harvest","bonus":0.2600000000000013},{"rt":834.1000000238419,"stimulus":"\n                    <p><b>Action: <em>harvest</em></b></p>\n                    <p>This is the bee that you just saw.</p>\n                    <img src=\"bees-with-color/bee-B2SM.svg\" width=\"200\">\n                    <p><span class=\"redText\">Bad choice, the bee was angry.</span><br><b>You have been stung!</b><br>Your pay has been decreased by $0.10. Your bonus pay is now $0.42.</p>\n            ","response":0,"trial_type":"html-button-response","trial_index":90,"time_elapsed":265339,"internal_node_id":"0.0-4.0-1.41","subject_id":"616721ae6f6c6b77a7242f41","study_id":"6197b3f67c2b5cd3b6d9596a","session_id":"619bfbdc6fcf9520f99b5344","condition":"full-information","relevant_dimensions":["antennae","legs"],"bee_group":{"antennae":"B","wings":"X","pattern":"X","legs":"M"},"bonus":0.2600000000000013},{"rt":779.2999999523163,"stimulus":"bees-with-color/bee-A2DM.svg","response":0,"trial_type":"image-button-response","trial_index":91,"time_elapsed":266122,"internal_node_id":"0.0-4.0-0.42","subject_id":"616721ae6f6c6b77a7242f41","study_id":"6197b3f67c2b5cd3b6d9596a","session_id":"619bfbdc6fcf9520f99b5344","condition":"full-information","relevant_dimensions":["antennae","legs"],"bee_group":{"antennae":"B","wings":"X","pattern":"X","legs":"M"},"action":"harvest","summary":"good-harvest","bonus":0.2600000000000013},{"rt":645.8000000119209,"stimulus":"\n                    <p><b>Action: <em>harvest</em></b></p>\n                    <p>This is the bee that you just saw.</p>\n                    <img src=\"bees-with-color/bee-A2DM.svg\" width=\"200\">\n                    <p><span class=\"greenText\"><b>Successful harvest!</b></span><br>Your pay has increased by $0.02. Your bonus pay is now $0.44.</p>\n            ","response":0,"trial_type":"html-button-response","trial_index":92,"time_elapsed":266772,"internal_node_id":"0.0-4.0-1.42","subject_id":"616721ae6f6c6b77a7242f41","study_id":"6197b3f67c2b5cd3b6d9596a","session_id":"619bfbdc6fcf9520f99b5344","condition":"full-information","relevant_dimensions":["antennae","legs"],"bee_group":{"antennae":"B","wings":"X","pattern":"X","legs":"M"},"bonus":0.2600000000000013},{"rt":1147.800000011921,"stimulus":"bees-with-color/bee-A1DF.svg","response":0,"trial_type":"image-button-response","trial_index":93,"time_elapsed":267922,"internal_node_id":"0.0-4.0-0.43","subject_id":"616721ae6f6c6b77a7242f41","study_id":"6197b3f67c2b5cd3b6d9596a","session_id":"619bfbdc6fcf9520f99b5344","condition":"full-information","relevant_dimensions":["antennae","legs"],"bee_group":{"antennae":"B","wings":"X","pattern":"X","legs":"M"},"action":"harvest","summary":"good-harvest","bonus":0.2600000000000013},{"rt":698.5999999642372,"stimulus":"\n                    <p><b>Action: <em>harvest</em></b></p>\n                    <p>This is the bee that you just saw.</p>\n                    <img src=\"bees-with-color/bee-A1DF.svg\" width=\"200\">\n                    <p><span class=\"greenText\"><b>Successful harvest!</b></span><br>Your pay has increased by $0.02. Your bonus pay is now $0.46.</p>\n            ","response":0,"trial_type":"html-button-response","trial_index":94,"time_elapsed":268623,"internal_node_id":"0.0-4.0-1.43","subject_id":"616721ae6f6c6b77a7242f41","study_id":"6197b3f67c2b5cd3b6d9596a","session_id":"619bfbdc6fcf9520f99b5344","condition":"full-information","relevant_dimensions":["antennae","legs"],"bee_group":{"antennae":"B","wings":"X","pattern":"X","legs":"M"},"bonus":0.2600000000000013},{"rt":845.8999999761581,"stimulus":"bees-with-color/bee-A2DF.svg","response":0,"trial_type":"image-button-response","trial_index":95,"time_elapsed":269471,"internal_node_id":"0.0-4.0-0.44","subject_id":"616721ae6f6c6b77a7242f41","study_id":"6197b3f67c2b5cd3b6d9596a","session_id":"619bfbdc6fcf9520f99b5344","condition":"full-information","relevant_dimensions":["antennae","legs"],"bee_group":{"antennae":"B","wings":"X","pattern":"X","legs":"M"},"action":"harvest","summary":"good-harvest","bonus":0.2600000000000013},{"rt":1832,"stimulus":"\n                    <p><b>Action: <em>harvest</em></b></p>\n                    <p>This is the bee that you just saw.</p>\n                    <img src=\"bees-with-color/bee-A2DF.svg\" width=\"200\">\n                    <p><span class=\"greenText\"><b>Successful harvest!</b></span><br>Your pay has increased by $0.02. Your bonus pay is now $0.48.</p>\n            ","response":0,"trial_type":"html-button-response","trial_index":96,"time_elapsed":271306,"internal_node_id":"0.0-4.0-1.44","subject_id":"616721ae6f6c6b77a7242f41","study_id":"6197b3f67c2b5cd3b6d9596a","session_id":"619bfbdc6fcf9520f99b5344","condition":"full-information","relevant_dimensions":["antennae","legs"],"bee_group":{"antennae":"B","wings":"X","pattern":"X","legs":"M"},"bonus":0.2600000000000013},{"rt":1497.3999999761581,"stimulus":"bees-with-color/bee-A1SF.svg","response":0,"trial_type":"image-button-response","trial_index":97,"time_elapsed":272806,"internal_node_id":"0.0-4.0-0.45","subject_id":"616721ae6f6c6b77a7242f41","study_id":"6197b3f67c2b5cd3b6d9596a","session_id":"619bfbdc6fcf9520f99b5344","condition":"full-information","relevant_dimensions":["antennae","legs"],"bee_group":{"antennae":"B","wings":"X","pattern":"X","legs":"M"},"action":"harvest","summary":"good-harvest","bonus":0.2600000000000013},{"rt":1230.2000000476837,"stimulus":"\n                    <p><b>Action: <em>harvest</em></b></p>\n                    <p>This is the bee that you just saw.</p>\n                    <img src=\"bees-with-color/bee-A1SF.svg\" width=\"200\">\n                    <p><span class=\"greenText\"><b>Successful harvest!</b></span><br>Your pay has increased by $0.02. Your bonus pay is now $0.50.</p>\n            ","response":0,"trial_type":"html-button-response","trial_index":98,"time_elapsed":274039,"internal_node_id":"0.0-4.0-1.45","subject_id":"616721ae6f6c6b77a7242f41","study_id":"6197b3f67c2b5cd3b6d9596a","session_id":"619bfbdc6fcf9520f99b5344","condition":"full-information","relevant_dimensions":["antennae","legs"],"bee_group":{"antennae":"B","wings":"X","pattern":"X","legs":"M"},"bonus":0.2600000000000013},{"rt":1630.0999999642372,"stimulus":"bees-with-color/bee-A1SM.svg","response":1,"trial_type":"image-button-response","trial_index":99,"time_elapsed":275672,"internal_node_id":"0.0-4.0-0.46","subject_id":"616721ae6f6c6b77a7242f41","study_id":"6197b3f67c2b5cd3b6d9596a","session_id":"619bfbdc6fcf9520f99b5344","condition":"full-information","relevant_dimensions":["antennae","legs"],"bee_group":{"antennae":"B","wings":"X","pattern":"X","legs":"M"},"action":"avoid","summary":"bad-avoid","bonus":0.2600000000000013},{"rt":763.2000000476837,"stimulus":"\n                    <p><b>Action: <em>avoid</em></b></p>\n                    <p>This is the bee that you just saw.</p>\n                    <img src=\"bees-with-color/bee-A1SM.svg\" width=\"200\">\n                    <p><span class=\"redText\">Bad choice,</span> the bee was friendly.<br>Your bonus pay is unchanged, and remains at $0.50.</p>\n            ","response":0,"trial_type":"html-button-response","trial_index":100,"time_elapsed":276438,"internal_node_id":"0.0-4.0-1.46","subject_id":"616721ae6f6c6b77a7242f41","study_id":"6197b3f67c2b5cd3b6d9596a","session_id":"619bfbdc6fcf9520f99b5344","condition":"full-information","relevant_dimensions":["antennae","legs"],"bee_group":{"antennae":"B","wings":"X","pattern":"X","legs":"M"},"bonus":0.2600000000000013},{"rt":1146.800000011921,"stimulus":"bees-with-color/bee-B2DM.svg","response":1,"trial_type":"image-button-response","trial_index":101,"time_elapsed":277588,"internal_node_id":"0.0-4.0-0.47","subject_id":"616721ae6f6c6b77a7242f41","study_id":"6197b3f67c2b5cd3b6d9596a","session_id":"619bfbdc6fcf9520f99b5344","condition":"full-information","relevant_dimensions":["antennae","legs"],"bee_group":{"antennae":"B","wings":"X","pattern":"X","legs":"M"},"action":"avoid","summary":"good-avoid","bonus":0.2600000000000013},{"rt":679,"stimulus":"\n                    <p><b>Action: <em>avoid</em></b></p>\n                    <p>This is the bee that you just saw.</p>\n                    <img src=\"bees-with-color/bee-B2DM.svg\" width=\"200\">\n                    <p><span class=\"greenText\">Good choice!</span>  This bee would have stung you.<br>Your bonus pay is unchanged, and remains at $0.50.</p>\n            ","response":0,"trial_type":"html-button-response","trial_index":102,"time_elapsed":278270,"internal_node_id":"0.0-4.0-1.47","subject_id":"616721ae6f6c6b77a7242f41","study_id":"6197b3f67c2b5cd3b6d9596a","session_id":"619bfbdc6fcf9520f99b5344","condition":"full-information","relevant_dimensions":["antennae","legs"],"bee_group":{"antennae":"B","wings":"X","pattern":"X","legs":"M"},"bonus":0.2600000000000013},{"rt":1413.7999999523163,"stimulus":"bees-with-color/bee-A2SF.svg","response":0,"trial_type":"image-button-response","trial_index":103,"time_elapsed":279688,"internal_node_id":"0.0-4.0-0.48","subject_id":"616721ae6f6c6b77a7242f41","study_id":"6197b3f67c2b5cd3b6d9596a","session_id":"619bfbdc6fcf9520f99b5344","condition":"full-information","relevant_dimensions":["antennae","legs"],"bee_group":{"antennae":"B","wings":"X","pattern":"X","legs":"M"},"action":"harvest","summary":"good-harvest","bonus":0.2600000000000013},{"rt":628.8999999761581,"stimulus":"\n                    <p><b>Action: <em>harvest</em></b></p>\n                    <p>This is the bee that you just saw.</p>\n                    <img src=\"bees-with-color/bee-A2SF.svg\" width=\"200\">\n                    <p><span class=\"greenText\"><b>Successful harvest!</b></span><br>Your pay has increased by $0.02. Your bonus pay is now $0.52.</p>\n            ","response":0,"trial_type":"html-button-response","trial_index":104,"time_elapsed":280320,"internal_node_id":"0.0-4.0-1.48","subject_id":"616721ae6f6c6b77a7242f41","study_id":"6197b3f67c2b5cd3b6d9596a","session_id":"619bfbdc6fcf9520f99b5344","condition":"full-information","relevant_dimensions":["antennae","legs"],"bee_group":{"antennae":"B","wings":"X","pattern":"X","legs":"M"},"bonus":0.2600000000000013},{"rt":1130.6000000238419,"stimulus":"bees-with-color/bee-A2SM.svg","response":0,"trial_type":"image-button-response","trial_index":105,"time_elapsed":281454,"internal_node_id":"0.0-4.0-0.49","subject_id":"616721ae6f6c6b77a7242f41","study_id":"6197b3f67c2b5cd3b6d9596a","session_id":"619bfbdc6fcf9520f99b5344","condition":"full-information","relevant_dimensions":["antennae","legs"],"bee_group":{"antennae":"B","wings":"X","pattern":"X","legs":"M"},"action":"harvest","summary":"good-harvest","bonus":0.2600000000000013},{"rt":628.3999999761581,"stimulus":"\n                    <p><b>Action: <em>harvest</em></b></p>\n                    <p>This is the bee that you just saw.</p>\n                    <img src=\"bees-with-color/bee-A2SM.svg\" width=\"200\">\n                    <p><span class=\"greenText\"><b>Successful harvest!</b></span><br>Your pay has increased by $0.02. Your bonus pay is now $0.54.</p>\n            ","response":0,"trial_type":"html-button-response","trial_index":106,"time_elapsed":282087,"internal_node_id":"0.0-4.0-1.49","subject_id":"616721ae6f6c6b77a7242f41","study_id":"6197b3f67c2b5cd3b6d9596a","session_id":"619bfbdc6fcf9520f99b5344","condition":"full-information","relevant_dimensions":["antennae","legs"],"bee_group":{"antennae":"B","wings":"X","pattern":"X","legs":"M"},"bonus":0.2600000000000013},{"rt":746.5,"stimulus":"bees-with-color/bee-A1SM.svg","response":0,"trial_type":"image-button-response","trial_index":107,"time_elapsed":282836,"internal_node_id":"0.0-4.0-0.50","subject_id":"616721ae6f6c6b77a7242f41","study_id":"6197b3f67c2b5cd3b6d9596a","session_id":"619bfbdc6fcf9520f99b5344","condition":"full-information","relevant_dimensions":["antennae","legs"],"bee_group":{"antennae":"B","wings":"X","pattern":"X","legs":"M"},"action":"harvest","summary":"good-harvest","bonus":0.2600000000000013},{"rt":649.5999999642372,"stimulus":"\n                    <p><b>Action: <em>harvest</em></b></p>\n                    <p>This is the bee that you just saw.</p>\n                    <img src=\"bees-with-color/bee-A1SM.svg\" width=\"200\">\n                    <p><span class=\"greenText\"><b>Successful harvest!</b></span><br>Your pay has increased by $0.02. Your bonus pay is now $0.56.</p>\n            ","response":0,"trial_type":"html-button-response","trial_index":108,"time_elapsed":283488,"internal_node_id":"0.0-4.0-1.50","subject_id":"616721ae6f6c6b77a7242f41","study_id":"6197b3f67c2b5cd3b6d9596a","session_id":"619bfbdc6fcf9520f99b5344","condition":"full-information","relevant_dimensions":["antennae","legs"],"bee_group":{"antennae":"B","wings":"X","pattern":"X","legs":"M"},"bonus":0.2600000000000013},{"rt":2181,"stimulus":"bees-with-color/bee-B1SM.svg","response":0,"trial_type":"image-button-response","trial_index":109,"time_elapsed":285671,"internal_node_id":"0.0-4.0-0.51","subject_id":"616721ae6f6c6b77a7242f41","study_id":"6197b3f67c2b5cd3b6d9596a","session_id":"619bfbdc6fcf9520f99b5344","condition":"full-information","relevant_dimensions":["antennae","legs"],"bee_group":{"antennae":"B","wings":"X","pattern":"X","legs":"M"},"action":"harvest","summary":"bad-harvest","bonus":0.2600000000000013},{"rt":829.6999999880791,"stimulus":"\n                    <p><b>Action: <em>harvest</em></b></p>\n                    <p>This is the bee that you just saw.</p>\n                    <img src=\"bees-with-color/bee-B1SM.svg\" width=\"200\">\n                    <p><span class=\"redText\">Bad choice, the bee was angry.</span><br><b>You have been stung!</b><br>Your pay has been decreased by $0.10. Your bonus pay is now $0.46.</p>\n            ","response":0,"trial_type":"html-button-response","trial_index":110,"time_elapsed":286504,"internal_node_id":"0.0-4.0-1.51","subject_id":"616721ae6f6c6b77a7242f41","study_id":"6197b3f67c2b5cd3b6d9596a","session_id":"619bfbdc6fcf9520f99b5344","condition":"full-information","relevant_dimensions":["antennae","legs"],"bee_group":{"antennae":"B","wings":"X","pattern":"X","legs":"M"},"bonus":0.2600000000000013},{"rt":814.3999999761581,"stimulus":"bees-with-color/bee-B2DM.svg","response":0,"trial_type":"image-button-response","trial_index":111,"time_elapsed":287321,"internal_node_id":"0.0-4.0-0.52","subject_id":"616721ae6f6c6b77a7242f41","study_id":"6197b3f67c2b5cd3b6d9596a","session_id":"619bfbdc6fcf9520f99b5344","condition":"full-information","relevant_dimensions":["antennae","legs"],"bee_group":{"antennae":"B","wings":"X","pattern":"X","legs":"M"},"action":"harvest","summary":"bad-harvest","bonus":0.2600000000000013},{"rt":713.3000000119209,"stimulus":"\n                    <p><b>Action: <em>harvest</em></b></p>\n                    <p>This is the bee that you just saw.</p>\n                    <img src=\"bees-with-color/bee-B2DM.svg\" width=\"200\">\n                    <p><span class=\"redText\">Bad choice, the bee was angry.</span><br><b>You have been stung!</b><br>Your pay has been decreased by $0.10. Your bonus pay is now $0.36.</p>\n            ","response":0,"trial_type":"html-button-response","trial_index":112,"time_elapsed":288038,"internal_node_id":"0.0-4.0-1.52","subject_id":"616721ae6f6c6b77a7242f41","study_id":"6197b3f67c2b5cd3b6d9596a","session_id":"619bfbdc6fcf9520f99b5344","condition":"full-information","relevant_dimensions":["antennae","legs"],"bee_group":{"antennae":"B","wings":"X","pattern":"X","legs":"M"},"bonus":0.2600000000000013},{"rt":1063.5,"stimulus":"bees-with-color/bee-A1SF.svg","response":0,"trial_type":"image-button-response","trial_index":113,"time_elapsed":289103,"internal_node_id":"0.0-4.0-0.53","subject_id":"616721ae6f6c6b77a7242f41","study_id":"6197b3f67c2b5cd3b6d9596a","session_id":"619bfbdc6fcf9520f99b5344","condition":"full-information","relevant_dimensions":["antennae","legs"],"bee_group":{"antennae":"B","wings":"X","pattern":"X","legs":"M"},"action":"harvest","summary":"good-harvest","bonus":0.2600000000000013},{"rt":881.6999999880791,"stimulus":"\n                    <p><b>Action: <em>harvest</em></b></p>\n                    <p>This is the bee that you just saw.</p>\n                    <img src=\"bees-with-color/bee-A1SF.svg\" width=\"200\">\n                    <p><span class=\"greenText\"><b>Successful harvest!</b></span><br>Your pay has increased by $0.02. Your bonus pay is now $0.38.</p>\n            ","response":0,"trial_type":"html-button-response","trial_index":114,"time_elapsed":289988,"internal_node_id":"0.0-4.0-1.53","subject_id":"616721ae6f6c6b77a7242f41","study_id":"6197b3f67c2b5cd3b6d9596a","session_id":"619bfbdc6fcf9520f99b5344","condition":"full-information","relevant_dimensions":["antennae","legs"],"bee_group":{"antennae":"B","wings":"X","pattern":"X","legs":"M"},"bonus":0.2600000000000013},{"rt":2246,"stimulus":"bees-with-color/bee-A1DF.svg","response":0,"trial_type":"image-button-response","trial_index":115,"time_elapsed":292237,"internal_node_id":"0.0-4.0-0.54","subject_id":"616721ae6f6c6b77a7242f41","study_id":"6197b3f67c2b5cd3b6d9596a","session_id":"619bfbdc6fcf9520f99b5344","condition":"full-information","relevant_dimensions":["antennae","legs"],"bee_group":{"antennae":"B","wings":"X","pattern":"X","legs":"M"},"action":"harvest","summary":"good-harvest","bonus":0.2600000000000013},{"rt":614.8999999761581,"stimulus":"\n                    <p><b>Action: <em>harvest</em></b></p>\n                    <p>This is the bee that you just saw.</p>\n                    <img src=\"bees-with-color/bee-A1DF.svg\" width=\"200\">\n                    <p><span class=\"greenText\"><b>Successful harvest!</b></span><br>Your pay has increased by $0.02. Your bonus pay is now $0.40.</p>\n            ","response":0,"trial_type":"html-button-response","trial_index":116,"time_elapsed":292855,"internal_node_id":"0.0-4.0-1.54","subject_id":"616721ae6f6c6b77a7242f41","study_id":"6197b3f67c2b5cd3b6d9596a","session_id":"619bfbdc6fcf9520f99b5344","condition":"full-information","relevant_dimensions":["antennae","legs"],"bee_group":{"antennae":"B","wings":"X","pattern":"X","legs":"M"},"bonus":0.2600000000000013},{"rt":963.3000000119209,"stimulus":"bees-with-color/bee-A1DM.svg","response":0,"trial_type":"image-button-response","trial_index":117,"time_elapsed":293821,"internal_node_id":"0.0-4.0-0.55","subject_id":"616721ae6f6c6b77a7242f41","study_id":"6197b3f67c2b5cd3b6d9596a","session_id":"619bfbdc6fcf9520f99b5344","condition":"full-information","relevant_dimensions":["antennae","legs"],"bee_group":{"antennae":"B","wings":"X","pattern":"X","legs":"M"},"action":"harvest","summary":"good-harvest","bonus":0.2600000000000013},{"rt":613.1999999880791,"stimulus":"\n                    <p><b>Action: <em>harvest</em></b></p>\n                    <p>This is the bee that you just saw.</p>\n                    <img src=\"bees-with-color/bee-A1DM.svg\" width=\"200\">\n                    <p><span class=\"greenText\"><b>Successful harvest!</b></span><br>Your pay has increased by $0.02. Your bonus pay is now $0.42.</p>\n            ","response":0,"trial_type":"html-button-response","trial_index":118,"time_elapsed":294437,"internal_node_id":"0.0-4.0-1.55","subject_id":"616721ae6f6c6b77a7242f41","study_id":"6197b3f67c2b5cd3b6d9596a","session_id":"619bfbdc6fcf9520f99b5344","condition":"full-information","relevant_dimensions":["antennae","legs"],"bee_group":{"antennae":"B","wings":"X","pattern":"X","legs":"M"},"bonus":0.2600000000000013},{"rt":1180.199999988079,"stimulus":"bees-with-color/bee-B1DM.svg","response":0,"trial_type":"image-button-response","trial_index":119,"time_elapsed":295620,"internal_node_id":"0.0-4.0-0.56","subject_id":"616721ae6f6c6b77a7242f41","study_id":"6197b3f67c2b5cd3b6d9596a","session_id":"619bfbdc6fcf9520f99b5344","condition":"full-information","relevant_dimensions":["antennae","legs"],"bee_group":{"antennae":"B","wings":"X","pattern":"X","legs":"M"},"action":"harvest","summary":"bad-harvest","bonus":0.2600000000000013},{"rt":2113.400000035763,"stimulus":"\n                    <p><b>Action: <em>harvest</em></b></p>\n                    <p>This is the bee that you just saw.</p>\n                    <img src=\"bees-with-color/bee-B1DM.svg\" width=\"200\">\n                    <p><span class=\"redText\">Bad choice, the bee was angry.</span><br><b>You have been stung!</b><br>Your pay has been decreased by $0.10. Your bonus pay is now $0.32.</p>\n            ","response":0,"trial_type":"html-button-response","trial_index":120,"time_elapsed":297737,"internal_node_id":"0.0-4.0-1.56","subject_id":"616721ae6f6c6b77a7242f41","study_id":"6197b3f67c2b5cd3b6d9596a","session_id":"619bfbdc6fcf9520f99b5344","condition":"full-information","relevant_dimensions":["antennae","legs"],"bee_group":{"antennae":"B","wings":"X","pattern":"X","legs":"M"},"bonus":0.2600000000000013},{"rt":1230,"stimulus":"bees-with-color/bee-A2DF.svg","response":0,"trial_type":"image-button-response","trial_index":121,"time_elapsed":298970,"internal_node_id":"0.0-4.0-0.57","subject_id":"616721ae6f6c6b77a7242f41","study_id":"6197b3f67c2b5cd3b6d9596a","session_id":"619bfbdc6fcf9520f99b5344","condition":"full-information","relevant_dimensions":["antennae","legs"],"bee_group":{"antennae":"B","wings":"X","pattern":"X","legs":"M"},"action":"harvest","summary":"good-harvest","bonus":0.2600000000000013},{"rt":1396.699999988079,"stimulus":"\n                    <p><b>Action: <em>harvest</em></b></p>\n                    <p>This is the bee that you just saw.</p>\n                    <img src=\"bees-with-color/bee-A2DF.svg\" width=\"200\">\n                    <p><span class=\"greenText\"><b>Successful harvest!</b></span><br>Your pay has increased by $0.02. Your bonus pay is now $0.34.</p>\n            ","response":0,"trial_type":"html-button-response","trial_index":122,"time_elapsed":300370,"internal_node_id":"0.0-4.0-1.57","subject_id":"616721ae6f6c6b77a7242f41","study_id":"6197b3f67c2b5cd3b6d9596a","session_id":"619bfbdc6fcf9520f99b5344","condition":"full-information","relevant_dimensions":["antennae","legs"],"bee_group":{"antennae":"B","wings":"X","pattern":"X","legs":"M"},"bonus":0.2600000000000013},{"rt":1447.0999999642372,"stimulus":"bees-with-color/bee-B2SF.svg","response":0,"trial_type":"image-button-response","trial_index":123,"time_elapsed":301820,"internal_node_id":"0.0-4.0-0.58","subject_id":"616721ae6f6c6b77a7242f41","study_id":"6197b3f67c2b5cd3b6d9596a","session_id":"619bfbdc6fcf9520f99b5344","condition":"full-information","relevant_dimensions":["antennae","legs"],"bee_group":{"antennae":"B","wings":"X","pattern":"X","legs":"M"},"action":"harvest","summary":"good-harvest","bonus":0.2600000000000013},{"rt":848.3000000119209,"stimulus":"\n                    <p><b>Action: <em>harvest</em></b></p>\n                    <p>This is the bee that you just saw.</p>\n                    <img src=\"bees-with-color/bee-B2SF.svg\" width=\"200\">\n                    <p><span class=\"greenText\"><b>Successful harvest!</b></span><br>Your pay has increased by $0.02. Your bonus pay is now $0.36.</p>\n            ","response":0,"trial_type":"html-button-response","trial_index":124,"time_elapsed":302671,"internal_node_id":"0.0-4.0-1.58","subject_id":"616721ae6f6c6b77a7242f41","study_id":"6197b3f67c2b5cd3b6d9596a","session_id":"619bfbdc6fcf9520f99b5344","condition":"full-information","relevant_dimensions":["antennae","legs"],"bee_group":{"antennae":"B","wings":"X","pattern":"X","legs":"M"},"bonus":0.2600000000000013},{"rt":813.6000000238419,"stimulus":"bees-with-color/bee-B1DF.svg","response":0,"trial_type":"image-button-response","trial_index":125,"time_elapsed":303488,"internal_node_id":"0.0-4.0-0.59","subject_id":"616721ae6f6c6b77a7242f41","study_id":"6197b3f67c2b5cd3b6d9596a","session_id":"619bfbdc6fcf9520f99b5344","condition":"full-information","relevant_dimensions":["antennae","legs"],"bee_group":{"antennae":"B","wings":"X","pattern":"X","legs":"M"},"action":"harvest","summary":"good-harvest","bonus":0.2600000000000013},{"rt":729,"stimulus":"\n                    <p><b>Action: <em>harvest</em></b></p>\n                    <p>This is the bee that you just saw.</p>\n                    <img src=\"bees-with-color/bee-B1DF.svg\" width=\"200\">\n                    <p><span class=\"greenText\"><b>Successful harvest!</b></span><br>Your pay has increased by $0.02. Your bonus pay is now $0.38.</p>\n            ","response":0,"trial_type":"html-button-response","trial_index":126,"time_elapsed":304220,"internal_node_id":"0.0-4.0-1.59","subject_id":"616721ae6f6c6b77a7242f41","study_id":"6197b3f67c2b5cd3b6d9596a","session_id":"619bfbdc6fcf9520f99b5344","condition":"full-information","relevant_dimensions":["antennae","legs"],"bee_group":{"antennae":"B","wings":"X","pattern":"X","legs":"M"},"bonus":0.2600000000000013},{"rt":1297.199999988079,"stimulus":"bees-with-color/bee-B2SM.svg","response":0,"trial_type":"image-button-response","trial_index":127,"time_elapsed":305521,"internal_node_id":"0.0-4.0-0.60","subject_id":"616721ae6f6c6b77a7242f41","study_id":"6197b3f67c2b5cd3b6d9596a","session_id":"619bfbdc6fcf9520f99b5344","condition":"full-information","relevant_dimensions":["antennae","legs"],"bee_group":{"antennae":"B","wings":"X","pattern":"X","legs":"M"},"action":"harvest","summary":"bad-harvest","bonus":0.2600000000000013},{"rt":879.1999999880791,"stimulus":"\n                    <p><b>Action: <em>harvest</em></b></p>\n                    <p>This is the bee that you just saw.</p>\n                    <img src=\"bees-with-color/bee-B2SM.svg\" width=\"200\">\n                    <p><span class=\"redText\">Bad choice, the bee was angry.</span><br><b>You have been stung!</b><br>Your pay has been decreased by $0.10. Your bonus pay is now $0.28.</p>\n            ","response":0,"trial_type":"html-button-response","trial_index":128,"time_elapsed":306404,"internal_node_id":"0.0-4.0-1.60","subject_id":"616721ae6f6c6b77a7242f41","study_id":"6197b3f67c2b5cd3b6d9596a","session_id":"619bfbdc6fcf9520f99b5344","condition":"full-information","relevant_dimensions":["antennae","legs"],"bee_group":{"antennae":"B","wings":"X","pattern":"X","legs":"M"},"bonus":0.2600000000000013},{"rt":596.8999999761581,"stimulus":"bees-with-color/bee-A2DM.svg","response":0,"trial_type":"image-button-response","trial_index":129,"time_elapsed":307004,"internal_node_id":"0.0-4.0-0.61","subject_id":"616721ae6f6c6b77a7242f41","study_id":"6197b3f67c2b5cd3b6d9596a","session_id":"619bfbdc6fcf9520f99b5344","condition":"full-information","relevant_dimensions":["antennae","legs"],"bee_group":{"antennae":"B","wings":"X","pattern":"X","legs":"M"},"action":"harvest","summary":"good-harvest","bonus":0.2600000000000013},{"rt":680.3000000119209,"stimulus":"\n                    <p><b>Action: <em>harvest</em></b></p>\n                    <p>This is the bee that you just saw.</p>\n                    <img src=\"bees-with-color/bee-A2DM.svg\" width=\"200\">\n                    <p><span class=\"greenText\"><b>Successful harvest!</b></span><br>Your pay has increased by $0.02. Your bonus pay is now $0.30.</p>\n            ","response":0,"trial_type":"html-button-response","trial_index":130,"time_elapsed":307687,"internal_node_id":"0.0-4.0-1.61","subject_id":"616721ae6f6c6b77a7242f41","study_id":"6197b3f67c2b5cd3b6d9596a","session_id":"619bfbdc6fcf9520f99b5344","condition":"full-information","relevant_dimensions":["antennae","legs"],"bee_group":{"antennae":"B","wings":"X","pattern":"X","legs":"M"},"bonus":0.2600000000000013},{"rt":763.1999999880791,"stimulus":"bees-with-color/bee-B2DF.svg","response":0,"trial_type":"image-button-response","trial_index":131,"time_elapsed":308454,"internal_node_id":"0.0-4.0-0.62","subject_id":"616721ae6f6c6b77a7242f41","study_id":"6197b3f67c2b5cd3b6d9596a","session_id":"619bfbdc6fcf9520f99b5344","condition":"full-information","relevant_dimensions":["antennae","legs"],"bee_group":{"antennae":"B","wings":"X","pattern":"X","legs":"M"},"action":"harvest","summary":"good-harvest","bonus":0.2600000000000013},{"rt":696.7000000476837,"stimulus":"\n                    <p><b>Action: <em>harvest</em></b></p>\n                    <p>This is the bee that you just saw.</p>\n                    <img src=\"bees-with-color/bee-B2DF.svg\" width=\"200\">\n                    <p><span class=\"greenText\"><b>Successful harvest!</b></span><br>Your pay has increased by $0.02. Your bonus pay is now $0.32.</p>\n            ","response":0,"trial_type":"html-button-response","trial_index":132,"time_elapsed":309154,"internal_node_id":"0.0-4.0-1.62","subject_id":"616721ae6f6c6b77a7242f41","study_id":"6197b3f67c2b5cd3b6d9596a","session_id":"619bfbdc6fcf9520f99b5344","condition":"full-information","relevant_dimensions":["antennae","legs"],"bee_group":{"antennae":"B","wings":"X","pattern":"X","legs":"M"},"bonus":0.2600000000000013},{"rt":1046.800000011921,"stimulus":"bees-with-color/bee-B1SF.svg","response":0,"trial_type":"image-button-response","trial_index":133,"time_elapsed":310204,"internal_node_id":"0.0-4.0-0.63","subject_id":"616721ae6f6c6b77a7242f41","study_id":"6197b3f67c2b5cd3b6d9596a","session_id":"619bfbdc6fcf9520f99b5344","condition":"full-information","relevant_dimensions":["antennae","legs"],"bee_group":{"antennae":"B","wings":"X","pattern":"X","legs":"M"},"action":"harvest","summary":"good-harvest","bonus":0.2600000000000013},{"rt":728.8000000119209,"stimulus":"\n                    <p><b>Action: <em>harvest</em></b></p>\n                    <p>This is the bee that you just saw.</p>\n                    <img src=\"bees-with-color/bee-B1SF.svg\" width=\"200\">\n                    <p><span class=\"greenText\"><b>Successful harvest!</b></span><br>Your pay has increased by $0.02. Your bonus pay is now $0.34.</p>\n            ","response":0,"trial_type":"html-button-response","trial_index":134,"time_elapsed":310937,"internal_node_id":"0.0-4.0-1.63","subject_id":"616721ae6f6c6b77a7242f41","study_id":"6197b3f67c2b5cd3b6d9596a","session_id":"619bfbdc6fcf9520f99b5344","condition":"full-information","relevant_dimensions":["antennae","legs"],"bee_group":{"antennae":"B","wings":"X","pattern":"X","legs":"M"},"bonus":0.2600000000000013},{"rt":9191.199999988079,"stimulus":"You have completed the first part of this experiment.<br><br>You will now begin a shorter second part, in which you will receive no feedback.<br>The same rules regarding bonus pay apply.<br><br>Press any key to begin.","response":" ","trial_type":"html-keyboard-response","trial_index":135,"time_elapsed":320131,"internal_node_id":"0.0-5.0","subject_id":"616721ae6f6c6b77a7242f41","study_id":"6197b3f67c2b5cd3b6d9596a","session_id":"619bfbdc6fcf9520f99b5344","condition":"full-information","relevant_dimensions":["antennae","legs"],"bee_group":{"antennae":"B","wings":"X","pattern":"X","legs":"M"},"bonus":0.2600000000000013},{"rt":1163.5,"stimulus":"bees-with-color/bee-B2DF.svg","response":0,"trial_type":"image-button-response","trial_index":136,"time_elapsed":321306,"internal_node_id":"0.0-6.0-0.0","subject_id":"616721ae6f6c6b77a7242f41","study_id":"6197b3f67c2b5cd3b6d9596a","session_id":"619bfbdc6fcf9520f99b5344","condition":"full-information","relevant_dimensions":["antennae","legs"],"bee_group":{"antennae":"B","wings":"X","pattern":"X","legs":"M"},"bonus":0.2600000000000013},{"rt":4565.899999976158,"stimulus":"bees-with-color/bee-B1SM.svg","response":0,"trial_type":"image-button-response","trial_index":137,"time_elapsed":325876,"internal_node_id":"0.0-6.0-0.1","subject_id":"616721ae6f6c6b77a7242f41","study_id":"6197b3f67c2b5cd3b6d9596a","session_id":"619bfbdc6fcf9520f99b5344","condition":"full-information","relevant_dimensions":["antennae","legs"],"bee_group":{"antennae":"B","wings":"X","pattern":"X","legs":"M"},"bonus":0.2600000000000013},{"rt":1443.5,"stimulus":"bees-with-color/bee-B1SF.svg","response":0,"trial_type":"image-button-response","trial_index":138,"time_elapsed":327323,"internal_node_id":"0.0-6.0-0.2","subject_id":"616721ae6f6c6b77a7242f41","study_id":"6197b3f67c2b5cd3b6d9596a","session_id":"619bfbdc6fcf9520f99b5344","condition":"full-information","relevant_dimensions":["antennae","legs"],"bee_group":{"antennae":"B","wings":"X","pattern":"X","legs":"M"},"bonus":0.2600000000000013},{"rt":1846.0999999642372,"stimulus":"bees-with-color/bee-B2SF.svg","response":0,"trial_type":"image-button-response","trial_index":139,"time_elapsed":329174,"internal_node_id":"0.0-6.0-0.3","subject_id":"616721ae6f6c6b77a7242f41","study_id":"6197b3f67c2b5cd3b6d9596a","session_id":"619bfbdc6fcf9520f99b5344","condition":"full-information","relevant_dimensions":["antennae","legs"],"bee_group":{"antennae":"B","wings":"X","pattern":"X","legs":"M"},"bonus":0.2600000000000013},{"rt":3032.099999964237,"stimulus":"bees-with-color/bee-A1SM.svg","response":0,"trial_type":"image-button-response","trial_index":140,"time_elapsed":332209,"internal_node_id":"0.0-6.0-0.4","subject_id":"616721ae6f6c6b77a7242f41","study_id":"6197b3f67c2b5cd3b6d9596a","session_id":"619bfbdc6fcf9520f99b5344","condition":"full-information","relevant_dimensions":["antennae","legs"],"bee_group":{"antennae":"B","wings":"X","pattern":"X","legs":"M"},"bonus":0.2600000000000013},{"rt":1827.699999988079,"stimulus":"bees-with-color/bee-A2SF.svg","response":0,"trial_type":"image-button-response","trial_index":141,"time_elapsed":334039,"internal_node_id":"0.0-6.0-0.5","subject_id":"616721ae6f6c6b77a7242f41","study_id":"6197b3f67c2b5cd3b6d9596a","session_id":"619bfbdc6fcf9520f99b5344","condition":"full-information","relevant_dimensions":["antennae","legs"],"bee_group":{"antennae":"B","wings":"X","pattern":"X","legs":"M"},"bonus":0.2600000000000013},{"rt":4545.899999976158,"stimulus":"bees-with-color/bee-B2SM.svg","response":1,"trial_type":"image-button-response","trial_index":142,"time_elapsed":338590,"internal_node_id":"0.0-6.0-0.6","subject_id":"616721ae6f6c6b77a7242f41","study_id":"6197b3f67c2b5cd3b6d9596a","session_id":"619bfbdc6fcf9520f99b5344","condition":"full-information","relevant_dimensions":["antennae","legs"],"bee_group":{"antennae":"B","wings":"X","pattern":"X","legs":"M"},"bonus":0.2600000000000013},{"rt":1326.9000000357628,"stimulus":"bees-with-color/bee-A2DM.svg","response":0,"trial_type":"image-button-response","trial_index":143,"time_elapsed":339921,"internal_node_id":"0.0-6.0-0.7","subject_id":"616721ae6f6c6b77a7242f41","study_id":"6197b3f67c2b5cd3b6d9596a","session_id":"619bfbdc6fcf9520f99b5344","condition":"full-information","relevant_dimensions":["antennae","legs"],"bee_group":{"antennae":"B","wings":"X","pattern":"X","legs":"M"},"bonus":0.2600000000000013},{"rt":2544.900000035763,"stimulus":"bees-with-color/bee-A1DF.svg","response":0,"trial_type":"image-button-response","trial_index":144,"time_elapsed":342471,"internal_node_id":"0.0-6.0-0.8","subject_id":"616721ae6f6c6b77a7242f41","study_id":"6197b3f67c2b5cd3b6d9596a","session_id":"619bfbdc6fcf9520f99b5344","condition":"full-information","relevant_dimensions":["antennae","legs"],"bee_group":{"antennae":"B","wings":"X","pattern":"X","legs":"M"},"bonus":0.2600000000000013},{"rt":2479,"stimulus":"bees-with-color/bee-A2DF.svg","response":0,"trial_type":"image-button-response","trial_index":145,"time_elapsed":344954,"internal_node_id":"0.0-6.0-0.9","subject_id":"616721ae6f6c6b77a7242f41","study_id":"6197b3f67c2b5cd3b6d9596a","session_id":"619bfbdc6fcf9520f99b5344","condition":"full-information","relevant_dimensions":["antennae","legs"],"bee_group":{"antennae":"B","wings":"X","pattern":"X","legs":"M"},"bonus":0.2600000000000013},{"rt":1978.5999999642372,"stimulus":"bees-with-color/bee-A1DM.svg","response":0,"trial_type":"image-button-response","trial_index":146,"time_elapsed":346937,"internal_node_id":"0.0-6.0-0.10","subject_id":"616721ae6f6c6b77a7242f41","study_id":"6197b3f67c2b5cd3b6d9596a","session_id":"619bfbdc6fcf9520f99b5344","condition":"full-information","relevant_dimensions":["antennae","legs"],"bee_group":{"antennae":"B","wings":"X","pattern":"X","legs":"M"},"bonus":0.2600000000000013},{"rt":1262.7000000476837,"stimulus":"bees-with-color/bee-B1DF.svg","response":0,"trial_type":"image-button-response","trial_index":147,"time_elapsed":348204,"internal_node_id":"0.0-6.0-0.11","subject_id":"616721ae6f6c6b77a7242f41","study_id":"6197b3f67c2b5cd3b6d9596a","session_id":"619bfbdc6fcf9520f99b5344","condition":"full-information","relevant_dimensions":["antennae","legs"],"bee_group":{"antennae":"B","wings":"X","pattern":"X","legs":"M"},"bonus":0.2600000000000013},{"rt":1377.6000000238419,"stimulus":"bees-with-color/bee-A2SM.svg","response":0,"trial_type":"image-button-response","trial_index":148,"time_elapsed":349586,"internal_node_id":"0.0-6.0-0.12","subject_id":"616721ae6f6c6b77a7242f41","study_id":"6197b3f67c2b5cd3b6d9596a","session_id":"619bfbdc6fcf9520f99b5344","condition":"full-information","relevant_dimensions":["antennae","legs"],"bee_group":{"antennae":"B","wings":"X","pattern":"X","legs":"M"},"bonus":0.2600000000000013},{"rt":3482.2999999523163,"stimulus":"bees-with-color/bee-B2DM.svg","response":1,"trial_type":"image-button-response","trial_index":149,"time_elapsed":353071,"internal_node_id":"0.0-6.0-0.13","subject_id":"616721ae6f6c6b77a7242f41","study_id":"6197b3f67c2b5cd3b6d9596a","session_id":"619bfbdc6fcf9520f99b5344","condition":"full-information","relevant_dimensions":["antennae","legs"],"bee_group":{"antennae":"B","wings":"X","pattern":"X","legs":"M"},"bonus":0.2600000000000013},{"rt":1328.199999988079,"stimulus":"bees-with-color/bee-B1DM.svg","response":0,"trial_type":"image-button-response","trial_index":150,"time_elapsed":354404,"internal_node_id":"0.0-6.0-0.14","subject_id":"616721ae6f6c6b77a7242f41","study_id":"6197b3f67c2b5cd3b6d9596a","session_id":"619bfbdc6fcf9520f99b5344","condition":"full-information","relevant_dimensions":["antennae","legs"],"bee_group":{"antennae":"B","wings":"X","pattern":"X","legs":"M"},"bonus":0.2600000000000013},{"rt":996.5999999642372,"stimulus":"bees-with-color/bee-A1SF.svg","response":0,"trial_type":"image-button-response","trial_index":151,"time_elapsed":355404,"internal_node_id":"0.0-6.0-0.15","subject_id":"616721ae6f6c6b77a7242f41","study_id":"6197b3f67c2b5cd3b6d9596a","session_id":"619bfbdc6fcf9520f99b5344","condition":"full-information","relevant_dimensions":["antennae","legs"],"bee_group":{"antennae":"B","wings":"X","pattern":"X","legs":"M"},"bonus":0.2600000000000013},{"rt":1295.9000000357628,"stimulus":"bees-with-color/bee-B2SF.svg","response":0,"trial_type":"image-button-response","trial_index":152,"time_elapsed":356704,"internal_node_id":"0.0-6.0-0.16","subject_id":"616721ae6f6c6b77a7242f41","study_id":"6197b3f67c2b5cd3b6d9596a","session_id":"619bfbdc6fcf9520f99b5344","condition":"full-information","relevant_dimensions":["antennae","legs"],"bee_group":{"antennae":"B","wings":"X","pattern":"X","legs":"M"},"bonus":0.2600000000000013},{"rt":3380.800000011921,"stimulus":"bees-with-color/bee-A2DM.svg","response":1,"trial_type":"image-button-response","trial_index":153,"time_elapsed":360088,"internal_node_id":"0.0-6.0-0.17","subject_id":"616721ae6f6c6b77a7242f41","study_id":"6197b3f67c2b5cd3b6d9596a","session_id":"619bfbdc6fcf9520f99b5344","condition":"full-information","relevant_dimensions":["antennae","legs"],"bee_group":{"antennae":"B","wings":"X","pattern":"X","legs":"M"},"bonus":0.2600000000000013},{"rt":1131.3999999761581,"stimulus":"bees-with-color/bee-B1SF.svg","response":0,"trial_type":"image-button-response","trial_index":154,"time_elapsed":361223,"internal_node_id":"0.0-6.0-0.18","subject_id":"616721ae6f6c6b77a7242f41","study_id":"6197b3f67c2b5cd3b6d9596a","session_id":"619bfbdc6fcf9520f99b5344","condition":"full-information","relevant_dimensions":["antennae","legs"],"bee_group":{"antennae":"B","wings":"X","pattern":"X","legs":"M"},"bonus":0.2600000000000013},{"rt":3711.699999988079,"stimulus":"bees-with-color/bee-B2DM.svg","response":1,"trial_type":"image-button-response","trial_index":155,"time_elapsed":364937,"internal_node_id":"0.0-6.0-0.19","subject_id":"616721ae6f6c6b77a7242f41","study_id":"6197b3f67c2b5cd3b6d9596a","session_id":"619bfbdc6fcf9520f99b5344","condition":"full-information","relevant_dimensions":["antennae","legs"],"bee_group":{"antennae":"B","wings":"X","pattern":"X","legs":"M"},"bonus":0.2600000000000013},{"rt":1516.6000000238419,"stimulus":"bees-with-color/bee-B1DF.svg","response":0,"trial_type":"image-button-response","trial_index":156,"time_elapsed":366457,"internal_node_id":"0.0-6.0-0.20","subject_id":"616721ae6f6c6b77a7242f41","study_id":"6197b3f67c2b5cd3b6d9596a","session_id":"619bfbdc6fcf9520f99b5344","condition":"full-information","relevant_dimensions":["antennae","legs"],"bee_group":{"antennae":"B","wings":"X","pattern":"X","legs":"M"},"bonus":0.2600000000000013},{"rt":1347.4000000357628,"stimulus":"bees-with-color/bee-A1DM.svg","response":0,"trial_type":"image-button-response","trial_index":157,"time_elapsed":367807,"inter