[{"success":true,"trial_type":"fullscreen","trial_index":0,"time_elapsed":5222,"internal_node_id":"0.0-0.0","subject_id":"60f5917414ac7d222d22db64","study_id":"60edd13110225f80f9f3709b","session_id":"6196c705b8cec23ee24c47fe","condition":"full-information","relevant_dimensions":["antennae","wings"],"bee_group":{"antennae":"B","wings":"2","pattern":"X","legs":"X"},"bonus":0.08},{"success":true,"timeout":false,"failed_images":[],"failed_audio":[],"failed_video":[],"trial_type":"preload","trial_index":1,"time_elapsed":6753,"internal_node_id":"0.0-1.0","subject_id":"60f5917414ac7d222d22db64","study_id":"60edd13110225f80f9f3709b","session_id":"6196c705b8cec23ee24c47fe","condition":"full-information","relevant_dimensions":["antennae","wings"],"bee_group":{"antennae":"B","wings":"2","pattern":"X","legs":"X"},"bonus":0.08},{"rt":2782.5,"stimulus":"Welcome! Press any key to begin.","response":" ","trial_type":"html-keyboard-response","trial_index":2,"time_elapsed":9539,"internal_node_id":"0.0-2.0","subject_id":"60f5917414ac7d222d22db64","study_id":"60edd13110225f80f9f3709b","session_id":"6196c705b8cec23ee24c47fe","condition":"full-information","relevant_dimensions":["antennae","wings"],"bee_group":{"antennae":"B","wings":"2","pattern":"X","legs":"X"},"bonus":0.08},{"view_history":[{"page_index":0,"viewing_time":3926.89999999851},{"page_index":1,"viewing_time":13804.10000000149},{"page_index":2,"viewing_time":6352.89999999851},{"page_index":3,"viewing_time":42096.69999999553},{"page_index":4,"viewing_time":7316.30000000447},{"page_index":5,"viewing_time":9217},{"page_index":6,"viewing_time":7228.5},{"page_index":7,"viewing_time":7069.89999999851},{"page_index":8,"viewing_time":4781.5},{"page_index":9,"viewing_time":5401.10000000149},{"page_index":10,"viewing_time":3815.1999999955297},{"page_index":11,"viewing_time":12278.30000000447},{"page_index":12,"viewing_time":11173.60000000149},{"page_index":13,"viewing_time":3757.6999999955297},{"page_index":14,"viewing_time":2055.8000000044703}],"rt":140276.69999999553,"trial_type":"instructions","trial_index":3,"time_elapsed":149818,"internal_node_id":"0.0-3.0-0.0","subject_id":"60f5917414ac7d222d22db64","study_id":"60edd13110225f80f9f3709b","session_id":"6196c705b8cec23ee24c47fe","condition":"full-information","relevant_dimensions":["antennae","wings"],"bee_group":{"antennae":"B","wings":"2","pattern":"X","legs":"X"},"bonus":0.08},{"rt":12737,"response":{"Q0":["Two or six legs","Stripes or spots on body","Single or double wings","Antennae or no antennae"]},"question_order":[0],"trial_type":"survey-multi-select","trial_index":4,"time_elapsed":162570,"internal_node_id":"0.0-3.0-1.0","subject_id":"60f5917414ac7d222d22db64","study_id":"60edd13110225f80f9f3709b","session_id":"6196c705b8cec23ee24c47fe","condition":"full-information","relevant_dimensions":["antennae","wings"],"bee_group":{"antennae":"B","wings":"2","pattern":"X","legs":"X"},"correct":true,"bonus":0.08},{"rt":28489.20000000298,"response":{"Q1":"Yes.","Q2":"Based on the four features of the bee.","Q3":"You learn if it was friendly or dangerous, but do not alter your bonus."},"question_order":[0,1,2],"trial_type":"survey-multi-choice","trial_index":5,"time_elapsed":191067,"internal_node_id":"0.0-3.0-2.0","subject_id":"60f5917414ac7d222d22db64","study_id":"60edd13110225f80f9f3709b","session_id":"6196c705b8cec23ee24c47fe","condition":"full-information","relevant_dimensions":["antennae","wings"],"bee_group":{"antennae":"B","wings":"2","pattern":"X","legs":"X"},"correct":false,"bonus":0.08},{"rt":2725.7999999970198,"stimulus":"<p>You did not answer all comprehension questions correctly.<br>Press <b>continue</b> to review the instructions again.</p>","response":0,"trial_type":"html-button-response","trial_index":6,"time_elapsed":193798,"internal_node_id":"0.0-3.0-3.0","subject_id":"60f5917414ac7d222d22db64","study_id":"60edd13110225f80f9f3709b","session_id":"6196c705b8cec23ee24c47fe","condition":"full-information","relevant_dimensions":["antennae","wings"],"bee_group":{"antennae":"B","wings":"2","pattern":"X","legs":"X"},"bonus":0.08},{"view_history":[{"page_index":0,"viewing_time":2028.5},{"page_index":1,"viewing_time":8834.10000000149},{"page_index":2,"viewing_time":5665.60000000149},{"page_index":3,"viewing_time":14827.69999999553},{"page_index":4,"viewing_time":9564.39999999851},{"page_index":5,"viewing_time":8112.70000000298},{"page_index":6,"viewing_time":3046},{"page_index":7,"viewing_time":1341.6000000014901},{"page_index":8,"viewing_time":635.1999999955297},{"page_index":9,"viewing_time":486.70000000298023},{"page_index":10,"viewing_time":486.8999999985099},{"page_index":11,"viewing_time":4469.70000000298},{"page_index":12,"viewing_time":1743.8999999985099},{"page_index":13,"viewing_time":1417},{"page_index":14,"viewing_time":812.6000000014901}],"rt":63473.70000000298,"trial_type":"instructions","trial_index":7,"time_elapsed":257277,"internal_node_id":"0.0-3.0-4.0-0.0","subject_id":"60f5917414ac7d222d22db64","study_id":"60edd13110225f80f9f3709b","session_id":"6196c705b8cec23ee24c47fe","condition":"full-information","relevant_dimensions":["antennae","wings"],"bee_group":{"antennae":"B","wings":"2","pattern":"X","legs":"X"},"bonus":0.08},{"rt":9183.70000000298,"response":{"Q0":["Two or six legs","Stripes or spots on body","Single or double wings","Antennae or no antennae"]},"question_order":[0],"trial_type":"survey-multi-select","trial_index":8,"time_elapsed":266472,"internal_node_id":"0.0-3.0-4.0-1.0","subject_id":"60f5917414ac7d222d22db64","study_id":"60edd13110225f80f9f3709b","session_id":"6196c705b8cec23ee24c47fe","condition":"full-information","relevant_dimensions":["antennae","wings"],"bee_group":{"antennae":"B","wings":"2","pattern":"X","legs":"X"},"correct":true,"bonus":0.08},{"rt":15501.70000000298,"response":{"Q1":"No.","Q2":"Based on the four features of the bee.","Q3":"You learn if it was friendly or dangerous, but do not alter your bonus."},"question_order":[0,1,2],"trial_type":"survey-multi-choice","trial_index":9,"time_elapsed":281980,"internal_node_id":"0.0-3.0-4.0-2.0","subject_id":"60f5917414ac7d222d22db64","study_id":"60edd13110225f80f9f3709b","session_id":"6196c705b8cec23ee24c47fe","condition":"full-information","relevant_dimensions":["antennae","wings"],"bee_group":{"antennae":"B","wings":"2","pattern":"X","legs":"X"},"correct":true,"bonus":0.08},{"rt":2753.39999999851,"stimulus":"<p>Congrats, you got everything right<br>When you're ready, click the button below to continue to the experiment.</p>","response":0,"trial_type":"html-button-response","trial_index":10,"time_elapsed":284737,"internal_node_id":"0.0-3.0-4.0-3.0","subject_id":"60f5917414ac7d222d22db64","study_id":"60edd13110225f80f9f3709b","session_id":"6196c705b8cec23ee24c47fe","condition":"full-information","relevant_dimensions":["antennae","wings"],"bee_group":{"antennae":"B","wings":"2","pattern":"X","legs":"X"},"bonus":0.08},{"rt":6070.79999999702,"stimulus":"bees-with-color/bee-B2SM.svg","response":0,"trial_type":"image-button-response","trial_index":11,"time_elapsed":290819,"internal_node_id":"0.0-4.0-0.0","subject_id":"60f5917414ac7d222d22db64","study_id":"60edd13110225f80f9f3709b","session_id":"6196c705b8cec23ee24c47fe","condition":"full-information","relevant_dimensions":["antennae","wings"],"bee_group":{"antennae":"B","wings":"2","pattern":"X","legs":"X"},"action":"harvest","summary":"bad-harvest","bonus":0.08},{"rt":12633.29999999702,"stimulus":"\n                    <p><b>Action: <em>harvest</em></b></p>\n                    <p>This is the bee that you just saw.</p>\n                    <img src=\"bees-with-color/bee-B2SM.svg\" width=\"200\">\n                    <p><span class=\"redText\">Bad choice, the bee was angry.</span><br><b>You have been stung!</b><br>Your pay has been decreased by $0.10. Your bonus pay is now $0.44.</p>\n            ","response":0,"trial_type":"html-button-response","trial_index":12,"time_elapsed":303461,"internal_node_id":"0.0-4.0-1.0","subject_id":"60f5917414ac7d222d22db64","study_id":"60edd13110225f80f9f3709b","session_id":"6196c705b8cec23ee24c47fe","condition":"full-information","relevant_dimensions":["antennae","wings"],"bee_group":{"antennae":"B","wings":"2","pattern":"X","legs":"X"},"bonus":0.08},{"rt":5493.69999999553,"stimulus":"bees-with-color/bee-B2SF.svg","response":0,"trial_type":"image-button-response","trial_index":13,"time_elapsed":308962,"internal_node_id":"0.0-4.0-0.1","subject_id":"60f5917414ac7d222d22db64","study_id":"60edd13110225f80f9f3709b","session_id":"6196c705b8cec23ee24c47fe","condition":"full-information","relevant_dimensions":["antennae","wings"],"bee_group":{"antennae":"B","wings":"2","pattern":"X","legs":"X"},"action":"harvest","summary":"bad-harvest","bonus":0.08},{"rt":2081.5,"stimulus":"\n                    <p><b>Action: <em>harvest</em></b></p>\n                    <p>This is the bee that you just saw.</p>\n                    <img src=\"bees-with-color/bee-B2SF.svg\" width=\"200\">\n                    <p><span class=\"redText\">Bad choice, the bee was angry.</span><br><b>You have been stung!</b><br>Your pay has been decreased by $0.10. Your bonus pay is now $0.34.</p>\n            ","response":0,"trial_type":"html-button-response","trial_index":14,"time_elapsed":311052,"internal_node_id":"0.0-4.0-1.1","subject_id":"60f5917414ac7d222d22db64","study_id":"60edd13110225f80f9f3709b","session_id":"6196c705b8cec23ee24c47fe","condition":"full-information","relevant_dimensions":["antennae","wings"],"bee_group":{"antennae":"B","wings":"2","pattern":"X","legs":"X"},"bonus":0.08},{"rt":1789.8999999985099,"stimulus":"bees-with-color/bee-A1SF.svg","response":0,"trial_type":"image-button-response","trial_index":15,"time_elapsed":312850,"internal_node_id":"0.0-4.0-0.2","subject_id":"60f5917414ac7d222d22db64","study_id":"60edd13110225f80f9f3709b","session_id":"6196c705b8cec23ee24c47fe","condition":"full-information","relevant_dimensions":["antennae","wings"],"bee_group":{"antennae":"B","wings":"2","pattern":"X","legs":"X"},"action":"harvest","summary":"good-harvest","bonus":0.08},{"rt":3970.60000000149,"stimulus":"\n                    <p><b>Action: <em>harvest</em></b></p>\n                    <p>This is the bee that you just saw.</p>\n                    <img src=\"bees-with-color/bee-A1SF.svg\" width=\"200\">\n                    <p><span class=\"greenText\"><b>Successful harvest!</b></span><br>Your pay has increased by $0.02. Your bonus pay is now $0.36.</p>\n            ","response":0,"trial_type":"html-button-response","trial_index":16,"time_elapsed":316828,"internal_node_id":"0.0-4.0-1.2","subject_id":"60f5917414ac7d222d22db64","study_id":"60edd13110225f80f9f3709b","session_id":"6196c705b8cec23ee24c47fe","condition":"full-information","relevant_dimensions":["antennae","wings"],"bee_group":{"antennae":"B","wings":"2","pattern":"X","legs":"X"},"bonus":0.08},{"rt":4192.29999999702,"stimulus":"bees-with-color/bee-B1SF.svg","response":0,"trial_type":"image-button-response","trial_index":17,"time_elapsed":321027,"internal_node_id":"0.0-4.0-0.3","subject_id":"60f5917414ac7d222d22db64","study_id":"60edd13110225f80f9f3709b","session_id":"6196c705b8cec23ee24c47fe","condition":"full-information","relevant_dimensions":["antennae","wings"],"bee_group":{"antennae":"B","wings":"2","pattern":"X","legs":"X"},"action":"harvest","summary":"good-harvest","bonus":0.08},{"rt":1565.2000000029802,"stimulus":"\n                    <p><b>Action: <em>harvest</em></b></p>\n                    <p>This is the bee that you just saw.</p>\n                    <img src=\"bees-with-color/bee-B1SF.svg\" width=\"200\">\n                    <p><span class=\"greenText\"><b>Successful harvest!</b></span><br>Your pay has increased by $0.02. Your bonus pay is now $0.38.</p>\n            ","response":0,"trial_type":"html-button-response","trial_index":18,"time_elapsed":322600,"internal_node_id":"0.0-4.0-1.3","subject_id":"60f5917414ac7d222d22db64","study_id":"60edd13110225f80f9f3709b","session_id":"6196c705b8cec23ee24c47fe","condition":"full-information","relevant_dimensions":["antennae","wings"],"bee_group":{"antennae":"B","wings":"2","pattern":"X","legs":"X"},"bonus":0.08},{"rt":2260.7000000029802,"stimulus":"bees-with-color/bee-A2SM.svg","response":1,"trial_type":"image-button-response","trial_index":19,"time_elapsed":324870,"internal_node_id":"0.0-4.0-0.4","subject_id":"60f5917414ac7d222d22db64","study_id":"60edd13110225f80f9f3709b","session_id":"6196c705b8cec23ee24c47fe","condition":"full-information","relevant_dimensions":["antennae","wings"],"bee_group":{"antennae":"B","wings":"2","pattern":"X","legs":"X"},"action":"avoid","summary":"bad-avoid","bonus":0.08},{"rt":7017.39999999851,"stimulus":"\n                    <p><b>Action: <em>avoid</em></b></p>\n                    <p>This is the bee that you just saw.</p>\n                    <img src=\"bees-with-color/bee-A2SM.svg\" width=\"200\">\n                    <p><span class=\"redText\">Bad choice,</span> the bee was friendly.<br>Your bonus pay is unchanged, and remains at $0.38.</p>\n            ","response":0,"trial_type":"html-button-response","trial_index":20,"time_elapsed":331892,"internal_node_id":"0.0-4.0-1.4","subject_id":"60f5917414ac7d222d22db64","study_id":"60edd13110225f80f9f3709b","session_id":"6196c705b8cec23ee24c47fe","condition":"full-information","relevant_dimensions":["antennae","wings"],"bee_group":{"antennae":"B","wings":"2","pattern":"X","legs":"X"},"bonus":0.08},{"rt":4764.39999999851,"stimulus":"bees-with-color/bee-A1SM.svg","response":0,"trial_type":"image-button-response","trial_index":21,"time_elapsed":336665,"internal_node_id":"0.0-4.0-0.5","subject_id":"60f5917414ac7d222d22db64","study_id":"60edd13110225f80f9f3709b","session_id":"6196c705b8cec23ee24c47fe","condition":"full-information","relevant_dimensions":["antennae","wings"],"bee_group":{"antennae":"B","wings":"2","pattern":"X","legs":"X"},"action":"harvest","summary":"good-harvest","bonus":0.08},{"rt":1723.5,"stimulus":"\n                    <p><b>Action: <em>harvest</em></b></p>\n                    <p>This is the bee that you just saw.</p>\n                    <img src=\"bees-with-color/bee-A1SM.svg\" width=\"200\">\n                    <p><span class=\"greenText\"><b>Successful harvest!</b></span><br>Your pay has increased by $0.02. Your bonus pay is now $0.40.</p>\n            ","response":0,"trial_type":"html-button-response","trial_index":22,"time_elapsed":338398,"internal_node_id":"0.0-4.0-1.5","subject_id":"60f5917414ac7d222d22db64","study_id":"60edd13110225f80f9f3709b","session_id":"6196c705b8cec23ee24c47fe","condition":"full-information","relevant_dimensions":["antennae","wings"],"bee_group":{"antennae":"B","wings":"2","pattern":"X","legs":"X"},"bonus":0.08},{"rt":4871.89999999851,"stimulus":"bees-with-color/bee-B1DF.svg","response":1,"trial_type":"image-button-response","trial_index":23,"time_elapsed":343278,"internal_node_id":"0.0-4.0-0.6","subject_id":"60f5917414ac7d222d22db64","study_id":"60edd13110225f80f9f3709b","session_id":"6196c705b8cec23ee24c47fe","condition":"full-information","relevant_dimensions":["antennae","wings"],"bee_group":{"antennae":"B","wings":"2","pattern":"X","legs":"X"},"action":"avoid","summary":"bad-avoid","bonus":0.08},{"rt":7685.29999999702,"stimulus":"\n                    <p><b>Action: <em>avoid</em></b></p>\n                    <p>This is the bee that you just saw.</p>\n                    <img src=\"bees-with-color/bee-B1DF.svg\" width=\"200\">\n                    <p><span class=\"redText\">Bad choice,</span> the bee was friendly.<br>Your bonus pay is unchanged, and remains at $0.40.</p>\n            ","response":0,"trial_type":"html-button-response","trial_index":24,"time_elapsed":350971,"internal_node_id":"0.0-4.0-1.6","subject_id":"60f5917414ac7d222d22db64","study_id":"60edd13110225f80f9f3709b","session_id":"6196c705b8cec23ee24c47fe","condition":"full-information","relevant_dimensions":["antennae","wings"],"bee_group":{"antennae":"B","wings":"2","pattern":"X","legs":"X"},"bonus":0.08},{"rt":14516.5,"stimulus":"bees-with-color/bee-A1DM.svg","response":0,"trial_type":"image-button-response","trial_index":25,"time_elapsed":365495,"internal_node_id":"0.0-4.0-0.7","subject_id":"60f5917414ac7d222d22db64","study_id":"60edd13110225f80f9f3709b","session_id":"6196c705b8cec23ee24c47fe","condition":"full-information","relevant_dimensions":["antennae","wings"],"bee_group":{"antennae":"B","wings":"2","pattern":"X","legs":"X"},"action":"harvest","summary":"good-harvest","bonus":0.08},{"rt":4042.2000000029802,"stimulus":"\n                    <p><b>Action: <em>harvest</em></b></p>\n                    <p>This is the bee that you just saw.</p>\n                    <img src=\"bees-with-color/bee-A1DM.svg\" width=\"200\">\n                    <p><span class=\"greenText\"><b>Successful harvest!</b></span><br>Your pay has increased by $0.02. Your bonus pay is now $0.42.</p>\n            ","response":0,"trial_type":"html-button-response","trial_index":26,"time_elapsed":369547,"internal_node_id":"0.0-4.0-1.7","subject_id":"60f5917414ac7d222d22db64","study_id":"60edd13110225f80f9f3709b","session_id":"6196c705b8cec23ee24c47fe","condition":"full-information","relevant_dimensions":["antennae","wings"],"bee_group":{"antennae":"B","wings":"2","pattern":"X","legs":"X"},"bonus":0.08},{"rt":1860.6000000014901,"stimulus":"bees-with-color/bee-B2DF.svg","response":1,"trial_type":"image-button-response","trial_index":27,"time_elapsed":371417,"internal_node_id":"0.0-4.0-0.8","subject_id":"60f5917414ac7d222d22db64","study_id":"60edd13110225f80f9f3709b","session_id":"6196c705b8cec23ee24c47fe","condition":"full-information","relevant_dimensions":["antennae","wings"],"bee_group":{"antennae":"B","wings":"2","pattern":"X","legs":"X"},"action":"avoid","summary":"good-avoid","bonus":0.08},{"rt":1480.1000000014901,"stimulus":"\n                    <p><b>Action: <em>avoid</em></b></p>\n                    <p>This is the bee that you just saw.</p>\n                    <img src=\"bees-with-color/bee-B2DF.svg\" width=\"200\">\n                    <p><span class=\"greenText\">Good choice!</span>  This bee would have stung you.<br>Your bonus pay is unchanged, and remains at $0.42.</p>\n            ","response":0,"trial_type":"html-button-response","trial_index":28,"time_elapsed":372904,"internal_node_id":"0.0-4.0-1.8","subject_id":"60f5917414ac7d222d22db64","study_id":"60edd13110225f80f9f3709b","session_id":"6196c705b8cec23ee24c47fe","condition":"full-information","relevant_dimensions":["antennae","wings"],"bee_group":{"antennae":"B","wings":"2","pattern":"X","legs":"X"},"bonus":0.08},{"rt":8619.79999999702,"stimulus":"bees-with-color/bee-B1SM.svg","response":0,"trial_type":"image-button-response","trial_index":29,"time_elapsed":381530,"internal_node_id":"0.0-4.0-0.9","subject_id":"60f5917414ac7d222d22db64","study_id":"60edd13110225f80f9f3709b","session_id":"6196c705b8cec23ee24c47fe","condition":"full-information","relevant_dimensions":["antennae","wings"],"bee_group":{"antennae":"B","wings":"2","pattern":"X","legs":"X"},"action":"harvest","summary":"good-harvest","bonus":0.08},{"rt":1347.9000000059605,"stimulus":"\n                    <p><b>Action: <em>harvest</em></b></p>\n                    <p>This is the bee that you just saw.</p>\n                    <img src=\"bees-with-color/bee-B1SM.svg\" width=\"200\">\n                    <p><span class=\"greenText\"><b>Successful harvest!</b></span><br>Your pay has increased by $0.02. Your bonus pay is now $0.44.</p>\n            ","response":0,"trial_type":"html-button-response","trial_index":30,"time_elapsed":382884,"internal_node_id":"0.0-4.0-1.9","subject_id":"60f5917414ac7d222d22db64","study_id":"60edd13110225f80f9f3709b","session_id":"6196c705b8cec23ee24c47fe","condition":"full-information","relevant_dimensions":["antennae","wings"],"bee_group":{"antennae":"B","wings":"2","pattern":"X","legs":"X"},"bonus":0.08},{"rt":6405.89999999851,"stimulus":"bees-with-color/bee-A2DF.svg","response":1,"trial_type":"image-button-response","trial_index":31,"time_elapsed":389298,"internal_node_id":"0.0-4.0-0.10","subject_id":"60f5917414ac7d222d22db64","study_id":"60edd13110225f80f9f3709b","session_id":"6196c705b8cec23ee24c47fe","condition":"full-information","relevant_dimensions":["antennae","wings"],"bee_group":{"antennae":"B","wings":"2","pattern":"X","legs":"X"},"action":"avoid","summary":"bad-avoid","bonus":0.08},{"rt":2566.89999999851,"stimulus":"\n                    <p><b>Action: <em>avoid</em></b></p>\n                    <p>This is the bee that you just saw.</p>\n                    <img src=\"bees-with-color/bee-A2DF.svg\" width=\"200\">\n                    <p><span class=\"redText\">Bad choice,</span> the bee was friendly.<br>Your bonus pay is unchanged, and remains at $0.44.</p>\n            ","response":0,"trial_type":"html-button-response","trial_index":32,"time_elapsed":391870,"internal_node_id":"0.0-4.0-1.10","subject_id":"60f5917414ac7d222d22db64","study_id":"60edd13110225f80f9f3709b","session_id":"6196c705b8cec23ee24c47fe","condition":"full-information","relevant_dimensions":["antennae","wings"],"bee_group":{"antennae":"B","wings":"2","pattern":"X","legs":"X"},"bonus":0.08},{"rt":21172.79999999702,"stimulus":"bees-with-color/bee-B1DM.svg","response":1,"trial_type":"image-button-response","trial_index":33,"time_elapsed":413051,"internal_node_id":"0.0-4.0-0.11","subject_id":"60f5917414ac7d222d22db64","study_id":"60edd13110225f80f9f3709b","session_id":"6196c705b8cec23ee24c47fe","condition":"full-information","relevant_dimensions":["antennae","wings"],"bee_group":{"antennae":"B","wings":"2","pattern":"X","legs":"X"},"action":"avoid","summary":"bad-avoid","bonus":0.08},{"rt":1797.0999999940395,"stimulus":"\n                    <p><b>Action: <em>avoid</em></b></p>\n                    <p>This is the bee that you just saw.</p>\n                    <img src=\"bees-with-color/bee-B1DM.svg\" width=\"200\">\n                    <p><span class=\"redText\">Bad choice,</span> the bee was friendly.<br>Your bonus pay is unchanged, and remains at $0.44.</p>\n            ","response":0,"trial_type":"html-button-response","trial_index":34,"time_elapsed":414854,"internal_node_id":"0.0-4.0-1.11","subject_id":"60f5917414ac7d222d22db64","study_id":"60edd13110225f80f9f3709b","session_id":"6196c705b8cec23ee24c47fe","condition":"full-information","relevant_dimensions":["antennae","wings"],"bee_group":{"antennae":"B","wings":"2","pattern":"X","legs":"X"},"bonus":0.08},{"rt":4114.80000000447,"stimulus":"bees-with-color/bee-A2SF.svg","response":0,"trial_type":"image-button-response","trial_index":35,"time_elapsed":418974,"internal_node_id":"0.0-4.0-0.12","subject_id":"60f5917414ac7d222d22db64","study_id":"60edd13110225f80f9f3709b","session_id":"6196c705b8cec23ee24c47fe","condition":"full-information","relevant_dimensions":["antennae","wings"],"bee_group":{"antennae":"B","wings":"2","pattern":"X","legs":"X"},"action":"harvest","summary":"good-harvest","bonus":0.08},{"rt":1174.2000000029802,"stimulus":"\n                    <p><b>Action: <em>harvest</em></b></p>\n                    <p>This is the bee that you just saw.</p>\n                    <img src=\"bees-with-color/bee-A2SF.svg\" width=\"200\">\n                    <p><span class=\"greenText\"><b>Successful harvest!</b></span><br>Your pay has increased by $0.02. Your bonus pay is now $0.46.</p>\n            ","response":0,"trial_type":"html-button-response","trial_index":36,"time_elapsed":420156,"internal_node_id":"0.0-4.0-1.12","subject_id":"60f5917414ac7d222d22db64","study_id":"60edd13110225f80f9f3709b","session_id":"6196c705b8cec23ee24c47fe","condition":"full-information","relevant_dimensions":["antennae","wings"],"bee_group":{"antennae":"B","wings":"2","pattern":"X","legs":"X"},"bonus":0.08},{"rt":3957.2000000029802,"stimulus":"bees-with-color/bee-A2DM.svg","response":1,"trial_type":"image-button-response","trial_index":37,"time_elapsed":424122,"internal_node_id":"0.0-4.0-0.13","subject_id":"60f5917414ac7d222d22db64","study_id":"60edd13110225f80f9f3709b","session_id":"6196c705b8cec23ee24c47fe","condition":"full-information","relevant_dimensions":["antennae","wings"],"bee_group":{"antennae":"B","wings":"2","pattern":"X","legs":"X"},"action":"avoid","summary":"bad-avoid","bonus":0.08},{"rt":1967.9000000059605,"stimulus":"\n                    <p><b>Action: <em>avoid</em></b></p>\n                    <p>This is the bee that you just saw.</p>\n                    <img src=\"bees-with-color/bee-A2DM.svg\" width=\"200\">\n                    <p><span class=\"redText\">Bad choice,</span> the bee was friendly.<br>Your bonus pay is unchanged, and remains at $0.46.</p>\n            ","response":0,"trial_type":"html-button-response","trial_index":38,"time_elapsed":426096,"internal_node_id":"0.0-4.0-1.13","subject_id":"60f5917414ac7d222d22db64","study_id":"60edd13110225f80f9f3709b","session_id":"6196c705b8cec23ee24c47fe","condition":"full-information","relevant_dimensions":["antennae","wings"],"bee_group":{"antennae":"B","wings":"2","pattern":"X","legs":"X"},"bonus":0.08},{"rt":11067.5,"stimulus":"bees-with-color/bee-B2DM.svg","response":0,"trial_type":"image-button-response","trial_index":39,"time_elapsed":437170,"internal_node_id":"0.0-4.0-0.14","subject_id":"60f5917414ac7d222d22db64","study_id":"60edd13110225f80f9f3709b","session_id":"6196c705b8cec23ee24c47fe","condition":"full-information","relevant_dimensions":["antennae","wings"],"bee_group":{"antennae":"B","wings":"2","pattern":"X","legs":"X"},"action":"harvest","summary":"bad-harvest","bonus":0.08},{"rt":1006.5999999940395,"stimulus":"\n                    <p><b>Action: <em>harvest</em></b></p>\n                    <p>This is the bee that you just saw.</p>\n                    <img src=\"bees-with-color/bee-B2DM.svg\" width=\"200\">\n                    <p><span class=\"redText\">Bad choice, the bee was angry.</span><br><b>You have been stung!</b><br>Your pay has been decreased by $0.10. Your bonus pay is now $0.36.</p>\n            ","response":0,"trial_type":"html-button-response","trial_index":40,"time_elapsed":438182,"internal_node_id":"0.0-4.0-1.14","subject_id":"60f5917414ac7d222d22db64","study_id":"60edd13110225f80f9f3709b","session_id":"6196c705b8cec23ee24c47fe","condition":"full-information","relevant_dimensions":["antennae","wings"],"bee_group":{"antennae":"B","wings":"2","pattern":"X","legs":"X"},"bonus":0.08},{"rt":14117.79999999702,"stimulus":"bees-with-color/bee-A1DF.svg","response":0,"trial_type":"image-button-response","trial_index":41,"time_elapsed":452306,"internal_node_id":"0.0-4.0-0.15","subject_id":"60f5917414ac7d222d22db64","study_id":"60edd13110225f80f9f3709b","session_id":"6196c705b8cec23ee24c47fe","condition":"full-information","relevant_dimensions":["antennae","wings"],"bee_group":{"antennae":"B","wings":"2","pattern":"X","legs":"X"},"action":"harvest","summary":"good-harvest","bonus":0.08},{"rt":1413.3999999985099,"stimulus":"\n                    <p><b>Action: <em>harvest</em></b></p>\n                    <p>This is the bee that you just saw.</p>\n                    <img src=\"bees-with-color/bee-A1DF.svg\" width=\"200\">\n                    <p><span class=\"greenText\"><b>Successful harvest!</b></span><br>Your pay has increased by $0.02. Your bonus pay is now $0.38.</p>\n            ","response":0,"trial_type":"html-button-response","trial_index":42,"time_elapsed":453726,"internal_node_id":"0.0-4.0-1.15","subject_id":"60f5917414ac7d222d22db64","study_id":"60edd13110225f80f9f3709b","session_id":"6196c705b8cec23ee24c47fe","condition":"full-information","relevant_dimensions":["antennae","wings"],"bee_group":{"antennae":"B","wings":"2","pattern":"X","legs":"X"},"bonus":0.08},{"rt":8714.20000000298,"stimulus":"bees-with-color/bee-A1SM.svg","response":0,"trial_type":"image-button-response","trial_index":43,"time_elapsed":462446,"internal_node_id":"0.0-4.0-0.16","subject_id":"60f5917414ac7d222d22db64","study_id":"60edd13110225f80f9f3709b","session_id":"6196c705b8cec23ee24c47fe","condition":"full-information","relevant_dimensions":["antennae","wings"],"bee_group":{"antennae":"B","wings":"2","pattern":"X","legs":"X"},"action":"harvest","summary":"good-harvest","bonus":0.08},{"rt":7626.89999999851,"stimulus":"\n                    <p><b>Action: <em>harvest</em></b></p>\n                    <p>This is the bee that you just saw.</p>\n                    <img src=\"bees-with-color/bee-A1SM.svg\" width=\"200\">\n                    <p><span class=\"greenText\"><b>Successful harvest!</b></span><br>Your pay has increased by $0.02. Your bonus pay is now $0.40.</p>\n            ","response":0,"trial_type":"html-button-response","trial_index":44,"time_elapsed":470081,"internal_node_id":"0.0-4.0-1.16","subject_id":"60f5917414ac7d222d22db64","study_id":"60edd13110225f80f9f3709b","session_id":"6196c705b8cec23ee24c47fe","condition":"full-information","relevant_dimensions":["antennae","wings"],"bee_group":{"antennae":"B","wings":"2","pattern":"X","legs":"X"},"bonus":0.08},{"rt":4006.4000000059605,"stimulus":"bees-with-color/bee-A1DF.svg","response":0,"trial_type":"image-button-response","trial_index":45,"time_elapsed":474097,"internal_node_id":"0.0-4.0-0.17","subject_id":"60f5917414ac7d222d22db64","study_id":"60edd13110225f80f9f3709b","session_id":"6196c705b8cec23ee24c47fe","condition":"full-information","relevant_dimensions":["antennae","wings"],"bee_group":{"antennae":"B","wings":"2","pattern":"X","legs":"X"},"action":"harvest","summary":"good-harvest","bonus":0.08},{"rt":4561.5,"stimulus":"\n                    <p><b>Action: <em>harvest</em></b></p>\n                    <p>This is the bee that you just saw.</p>\n                    <img src=\"bees-with-color/bee-A1DF.svg\" width=\"200\">\n                    <p><span class=\"greenText\"><b>Successful harvest!</b></span><br>Your pay has increased by $0.02. Your bonus pay is now $0.42.</p>\n            ","response":0,"trial_type":"html-button-response","trial_index":46,"time_elapsed":478666,"internal_node_id":"0.0-4.0-1.17","subject_id":"60f5917414ac7d222d22db64","study_id":"60edd13110225f80f9f3709b","session_id":"6196c705b8cec23ee24c47fe","condition":"full-information","relevant_dimensions":["antennae","wings"],"bee_group":{"antennae":"B","wings":"2","pattern":"X","legs":"X"},"bonus":0.08},{"rt":1792.1000000014901,"stimulus":"bees-with-color/bee-A1DM.svg","response":0,"trial_type":"image-button-response","trial_index":47,"time_elapsed":480467,"internal_node_id":"0.0-4.0-0.18","subject_id":"60f5917414ac7d222d22db64","study_id":"60edd13110225f80f9f3709b","session_id":"6196c705b8cec23ee24c47fe","condition":"full-information","relevant_dimensions":["antennae","wings"],"bee_group":{"antennae":"B","wings":"2","pattern":"X","legs":"X"},"action":"harvest","summary":"good-harvest","bonus":0.08},{"rt":1756.8999999985099,"stimulus":"\n                    <p><b>Action: <em>harvest</em></b></p>\n                    <p>This is the bee that you just saw.</p>\n                    <img src=\"bees-with-color/bee-A1DM.svg\" width=\"200\">\n                    <p><span class=\"greenText\"><b>Successful harvest!</b></span><br>Your pay has increased by $0.02. Your bonus pay is now $0.44.</p>\n            ","response":0,"trial_type":"html-button-response","trial_index":48,"time_elapsed":482233,"internal_node_id":"0.0-4.0-1.18","subject_id":"60f5917414ac7d222d22db64","study_id":"60edd13110225f80f9f3709b","session_id":"6196c705b8cec23ee24c47fe","condition":"full-information","relevant_dimensions":["antennae","wings"],"bee_group":{"antennae":"B","wings":"2","pattern":"X","legs":"X"},"bonus":0.08},{"rt":13152.60000000149,"stimulus":"bees-with-color/bee-B2DF.svg","response":1,"trial_type":"image-button-response","trial_index":49,"time_elapsed":495394,"internal_node_id":"0.0-4.0-0.19","subject_id":"60f5917414ac7d222d22db64","study_id":"60edd13110225f80f9f3709b","session_id":"6196c705b8cec23ee24c47fe","condition":"full-information","relevant_dimensions":["antennae","wings"],"bee_group":{"antennae":"B","wings":"2","pattern":"X","legs":"X"},"action":"avoid","summary":"good-avoid","bonus":0.08},{"rt":4947.79999999702,"stimulus":"\n                    <p><b>Action: <em>avoid</em></b></p>\n                    <p>This is the bee that you just saw.</p>\n                    <img src=\"bees-with-color/bee-B2DF.svg\" width=\"200\">\n                    <p><span class=\"greenText\">Good choice!</span>  This bee would have stung you.<br>Your bonus pay is unchanged, and remains at $0.44.</p>\n            ","response":0,"trial_type":"html-button-response","trial_index":50,"time_elapsed":500350,"internal_node_id":"0.0-4.0-1.19","subject_id":"60f5917414ac7d222d22db64","study_id":"60edd13110225f80f9f3709b","session_id":"6196c705b8cec23ee24c47fe","condition":"full-information","relevant_dimensions":["antennae","wings"],"bee_group":{"antennae":"B","wings":"2","pattern":"X","legs":"X"},"bonus":0.08},{"rt":2786.89999999851,"stimulus":"bees-with-color/bee-B1DF.svg","response":1,"trial_type":"image-button-response","trial_index":51,"time_elapsed":503146,"internal_node_id":"0.0-4.0-0.20","subject_id":"60f5917414ac7d222d22db64","study_id":"60edd13110225f80f9f3709b","session_id":"6196c705b8cec23ee24c47fe","condition":"full-information","relevant_dimensions":["antennae","wings"],"bee_group":{"antennae":"B","wings":"2","pattern":"X","legs":"X"},"action":"avoid","summary":"bad-avoid","bonus":0.08},{"rt":5644,"stimulus":"\n                    <p><b>Action: <em>avoid</em></b></p>\n                    <p>This is the bee that you just saw.</p>\n                    <img src=\"bees-with-color/bee-B1DF.svg\" width=\"200\">\n                    <p><span class=\"redText\">Bad choice,</span> the bee was friendly.<br>Your bonus pay is unchanged, and remains at $0.44.</p>\n            ","response":0,"trial_type":"html-button-response","trial_index":52,"time_elapsed":508796,"internal_node_id":"0.0-4.0-1.20","subject_id":"60f5917414ac7d222d22db64","study_id":"60edd13110225f80f9f3709b","session_id":"6196c705b8cec23ee24c47fe","condition":"full-information","relevant_dimensions":["antennae","wings"],"bee_group":{"antennae":"B","wings":"2","pattern":"X","legs":"X"},"bonus":0.08},{"rt":7328.10000000149,"stimulus":"bees-with-color/bee-B1SF.svg","response":0,"trial_type":"image-button-response","trial_index":53,"time_elapsed":516134,"internal_node_id":"0.0-4.0-0.21","subject_id":"60f5917414ac7d222d22db64","study_id":"60edd13110225f80f9f3709b","session_id":"6196c705b8cec23ee24c47fe","condition":"full-information","relevant_dimensions":["antennae","wings"],"bee_group":{"antennae":"B","wings":"2","pattern":"X","legs":"X"},"action":"harvest","summary":"good-harvest","bonus":0.08},{"rt":2043.1999999955297,"stimulus":"\n                    <p><b>Action: <em>harvest</em></b></p>\n                    <p>This is the bee that you just saw.</p>\n                    <img src=\"bees-with-color/bee-B1SF.svg\" width=\"200\">\n                    <p><span class=\"greenText\"><b>Successful harvest!</b></span><br>Your pay has increased by $0.02. Your bonus pay is now $0.46.</p>\n            ","response":0,"trial_type":"html-button-response","trial_index":54,"time_elapsed":518184,"internal_node_id":"0.0-4.0-1.21","subject_id":"60f5917414ac7d222d22db64","study_id":"60edd13110225f80f9f3709b","session_id":"6196c705b8cec23ee24c47fe","condition":"full-information","relevant_dimensions":["antennae","wings"],"bee_group":{"antennae":"B","wings":"2","pattern":"X","legs":"X"},"bonus":0.08},{"rt":4050,"stimulus":"bees-with-color/bee-A2SF.svg","response":0,"trial_type":"image-button-response","trial_index":55,"time_elapsed":522242,"internal_node_id":"0.0-4.0-0.22","subject_id":"60f5917414ac7d222d22db64","study_id":"60edd13110225f80f9f3709b","session_id":"6196c705b8cec23ee24c47fe","condition":"full-information","relevant_dimensions":["antennae","wings"],"bee_group":{"antennae":"B","wings":"2","pattern":"X","legs":"X"},"action":"harvest","summary":"good-harvest","bonus":0.08},{"rt":1995.5,"stimulus":"\n                    <p><b>Action: <em>harvest</em></b></p>\n                    <p>This is the bee that you just saw.</p>\n                    <img src=\"bees-with-color/bee-A2SF.svg\" width=\"200\">\n                    <p><span class=\"greenText\"><b>Successful harvest!</b></span><br>Your pay has increased by $0.02. Your bonus pay is now $0.48.</p>\n            ","response":0,"trial_type":"html-button-response","trial_index":56,"time_elapsed":524245,"internal_node_id":"0.0-4.0-1.22","subject_id":"60f5917414ac7d222d22db64","study_id":"60edd13110225f80f9f3709b","session_id":"6196c705b8cec23ee24c47fe","condition":"full-information","relevant_dimensions":["antennae","wings"],"bee_group":{"antennae":"B","wings":"2","pattern":"X","legs":"X"},"bonus":0.08},{"rt":8595.5,"stimulus":"bees-with-color/bee-B2DM.svg","response":1,"trial_type":"image-button-response","trial_index":57,"time_elapsed":532847,"internal_node_id":"0.0-4.0-0.23","subject_id":"60f5917414ac7d222d22db64","study_id":"60edd13110225f80f9f3709b","session_id":"6196c705b8cec23ee24c47fe","condition":"full-information","relevant_dimensions":["antennae","wings"],"bee_group":{"antennae":"B","wings":"2","pattern":"X","legs":"X"},"action":"avoid","summary":"good-avoid","bonus":0.08},{"rt":1579.6000000014901,"stimulus":"\n                    <p><b>Action: <em>avoid</em></b></p>\n                    <p>This is the bee that you just saw.</p>\n                    <img src=\"bees-with-color/bee-B2DM.svg\" width=\"200\">\n                    <p><span class=\"greenText\">Good choice!</span>  This bee would have stung you.<br>Your bonus pay is unchanged, and remains at $0.48.</p>\n            ","response":0,"trial_type":"html-button-response","trial_index":58,"time_elapsed":534433,"internal_node_id":"0.0-4.0-1.23","subject_id":"60f5917414ac7d222d22db64","study_id":"60edd13110225f80f9f3709b","session_id":"6196c705b8cec23ee24c47fe","condition":"full-information","relevant_dimensions":["antennae","wings"],"bee_group":{"antennae":"B","wings":"2","pattern":"X","legs":"X"},"bonus":0.08},{"rt":9405.79999999702,"stimulus":"bees-with-color/bee-A2DF.svg","response":1,"trial_type":"image-button-response","trial_index":59,"time_elapsed":543849,"internal_node_id":"0.0-4.0-0.24","subject_id":"60f5917414ac7d222d22db64","study_id":"60edd13110225f80f9f3709b","session_id":"6196c705b8cec23ee24c47fe","condition":"full-information","relevant_dimensions":["antennae","wings"],"bee_group":{"antennae":"B","wings":"2","pattern":"X","legs":"X"},"action":"avoid","summary":"bad-avoid","bonus":0.08},{"rt":3536.10000000149,"stimulus":"\n                    <p><b>Action: <em>avoid</em></b></p>\n                    <p>This is the bee that you just saw.</p>\n                    <img src=\"bees-with-color/bee-A2DF.svg\" width=\"200\">\n                    <p><span class=\"redText\">Bad choice,</span> the bee was friendly.<br>Your bonus pay is unchanged, and remains at $0.48.</p>\n            ","response":0,"trial_type":"html-button-response","trial_index":60,"time_elapsed":547391,"internal_node_id":"0.0-4.0-1.24","subject_id":"60f5917414ac7d222d22db64","study_id":"60edd13110225f80f9f3709b","session_id":"6196c705b8cec23ee24c47fe","condition":"full-information","relevant_dimensions":["antennae","wings"],"bee_group":{"antennae":"B","wings":"2","pattern":"X","legs":"X"},"bonus":0.08},{"rt":4934.39999999851,"stimulus":"bees-with-color/bee-B1SM.svg","response":1,"trial_type":"image-button-response","trial_index":61,"time_elapsed":552332,"internal_node_id":"0.0-4.0-0.25","subject_id":"60f5917414ac7d222d22db64","study_id":"60edd13110225f80f9f3709b","session_id":"6196c705b8cec23ee24c47fe","condition":"full-information","relevant_dimensions":["antennae","wings"],"bee_group":{"antennae":"B","wings":"2","pattern":"X","legs":"X"},"action":"avoid","summary":"bad-avoid","bonus":0.08},{"rt":1785.7000000029802,"stimulus":"\n                    <p><b>Action: <em>avoid</em></b></p>\n                    <p>This is the bee that you just saw.</p>\n                    <img src=\"bees-with-color/bee-B1SM.svg\" width=\"200\">\n                    <p><span class=\"redText\">Bad choice,</span> the bee was friendly.<br>Your bonus pay is unchanged, and remains at $0.48.</p>\n            ","response":0,"trial_type":"html-button-response","trial_index":62,"time_elapsed":554124,"internal_node_id":"0.0-4.0-1.25","subject_id":"60f5917414ac7d222d22db64","study_id":"60edd13110225f80f9f3709b","session_id":"6196c705b8cec23ee24c47fe","condition":"full-information","relevant_dimensions":["antennae","wings"],"bee_group":{"antennae":"B","wings":"2","pattern":"X","legs":"X"},"bonus":0.08},{"rt":2270.10000000149,"stimulus":"bees-with-color/bee-B2SF.svg","response":1,"trial_type":"image-button-response","trial_index":63,"time_elapsed":556405,"internal_node_id":"0.0-4.0-0.26","subject_id":"60f5917414ac7d222d22db64","study_id":"60edd13110225f80f9f3709b","session_id":"6196c705b8cec23ee24c47fe","condition":"full-information","relevant_dimensions":["antennae","wings"],"bee_group":{"antennae":"B","wings":"2","pattern":"X","legs":"X"},"action":"avoid","summary":"good-avoid","bonus":0.08},{"rt":1685.2000000029802,"stimulus":"\n                    <p><b>Action: <em>avoid</em></b></p>\n                    <p>This is the bee that you just saw.</p>\n                    <img src=\"bees-with-color/bee-B2SF.svg\" width=\"200\">\n                    <p><span class=\"greenText\">Good choice!</span>  This bee would have stung you.<br>Your bonus pay is unchanged, and remains at $0.48.</p>\n            ","response":0,"trial_type":"html-button-response","trial_index":64,"time_elapsed":558095,"internal_node_id":"0.0-4.0-1.26","subject_id":"60f5917414ac7d222d22db64","study_id":"60edd13110225f80f9f3709b","session_id":"6196c705b8cec23ee24c47fe","condition":"full-information","relevant_dimensions":["antennae","wings"],"bee_group":{"antennae":"B","wings":"2","pattern":"X","legs":"X"},"bonus":0.08},{"rt":1800.5,"stimulus":"bees-with-color/bee-A2SM.svg","response":0,"trial_type":"image-button-response","trial_index":65,"time_elapsed":559904,"internal_node_id":"0.0-4.0-0.27","subject_id":"60f5917414ac7d222d22db64","study_id":"60edd13110225f80f9f3709b","session_id":"6196c705b8cec23ee24c47fe","condition":"full-information","relevant_dimensions":["antennae","wings"],"bee_group":{"antennae":"B","wings":"2","pattern":"X","legs":"X"},"action":"harvest","summary":"good-harvest","bonus":0.08},{"rt":1083.1000000014901,"stimulus":"\n                    <p><b>Action: <em>harvest</em></b></p>\n                    <p>This is the bee that you just saw.</p>\n                    <img src=\"bees-with-color/bee-A2SM.svg\" width=\"200\">\n                    <p><span class=\"greenText\"><b>Successful harvest!</b></span><br>Your pay has increased by $0.02. Your bonus pay is now $0.50.</p>\n            ","response":0,"trial_type":"html-button-response","trial_index":66,"time_elapsed":560994,"internal_node_id":"0.0-4.0-1.27","subject_id":"60f5917414ac7d222d22db64","study_id":"60edd13110225f80f9f3709b","session_id":"6196c705b8cec23ee24c47fe","condition":"full-information","relevant_dimensions":["antennae","wings"],"bee_group":{"antennae":"B","wings":"2","pattern":"X","legs":"X"},"bonus":0.08},{"rt":7009.39999999851,"stimulus":"bees-with-color/bee-A2DM.svg","response":0,"trial_type":"image-button-response","trial_index":67,"time_elapsed":568008,"internal_node_id":"0.0-4.0-0.28","subject_id":"60f5917414ac7d222d22db64","study_id":"60edd13110225f80f9f3709b","session_id":"6196c705b8cec23ee24c47fe","condition":"full-information","relevant_dimensions":["antennae","wings"],"bee_group":{"antennae":"B","wings":"2","pattern":"X","legs":"X"},"action":"harvest","summary":"good-harvest","bonus":0.08},{"rt":1324.5,"stimulus":"\n                    <p><b>Action: <em>harvest</em></b></p>\n                    <p>This is the bee that you just saw.</p>\n                    <img src=\"bees-with-color/bee-A2DM.svg\" width=\"200\">\n                    <p><span class=\"greenText\"><b>Successful harvest!</b></span><br>Your pay has increased by $0.02. Your bonus pay is now $0.52.</p>\n            ","response":0,"trial_type":"html-button-response","trial_index":68,"time_elapsed":569338,"internal_node_id":"0.0-4.0-1.28","subject_id":"60f5917414ac7d222d22db64","study_id":"60edd13110225f80f9f3709b","session_id":"6196c705b8cec23ee24c47fe","condition":"full-information","relevant_dimensions":["antennae","wings"],"bee_group":{"antennae":"B","wings":"2","pattern":"X","legs":"X"},"bonus":0.08},{"rt":1844.6000000014901,"stimulus":"bees-with-color/bee-B2SM.svg","response":0,"trial_type":"image-button-response","trial_index":69,"time_elapsed":571194,"internal_node_id":"0.0-4.0-0.29","subject_id":"60f5917414ac7d222d22db64","study_id":"60edd13110225f80f9f3709b","session_id":"6196c705b8cec23ee24c47fe","condition":"full-information","relevant_dimensions":["antennae","wings"],"bee_group":{"antennae":"B","wings":"2","pattern":"X","legs":"X"},"action":"harvest","summary":"bad-harvest","bonus":0.08},{"rt":2087.60000000149,"stimulus":"\n                    <p><b>Action: <em>harvest</em></b></p>\n                    <p>This is the bee that you just saw.</p>\n                    <img src=\"bees-with-color/bee-B2SM.svg\" width=\"200\">\n                    <p><span class=\"redText\">Bad choice, the bee was angry.</span><br><b>You have been stung!</b><br>Your pay has been decreased by $0.10. Your bonus pay is now $0.42.</p>\n            ","response":0,"trial_type":"html-button-response","trial_index":70,"time_elapsed":573288,"internal_node_id":"0.0-4.0-1.29","subject_id":"60f5917414ac7d222d22db64","study_id":"60edd13110225f80f9f3709b","session_id":"6196c705b8cec23ee24c47fe","condition":"full-information","relevant_dimensions":["antennae","wings"],"bee_group":{"antennae":"B","wings":"2","pattern":"X","legs":"X"},"bonus":0.08},{"rt":2652.39999999851,"stimulus":"bees-with-color/bee-B1DM.svg","response":0,"trial_type":"image-button-response","trial_index":71,"time_elapsed":575947,"internal_node_id":"0.0-4.0-0.30","subject_id":"60f5917414ac7d222d22db64","study_id":"60edd13110225f80f9f3709b","session_id":"6196c705b8cec23ee24c47fe","condition":"full-information","relevant_dimensions":["antennae","wings"],"bee_group":{"antennae":"B","wings":"2","pattern":"X","legs":"X"},"action":"harvest","summary":"good-harvest","bonus":0.08},{"rt":1350.1999999955297,"stimulus":"\n                    <p><b>Action: <em>harvest</em></b></p>\n                    <p>This is the bee that you just saw.</p>\n                    <img src=\"bees-with-color/bee-B1DM.svg\" width=\"200\">\n                    <p><span class=\"greenText\"><b>Successful harvest!</b></span><br>Your pay has increased by $0.02. Your bonus pay is now $0.44.</p>\n            ","response":0,"trial_type":"html-button-response","trial_index":72,"time_elapsed":577304,"internal_node_id":"0.0-4.0-1.30","subject_id":"60f5917414ac7d222d22db64","study_id":"60edd13110225f80f9f3709b","session_id":"6196c705b8cec23ee24c47fe","condition":"full-information","relevant_dimensions":["antennae","wings"],"bee_group":{"antennae":"B","wings":"2","pattern":"X","legs":"X"},"bonus":0.08},{"rt":946.2000000029802,"stimulus":"bees-with-color/bee-A1SF.svg","response":0,"trial_type":"image-button-response","trial_index":73,"time_elapsed":578257,"internal_node_id":"0.0-4.0-0.31","subject_id":"60f5917414ac7d222d22db64","study_id":"60edd13110225f80f9f3709b","session_id":"6196c705b8cec23ee24c47fe","condition":"full-information","relevant_dimensions":["antennae","wings"],"bee_group":{"antennae":"B","wings":"2","pattern":"X","legs":"X"},"action":"harvest","summary":"good-harvest","bonus":0.08},{"rt":1261.6000000014901,"stimulus":"\n                    <p><b>Action: <em>harvest</em></b></p>\n                    <p>This is the bee that you just saw.</p>\n                    <img src=\"bees-with-color/bee-A1SF.svg\" width=\"200\">\n                    <p><span class=\"greenText\"><b>Successful harvest!</b></span><br>Your pay has increased by $0.02. Your bonus pay is now $0.46.</p>\n            ","response":0,"trial_type":"html-button-response","trial_index":74,"time_elapsed":579527,"internal_node_id":"0.0-4.0-1.31","subject_id":"60f5917414ac7d222d22db64","study_id":"60edd13110225f80f9f3709b","session_id":"6196c705b8cec23ee24c47fe","condition":"full-information","relevant_dimensions":["antennae","wings"],"bee_group":{"antennae":"B","wings":"2","pattern":"X","legs":"X"},"bonus":0.08},{"rt":2369,"stimulus":"bees-with-color/bee-B1SM.svg","response":0,"trial_type":"image-button-response","trial_index":75,"time_elapsed":581904,"internal_node_id":"0.0-4.0-0.32","subject_id":"60f5917414ac7d222d22db64","study_id":"60edd13110225f80f9f3709b","session_id":"6196c705b8cec23ee24c47fe","condition":"full-information","relevant_dimensions":["antennae","wings"],"bee_group":{"antennae":"B","wings":"2","pattern":"X","legs":"X"},"action":"harvest","summary":"good-harvest","bonus":0.08},{"rt":1251.8000000044703,"stimulus":"\n                    <p><b>Action: <em>harvest</em></b></p>\n                    <p>This is the bee that you just saw.</p>\n                    <img src=\"bees-with-color/bee-B1SM.svg\" width=\"200\">\n                    <p><span class=\"greenText\"><b>Successful harvest!</b></span><br>Your pay has increased by $0.02. Your bonus pay is now $0.48.</p>\n            ","response":0,"trial_type":"html-button-response","trial_index":76,"time_elapsed":583163,"internal_node_id":"0.0-4.0-1.32","subject_id":"60f5917414ac7d222d22db64","study_id":"60edd13110225f80f9f3709b","session_id":"6196c705b8cec23ee24c47fe","condition":"full-information","relevant_dimensions":["antennae","wings"],"bee_group":{"antennae":"B","wings":"2","pattern":"X","legs":"X"},"bonus":0.08},{"rt":1765.0999999940395,"stimulus":"bees-with-color/bee-B1DM.svg","response":1,"trial_type":"image-button-response","trial_index":77,"time_elapsed":584934,"internal_node_id":"0.0-4.0-0.33","subject_id":"60f5917414ac7d222d22db64","study_id":"60edd13110225f80f9f3709b","session_id":"6196c705b8cec23ee24c47fe","condition":"full-information","relevant_dimensions":["antennae","wings"],"bee_group":{"antennae":"B","wings":"2","pattern":"X","legs":"X"},"action":"avoid","summary":"bad-avoid","bonus":0.08},{"rt":1236.3000000044703,"stimulus":"\n                    <p><b>Action: <em>avoid</em></b></p>\n                    <p>This is the bee that you just saw.</p>\n                    <img src=\"bees-with-color/bee-B1DM.svg\" width=\"200\">\n                    <p><span class=\"redText\">Bad choice,</span> the bee was friendly.<br>Your bonus pay is unchanged, and remains at $0.48.</p>\n            ","response":0,"trial_type":"html-button-response","trial_index":78,"time_elapsed":586179,"internal_node_id":"0.0-4.0-1.33","subject_id":"60f5917414ac7d222d22db64","study_id":"60edd13110225f80f9f3709b","session_id":"6196c705b8cec23ee24c47fe","condition":"full-information","relevant_dimensions":["antennae","wings"],"bee_group":{"antennae":"B","wings":"2","pattern":"X","legs":"X"},"bonus":0.08},{"rt":1932.7999999970198,"stimulus":"bees-with-color/bee-B2DF.svg","response":0,"trial_type":"image-button-response","trial_index":79,"time_elapsed":588121,"internal_node_id":"0.0-4.0-0.34","subject_id":"60f5917414ac7d222d22db64","study_id":"60edd13110225f80f9f3709b","session_id":"6196c705b8cec23ee24c47fe","condition":"full-information","relevant_dimensions":["antennae","wings"],"bee_group":{"antennae":"B","wings":"2","pattern":"X","legs":"X"},"action":"harvest","summary":"bad-harvest","bonus":0.08},{"rt":1491.1000000014901,"stimulus":"\n                    <p><b>Action: <em>harvest</em></b></p>\n                    <p>This is the bee that you just saw.</p>\n                    <img src=\"bees-with-color/bee-B2DF.svg\" width=\"200\">\n                    <p><span class=\"redText\">Bad choice, the bee was angry.</span><br><b>You have been stung!</b><br>Your pay has been decreased by $0.10. Your bonus pay is now $0.38.</p>\n            ","response":0,"trial_type":"html-button-response","trial_index":80,"time_elapsed":589618,"internal_node_id":"0.0-4.0-1.34","subject_id":"60f5917414ac7d222d22db64","study_id":"60edd13110225f80f9f3709b","session_id":"6196c705b8cec23ee24c47fe","condition":"full-information","relevant_dimensions":["antennae","wings"],"bee_group":{"antennae":"B","wings":"2","pattern":"X","legs":"X"},"bonus":0.08},{"rt":1612.2000000029802,"stimulus":"bees-with-color/bee-A2SF.svg","response":0,"trial_type":"image-button-response","trial_index":81,"time_elapsed":591240,"internal_node_id":"0.0-4.0-0.35","subject_id":"60f5917414ac7d222d22db64","study_id":"60edd13110225f80f9f3709b","session_id":"6196c705b8cec23ee24c47fe","condition":"full-information","relevant_dimensions":["antennae","wings"],"bee_group":{"antennae":"B","wings":"2","pattern":"X","legs":"X"},"action":"harvest","summary":"good-harvest","bonus":0.08},{"rt":908.8000000044703,"stimulus":"\n                    <p><b>Action: <em>harvest</em></b></p>\n                    <p>This is the bee that you just saw.</p>\n                    <img src=\"bees-with-color/bee-A2SF.svg\" width=\"200\">\n                    <p><span class=\"greenText\"><b>Successful harvest!</b></span><br>Your pay has increased by $0.02. Your bonus pay is now $0.40.</p>\n            ","response":0,"trial_type":"html-button-response","trial_index":82,"time_elapsed":592158,"internal_node_id":"0.0-4.0-1.35","subject_id":"60f5917414ac7d222d22db64","study_id":"60edd13110225f80f9f3709b","session_id":"6196c705b8cec23ee24c47fe","condition":"full-information","relevant_dimensions":["antennae","wings"],"bee_group":{"antennae":"B","wings":"2","pattern":"X","legs":"X"},"bonus":0.08},{"rt":732.5,"stimulus":"bees-with-color/bee-A2DM.svg","response":0,"trial_type":"image-button-response","trial_index":83,"time_elapsed":592898,"internal_node_id":"0.0-4.0-0.36","subject_id":"60f5917414ac7d222d22db64","study_id":"60edd13110225f80f9f3709b","session_id":"6196c705b8cec23ee24c47fe","condition":"full-information","relevant_dimensions":["antennae","wings"],"bee_group":{"antennae":"B","wings":"2","pattern":"X","legs":"X"},"action":"harvest","summary":"good-harvest","bonus":0.08},{"rt":967.0999999940395,"stimulus":"\n                    <p><b>Action: <em>harvest</em></b></p>\n                    <p>This is the bee that you just saw.</p>\n                    <img src=\"bees-with-color/bee-A2DM.svg\" width=\"200\">\n                    <p><span class=\"greenText\"><b>Successful harvest!</b></span><br>Your pay has increased by $0.02. Your bonus pay is now $0.42.</p>\n            ","response":0,"trial_type":"html-button-response","trial_index":84,"time_elapsed":593875,"internal_node_id":"0.0-4.0-1.36","subject_id":"60f5917414ac7d222d22db64","study_id":"60edd13110225f80f9f3709b","session_id":"6196c705b8cec23ee24c47fe","condition":"full-information","relevant_dimensions":["antennae","wings"],"bee_group":{"antennae":"B","wings":"2","pattern":"X","legs":"X"},"bonus":0.08},{"rt":1108.7000000029802,"stimulus":"bees-with-color/bee-A2DF.svg","response":0,"trial_type":"image-button-response","trial_index":85,"time_elapsed":594992,"internal_node_id":"0.0-4.0-0.37","subject_id":"60f5917414ac7d222d22db64","study_id":"60edd13110225f80f9f3709b","session_id":"6196c705b8cec23ee24c47fe","condition":"full-information","relevant_dimensions":["antennae","wings"],"bee_group":{"antennae":"B","wings":"2","pattern":"X","legs":"X"},"action":"harvest","summary":"good-harvest","bonus":0.08},{"rt":939.5,"stimulus":"\n                    <p><b>Action: <em>harvest</em></b></p>\n                    <p>This is the bee that you just saw.</p>\n                    <img src=\"bees-with-color/bee-A2DF.svg\" width=\"200\">\n                    <p><span class=\"greenText\"><b>Successful harvest!</b></span><br>Your pay has increased by $0.02. Your bonus pay is now $0.44.</p>\n            ","response":0,"trial_type":"html-button-response","trial_index":86,"time_elapsed":595938,"internal_node_id":"0.0-4.0-1.37","subject_id":"60f5917414ac7d222d22db64","study_id":"60edd13110225f80f9f3709b","session_id":"6196c705b8cec23ee24c47fe","condition":"full-information","relevant_dimensions":["antennae","wings"],"bee_group":{"antennae":"B","wings":"2","pattern":"X","legs":"X"},"bonus":0.08},{"rt":2234.89999999851,"stimulus":"bees-with-color/bee-B1DF.svg","response":1,"trial_type":"image-button-response","trial_index":87,"time_elapsed":598180,"internal_node_id":"0.0-4.0-0.38","subject_id":"60f5917414ac7d222d22db64","study_id":"60edd13110225f80f9f3709b","session_id":"6196c705b8cec23ee24c47fe","condition":"full-information","relevant_dimensions":["antennae","wings"],"bee_group":{"antennae":"B","wings":"2","pattern":"X","legs":"X"},"action":"avoid","summary":"bad-avoid","bonus":0.08},{"rt":1825.3999999985099,"stimulus":"\n                    <p><b>Action: <em>avoid</em></b></p>\n                    <p>This is the bee that you just saw.</p>\n                    <img src=\"bees-with-color/bee-B1DF.svg\" width=\"200\">\n                    <p><span class=\"redText\">Bad choice,</span> the bee was friendly.<br>Your bonus pay is unchanged, and remains at $0.44.</p>\n            ","response":0,"trial_type":"html-button-response","trial_index":88,"time_elapsed":600011,"internal_node_id":"0.0-4.0-1.38","subject_id":"60f5917414ac7d222d22db64","study_id":"60edd13110225f80f9f3709b","session_id":"6196c705b8cec23ee24c47fe","condition":"full-information","relevant_dimensions":["antennae","wings"],"bee_group":{"antennae":"B","wings":"2","pattern":"X","legs":"X"},"bonus":0.08},{"rt":1135.3999999985099,"stimulus":"bees-with-color/bee-B2SF.svg","response":1,"trial_type":"image-button-response","trial_index":89,"time_elapsed":601156,"internal_node_id":"0.0-4.0-0.39","subject_id":"60f5917414ac7d222d22db64","study_id":"60edd13110225f80f9f3709b","session_id":"6196c705b8cec23ee24c47fe","condition":"full-information","relevant_dimensions":["antennae","wings"],"bee_group":{"antennae":"B","wings":"2","pattern":"X","legs":"X"},"action":"avoid","summary":"good-avoid","bonus":0.08},{"rt":1126.8999999985099,"stimulus":"\n                    <p><b>Action: <em>avoid</em></b></p>\n                    <p>This is the bee that you just saw.</p>\n                    <img src=\"bees-with-color/bee-B2SF.svg\" width=\"200\">\n                    <p><span class=\"greenText\">Good choice!</span>  This bee would have stung you.<br>Your bonus pay is unchanged, and remains at $0.44.</p>\n            ","response":0,"trial_type":"html-button-response","trial_index":90,"time_elapsed":602304,"internal_node_id":"0.0-4.0-1.39","subject_id":"60f5917414ac7d222d22db64","study_id":"60edd13110225f80f9f3709b","session_id":"6196c705b8cec23ee24c47fe","condition":"full-information","relevant_dimensions":["antennae","wings"],"bee_group":{"antennae":"B","wings":"2","pattern":"X","legs":"X"},"bonus":0.08},{"rt":984.5999999940395,"stimulus":"bees-with-color/bee-B2SM.svg","response":0,"trial_type":"image-button-response","trial_index":91,"time_elapsed":603298,"internal_node_id":"0.0-4.0-0.40","subject_id":"60f5917414ac7d222d22db64","study_id":"60edd13110225f80f9f3709b","session_id":"6196c705b8cec23ee24c47fe","condition":"full-information","relevant_dimensions":["antennae","wings"],"bee_group":{"antennae":"B","wings":"2","pattern":"X","legs":"X"},"action":"harvest","summary":"bad-harvest","bonus":0.08},{"rt":1805.6000000014901,"stimulus":"\n                    <p><b>Action: <em>harvest</em></b></p>\n                    <p>This is the bee that you just saw.</p>\n                    <img src=\"bees-with-color/bee-B2SM.svg\" width=\"200\">\n                    <p><span class=\"redText\">Bad choice, the bee was angry.</span><br><b>You have been stung!</b><br>Your pay has been decreased by $0.10. Your bonus pay is now $0.34.</p>\n            ","response":0,"trial_type":"html-button-response","trial_index":92,"time_elapsed":605110,"internal_node_id":"0.0-4.0-1.40","subject_id":"60f5917414ac7d222d22db64","study_id":"60edd13110225f80f9f3709b","session_id":"6196c705b8cec23ee24c47fe","condition":"full-information","relevant_dimensions":["antennae","wings"],"bee_group":{"antennae":"B","wings":"2","pattern":"X","legs":"X"},"bonus":0.08},{"rt":1337.1000000014901,"stimulus":"bees-with-color/bee-A1SF.svg","response":0,"trial_type":"image-button-response","trial_index":93,"time_elapsed":606456,"internal_node_id":"0.0-4.0-0.41","subject_id":"60f5917414ac7d222d22db64","study_id":"60edd13110225f80f9f3709b","session_id":"6196c705b8cec23ee24c47fe","condition":"full-information","relevant_dimensions":["antennae","wings"],"bee_group":{"antennae":"B","wings":"2","pattern":"X","legs":"X"},"action":"harvest","summary":"good-harvest","bonus":0.08},{"rt":1040.8000000044703,"stimulus":"\n                    <p><b>Action: <em>harvest</em></b></p>\n                    <p>This is the bee that you just saw.</p>\n                    <img src=\"bees-with-color/bee-A1SF.svg\" width=\"200\">\n                    <p><span class=\"greenText\"><b>Successful harvest!</b></span><br>Your pay has increased by $0.02. Your bonus pay is now $0.36.</p>\n            ","response":0,"trial_type":"html-button-response","trial_index":94,"time_elapsed":607507,"internal_node_id":"0.0-4.0-1.41","subject_id":"60f5917414ac7d222d22db64","study_id":"60edd13110225f80f9f3709b","session_id":"6196c705b8cec23ee24c47fe","condition":"full-information","relevant_dimensions":["antennae","wings"],"bee_group":{"antennae":"B","wings":"2","pattern":"X","legs":"X"},"bonus":0.08},{"rt":774.4000000059605,"stimulus":"bees-with-color/bee-A1DM.svg","response":0,"trial_type":"image-button-response","trial_index":95,"time_elapsed":608291,"internal_node_id":"0.0-4.0-0.42","subject_id":"60f5917414ac7d222d22db64","study_id":"60edd13110225f80f9f3709b","session_id":"6196c705b8cec23ee24c47fe","condition":"full-information","relevant_dimensions":["antennae","wings"],"bee_group":{"antennae":"B","wings":"2","pattern":"X","legs":"X"},"action":"harvest","summary":"good-harvest","bonus":0.08},{"rt":1344.2999999970198,"stimulus":"\n                    <p><b>Action: <em>harvest</em></b></p>\n                    <p>This is the bee that you just saw.</p>\n                    <img src=\"bees-with-color/bee-A1DM.svg\" width=\"200\">\n                    <p><span class=\"greenText\"><b>Successful harvest!</b></span><br>Your pay has increased by $0.02. Your bonus pay is now $0.38.</p>\n            ","response":0,"trial_type":"html-button-response","trial_index":96,"time_elapsed":609643,"internal_node_id":"0.0-4.0-1.42","subject_id":"60f5917414ac7d222d22db64","study_id":"60edd13110225f80f9f3709b","session_id":"6196c705b8cec23ee24c47fe","condition":"full-information","relevant_dimensions":["antennae","wings"],"bee_group":{"antennae":"B","wings":"2","pattern":"X","legs":"X"},"bonus":0.08},{"rt":1115.6000000014901,"stimulus":"bees-with-color/bee-B1SF.svg","response":0,"trial_type":"image-button-response","trial_index":97,"time_elapsed":610764,"internal_node_id":"0.0-4.0-0.43","subject_id":"60f5917414ac7d222d22db64","study_id":"60edd13110225f80f9f3709b","session_id":"6196c705b8cec23ee24c47fe","condition":"full-information","relevant_dimensions":["antennae","wings"],"bee_group":{"antennae":"B","wings":"2","pattern":"X","legs":"X"},"action":"harvest","summary":"good-harvest","bonus":0.08},{"rt":841.7999999970198,"stimulus":"\n                    <p><b>Action: <em>harvest</em></b></p>\n                    <p>This is the bee that you just saw.</p>\n                    <img src=\"bees-with-color/bee-B1SF.svg\" width=\"200\">\n                    <p><span class=\"greenText\"><b>Successful harvest!</b></span><br>Your pay has increased by $0.02. Your bonus pay is now $0.40.</p>\n            ","response":0,"trial_type":"html-button-response","trial_index":98,"time_elapsed":611611,"internal_node_id":"0.0-4.0-1.43","subject_id":"60f5917414ac7d222d22db64","study_id":"60edd13110225f80f9f3709b","session_id":"6196c705b8cec23ee24c47fe","condition":"full-information","relevant_dimensions":["antennae","wings"],"bee_group":{"antennae":"B","wings":"2","pattern":"X","legs":"X"},"bonus":0.08},{"rt":1546.6000000014901,"stimulus":"bees-with-color/bee-A2SM.svg","response":0,"trial_type":"image-button-response","trial_index":99,"time_elapsed":613163,"internal_node_id":"0.0-4.0-0.44","subject_id":"60f5917414ac7d222d22db64","study_id":"60edd13110225f80f9f3709b","session_id":"6196c705b8cec23ee24c47fe","condition":"full-information","relevant_dimensions":["antennae","wings"],"bee_group":{"antennae":"B","wings":"2","pattern":"X","legs":"X"},"action":"harvest","summary":"good-harvest","bonus":0.08},{"rt":1064.6000000014901,"stimulus":"\n                    <p><b>Action: <em>harvest</em></b></p>\n                    <p>This is the bee that you just saw.</p>\n                    <img src=\"bees-with-color/bee-A2SM.svg\" width=\"200\">\n                    <p><span class=\"greenText\"><b>Successful harvest!</b></span><br>Your pay has increased by $0.02. Your bonus pay is now $0.42.</p>\n            ","response":0,"trial_type":"html-button-response","trial_index":100,"time_elapsed":614232,"internal_node_id":"0.0-4.0-1.44","subject_id":"60f5917414ac7d222d22db64","study_id":"60edd13110225f80f9f3709b","session_id":"6196c705b8cec23ee24c47fe","condition":"full-information","relevant_dimensions":["antennae","wings"],"bee_group":{"antennae":"B","wings":"2","pattern":"X","legs":"X"},"bonus":0.08},{"rt":931.8000000044703,"stimulus":"bees-with-color/bee-A1DF.svg","response":1,"trial_type":"image-button-response","trial_index":101,"time_elapsed":615170,"internal_node_id":"0.0-4.0-0.45","subject_id":"60f5917414ac7d222d22db64","study_id":"60edd13110225f80f9f3709b","session_id":"6196c705b8cec23ee24c47fe","condition":"full-information","relevant_dimensions":["antennae","wings"],"bee_group":{"antennae":"B","wings":"2","pattern":"X","legs":"X"},"action":"avoid","summary":"bad-avoid","bonus":0.08},{"rt":1474.6000000014901,"stimulus":"\n                    <p><b>Action: <em>avoid</em></b></p>\n                    <p>This is the bee that you just saw.</p>\n                    <img src=\"bees-with-color/bee-A1DF.svg\" width=\"200\">\n                    <p><span class=\"redText\">Bad choice,</span> the bee was friendly.<br>Your bonus pay is unchanged, and remains at $0.42.</p>\n            ","response":0,"trial_type":"html-button-response","trial_index":102,"time_elapsed":616650,"internal_node_id":"0.0-4.0-1.45","subject_id":"60f5917414ac7d222d22db64","study_id":"60edd13110225f80f9f3709b","session_id":"6196c705b8cec23ee24c47fe","condition":"full-information","relevant_dimensions":["antennae","wings"],"bee_group":{"antennae":"B","wings":"2","pattern":"X","legs":"X"},"bonus":0.08},{"rt":926.8000000044703,"stimulus":"bees-with-color/bee-A1SM.svg","response":1,"trial_type":"image-button-response","trial_index":103,"time_elapsed":617582,"internal_node_id":"0.0-4.0-0.46","subject_id":"60f5917414ac7d222d22db64","study_id":"60edd13110225f80f9f3709b","session_id":"6196c705b8cec23ee24c47fe","condition":"full-information","relevant_dimensions":["antennae","wings"],"bee_group":{"antennae":"B","wings":"2","pattern":"X","legs":"X"},"action":"avoid","summary":"bad-avoid","bonus":0.08},{"rt":1429.7000000029802,"stimulus":"\n                    <p><b>Action: <em>avoid</em></b></p>\n                    <p>This is the bee that you just saw.</p>\n                    <img src=\"bees-with-color/bee-A1SM.svg\" width=\"200\">\n                    <p><span class=\"redText\">Bad choice,</span> the bee was friendly.<br>Your bonus pay is unchanged, and remains at $0.42.</p>\n            ","response":0,"trial_type":"html-button-response","trial_index":104,"time_elapsed":619019,"internal_node_id":"0.0-4.0-1.46","subject_id":"60f5917414ac7d222d22db64","study_id":"60edd13110225f80f9f3709b","session_id":"6196c705b8cec23ee24c47fe","condition":"full-information","relevant_dimensions":["antennae","wings"],"bee_group":{"antennae":"B","wings":"2","pattern":"X","legs":"X"},"bonus":0.08},{"rt":1536.2000000029802,"stimulus":"bees-with-color/bee-B2DM.svg","response":1,"trial_type":"image-button-response","trial_index":105,"time_elapsed":620562,"internal_node_id":"0.0-4.0-0.47","subject_id":"60f5917414ac7d222d22db64","study_id":"60edd13110225f80f9f3709b","session_id":"6196c705b8cec23ee24c47fe","condition":"full-information","relevant_dimensions":["antennae","wings"],"bee_group":{"antennae":"B","wings":"2","pattern":"X","legs":"X"},"action":"avoid","summary":"good-avoid","bonus":0.08},{"rt":1291.2000000029802,"stimulus":"\n                    <p><b>Action: <em>avoid</em></b></p>\n                    <p>This is the bee that you just saw.</p>\n                    <img src=\"bees-with-color/bee-B2DM.svg\" width=\"200\">\n                    <p><span class=\"greenText\">Good choice!</span>  This bee would have stung you.<br>Your bonus pay is unchanged, and remains at $0.42.</p>\n            ","response":0,"trial_type":"html-button-response","trial_index":106,"time_elapsed":621858,"internal_node_id":"0.0-4.0-1.47","subject_id":"60f5917414ac7d222d22db64","study_id":"60edd13110225f80f9f3709b","session_id":"6196c705b8cec23ee24c47fe","condition":"full-information","relevant_dimensions":["antennae","wings"],"bee_group":{"antennae":"B","wings":"2","pattern":"X","legs":"X"},"bonus":0.08},{"rt":1259.0999999940395,"stimulus":"bees-with-color/bee-A1DF.svg","response":1,"trial_type":"image-button-response","trial_index":107,"time_elapsed":623124,"internal_node_id":"0.0-4.0-0.48","subject_id":"60f5917414ac7d222d22db64","study_id":"60edd13110225f80f9f3709b","session_id":"6196c705b8cec23ee24c47fe","condition":"full-information","relevant_dimensions":["antennae","wings"],"bee_group":{"antennae":"B","wings":"2","pattern":"X","legs":"X"},"action":"avoid","summary":"bad-avoid","bonus":0.08},{"rt":1766.5,"stimulus":"\n                    <p><b>Action: <em>avoid</em></b></p>\n                    <p>This is the bee that you just saw.</p>\n                    <img src=\"bees-with-color/bee-A1DF.svg\" width=\"200\">\n                    <p><span class=\"redText\">Bad choice,</span> the bee was friendly.<br>Your bonus pay is unchanged, and remains at $0.42.</p>\n            ","response":0,"trial_type":"html-button-response","trial_index":108,"time_elapsed":624898,"internal_node_id":"0.0-4.0-1.48","subject_id":"60f5917414ac7d222d22db64","study_id":"60edd13110225f80f9f3709b","session_id":"6196c705b8cec23ee24c47fe","condition":"full-information","relevant_dimensions":["antennae","wings"],"bee_group":{"antennae":"B","wings":"2","pattern":"X","legs":"X"},"bonus":0.08},{"rt":2107.3000000044703,"stimulus":"bees-with-color/bee-A2DM.svg","response":0,"trial_type":"image-button-response","trial_index":109,"time_elapsed":627012,"internal_node_id":"0.0-4.0-0.49","subject_id":"60f5917414ac7d222d22db64","study_id":"60edd13110225f80f9f3709b","session_id":"6196c705b8cec23ee24c47fe","condition":"full-information","relevant_dimensions":["antennae","wings"],"bee_group":{"antennae":"B","wings":"2","pattern":"X","legs":"X"},"action":"harvest","summary":"good-harvest","bonus":0.08},{"rt":854.7999999970198,"stimulus":"\n                    <p><b>Action: <em>harvest</em></b></p>\n                    <p>This is the bee that you just saw.</p>\n                    <img src=\"bees-with-color/bee-A2DM.svg\" width=\"200\">\n                    <p><span class=\"greenText\"><b>Successful harvest!</b></span><br>Your pay has increased by $0.02. Your bonus pay is now $0.44.</p>\n            ","response":0,"trial_type":"html-button-response","trial_index":110,"time_elapsed":627872,"internal_node_id":"0.0-4.0-1.49","subject_id":"60f5917414ac7d222d22db64","study_id":"60edd13110225f80f9f3709b","session_id":"6196c705b8cec23ee24c47fe","condition":"full-information","relevant_dimensions":["antennae","wings"],"bee_group":{"antennae":"B","wings":"2","pattern":"X","legs":"X"},"bonus":0.08},{"rt":1531.8000000044703,"stimulus":"bees-with-color/bee-B1DF.svg","response":0,"trial_type":"image-button-response","trial_index":111,"time_elapsed":629410,"internal_node_id":"0.0-4.0-0.50","subject_id":"60f5917414ac7d222d22db64","study_id":"60edd13110225f80f9f3709b","session_id":"6196c705b8cec23ee24c47fe","condition":"full-information","relevant_dimensions":["antennae","wings"],"bee_group":{"antennae":"B","wings":"2","pattern":"X","legs":"X"},"action":"harvest","summary":"good-harvest","bonus":0.08},{"rt":830,"stimulus":"\n                    <p><b>Action: <em>harvest</em></b></p>\n                    <p>This is the bee that you just saw.</p>\n                    <img src=\"bees-with-color/bee-B1DF.svg\" width=\"200\">\n                    <p><span class=\"greenText\"><b>Successful harvest!</b></span><br>Your pay has increased by $0.02. Your bonus pay is now $0.46.</p>\n            ","response":0,"trial_type":"html-button-response","trial_index":112,"time_elapsed":630247,"internal_node_id":"0.0-4.0-1.50","subject_id":"60f5917414ac7d222d22db64","study_id":"60edd13110225f80f9f3709b","session_id":"6196c705b8cec23ee24c47fe","condition":"full-information","relevant_dimensions":["antennae","wings"],"bee_group":{"antennae":"B","wings":"2","pattern":"X","legs":"X"},"bonus":0.08},{"rt":1234.8999999985099,"stimulus":"bees-with-color/bee-B2SF.svg","response":0,"trial_type":"image-button-response","trial_index":113,"time_elapsed":631489,"internal_node_id":"0.0-4.0-0.51","subject_id":"60f5917414ac7d222d22db64","study_id":"60edd13110225f80f9f3709b","session_id":"6196c705b8cec23ee24c47fe","condition":"full-information","relevant_dimensions":["antennae","wings"],"bee_group":{"antennae":"B","wings":"2","pattern":"X","legs":"X"},"action":"harvest","summary":"bad-harvest","bonus":0.08},{"rt":1817,"stimulus":"\n                    <p><b>Action: <em>harvest</em></b></p>\n                    <p>This is the bee that you just saw.</p>\n                    <img src=\"bees-with-color/bee-B2SF.svg\" width=\"200\">\n                    <p><span class=\"redText\">Bad choice, the bee was angry.</span><br><b>You have been stung!</b><br>Your pay has been decreased by $0.10. Your bonus pay is now $0.36.</p>\n            ","response":0,"trial_type":"html-button-response","trial_index":114,"time_elapsed":633313,"internal_node_id":"0.0-4.0-1.51","subject_id":"60f5917414ac7d222d22db64","study_id":"60edd13110225f80f9f3709b","session_id":"6196c705b8cec23ee24c47fe","condition":"full-information","relevant_dimensions":["antennae","wings"],"bee_group":{"antennae":"B","wings":"2","pattern":"X","legs":"X"},"bonus":0.08},{"rt":1188.6999999955297,"stimulus":"bees-with-color/bee-B2DM.svg","response":0,"trial_type":"image-button-response","trial_index":115,"time_elapsed":634510,"internal_node_id":"0.0-4.0-0.52","subject_id":"60f5917414ac7d222d22db64","study_id":"60edd13110225f80f9f3709b","session_id":"6196c705b8cec23ee24c47fe","condition":"full-information","relevant_dimensions":["antennae","wings"],"bee_group":{"antennae":"B","wings":"2","pattern":"X","legs":"X"},"action":"harvest","summary":"bad-harvest","bonus":0.08},{"rt":1356.7000000029802,"stimulus":"\n                    <p><b>Action: <em>harvest</em></b></p>\n                    <p>This is the bee that you just saw.</p>\n                    <img src=\"bees-with-color/bee-B2DM.svg\" width=\"200\">\n                    <p><span class=\"redText\">Bad choice, the bee was angry.</span><br><b>You have been stung!</b><br>Your pay has been decreased by $0.10. Your bonus pay is now $0.26.</p>\n            ","response":0,"trial_type":"html-button-response","trial_index":116,"time_elapsed":635873,"internal_node_id":"0.0-4.0-1.52","subject_id":"60f5917414ac7d222d22db64","study_id":"60edd13110225f80f9f3709b","session_id":"6196c705b8cec23ee24c47fe","condition":"full-information","relevant_dimensions":["antennae","wings"],"bee_group":{"antennae":"B","wings":"2","pattern":"X","legs":"X"},"bonus":0.08},{"rt":1350.2000000029802,"stimulus":"bees-with-color/bee-A1SM.svg","response":0,"trial_type":"image-button-response","trial_index":117,"time_elapsed":637231,"internal_node_id":"0.0-4.0-0.53","subject_id":"60f5917414ac7d222d22db64","study_id":"60edd13110225f80f9f3709b","session_id":"6196c705b8cec23ee24c47fe","condition":"full-information","relevant_dimensions":["antennae","wings"],"bee_group":{"antennae":"B","wings":"2","pattern":"X","legs":"X"},"action":"harvest","summary":"good-harvest","bonus":0.08},{"rt":1083.1000000014901,"stimulus":"\n                    <p><b>Action: <em>harvest</em></b></p>\n                    <p>This is the bee that you just saw.</p>\n                    <img src=\"bees-with-color/bee-A1SM.svg\" width=\"200\">\n                    <p><span class=\"greenText\"><b>Successful harvest!</b></span><br>Your pay has increased by $0.02. Your bonus pay is now $0.28.</p>\n            ","response":0,"trial_type":"html-button-response","trial_index":118,"time_elapsed":638322,"internal_node_id":"0.0-4.0-1.53","subject_id":"60f5917414ac7d222d22db64","study_id":"60edd13110225f80f9f3709b","session_id":"6196c705b8cec23ee24c47fe","condition":"full-information","relevant_dimensions":["antennae","wings"],"bee_group":{"antennae":"B","wings":"2","pattern":"X","legs":"X"},"bonus":0.08},{"rt":1441.2999999970198,"stimulus":"bees-with-color/bee-B1DM.svg","response":0,"trial_type":"image-button-response","trial_index":119,"time_elapsed":639771,"internal_node_id":"0.0-4.0-0.54","subject_id":"60f5917414ac7d222d22db64","study_id":"60edd13110225f80f9f3709b","session_id":"6196c705b8cec23ee24c47fe","condition":"full-information","relevant_dimensions":["antennae","wings"],"bee_group":{"antennae":"B","wings":"2","pattern":"X","legs":"X"},"action":"harvest","summary":"good-harvest","bonus":0.08},{"rt":1020.8999999985099,"stimulus":"\n                    <p><b>Action: <em>harvest</em></b></p>\n                    <p>This is the bee that you just saw.</p>\n                    <img src=\"bees-with-color/bee-B1DM.svg\" width=\"200\">\n                    <p><span class=\"greenText\"><b>Successful harvest!</b></span><br>Your pay has increased by $0.02. Your bonus pay is now $0.30.</p>\n            ","response":0,"trial_type":"html-button-response","trial_index":120,"time_elapsed":640798,"internal_node_id":"0.0-4.0-1.54","subject_id":"60f5917414ac7d222d22db64","study_id":"60edd13110225f80f9f3709b","session_id":"6196c705b8cec23ee24c47fe","condition":"full-information","relevant_dimensions":["antennae","wings"],"bee_group":{"antennae":"B","wings":"2","pattern":"X","legs":"X"},"bonus":0.08},{"rt":1044.6000000014901,"stimulus":"bees-with-color/bee-B1SM.svg","response":0,"trial_type":"image-button-response","trial_index":121,"time_elapsed":641852,"internal_node_id":"0.0-4.0-0.55","subject_id":"60f5917414ac7d222d22db64","study_id":"60edd13110225f80f9f3709b","session_id":"6196c705b8cec23ee24c47fe","condition":"full-information","relevant_dimensions":["antennae","wings"],"bee_group":{"antennae":"B","wings":"2","pattern":"X","legs":"X"},"action":"harvest","summary":"good-harvest","bonus":0.08},{"rt":1047,"stimulus":"\n                    <p><b>Action: <em>harvest</em></b></p>\n                    <p>This is the bee that you just saw.</p>\n                    <img src=\"bees-with-color/bee-B1SM.svg\" width=\"200\">\n                    <p><span class=\"greenText\"><b>Successful harvest!</b></span><br>Your pay has increased by $0.02. Your bonus pay is now $0.32.</p>\n            ","response":0,"trial_type":"html-button-response","trial_index":122,"time_elapsed":642904,"internal_node_id":"0.0-4.0-1.55","subject_id":"60f5917414ac7d222d22db64","study_id":"60edd13110225f80f9f3709b","session_id":"6196c705b8cec23ee24c47fe","condition":"full-information","relevant_dimensions":["antennae","wings"],"bee_group":{"antennae":"B","wings":"2","pattern":"X","legs":"X"},"bonus":0.08},{"rt":1124.7999999970198,"stimulus":"bees-with-color/bee-B1SF.svg","response":1,"trial_type":"image-button-response","trial_index":123,"time_elapsed":644035,"internal_node_id":"0.0-4.0-0.56","subject_id":"60f5917414ac7d222d22db64","study_id":"60edd13110225f80f9f3709b","session_id":"6196c705b8cec23ee24c47fe","condition":"full-information","relevant_dimensions":["antennae","wings"],"bee_group":{"antennae":"B","wings":"2","pattern":"X","legs":"X"},"action":"avoid","summary":"bad-avoid","bonus":0.08},{"rt":1357.3000000044703,"stimulus":"\n                    <p><b>Action: <em>avoid</em></b></p>\n                    <p>This is the bee that you just saw.</p>\n                    <img src=\"bees-with-color/bee-B1SF.svg\" width=\"200\">\n                    <p><span class=\"redText\">Bad choice,</span> the bee was friendly.<br>Your bonus pay is unchanged, and remains at $0.32.</p>\n            ","response":0,"trial_type":"html-button-response","trial_index":124,"time_elapsed":645400,"internal_node_id":"0.0-4.0-1.56","subject_id":"60f5917414ac7d222d22db64","study_id":"60edd13110225f80f9f3709b","session_id":"6196c705b8cec23ee24c47fe","condition":"full-information","relevant_dimensions":["antennae","wings"],"bee_group":{"antennae":"B","wings":"2","pattern":"X","legs":"X"},"bonus":0.08},{"rt":1026.3000000044703,"stimulus":"bees-with-color/bee-A2SM.svg","response":0,"trial_type":"image-button-response","trial_index":125,"time_elapsed":646434,"internal_node_id":"0.0-4.0-0.57","subject_id":"60f5917414ac7d222d22db64","study_id":"60edd13110225f80f9f3709b","session_id":"6196c705b8cec23ee24c47fe","condition":"full-information","relevant_dimensions":["antennae","wings"],"bee_group":{"antennae":"B","wings":"2","pattern":"X","legs":"X"},"action":"harvest","summary":"good-harvest","bonus":0.08},{"rt":939.5,"stimulus":"\n                    <p><b>Action: <em>harvest</em></b></p>\n                    <p>This is the bee that you just saw.</p>\n                    <img src=\"bees-with-color/bee-A2SM.svg\" width=\"200\">\n                    <p><span class=\"greenText\"><b>Successful harvest!</b></span><br>Your pay has increased by $0.02. Your bonus pay is now $0.34.</p>\n            ","response":0,"trial_type":"html-button-response","trial_index":126,"time_elapsed":647379,"internal_node_id":"0.0-4.0-1.57","subject_id":"60f5917414ac7d222d22db64","study_id":"60edd13110225f80f9f3709b","session_id":"6196c705b8cec23ee24c47fe","condition":"full-information","relevant_dimensions":["antennae","wings"],"bee_group":{"antennae":"B","wings":"2","pattern":"X","legs":"X"},"bonus":0.08},{"rt":1024.2000000029802,"stimulus":"bees-with-color/bee-A2DF.svg","response":1,"trial_type":"image-button-response","trial_index":127,"time_elapsed":648412,"internal_node_id":"0.0-4.0-0.58","subject_id":"60f5917414ac7d222d22db64","study_id":"60edd13110225f80f9f3709b","session_id":"6196c705b8cec23ee24c47fe","condition":"full-information","relevant_dimensions":["antennae","wings"],"bee_group":{"antennae":"B","wings":"2","pattern":"X","legs":"X"},"action":"avoid","summary":"bad-avoid","bonus":0.08},{"rt":1404.8999999985099,"stimulus":"\n                    <p><b>Action: <em>avoid</em></b></p>\n                    <p>This is the bee that you just saw.</p>\n                    <img src=\"bees-with-color/bee-A2DF.svg\" width=\"200\">\n                    <p><span class=\"redText\">Bad choice,</span> the bee was friendly.<br>Your bonus pay is unchanged, and remains at $0.34.</p>\n            ","response":0,"trial_type":"html-button-response","trial_index":128,"time_elapsed":649824,"internal_node_id":"0.0-4.0-1.58","subject_id":"60f5917414ac7d222d22db64","study_id":"60edd13110225f80f9f3709b","session_id":"6196c705b8cec23ee24c47fe","condition":"full-information","relevant_dimensions":["antennae","wings"],"bee_group":{"antennae":"B","wings":"2","pattern":"X","legs":"X"},"bonus":0.08},{"rt":1095.6000000014901,"stimulus":"bees-with-color/bee-B2DF.svg","response":1,"trial_type":"image-button-response","trial_index":129,"time_elapsed":650926,"internal_node_id":"0.0-4.0-0.59","subject_id":"60f5917414ac7d222d22db64","study_id":"60edd13110225f80f9f3709b","session_id":"6196c705b8cec23ee24c47fe","condition":"full-information","relevant_dimensions":["antennae","wings"],"bee_group":{"antennae":"B","wings":"2","pattern":"X","legs":"X"},"action":"avoid","summary":"good-avoid","bonus":0.08},{"rt":1054.5,"stimulus":"\n                    <p><b>Action: <em>avoid</em></b></p>\n                    <p>This is the bee that you just saw.</p>\n                    <img src=\"bees-with-color/bee-B2DF.svg\" width=\"200\">\n                    <p><span class=\"greenText\">Good choice!</span>  This bee would have stung you.<br>Your bonus pay is unchanged, and remains at $0.34.</p>\n            ","response":0,"trial_type":"html-button-response","trial_index":130,"time_elapsed":651989,"internal_node_id":"0.0-4.0-1.59","subject_id":"60f5917414ac7d222d22db64","study_id":"60edd13110225f80f9f3709b","session_id":"6196c705b8cec23ee24c47fe","condition":"full-information","relevant_dimensions":["antennae","wings"],"bee_group":{"antennae":"B","wings":"2","pattern":"X","legs":"X"},"bonus":0.08},{"rt":755.5,"stimulus":"bees-with-color/bee-B2SM.svg","response":0,"trial_type":"image-button-response","trial_index":131,"time_elapsed":652751,"internal_node_id":"0.0-4.0-0.60","subject_id":"60f5917414ac7d222d22db64","study_id":"60edd13110225f80f9f3709b","session_id":"6196c705b8cec23ee24c47fe","condition":"full-information","relevant_dimensions":["antennae","wings"],"bee_group":{"antennae":"B","wings":"2","pattern":"X","legs":"X"},"action":"harvest","summary":"bad-harvest","bonus":0.08},{"rt":1190.5,"stimulus":"\n                    <p><b>Action: <em>harvest</em></b></p>\n                    <p>This is the bee that you just saw.</p>\n                    <img src=\"bees-with-color/bee-B2SM.svg\" width=\"200\">\n                    <p><span class=\"redText\">Bad choice, the bee was angry.</span><br><b>You have been stung!</b><br>Your pay has been decreased by $0.10. Your bonus pay is now $0.24.</p>\n            ","response":0,"trial_type":"html-button-response","trial_index":132,"time_elapsed":653948,"internal_node_id":"0.0-4.0-1.60","subject_id":"60f5917414ac7d222d22db64","study_id":"60edd13110225f80f9f3709b","session_id":"6196c705b8cec23ee24c47fe","condition":"full-information","relevant_dimensions":["antennae","wings"],"bee_group":{"antennae":"B","wings":"2","pattern":"X","legs":"X"},"bonus":0.08},{"rt":880.6000000014901,"stimulus":"bees-with-color/bee-A2SF.svg","response":0,"trial_type":"image-button-response","trial_index":133,"time_elapsed":654836,"internal_node_id":"0.0-4.0-0.61","subject_id":"60f5917414ac7d222d22db64","study_id":"60edd13110225f80f9f3709b","session_id":"6196c705b8cec23ee24c47fe","condition":"full-information","relevant_dimensions":["antennae","wings"],"bee_group":{"antennae":"B","wings":"2","pattern":"X","legs":"X"},"action":"harvest","summary":"good-harvest","bonus":0.08},{"rt":1415.8000000044703,"stimulus":"\n                    <p><b>Action: <em>harvest</em></b></p>\n                    <p>This is the bee that you just saw.</p>\n                    <img src=\"bees-with-color/bee-A2SF.svg\" width=\"200\">\n                    <p><span class=\"greenText\"><b>Successful harvest!</b></span><br>Your pay has increased by $0.02. Your bonus pay is now $0.26.</p>\n            ","response":0,"trial_type":"html-button-response","trial_index":134,"time_elapsed":656261,"internal_node_id":"0.0-4.0-1.61","subject_id":"60f5917414ac7d222d22db64","study_id":"60edd13110225f80f9f3709b","session_id":"6196c705b8cec23ee24c47fe","condition":"full-information","relevant_dimensions":["antennae","wings"],"bee_group":{"antennae":"B","wings":"2","pattern":"X","legs":"X"},"bonus":0.08},{"rt":836.8999999985099,"stimulus":"bees-with-color/bee-A1DM.svg","response":0,"trial_type":"image-button-response","trial_index":135,"time_elapsed":657104,"internal_node_id":"0.0-4.0-0.62","subject_id":"60f5917414ac7d222d22db64","study_id":"60edd13110225f80f9f3709b","session_id":"6196c705b8cec23ee24c47fe","condition":"full-information","relevant_dimensions":["antennae","wings"],"bee_group":{"antennae":"B","wings":"2","pattern":"X","legs":"X"},"action":"harvest","summary":"good-harvest","bonus":0.08},{"rt":875.2999999970198,"stimulus":"\n                    <p><b>Action: <em>harvest</em></b></p>\n                    <p>This is the bee that you just saw.</p>\n                    <img src=\"bees-with-color/bee-A1DM.svg\" width=\"200\">\n                    <p><span class=\"greenText\"><b>Successful harvest!</b></span><br>Your pay has increased by $0.02. Your bonus pay is now $0.28.</p>\n            ","response":0,"trial_type":"html-button-response","trial_index":136,"time_elapsed":657988,"internal_node_id":"0.0-4.0-1.62","subject_id":"60f5917414ac7d222d22db64","study_id":"60edd13110225f80f9f3709b","session_id":"6196c705b8cec23ee24c47fe","condition":"full-information","relevant_dimensions":["antennae","wings"],"bee_group":{"antennae":"B","wings":"2","pattern":"X","legs":"X"},"bonus":0.08},{"rt":1149.3999999985099,"stimulus":"bees-with-color/bee-A1SF.svg","response":0,"trial_type":"image-button-response","trial_index":137,"time_elapsed":659146,"internal_node_id":"0.0-4.0-0.63","subject_id":"60f5917414ac7d222d22db64","study_id":"60edd13110225f80f9f3709b","session_id":"6196c705b8cec23ee24c47fe","condition":"full-information","relevant_dimensions":["antennae","wings"],"bee_group":{"antennae":"B","wings":"2","pattern":"X","legs":"X"},"action":"harvest","summary":"good-harvest","bonus":0.08},{"rt":1209.1000000014901,"stimulus":"\n                    <p><b>Action: <em>harvest</em></b></p>\n                    <p>This is the bee that you just saw.</p>\n                    <img src=\"bees-with-color/bee-A1SF.svg\" width=\"200\">\n                    <p><span class=\"greenText\"><b>Successful harvest!</b></span><br>Your pay has increased by $0.02. Your bonus pay is now $0.30.</p>\n            ","response":0,"trial_type":"html-button-response","trial_index":138,"time_elapsed":660363,"internal_node_id":"0.0-4.0-1.63","subject_id":"60f5917414ac7d222d22db64","study_id":"60edd13110225f80f9f3709b","session_id":"6196c705b8cec23ee24c47fe","condition":"full-information","relevant_dimensions":["antennae","wings"],"bee_group":{"antennae":"B","wings":"2","pattern":"X","legs":"X"},"bonus":0.08},{"rt":1433.3999999985099,"stimulus":"You have completed the first part of this experiment.<br><br>You will now begin a shorter second part, in which you will receive no feedback.<br>The same rules regarding bonus pay apply.<br><br>Press any key to begin.","response":" ","trial_type":"html-keyboard-response","trial_index":139,"time_elapsed":661803,"internal_node_id":"0.0-5.0","subject_id":"60f5917414ac7d222d22db64","study_id":"60edd13110225f80f9f3709b","session_id":"6196c705b8cec23ee24c47fe","condition":"full-information","relevant_dimensions":["antennae","wings"],"bee_group":{"antennae":"B","wings":"2","pattern":"X","legs":"X"},"bonus":0.08},{"rt":6824.39999999851,"stimulus":"bees-with-color/bee-B2SM.svg","response":0,"trial_type":"image-button-response","trial_index":140,"time_elapsed":668673,"internal_node_id":"0.0-6.0-0.0","subject_id":"60f5917414ac7d222d22db64","study_id":"60edd13110225f80f9f3709b","session_id":"6196c705b8cec23ee24c47fe","condition":"full-information","relevant_dimensions":["antennae","wings"],"bee_group":{"antennae":"B","wings":"2","pattern":"X","legs":"X"},"bonus":0.08},{"rt":1565.4000000059605,"stimulus":"bees-with-color/bee-B1SM.svg","response":0,"trial_type":"image-button-response","trial_index":141,"time_elapsed":670246,"internal_node_id":"0.0-6.0-0.1","subject_id":"60f5917414ac7d222d22db64","study_id":"60edd13110225f80f9f3709b","session_id":"6196c705b8cec23ee24c47fe","condition":"full-information","relevant_dimensions":["antennae","wings"],"bee_group":{"antennae":"B","wings":"2","pattern":"X","legs":"X"},"bonus":0.08},{"rt":482.20000000298023,"stimulus":"bees-with-color/bee-B2DF.svg","response":0,"trial_type":"image-button-response","trial_index":142,"time_elapsed":670737,"internal_node_id":"0.0-6.0-0.2","subject_id":"60f5917414ac7d222d22db64","study_id":"60edd13110225f80f9f3709b","session_id":"6196c705b8cec23ee24c47fe","condition":"full-information","relevant_dimensions":["antennae","wings"],"bee_group":{"antennae":"B","wings":"2","pattern":"X","legs":"X"},"bonus":0.08},{"rt":828.1000000014901,"stimulus":"bees-with-color/bee-A2SF.svg","response":1,"trial_type":"image-button-response","trial_index":143,"time_elapsed":671573,"internal_node_id":"0.0-6.0-0.3","subject_id":"60f5917414ac7d222d22db64","study_id":"60edd13110225f80f9f3709b","session_id":"6196c705b8cec23ee24c47fe","condition":"full-information","relevant_dimensions":["antennae","wings"],"bee_group":{"antennae":"B","wings":"2","pattern":"X","legs":"X"},"bonus":0.08},{"rt":481,"stimulus":"bees-with-color/bee-A2DF.svg","response":1,"trial_type":"image-button-response","trial_index":144,"time_elapsed":672061,"internal_node_id":"0.0-6.0-0.4","subject_id":"60f5917414ac7d222d22db64","study_id":"60edd13110225f80f9f3709b","session_id":"6196c705b8cec23ee24c47fe","condition":"full-information","relevant_dimensions":["antennae","wings"],"bee_group":{"antennae":"B","wings":"2","pattern":"X","legs":"X"},"bonus":0.08},{"rt":901.5,"stimulus":"bees-with-color/bee-B1DF.svg","response":0,"trial_type":"image-button-response","trial_index":145,"time_elapsed":672970,"internal_node_id":"0.0-6.0-0.5","subject_id":"60f5917414ac7d222d22db64","study_id":"60edd13110225f80f9f3709b","session_id":"6196c705b8cec23ee24c47fe","condition":"full-information","relevant_dimensions":["antennae","wings"],"bee_group":{"antennae":"B","wings":"2","pattern":"X","legs":"X"},"bonus":0.08},{"rt":293.29999999701977,"stimulus":"bees-with-color/bee-A2DM.svg","response":0,"trial_type":"image-button-response","trial_index":146,"time_elapsed":673271,"internal_node_id":"0.0-6.0-0.6","subject_id":"60f5917414ac7d222d22db64","study_id":"60edd13110225f80f9f3709b","session_id":"6196c705b8cec23ee24c47fe","condition":"full-information","relevant_dimensions":["antennae","wings"],"bee_group":{"antennae":"B","wings":"2","pattern":"X","legs":"X"},"bonus":0.08},{"rt":282.90000000596046,"stimulus":"bees-with-color/bee-B1DM.svg","response":0,"trial_type":"image-button-response","trial_index":147,"time_elapsed":673561,"internal_node_id":"0.0-6.0-0.7","subject_id":"60f5917414ac7d222d22db64","study_id":"60edd13110225f80f9f3709b","session_id":"6196c705b8cec23ee24c47fe","condition":"full-information","relevant_dimensions":["antennae","wings"],"bee_group":{"antennae":"B","wings":"2","pattern":"X","legs":"X"},"bonus":0.08},{"rt":918.1999999955297,"stimulus":"bees-with-color/bee-B1SF.svg","response":1,"trial_type":"image-button-response","trial_index":148,"time_elapsed":674488,"internal_node_id":"0.0-6.0-0.8","subject_id":"60f5917414ac7d222d22db64","study_id":"60edd13110225f80f9f3709b","session_id":"6196c705b8cec23ee24c47fe","condition":"full-information","relevant_dimensions":["antennae","wings"],"bee_group":{"antennae":"B","wings":"2","pattern":"X","legs":"X"},"bonus":0.08},{"rt":1158.6000000014901,"stimulus":"bees-with-color/bee-A1SF.svg","response":0,"trial_type":"image-button-response","trial_index":149,"time_elapsed":675654,"internal_node_id":"0.0-6.0-0.9","subject_id":"60f5917414ac7d222d22db64","study_id":"60edd13110225f80f9f3709b","session_id":"6196c705b8cec23ee24c47fe","condition":"full-information","relevant_dimensions":["antennae","wings"],"bee_group":{"antennae":"B","wings":"2","pattern":"X","legs":"X"},"bonus":0.08},{"rt":219.29999999701977,"stimulus":"bees-with-color/bee-B2DM.svg","response":0,"trial_type":"image-button-response","trial_index":150,"time_elapsed":675881,"internal_node_id":"0.0-6.0-0.10","subject_id":"60f5917414ac7d222d22db64","study_id":"60edd13110225f80f9f3709b","session_id":"6196c705b8cec23ee24c47fe","condition":"full-information","relevant_dimensions":["antennae","wings"],"bee_group":{"antennae":"B","wings":"2","pattern":"X","legs":"X"},"bonus":0.08},{"rt":221.29999999701977,"stimulus":"bees-with-color/bee-A1DM.svg","response":0,"trial_type":"image-button-response","trial_index":151,"time_elapsed":676110,"internal_node_id":"0.0-6.0-0.11","subject_id":"60f5917414ac7d222d22db64","study_id":"60edd13110225f80f9f3709b","session_id":"6196c705b8cec23ee24c47fe","condition":"full-information","relevant_dimensions":["antennae","wings"],"bee_group":{"antennae":"B","wings":"2","pattern":"X","legs":"X"},"bonus":0.08},{"rt":1329.2000000029802,"stimulus":"bees-with-color/bee-B2SF.svg","response":1,"trial_type":"image-button-response","trial_index":152,"time_elapsed":677449,"internal_node_id":"0.0-6.0-0.12","subject_id":"60f5917414ac7d222d22db64","study_id":"60edd13110225f80f9f3709b","session_id":"6196c705b8cec23ee24c47fe","condition":"full-information","relevant_dimensions":["antennae","wings"],"bee_group":{"antennae":"B","wings":"2","pattern":"X","legs":"X"},"bonus":0.08},{"rt":751,"stimulus":"bees-with-color/bee-A1DF.svg","response":0,"trial_type":"image-button-response","trial_index":153,"time_elapsed":678209,"internal_node_id":"0.0-6.0-0.13","subject_id":"60f5917414ac7d222d22db64","study_id":"60edd13110225f80f9f3709b","session_id":"6196c705b8cec23ee24c47fe","condition":"full-information","relevant_dimensions":["antennae","wings"],"bee_group":{"antennae":"B","wings":"2","pattern":"X","legs":"X"},"bonus":0.08},{"rt":198,"stimulus":"bees-with-color/bee-A2SM.svg","response":0,"trial_type":"image-button-response","trial_index":154,"time_elapsed":678416,"internal_node_id":"0.0-6.0-0.14","subject_id":"60f5917414ac7d222d22db64","study_id":"60edd13110225f80f9f3709b","session_id":"6196c705b8cec23ee24c47fe","condition":"full-information","relevant_dimensions":["antennae","wings"],"bee_group":{"antennae":"B","wings":"2","pattern":"X","legs":"X"},"bonus":0.08},{"rt":199.20000000298023,"stimulus":"bees-with-color/bee-A1SM.svg","response":0,"trial_type":"image-button-response","trial_index":155,"time_elapsed":678624,"internal_node_id":"0.0-6.0-0.15","subject_id":"60f5917414ac7d222d22db64","study_id":"60edd13110225f80f9f3709b","session_id":"6196c705b8cec23ee24c47fe","condition":"full-information","relevant_dimensions":["antennae","wings"],"bee_group":{"antennae":"B","wings":"2","pattern":"X","legs":"X"},"bonus":0.08},{"rt":1590.3999999985099,"stimulus":"bees-with-color/bee-B2DM.svg","response":0,"trial_type":"image-button-response","trial_index":156,"time_elapsed":680220,"internal_node_id":"0.0-6.0-0.16","subject_id":"60f5917414ac7d222d22db64","study_id":"60edd13110225f80f9f3709b","session_id":"6196c705b8cec23ee24c47fe","condition":"full-information","relevant_dimensions":["antennae","wings"],"bee_group":{"antennae":"B","wings":"2","pattern":"X","legs":"X"},"bonus":0.08},{"rt":986,"stimulus":"bees-with-color/bee-A1DF.svg","response":1,"trial_type":"image-button-response","trial_index":157,"time_elapsed":681214,"internal_node_id":"0.0-6.0-0.17","subject_id":"60f5917414ac7d222d22db64","study_id":"60edd13110225f80f9f3709b","session_id":"6196c705b8cec23ee24c47fe","condition":"full-information","relevant_dimensions":["antennae","wings"],"bee_group":{"antennae":"B","wings":"2","pattern":"X","legs":"X"},"bonus":0.08},{"rt":875.5999999940395,"stimulus":"bees-with-color/bee-A1SM.svg","response":0,"trial_type":"image-button-response","trial_index":158,"time_elapsed":682096,"internal_node_id":"0.0-6.0-0.18","subject_id":"60f5917414ac7d222d22db64","study_id":"60edd13110225f80f9f3709b","session_id":"6196c705b8cec23ee24c47fe","condition":"full-information","relevant_dimensions":["antennae","wings"],"bee_group":{"antennae":"B","wings":"2","pattern":"X","legs":"X"},"bonus":0.08},{"rt":180.29999999701977,"stimulus":"bees-with-color/bee-B1DF.svg","response":0,"trial_type":"image-button-response","trial_index":159,"time_elapsed":682285,"internal_node_id":"0.0-6.0-0.19","subject_id":"60f5917414ac7d222d22db64","study_id":"