[{"success":true,"trial_type":"fullscreen","trial_index":0,"time_elapsed":2364,"internal_node_id":"0.0-0.0","subject_id":"60395bb3bfc7963f1219fdba","study_id":"6197b3f67c2b5cd3b6d9596a","session_id":"619bef068c2b4237f051b045","condition":"contingent","relevant_dimensions":["wings","legs"],"bee_group":{"antennae":"X","wings":"1","pattern":"X","legs":"M"},"bonus":0.5800000000000003},{"success":true,"timeout":false,"failed_images":[],"failed_audio":[],"failed_video":[],"trial_type":"preload","trial_index":1,"time_elapsed":2404,"internal_node_id":"0.0-1.0","subject_id":"60395bb3bfc7963f1219fdba","study_id":"6197b3f67c2b5cd3b6d9596a","session_id":"619bef068c2b4237f051b045","condition":"contingent","relevant_dimensions":["wings","legs"],"bee_group":{"antennae":"X","wings":"1","pattern":"X","legs":"M"},"bonus":0.5800000000000003},{"rt":1629.1000000238419,"stimulus":"Welcome! Press any key to begin.","response":" ","trial_type":"html-keyboard-response","trial_index":2,"time_elapsed":4034,"internal_node_id":"0.0-2.0","subject_id":"60395bb3bfc7963f1219fdba","study_id":"6197b3f67c2b5cd3b6d9596a","session_id":"619bef068c2b4237f051b045","condition":"contingent","relevant_dimensions":["wings","legs"],"bee_group":{"antennae":"X","wings":"1","pattern":"X","legs":"M"},"bonus":0.5800000000000003},{"view_history":[{"page_index":0,"viewing_time":1810.7999999523163},{"page_index":1,"viewing_time":2264.399999976158},{"page_index":2,"viewing_time":3126},{"page_index":3,"viewing_time":1118.8999999761581},{"page_index":4,"viewing_time":5957.300000071526},{"page_index":5,"viewing_time":1058.7999999523163},{"page_index":6,"viewing_time":959.3000000715256},{"page_index":7,"viewing_time":1672.5999999046326},{"page_index":8,"viewing_time":1135.1000000238419},{"page_index":9,"viewing_time":824.2000000476837},{"page_index":10,"viewing_time":683.7999999523163},{"page_index":11,"viewing_time":1183.2000000476837},{"page_index":12,"viewing_time":2901.600000023842},{"page_index":13,"viewing_time":990.0999999046326},{"page_index":14,"viewing_time":867}],"rt":26553.399999976158,"trial_type":"instructions","trial_index":3,"time_elapsed":30588,"internal_node_id":"0.0-3.0-0.0","subject_id":"60395bb3bfc7963f1219fdba","study_id":"6197b3f67c2b5cd3b6d9596a","session_id":"619bef068c2b4237f051b045","condition":"contingent","relevant_dimensions":["wings","legs"],"bee_group":{"antennae":"X","wings":"1","pattern":"X","legs":"M"},"bonus":0.5800000000000003},{"rt":8707.699999928474,"response":{"Q0":["Two or six legs","Stripes or spots on body","Single or double wings","Antennae or no antennae"]},"question_order":[0],"trial_type":"survey-multi-select","trial_index":4,"time_elapsed":39300,"internal_node_id":"0.0-3.0-1.0","subject_id":"60395bb3bfc7963f1219fdba","study_id":"6197b3f67c2b5cd3b6d9596a","session_id":"619bef068c2b4237f051b045","condition":"contingent","relevant_dimensions":["wings","legs"],"bee_group":{"antennae":"X","wings":"1","pattern":"X","legs":"M"},"correct":true,"bonus":0.5800000000000003},{"rt":14505,"response":{"Q1":"No.","Q2":"Based on the four features of the bee.","Q3":"You do not learn if it was friendly or dangerous, and do not alter your bonus."},"question_order":[0,1,2],"trial_type":"survey-multi-choice","trial_index":5,"time_elapsed":53807,"internal_node_id":"0.0-3.0-2.0","subject_id":"60395bb3bfc7963f1219fdba","study_id":"6197b3f67c2b5cd3b6d9596a","session_id":"619bef068c2b4237f051b045","condition":"contingent","relevant_dimensions":["wings","legs"],"bee_group":{"antennae":"X","wings":"1","pattern":"X","legs":"M"},"correct":true,"bonus":0.5800000000000003},{"rt":1837,"stimulus":"<p>Congrats, you got everything right<br>When you're ready, click the button below to continue to the experiment.</p>","response":0,"trial_type":"html-button-response","trial_index":6,"time_elapsed":55646,"internal_node_id":"0.0-3.0-3.0","subject_id":"60395bb3bfc7963f1219fdba","study_id":"6197b3f67c2b5cd3b6d9596a","session_id":"619bef068c2b4237f051b045","condition":"contingent","relevant_dimensions":["wings","legs"],"bee_group":{"antennae":"X","wings":"1","pattern":"X","legs":"M"},"bonus":0.5800000000000003},{"rt":4496.899999976158,"stimulus":"bees-with-color/bee-B2DM.svg","response":0,"trial_type":"image-button-response","trial_index":7,"time_elapsed":60145,"internal_node_id":"0.0-4.0-0.0","subject_id":"60395bb3bfc7963f1219fdba","study_id":"6197b3f67c2b5cd3b6d9596a","session_id":"619bef068c2b4237f051b045","condition":"contingent","relevant_dimensions":["wings","legs"],"bee_group":{"antennae":"X","wings":"1","pattern":"X","legs":"M"},"action":"harvest","summary":"good-harvest","bonus":0.5800000000000003},{"rt":14791.799999952316,"stimulus":"\n                    <p><b>Action: <em>harvest</em></b></p>\n                    <p>This is the bee that you just saw.</p>\n                    <img src=\"bees-with-color/bee-B2DM.svg\" width=\"200\">\n                    <p><span class=\"greenText\"><b>Successful harvest!</b></span><br>Your pay has increased by $0.02. Your bonus pay is now $0.56.</p>\n            ","response":0,"trial_type":"html-button-response","trial_index":8,"time_elapsed":74939,"internal_node_id":"0.0-4.0-1.0","subject_id":"60395bb3bfc7963f1219fdba","study_id":"6197b3f67c2b5cd3b6d9596a","session_id":"619bef068c2b4237f051b045","condition":"contingent","relevant_dimensions":["wings","legs"],"bee_group":{"antennae":"X","wings":"1","pattern":"X","legs":"M"},"bonus":0.5800000000000003},{"rt":1405.1000000238419,"stimulus":"bees-with-color/bee-A1SF.svg","response":0,"trial_type":"image-button-response","trial_index":9,"time_elapsed":76348,"internal_node_id":"0.0-4.0-0.1","subject_id":"60395bb3bfc7963f1219fdba","study_id":"6197b3f67c2b5cd3b6d9596a","session_id":"619bef068c2b4237f051b045","condition":"contingent","relevant_dimensions":["wings","legs"],"bee_group":{"antennae":"X","wings":"1","pattern":"X","legs":"M"},"action":"harvest","summary":"good-harvest","bonus":0.5800000000000003},{"rt":8398.299999952316,"stimulus":"\n                    <p><b>Action: <em>harvest</em></b></p>\n                    <p>This is the bee that you just saw.</p>\n                    <img src=\"bees-with-color/bee-A1SF.svg\" width=\"200\">\n                    <p><span class=\"greenText\"><b>Successful harvest!</b></span><br>Your pay has increased by $0.02. Your bonus pay is now $0.58.</p>\n            ","response":0,"trial_type":"html-button-response","trial_index":10,"time_elapsed":84748,"internal_node_id":"0.0-4.0-1.1","subject_id":"60395bb3bfc7963f1219fdba","study_id":"6197b3f67c2b5cd3b6d9596a","session_id":"619bef068c2b4237f051b045","condition":"contingent","relevant_dimensions":["wings","legs"],"bee_group":{"antennae":"X","wings":"1","pattern":"X","legs":"M"},"bonus":0.5800000000000003},{"rt":17142.400000095367,"stimulus":"bees-with-color/bee-A2DF.svg","response":1,"trial_type":"image-button-response","trial_index":11,"time_elapsed":101892,"internal_node_id":"0.0-4.0-0.2","subject_id":"60395bb3bfc7963f1219fdba","study_id":"6197b3f67c2b5cd3b6d9596a","session_id":"619bef068c2b4237f051b045","condition":"contingent","relevant_dimensions":["wings","legs"],"bee_group":{"antennae":"X","wings":"1","pattern":"X","legs":"M"},"action":"avoid","summary":"bad-avoid","bonus":0.5800000000000003},{"rt":1297,"stimulus":"\n                    <p><b>Action: <em>avoid</em></b></p>\n                    <p>This is the bee that you just saw.</p>\n                    <img src=\"bees-with-color/bee-A2DF.svg\" width=\"200\">\n                    <p><br>Your bonus pay is unchanged, and remains at $0.58.</p>\n            ","response":0,"trial_type":"html-button-response","trial_index":12,"time_elapsed":103190,"internal_node_id":"0.0-4.0-1.2","subject_id":"60395bb3bfc7963f1219fdba","study_id":"6197b3f67c2b5cd3b6d9596a","session_id":"619bef068c2b4237f051b045","condition":"contingent","relevant_dimensions":["wings","legs"],"bee_group":{"antennae":"X","wings":"1","pattern":"X","legs":"M"},"bonus":0.5800000000000003},{"rt":1654.5,"stimulus":"bees-with-color/bee-A1DM.svg","response":0,"trial_type":"image-button-response","trial_index":13,"time_elapsed":104846,"internal_node_id":"0.0-4.0-0.3","subject_id":"60395bb3bfc7963f1219fdba","study_id":"6197b3f67c2b5cd3b6d9596a","session_id":"619bef068c2b4237f051b045","condition":"contingent","relevant_dimensions":["wings","legs"],"bee_group":{"antennae":"X","wings":"1","pattern":"X","legs":"M"},"action":"harvest","summary":"bad-harvest","bonus":0.5800000000000003},{"rt":4671,"stimulus":"\n                    <p><b>Action: <em>harvest</em></b></p>\n                    <p>This is the bee that you just saw.</p>\n                    <img src=\"bees-with-color/bee-A1DM.svg\" width=\"200\">\n                    <p><span class=\"redText\">Bad choice, the bee was angry.</span><br><b>You have been stung!</b><br>Your pay has been decreased by $0.10. Your bonus pay is now $0.48.</p>\n            ","response":0,"trial_type":"html-button-response","trial_index":14,"time_elapsed":109519,"internal_node_id":"0.0-4.0-1.3","subject_id":"60395bb3bfc7963f1219fdba","study_id":"6197b3f67c2b5cd3b6d9596a","session_id":"619bef068c2b4237f051b045","condition":"contingent","relevant_dimensions":["wings","legs"],"bee_group":{"antennae":"X","wings":"1","pattern":"X","legs":"M"},"bonus":0.5800000000000003},{"rt":1182.3999999761581,"stimulus":"bees-with-color/bee-B1SM.svg","response":0,"trial_type":"image-button-response","trial_index":15,"time_elapsed":110703,"internal_node_id":"0.0-4.0-0.4","subject_id":"60395bb3bfc7963f1219fdba","study_id":"6197b3f67c2b5cd3b6d9596a","session_id":"619bef068c2b4237f051b045","condition":"contingent","relevant_dimensions":["wings","legs"],"bee_group":{"antennae":"X","wings":"1","pattern":"X","legs":"M"},"action":"harvest","summary":"bad-harvest","bonus":0.5800000000000003},{"rt":651.5,"stimulus":"\n                    <p><b>Action: <em>harvest</em></b></p>\n                    <p>This is the bee that you just saw.</p>\n                    <img src=\"bees-with-color/bee-B1SM.svg\" width=\"200\">\n                    <p><span class=\"redText\">Bad choice, the bee was angry.</span><br><b>You have been stung!</b><br>Your pay has been decreased by $0.10. Your bonus pay is now $0.38.</p>\n            ","response":0,"trial_type":"html-button-response","trial_index":16,"time_elapsed":111356,"internal_node_id":"0.0-4.0-1.4","subject_id":"60395bb3bfc7963f1219fdba","study_id":"6197b3f67c2b5cd3b6d9596a","session_id":"619bef068c2b4237f051b045","condition":"contingent","relevant_dimensions":["wings","legs"],"bee_group":{"antennae":"X","wings":"1","pattern":"X","legs":"M"},"bonus":0.5800000000000003},{"rt":1778.6999999284744,"stimulus":"bees-with-color/bee-B2SF.svg","response":0,"trial_type":"image-button-response","trial_index":17,"time_elapsed":113136,"internal_node_id":"0.0-4.0-0.5","subject_id":"60395bb3bfc7963f1219fdba","study_id":"6197b3f67c2b5cd3b6d9596a","session_id":"619bef068c2b4237f051b045","condition":"contingent","relevant_dimensions":["wings","legs"],"bee_group":{"antennae":"X","wings":"1","pattern":"X","legs":"M"},"action":"harvest","summary":"good-harvest","bonus":0.5800000000000003},{"rt":1170.6000000238419,"stimulus":"\n                    <p><b>Action: <em>harvest</em></b></p>\n                    <p>This is the bee that you just saw.</p>\n                    <img src=\"bees-with-color/bee-B2SF.svg\" width=\"200\">\n                    <p><span class=\"greenText\"><b>Successful harvest!</b></span><br>Your pay has increased by $0.02. Your bonus pay is now $0.40.</p>\n            ","response":0,"trial_type":"html-button-response","trial_index":18,"time_elapsed":114308,"internal_node_id":"0.0-4.0-1.5","subject_id":"60395bb3bfc7963f1219fdba","study_id":"6197b3f67c2b5cd3b6d9596a","session_id":"619bef068c2b4237f051b045","condition":"contingent","relevant_dimensions":["wings","legs"],"bee_group":{"antennae":"X","wings":"1","pattern":"X","legs":"M"},"bonus":0.5800000000000003},{"rt":1120.2000000476837,"stimulus":"bees-with-color/bee-B1SF.svg","response":1,"trial_type":"image-button-response","trial_index":19,"time_elapsed":115430,"internal_node_id":"0.0-4.0-0.6","subject_id":"60395bb3bfc7963f1219fdba","study_id":"6197b3f67c2b5cd3b6d9596a","session_id":"619bef068c2b4237f051b045","condition":"contingent","relevant_dimensions":["wings","legs"],"bee_group":{"antennae":"X","wings":"1","pattern":"X","legs":"M"},"action":"avoid","summary":"bad-avoid","bonus":0.5800000000000003},{"rt":831.8999999761581,"stimulus":"\n                    <p><b>Action: <em>avoid</em></b></p>\n                    <p>This is the bee that you just saw.</p>\n                    <img src=\"bees-with-color/bee-B1SF.svg\" width=\"200\">\n                    <p><br>Your bonus pay is unchanged, and remains at $0.40.</p>\n            ","response":0,"trial_type":"html-button-response","trial_index":20,"time_elapsed":116263,"internal_node_id":"0.0-4.0-1.6","subject_id":"60395bb3bfc7963f1219fdba","study_id":"6197b3f67c2b5cd3b6d9596a","session_id":"619bef068c2b4237f051b045","condition":"contingent","relevant_dimensions":["wings","legs"],"bee_group":{"antennae":"X","wings":"1","pattern":"X","legs":"M"},"bonus":0.5800000000000003},{"rt":1641,"stimulus":"bees-with-color/bee-A1DF.svg","response":1,"trial_type":"image-button-response","trial_index":21,"time_elapsed":117906,"internal_node_id":"0.0-4.0-0.7","subject_id":"60395bb3bfc7963f1219fdba","study_id":"6197b3f67c2b5cd3b6d9596a","session_id":"619bef068c2b4237f051b045","condition":"contingent","relevant_dimensions":["wings","legs"],"bee_group":{"antennae":"X","wings":"1","pattern":"X","legs":"M"},"action":"avoid","summary":"bad-avoid","bonus":0.5800000000000003},{"rt":496.89999997615814,"stimulus":"\n                    <p><b>Action: <em>avoid</em></b></p>\n                    <p>This is the bee that you just saw.</p>\n                    <img src=\"bees-with-color/bee-A1DF.svg\" width=\"200\">\n                    <p><br>Your bonus pay is unchanged, and remains at $0.40.</p>\n            ","response":0,"trial_type":"html-button-response","trial_index":22,"time_elapsed":118404,"internal_node_id":"0.0-4.0-1.7","subject_id":"60395bb3bfc7963f1219fdba","study_id":"6197b3f67c2b5cd3b6d9596a","session_id":"619bef068c2b4237f051b045","condition":"contingent","relevant_dimensions":["wings","legs"],"bee_group":{"antennae":"X","wings":"1","pattern":"X","legs":"M"},"bonus":0.5800000000000003},{"rt":1548.3999999761581,"stimulus":"bees-with-color/bee-B1DM.svg","response":0,"trial_type":"image-button-response","trial_index":23,"time_elapsed":119953,"internal_node_id":"0.0-4.0-0.8","subject_id":"60395bb3bfc7963f1219fdba","study_id":"6197b3f67c2b5cd3b6d9596a","session_id":"619bef068c2b4237f051b045","condition":"contingent","relevant_dimensions":["wings","legs"],"bee_group":{"antennae":"X","wings":"1","pattern":"X","legs":"M"},"action":"harvest","summary":"bad-harvest","bonus":0.5800000000000003},{"rt":561.5,"stimulus":"\n                    <p><b>Action: <em>harvest</em></b></p>\n                    <p>This is the bee that you just saw.</p>\n                    <img src=\"bees-with-color/bee-B1DM.svg\" width=\"200\">\n                    <p><span class=\"redText\">Bad choice, the bee was angry.</span><br><b>You have been stung!</b><br>Your pay has been decreased by $0.10. Your bonus pay is now $0.30.</p>\n            ","response":0,"trial_type":"html-button-response","trial_index":24,"time_elapsed":120517,"internal_node_id":"0.0-4.0-1.8","subject_id":"60395bb3bfc7963f1219fdba","study_id":"6197b3f67c2b5cd3b6d9596a","session_id":"619bef068c2b4237f051b045","condition":"contingent","relevant_dimensions":["wings","legs"],"bee_group":{"antennae":"X","wings":"1","pattern":"X","legs":"M"},"bonus":0.5800000000000003},{"rt":923.4000000953674,"stimulus":"bees-with-color/bee-B2DF.svg","response":0,"trial_type":"image-button-response","trial_index":25,"time_elapsed":121441,"internal_node_id":"0.0-4.0-0.9","subject_id":"60395bb3bfc7963f1219fdba","study_id":"6197b3f67c2b5cd3b6d9596a","session_id":"619bef068c2b4237f051b045","condition":"contingent","relevant_dimensions":["wings","legs"],"bee_group":{"antennae":"X","wings":"1","pattern":"X","legs":"M"},"action":"harvest","summary":"good-harvest","bonus":0.5800000000000003},{"rt":534,"stimulus":"\n                    <p><b>Action: <em>harvest</em></b></p>\n                    <p>This is the bee that you just saw.</p>\n                    <img src=\"bees-with-color/bee-B2DF.svg\" width=\"200\">\n                    <p><span class=\"greenText\"><b>Successful harvest!</b></span><br>Your pay has increased by $0.02. Your bonus pay is now $0.32.</p>\n            ","response":0,"trial_type":"html-button-response","trial_index":26,"time_elapsed":121976,"internal_node_id":"0.0-4.0-1.9","subject_id":"60395bb3bfc7963f1219fdba","study_id":"6197b3f67c2b5cd3b6d9596a","session_id":"619bef068c2b4237f051b045","condition":"contingent","relevant_dimensions":["wings","legs"],"bee_group":{"antennae":"X","wings":"1","pattern":"X","legs":"M"},"bonus":0.5800000000000003},{"rt":1178,"stimulus":"bees-with-color/bee-A1SM.svg","response":0,"trial_type":"image-button-response","trial_index":27,"time_elapsed":123156,"internal_node_id":"0.0-4.0-0.10","subject_id":"60395bb3bfc7963f1219fdba","study_id":"6197b3f67c2b5cd3b6d9596a","session_id":"619bef068c2b4237f051b045","condition":"contingent","relevant_dimensions":["wings","legs"],"bee_group":{"antennae":"X","wings":"1","pattern":"X","legs":"M"},"action":"harvest","summary":"bad-harvest","bonus":0.5800000000000003},{"rt":512.2999999523163,"stimulus":"\n                    <p><b>Action: <em>harvest</em></b></p>\n                    <p>This is the bee that you just saw.</p>\n                    <img src=\"bees-with-color/bee-A1SM.svg\" width=\"200\">\n                    <p><span class=\"redText\">Bad choice, the bee was angry.</span><br><b>You have been stung!</b><br>Your pay has been decreased by $0.10. Your bonus pay is now $0.22.</p>\n            ","response":0,"trial_type":"html-button-response","trial_index":28,"time_elapsed":123669,"internal_node_id":"0.0-4.0-1.10","subject_id":"60395bb3bfc7963f1219fdba","study_id":"6197b3f67c2b5cd3b6d9596a","session_id":"619bef068c2b4237f051b045","condition":"contingent","relevant_dimensions":["wings","legs"],"bee_group":{"antennae":"X","wings":"1","pattern":"X","legs":"M"},"bonus":0.5800000000000003},{"rt":1156.6000000238419,"stimulus":"bees-with-color/bee-B2SM.svg","response":1,"trial_type":"image-button-response","trial_index":29,"time_elapsed":124827,"internal_node_id":"0.0-4.0-0.11","subject_id":"60395bb3bfc7963f1219fdba","study_id":"6197b3f67c2b5cd3b6d9596a","session_id":"619bef068c2b4237f051b045","condition":"contingent","relevant_dimensions":["wings","legs"],"bee_group":{"antennae":"X","wings":"1","pattern":"X","legs":"M"},"action":"avoid","summary":"bad-avoid","bonus":0.5800000000000003},{"rt":605.5,"stimulus":"\n                    <p><b>Action: <em>avoid</em></b></p>\n                    <p>This is the bee that you just saw.</p>\n                    <img src=\"bees-with-color/bee-B2SM.svg\" width=\"200\">\n                    <p><br>Your bonus pay is unchanged, and remains at $0.22.</p>\n            ","response":0,"trial_type":"html-button-response","trial_index":30,"time_elapsed":125434,"internal_node_id":"0.0-4.0-1.11","subject_id":"60395bb3bfc7963f1219fdba","study_id":"6197b3f67c2b5cd3b6d9596a","session_id":"619bef068c2b4237f051b045","condition":"contingent","relevant_dimensions":["wings","legs"],"bee_group":{"antennae":"X","wings":"1","pattern":"X","legs":"M"},"bonus":0.5800000000000003},{"rt":1140.7999999523163,"stimulus":"bees-with-color/bee-A2SF.svg","response":0,"trial_type":"image-button-response","trial_index":31,"time_elapsed":126576,"internal_node_id":"0.0-4.0-0.12","subject_id":"60395bb3bfc7963f1219fdba","study_id":"6197b3f67c2b5cd3b6d9596a","session_id":"619bef068c2b4237f051b045","condition":"contingent","relevant_dimensions":["wings","legs"],"bee_group":{"antennae":"X","wings":"1","pattern":"X","legs":"M"},"action":"harvest","summary":"good-harvest","bonus":0.5800000000000003},{"rt":578.8999999761581,"stimulus":"\n                    <p><b>Action: <em>harvest</em></b></p>\n                    <p>This is the bee that you just saw.</p>\n                    <img src=\"bees-with-color/bee-A2SF.svg\" width=\"200\">\n                    <p><span class=\"greenText\"><b>Successful harvest!</b></span><br>Your pay has increased by $0.02. Your bonus pay is now $0.24.</p>\n            ","response":0,"trial_type":"html-button-response","trial_index":32,"time_elapsed":127156,"internal_node_id":"0.0-4.0-1.12","subject_id":"60395bb3bfc7963f1219fdba","study_id":"6197b3f67c2b5cd3b6d9596a","session_id":"619bef068c2b4237f051b045","condition":"contingent","relevant_dimensions":["wings","legs"],"bee_group":{"antennae":"X","wings":"1","pattern":"X","legs":"M"},"bonus":0.5800000000000003},{"rt":1202.6000000238419,"stimulus":"bees-with-color/bee-A2DM.svg","response":1,"trial_type":"image-button-response","trial_index":33,"time_elapsed":128360,"internal_node_id":"0.0-4.0-0.13","subject_id":"60395bb3bfc7963f1219fdba","study_id":"6197b3f67c2b5cd3b6d9596a","session_id":"619bef068c2b4237f051b045","condition":"contingent","relevant_dimensions":["wings","legs"],"bee_group":{"antennae":"X","wings":"1","pattern":"X","legs":"M"},"action":"avoid","summary":"bad-avoid","bonus":0.5800000000000003},{"rt":583.8000000715256,"stimulus":"\n                    <p><b>Action: <em>avoid</em></b></p>\n                    <p>This is the bee that you just saw.</p>\n                    <img src=\"bees-with-color/bee-A2DM.svg\" width=\"200\">\n                    <p><br>Your bonus pay is unchanged, and remains at $0.24.</p>\n            ","response":0,"trial_type":"html-button-response","trial_index":34,"time_elapsed":128945,"internal_node_id":"0.0-4.0-1.13","subject_id":"60395bb3bfc7963f1219fdba","study_id":"6197b3f67c2b5cd3b6d9596a","session_id":"619bef068c2b4237f051b045","condition":"contingent","relevant_dimensions":["wings","legs"],"bee_group":{"antennae":"X","wings":"1","pattern":"X","legs":"M"},"bonus":0.5800000000000003},{"rt":696,"stimulus":"bees-with-color/bee-A2SM.svg","response":0,"trial_type":"image-button-response","trial_index":35,"time_elapsed":129642,"internal_node_id":"0.0-4.0-0.14","subject_id":"60395bb3bfc7963f1219fdba","study_id":"6197b3f67c2b5cd3b6d9596a","session_id":"619bef068c2b4237f051b045","condition":"contingent","relevant_dimensions":["wings","legs"],"bee_group":{"antennae":"X","wings":"1","pattern":"X","legs":"M"},"action":"harvest","summary":"good-harvest","bonus":0.5800000000000003},{"rt":549.5999999046326,"stimulus":"\n                    <p><b>Action: <em>harvest</em></b></p>\n                    <p>This is the bee that you just saw.</p>\n                    <img src=\"bees-with-color/bee-A2SM.svg\" width=\"200\">\n                    <p><span class=\"greenText\"><b>Successful harvest!</b></span><br>Your pay has increased by $0.02. Your bonus pay is now $0.26.</p>\n            ","response":0,"trial_type":"html-button-response","trial_index":36,"time_elapsed":130193,"internal_node_id":"0.0-4.0-1.14","subject_id":"60395bb3bfc7963f1219fdba","study_id":"6197b3f67c2b5cd3b6d9596a","session_id":"619bef068c2b4237f051b045","condition":"contingent","relevant_dimensions":["wings","legs"],"bee_group":{"antennae":"X","wings":"1","pattern":"X","legs":"M"},"bonus":0.5800000000000003},{"rt":932.7999999523163,"stimulus":"bees-with-color/bee-B1DF.svg","response":1,"trial_type":"image-button-response","trial_index":37,"time_elapsed":131127,"internal_node_id":"0.0-4.0-0.15","subject_id":"60395bb3bfc7963f1219fdba","study_id":"6197b3f67c2b5cd3b6d9596a","session_id":"619bef068c2b4237f051b045","condition":"contingent","relevant_dimensions":["wings","legs"],"bee_group":{"antennae":"X","wings":"1","pattern":"X","legs":"M"},"action":"avoid","summary":"bad-avoid","bonus":0.5800000000000003},{"rt":611.7999999523163,"stimulus":"\n                    <p><b>Action: <em>avoid</em></b></p>\n                    <p>This is the bee that you just saw.</p>\n                    <img src=\"bees-with-color/bee-B1DF.svg\" width=\"200\">\n                    <p><br>Your bonus pay is unchanged, and remains at $0.26.</p>\n            ","response":0,"trial_type":"html-button-response","trial_index":38,"time_elapsed":131740,"internal_node_id":"0.0-4.0-1.15","subject_id":"60395bb3bfc7963f1219fdba","study_id":"6197b3f67c2b5cd3b6d9596a","session_id":"619bef068c2b4237f051b045","condition":"contingent","relevant_dimensions":["wings","legs"],"bee_group":{"antennae":"X","wings":"1","pattern":"X","legs":"M"},"bonus":0.5800000000000003},{"rt":631.9000000953674,"stimulus":"bees-with-color/bee-A1SF.svg","response":0,"trial_type":"image-button-response","trial_index":39,"time_elapsed":132373,"internal_node_id":"0.0-4.0-0.16","subject_id":"60395bb3bfc7963f1219fdba","study_id":"6197b3f67c2b5cd3b6d9596a","session_id":"619bef068c2b4237f051b045","condition":"contingent","relevant_dimensions":["wings","legs"],"bee_group":{"antennae":"X","wings":"1","pattern":"X","legs":"M"},"action":"harvest","summary":"good-harvest","bonus":0.5800000000000003},{"rt":593.8999999761581,"stimulus":"\n                    <p><b>Action: <em>harvest</em></b></p>\n                    <p>This is the bee that you just saw.</p>\n                    <img src=\"bees-with-color/bee-A1SF.svg\" width=\"200\">\n                    <p><span class=\"greenText\"><b>Successful harvest!</b></span><br>Your pay has increased by $0.02. Your bonus pay is now $0.28.</p>\n            ","response":0,"trial_type":"html-button-response","trial_index":40,"time_elapsed":132968,"internal_node_id":"0.0-4.0-1.16","subject_id":"60395bb3bfc7963f1219fdba","study_id":"6197b3f67c2b5cd3b6d9596a","session_id":"619bef068c2b4237f051b045","condition":"contingent","relevant_dimensions":["wings","legs"],"bee_group":{"antennae":"X","wings":"1","pattern":"X","legs":"M"},"bonus":0.5800000000000003},{"rt":741.6999999284744,"stimulus":"bees-with-color/bee-B1SM.svg","response":0,"trial_type":"image-button-response","trial_index":41,"time_elapsed":133711,"internal_node_id":"0.0-4.0-0.17","subject_id":"60395bb3bfc7963f1219fdba","study_id":"6197b3f67c2b5cd3b6d9596a","session_id":"619bef068c2b4237f051b045","condition":"contingent","relevant_dimensions":["wings","legs"],"bee_group":{"antennae":"X","wings":"1","pattern":"X","legs":"M"},"action":"harvest","summary":"bad-harvest","bonus":0.5800000000000003},{"rt":521.8999999761581,"stimulus":"\n                    <p><b>Action: <em>harvest</em></b></p>\n                    <p>This is the bee that you just saw.</p>\n                    <img src=\"bees-with-color/bee-B1SM.svg\" width=\"200\">\n                    <p><span class=\"redText\">Bad choice, the bee was angry.</span><br><b>You have been stung!</b><br>Your pay has been decreased by $0.10. Your bonus pay is now $0.18.</p>\n            ","response":0,"trial_type":"html-button-response","trial_index":42,"time_elapsed":134234,"internal_node_id":"0.0-4.0-1.17","subject_id":"60395bb3bfc7963f1219fdba","study_id":"6197b3f67c2b5cd3b6d9596a","session_id":"619bef068c2b4237f051b045","condition":"contingent","relevant_dimensions":["wings","legs"],"bee_group":{"antennae":"X","wings":"1","pattern":"X","legs":"M"},"bonus":0.5800000000000003},{"rt":665.1000000238419,"stimulus":"bees-with-color/bee-A2SM.svg","response":0,"trial_type":"image-button-response","trial_index":43,"time_elapsed":134901,"internal_node_id":"0.0-4.0-0.18","subject_id":"60395bb3bfc7963f1219fdba","study_id":"6197b3f67c2b5cd3b6d9596a","session_id":"619bef068c2b4237f051b045","condition":"contingent","relevant_dimensions":["wings","legs"],"bee_group":{"antennae":"X","wings":"1","pattern":"X","legs":"M"},"action":"harvest","summary":"good-harvest","bonus":0.5800000000000003},{"rt":541.8999999761581,"stimulus":"\n                    <p><b>Action: <em>harvest</em></b></p>\n                    <p>This is the bee that you just saw.</p>\n                    <img src=\"bees-with-color/bee-A2SM.svg\" width=\"200\">\n                    <p><span class=\"greenText\"><b>Successful harvest!</b></span><br>Your pay has increased by $0.02. Your bonus pay is now $0.20.</p>\n            ","response":0,"trial_type":"html-button-response","trial_index":44,"time_elapsed":135444,"internal_node_id":"0.0-4.0-1.18","subject_id":"60395bb3bfc7963f1219fdba","study_id":"6197b3f67c2b5cd3b6d9596a","session_id":"619bef068c2b4237f051b045","condition":"contingent","relevant_dimensions":["wings","legs"],"bee_group":{"antennae":"X","wings":"1","pattern":"X","legs":"M"},"bonus":0.5800000000000003},{"rt":661.6999999284744,"stimulus":"bees-with-color/bee-A1DM.svg","response":1,"trial_type":"image-button-response","trial_index":45,"time_elapsed":136107,"internal_node_id":"0.0-4.0-0.19","subject_id":"60395bb3bfc7963f1219fdba","study_id":"6197b3f67c2b5cd3b6d9596a","session_id":"619bef068c2b4237f051b045","condition":"contingent","relevant_dimensions":["wings","legs"],"bee_group":{"antennae":"X","wings":"1","pattern":"X","legs":"M"},"action":"avoid","summary":"good-avoid","bonus":0.5800000000000003},{"rt":718.5,"stimulus":"\n                    <p><b>Action: <em>avoid</em></b></p>\n                    <p>This is the bee that you just saw.</p>\n                    <img src=\"bees-with-color/bee-A1DM.svg\" width=\"200\">\n                    <p><br>Your bonus pay is unchanged, and remains at $0.20.</p>\n            ","response":0,"trial_type":"html-button-response","trial_index":46,"time_elapsed":136827,"internal_node_id":"0.0-4.0-1.19","subject_id":"60395bb3bfc7963f1219fdba","study_id":"6197b3f67c2b5cd3b6d9596a","session_id":"619bef068c2b4237f051b045","condition":"contingent","relevant_dimensions":["wings","legs"],"bee_group":{"antennae":"X","wings":"1","pattern":"X","legs":"M"},"bonus":0.5800000000000003},{"rt":1122.9000000953674,"stimulus":"bees-with-color/bee-B2SM.svg","response":0,"trial_type":"image-button-response","trial_index":47,"time_elapsed":137951,"internal_node_id":"0.0-4.0-0.20","subject_id":"60395bb3bfc7963f1219fdba","study_id":"6197b3f67c2b5cd3b6d9596a","session_id":"619bef068c2b4237f051b045","condition":"contingent","relevant_dimensions":["wings","legs"],"bee_group":{"antennae":"X","wings":"1","pattern":"X","legs":"M"},"action":"harvest","summary":"good-harvest","bonus":0.5800000000000003},{"rt":955.5,"stimulus":"\n                    <p><b>Action: <em>harvest</em></b></p>\n                    <p>This is the bee that you just saw.</p>\n                    <img src=\"bees-with-color/bee-B2SM.svg\" width=\"200\">\n                    <p><span class=\"greenText\"><b>Successful harvest!</b></span><br>Your pay has increased by $0.02. Your bonus pay is now $0.22.</p>\n            ","response":0,"trial_type":"html-button-response","trial_index":48,"time_elapsed":138908,"internal_node_id":"0.0-4.0-1.20","subject_id":"60395bb3bfc7963f1219fdba","study_id":"6197b3f67c2b5cd3b6d9596a","session_id":"619bef068c2b4237f051b045","condition":"contingent","relevant_dimensions":["wings","legs"],"bee_group":{"antennae":"X","wings":"1","pattern":"X","legs":"M"},"bonus":0.5800000000000003},{"rt":3649.5,"stimulus":"bees-with-color/bee-B1DF.svg","response":1,"trial_type":"image-button-response","trial_index":49,"time_elapsed":142559,"internal_node_id":"0.0-4.0-0.21","subject_id":"60395bb3bfc7963f1219fdba","study_id":"6197b3f67c2b5cd3b6d9596a","session_id":"619bef068c2b4237f051b045","condition":"contingent","relevant_dimensions":["wings","legs"],"bee_group":{"antennae":"X","wings":"1","pattern":"X","legs":"M"},"action":"avoid","summary":"bad-avoid","bonus":0.5800000000000003},{"rt":980.8000000715256,"stimulus":"\n                    <p><b>Action: <em>avoid</em></b></p>\n                    <p>This is the bee that you just saw.</p>\n                    <img src=\"bees-with-color/bee-B1DF.svg\" width=\"200\">\n                    <p><br>Your bonus pay is unchanged, and remains at $0.22.</p>\n            ","response":0,"trial_type":"html-button-response","trial_index":50,"time_elapsed":143541,"internal_node_id":"0.0-4.0-1.21","subject_id":"60395bb3bfc7963f1219fdba","study_id":"6197b3f67c2b5cd3b6d9596a","session_id":"619bef068c2b4237f051b045","condition":"contingent","relevant_dimensions":["wings","legs"],"bee_group":{"antennae":"X","wings":"1","pattern":"X","legs":"M"},"bonus":0.5800000000000003},{"rt":1973.5,"stimulus":"bees-with-color/bee-B1SF.svg","response":0,"trial_type":"image-button-response","trial_index":51,"time_elapsed":145516,"internal_node_id":"0.0-4.0-0.22","subject_id":"60395bb3bfc7963f1219fdba","study_id":"6197b3f67c2b5cd3b6d9596a","session_id":"619bef068c2b4237f051b045","condition":"contingent","relevant_dimensions":["wings","legs"],"bee_group":{"antennae":"X","wings":"1","pattern":"X","legs":"M"},"action":"harvest","summary":"good-harvest","bonus":0.5800000000000003},{"rt":829.6999999284744,"stimulus":"\n                    <p><b>Action: <em>harvest</em></b></p>\n                    <p>This is the bee that you just saw.</p>\n                    <img src=\"bees-with-color/bee-B1SF.svg\" width=\"200\">\n                    <p><span class=\"greenText\"><b>Successful harvest!</b></span><br>Your pay has increased by $0.02. Your bonus pay is now $0.24.</p>\n            ","response":0,"trial_type":"html-button-response","trial_index":52,"time_elapsed":146347,"internal_node_id":"0.0-4.0-1.22","subject_id":"60395bb3bfc7963f1219fdba","study_id":"6197b3f67c2b5cd3b6d9596a","session_id":"619bef068c2b4237f051b045","condition":"contingent","relevant_dimensions":["wings","legs"],"bee_group":{"antennae":"X","wings":"1","pattern":"X","legs":"M"},"bonus":0.5800000000000003},{"rt":1066.8999999761581,"stimulus":"bees-with-color/bee-A1DF.svg","response":1,"trial_type":"image-button-response","trial_index":53,"time_elapsed":147415,"internal_node_id":"0.0-4.0-0.23","subject_id":"60395bb3bfc7963f1219fdba","study_id":"6197b3f67c2b5cd3b6d9596a","session_id":"619bef068c2b4237f051b045","condition":"contingent","relevant_dimensions":["wings","legs"],"bee_group":{"antennae":"X","wings":"1","pattern":"X","legs":"M"},"action":"avoid","summary":"bad-avoid","bonus":0.5800000000000003},{"rt":804.5,"stimulus":"\n                    <p><b>Action: <em>avoid</em></b></p>\n                    <p>This is the bee that you just saw.</p>\n                    <img src=\"bees-with-color/bee-A1DF.svg\" width=\"200\">\n                    <p><br>Your bonus pay is unchanged, and remains at $0.24.</p>\n            ","response":0,"trial_type":"html-button-response","trial_index":54,"time_elapsed":148221,"internal_node_id":"0.0-4.0-1.23","subject_id":"60395bb3bfc7963f1219fdba","study_id":"6197b3f67c2b5cd3b6d9596a","session_id":"619bef068c2b4237f051b045","condition":"contingent","relevant_dimensions":["wings","legs"],"bee_group":{"antennae":"X","wings":"1","pattern":"X","legs":"M"},"bonus":0.5800000000000003},{"rt":980.6999999284744,"stimulus":"bees-with-color/bee-B1DM.svg","response":0,"trial_type":"image-button-response","trial_index":55,"time_elapsed":149203,"internal_node_id":"0.0-4.0-0.24","subject_id":"60395bb3bfc7963f1219fdba","study_id":"6197b3f67c2b5cd3b6d9596a","session_id":"619bef068c2b4237f051b045","condition":"contingent","relevant_dimensions":["wings","legs"],"bee_group":{"antennae":"X","wings":"1","pattern":"X","legs":"M"},"action":"harvest","summary":"bad-harvest","bonus":0.5800000000000003},{"rt":598.5,"stimulus":"\n                    <p><b>Action: <em>harvest</em></b></p>\n                    <p>This is the bee that you just saw.</p>\n                    <img src=\"bees-with-color/bee-B1DM.svg\" width=\"200\">\n                    <p><span class=\"redText\">Bad choice, the bee was angry.</span><br><b>You have been stung!</b><br>Your pay has been decreased by $0.10. Your bonus pay is now $0.14.</p>\n            ","response":0,"trial_type":"html-button-response","trial_index":56,"time_elapsed":149803,"internal_node_id":"0.0-4.0-1.24","subject_id":"60395bb3bfc7963f1219fdba","study_id":"6197b3f67c2b5cd3b6d9596a","session_id":"619bef068c2b4237f051b045","condition":"contingent","relevant_dimensions":["wings","legs"],"bee_group":{"antennae":"X","wings":"1","pattern":"X","legs":"M"},"bonus":0.5800000000000003},{"rt":1271.8999999761581,"stimulus":"bees-with-color/bee-B2DM.svg","response":0,"trial_type":"image-button-response","trial_index":57,"time_elapsed":151076,"internal_node_id":"0.0-4.0-0.25","subject_id":"60395bb3bfc7963f1219fdba","study_id":"6197b3f67c2b5cd3b6d9596a","session_id":"619bef068c2b4237f051b045","condition":"contingent","relevant_dimensions":["wings","legs"],"bee_group":{"antennae":"X","wings":"1","pattern":"X","legs":"M"},"action":"harvest","summary":"good-harvest","bonus":0.5800000000000003},{"rt":729.2000000476837,"stimulus":"\n                    <p><b>Action: <em>harvest</em></b></p>\n                    <p>This is the bee that you just saw.</p>\n                    <img src=\"bees-with-color/bee-B2DM.svg\" width=\"200\">\n                    <p><span class=\"greenText\"><b>Successful harvest!</b></span><br>Your pay has increased by $0.02. Your bonus pay is now $0.16.</p>\n            ","response":0,"trial_type":"html-button-response","trial_index":58,"time_elapsed":151807,"internal_node_id":"0.0-4.0-1.25","subject_id":"60395bb3bfc7963f1219fdba","study_id":"6197b3f67c2b5cd3b6d9596a","session_id":"619bef068c2b4237f051b045","condition":"contingent","relevant_dimensions":["wings","legs"],"bee_group":{"antennae":"X","wings":"1","pattern":"X","legs":"M"},"bonus":0.5800000000000003},{"rt":1471.6000000238419,"stimulus":"bees-with-color/bee-B2SF.svg","response":0,"trial_type":"image-button-response","trial_index":59,"time_elapsed":153279,"internal_node_id":"0.0-4.0-0.26","subject_id":"60395bb3bfc7963f1219fdba","study_id":"6197b3f67c2b5cd3b6d9596a","session_id":"619bef068c2b4237f051b045","condition":"contingent","relevant_dimensions":["wings","legs"],"bee_group":{"antennae":"X","wings":"1","pattern":"X","legs":"M"},"action":"harvest","summary":"good-harvest","bonus":0.5800000000000003},{"rt":757.5,"stimulus":"\n                    <p><b>Action: <em>harvest</em></b></p>\n                    <p>This is the bee that you just saw.</p>\n                    <img src=\"bees-with-color/bee-B2SF.svg\" width=\"200\">\n                    <p><span class=\"greenText\"><b>Successful harvest!</b></span><br>Your pay has increased by $0.02. Your bonus pay is now $0.18.</p>\n            ","response":0,"trial_type":"html-button-response","trial_index":60,"time_elapsed":154039,"internal_node_id":"0.0-4.0-1.26","subject_id":"60395bb3bfc7963f1219fdba","study_id":"6197b3f67c2b5cd3b6d9596a","session_id":"619bef068c2b4237f051b045","condition":"contingent","relevant_dimensions":["wings","legs"],"bee_group":{"antennae":"X","wings":"1","pattern":"X","legs":"M"},"bonus":0.5800000000000003},{"rt":697.3999999761581,"stimulus":"bees-with-color/bee-A2SF.svg","response":0,"trial_type":"image-button-response","trial_index":61,"time_elapsed":154737,"internal_node_id":"0.0-4.0-0.27","subject_id":"60395bb3bfc7963f1219fdba","study_id":"6197b3f67c2b5cd3b6d9596a","session_id":"619bef068c2b4237f051b045","condition":"contingent","relevant_dimensions":["wings","legs"],"bee_group":{"antennae":"X","wings":"1","pattern":"X","legs":"M"},"action":"harvest","summary":"good-harvest","bonus":0.5800000000000003},{"rt":1081.6999999284744,"stimulus":"\n                    <p><b>Action: <em>harvest</em></b></p>\n                    <p>This is the bee that you just saw.</p>\n                    <img src=\"bees-with-color/bee-A2SF.svg\" width=\"200\">\n                    <p><span class=\"greenText\"><b>Successful harvest!</b></span><br>Your pay has increased by $0.02. Your bonus pay is now $0.20.</p>\n            ","response":0,"trial_type":"html-button-response","trial_index":62,"time_elapsed":155821,"internal_node_id":"0.0-4.0-1.27","subject_id":"60395bb3bfc7963f1219fdba","study_id":"6197b3f67c2b5cd3b6d9596a","session_id":"619bef068c2b4237f051b045","condition":"contingent","relevant_dimensions":["wings","legs"],"bee_group":{"antennae":"X","wings":"1","pattern":"X","legs":"M"},"bonus":0.5800000000000003},{"rt":659.5999999046326,"stimulus":"bees-with-color/bee-A2DM.svg","response":0,"trial_type":"image-button-response","trial_index":63,"time_elapsed":156481,"internal_node_id":"0.0-4.0-0.28","subject_id":"60395bb3bfc7963f1219fdba","study_id":"6197b3f67c2b5cd3b6d9596a","session_id":"619bef068c2b4237f051b045","condition":"contingent","relevant_dimensions":["wings","legs"],"bee_group":{"antennae":"X","wings":"1","pattern":"X","legs":"M"},"action":"harvest","summary":"good-harvest","bonus":0.5800000000000003},{"rt":731.5999999046326,"stimulus":"\n                    <p><b>Action: <em>harvest</em></b></p>\n                    <p>This is the bee that you just saw.</p>\n                    <img src=\"bees-with-color/bee-A2DM.svg\" width=\"200\">\n                    <p><span class=\"greenText\"><b>Successful harvest!</b></span><br>Your pay has increased by $0.02. Your bonus pay is now $0.22.</p>\n            ","response":0,"trial_type":"html-button-response","trial_index":64,"time_elapsed":157214,"internal_node_id":"0.0-4.0-1.28","subject_id":"60395bb3bfc7963f1219fdba","study_id":"6197b3f67c2b5cd3b6d9596a","session_id":"619bef068c2b4237f051b045","condition":"contingent","relevant_dimensions":["wings","legs"],"bee_group":{"antennae":"X","wings":"1","pattern":"X","legs":"M"},"bonus":0.5800000000000003},{"rt":582.8000000715256,"stimulus":"bees-with-color/bee-A1SM.svg","response":1,"trial_type":"image-button-response","trial_index":65,"time_elapsed":157798,"internal_node_id":"0.0-4.0-0.29","subject_id":"60395bb3bfc7963f1219fdba","study_id":"6197b3f67c2b5cd3b6d9596a","session_id":"619bef068c2b4237f051b045","condition":"contingent","relevant_dimensions":["wings","legs"],"bee_group":{"antennae":"X","wings":"1","pattern":"X","legs":"M"},"action":"avoid","summary":"good-avoid","bonus":0.5800000000000003},{"rt":695.6000000238419,"stimulus":"\n                    <p><b>Action: <em>avoid</em></b></p>\n                    <p>This is the bee that you just saw.</p>\n                    <img src=\"bees-with-color/bee-A1SM.svg\" width=\"200\">\n                    <p><br>Your bonus pay is unchanged, and remains at $0.22.</p>\n            ","response":0,"trial_type":"html-button-response","trial_index":66,"time_elapsed":158495,"internal_node_id":"0.0-4.0-1.29","subject_id":"60395bb3bfc7963f1219fdba","study_id":"6197b3f67c2b5cd3b6d9596a","session_id":"619bef068c2b4237f051b045","condition":"contingent","relevant_dimensions":["wings","legs"],"bee_group":{"antennae":"X","wings":"1","pattern":"X","legs":"M"},"bonus":0.5800000000000003},{"rt":1092.3000000715256,"stimulus":"bees-with-color/bee-A2DF.svg","response":0,"trial_type":"image-button-response","trial_index":67,"time_elapsed":159589,"internal_node_id":"0.0-4.0-0.30","subject_id":"60395bb3bfc7963f1219fdba","study_id":"6197b3f67c2b5cd3b6d9596a","session_id":"619bef068c2b4237f051b045","condition":"contingent","relevant_dimensions":["wings","legs"],"bee_group":{"antennae":"X","wings":"1","pattern":"X","legs":"M"},"action":"harvest","summary":"good-harvest","bonus":0.5800000000000003},{"rt":635,"stimulus":"\n                    <p><b>Action: <em>harvest</em></b></p>\n                    <p>This is the bee that you just saw.</p>\n                    <img src=\"bees-with-color/bee-A2DF.svg\" width=\"200\">\n                    <p><span class=\"greenText\"><b>Successful harvest!</b></span><br>Your pay has increased by $0.02. Your bonus pay is now $0.24.</p>\n            ","response":0,"trial_type":"html-button-response","trial_index":68,"time_elapsed":160225,"internal_node_id":"0.0-4.0-1.30","subject_id":"60395bb3bfc7963f1219fdba","study_id":"6197b3f67c2b5cd3b6d9596a","session_id":"619bef068c2b4237f051b045","condition":"contingent","relevant_dimensions":["wings","legs"],"bee_group":{"antennae":"X","wings":"1","pattern":"X","legs":"M"},"bonus":0.5800000000000003},{"rt":811.2999999523163,"stimulus":"bees-with-color/bee-B2DF.svg","response":0,"trial_type":"image-button-response","trial_index":69,"time_elapsed":161037,"internal_node_id":"0.0-4.0-0.31","subject_id":"60395bb3bfc7963f1219fdba","study_id":"6197b3f67c2b5cd3b6d9596a","session_id":"619bef068c2b4237f051b045","condition":"contingent","relevant_dimensions":["wings","legs"],"bee_group":{"antennae":"X","wings":"1","pattern":"X","legs":"M"},"action":"harvest","summary":"good-harvest","bonus":0.5800000000000003},{"rt":700.3000000715256,"stimulus":"\n                    <p><b>Action: <em>harvest</em></b></p>\n                    <p>This is the bee that you just saw.</p>\n                    <img src=\"bees-with-color/bee-B2DF.svg\" width=\"200\">\n                    <p><span class=\"greenText\"><b>Successful harvest!</b></span><br>Your pay has increased by $0.02. Your bonus pay is now $0.26.</p>\n            ","response":0,"trial_type":"html-button-response","trial_index":70,"time_elapsed":161739,"internal_node_id":"0.0-4.0-1.31","subject_id":"60395bb3bfc7963f1219fdba","study_id":"6197b3f67c2b5cd3b6d9596a","session_id":"619bef068c2b4237f051b045","condition":"contingent","relevant_dimensions":["wings","legs"],"bee_group":{"antennae":"X","wings":"1","pattern":"X","legs":"M"},"bonus":0.5800000000000003},{"rt":1229.8000000715256,"stimulus":"bees-with-color/bee-B2DM.svg","response":1,"trial_type":"image-button-response","trial_index":71,"time_elapsed":162970,"internal_node_id":"0.0-4.0-0.32","subject_id":"60395bb3bfc7963f1219fdba","study_id":"6197b3f67c2b5cd3b6d9596a","session_id":"619bef068c2b4237f051b045","condition":"contingent","relevant_dimensions":["wings","legs"],"bee_group":{"antennae":"X","wings":"1","pattern":"X","legs":"M"},"action":"avoid","summary":"bad-avoid","bonus":0.5800000000000003},{"rt":521.6000000238419,"stimulus":"\n                    <p><b>Action: <em>avoid</em></b></p>\n                    <p>This is the bee that you just saw.</p>\n                    <img src=\"bees-with-color/bee-B2DM.svg\" width=\"200\">\n                    <p><br>Your bonus pay is unchanged, and remains at $0.26.</p>\n            ","response":0,"trial_type":"html-button-response","trial_index":72,"time_elapsed":163493,"internal_node_id":"0.0-4.0-1.32","subject_id":"60395bb3bfc7963f1219fdba","study_id":"6197b3f67c2b5cd3b6d9596a","session_id":"619bef068c2b4237f051b045","condition":"contingent","relevant_dimensions":["wings","legs"],"bee_group":{"antennae":"X","wings":"1","pattern":"X","legs":"M"},"bonus":0.5800000000000003},{"rt":798.6999999284744,"stimulus":"bees-with-color/bee-A2DF.svg","response":0,"trial_type":"image-button-response","trial_index":73,"time_elapsed":164293,"internal_node_id":"0.0-4.0-0.33","subject_id":"60395bb3bfc7963f1219fdba","study_id":"6197b3f67c2b5cd3b6d9596a","session_id":"619bef068c2b4237f051b045","condition":"contingent","relevant_dimensions":["wings","legs"],"bee_group":{"antennae":"X","wings":"1","pattern":"X","legs":"M"},"action":"harvest","summary":"good-harvest","bonus":0.5800000000000003},{"rt":857.8999999761581,"stimulus":"\n                    <p><b>Action: <em>harvest</em></b></p>\n                    <p>This is the bee that you just saw.</p>\n                    <img src=\"bees-with-color/bee-A2DF.svg\" width=\"200\">\n                    <p><span class=\"greenText\"><b>Successful harvest!</b></span><br>Your pay has increased by $0.02. Your bonus pay is now $0.28.</p>\n            ","response":0,"trial_type":"html-button-response","trial_index":74,"time_elapsed":165153,"internal_node_id":"0.0-4.0-1.33","subject_id":"60395bb3bfc7963f1219fdba","study_id":"6197b3f67c2b5cd3b6d9596a","session_id":"619bef068c2b4237f051b045","condition":"contingent","relevant_dimensions":["wings","legs"],"bee_group":{"antennae":"X","wings":"1","pattern":"X","legs":"M"},"bonus":0.5800000000000003},{"rt":983,"stimulus":"bees-with-color/bee-A1DM.svg","response":0,"trial_type":"image-button-response","trial_index":75,"time_elapsed":166137,"internal_node_id":"0.0-4.0-0.34","subject_id":"60395bb3bfc7963f1219fdba","study_id":"6197b3f67c2b5cd3b6d9596a","session_id":"619bef068c2b4237f051b045","condition":"contingent","relevant_dimensions":["wings","legs"],"bee_group":{"antennae":"X","wings":"1","pattern":"X","legs":"M"},"action":"harvest","summary":"bad-harvest","bonus":0.5800000000000003},{"rt":578.7999999523163,"stimulus":"\n                    <p><b>Action: <em>harvest</em></b></p>\n                    <p>This is the bee that you just saw.</p>\n                    <img src=\"bees-with-color/bee-A1DM.svg\" width=\"200\">\n                    <p><span class=\"redText\">Bad choice, the bee was angry.</span><br><b>You have been stung!</b><br>Your pay has been decreased by $0.10. Your bonus pay is now $0.18.</p>\n            ","response":0,"trial_type":"html-button-response","trial_index":76,"time_elapsed":166717,"internal_node_id":"0.0-4.0-1.34","subject_id":"60395bb3bfc7963f1219fdba","study_id":"6197b3f67c2b5cd3b6d9596a","session_id":"619bef068c2b4237f051b045","condition":"contingent","relevant_dimensions":["wings","legs"],"bee_group":{"antennae":"X","wings":"1","pattern":"X","legs":"M"},"bonus":0.5800000000000003},{"rt":970.7999999523163,"stimulus":"bees-with-color/bee-B1DF.svg","response":0,"trial_type":"image-button-response","trial_index":77,"time_elapsed":167689,"internal_node_id":"0.0-4.0-0.35","subject_id":"60395bb3bfc7963f1219fdba","study_id":"6197b3f67c2b5cd3b6d9596a","session_id":"619bef068c2b4237f051b045","condition":"contingent","relevant_dimensions":["wings","legs"],"bee_group":{"antennae":"X","wings":"1","pattern":"X","legs":"M"},"action":"harvest","summary":"good-harvest","bonus":0.5800000000000003},{"rt":470.6999999284744,"stimulus":"\n                    <p><b>Action: <em>harvest</em></b></p>\n                    <p>This is the bee that you just saw.</p>\n                    <img src=\"bees-with-color/bee-B1DF.svg\" width=\"200\">\n                    <p><span class=\"greenText\"><b>Successful harvest!</b></span><br>Your pay has increased by $0.02. Your bonus pay is now $0.20.</p>\n            ","response":0,"trial_type":"html-button-response","trial_index":78,"time_elapsed":168161,"internal_node_id":"0.0-4.0-1.35","subject_id":"60395bb3bfc7963f1219fdba","study_id":"6197b3f67c2b5cd3b6d9596a","session_id":"619bef068c2b4237f051b045","condition":"contingent","relevant_dimensions":["wings","legs"],"bee_group":{"antennae":"X","wings":"1","pattern":"X","legs":"M"},"bonus":0.5800000000000003},{"rt":728.1000000238419,"stimulus":"bees-with-color/bee-A2SF.svg","response":0,"trial_type":"image-button-response","trial_index":79,"time_elapsed":168890,"internal_node_id":"0.0-4.0-0.36","subject_id":"60395bb3bfc7963f1219fdba","study_id":"6197b3f67c2b5cd3b6d9596a","session_id":"619bef068c2b4237f051b045","condition":"contingent","relevant_dimensions":["wings","legs"],"bee_group":{"antennae":"X","wings":"1","pattern":"X","legs":"M"},"action":"harvest","summary":"good-harvest","bonus":0.5800000000000003},{"rt":510.7999999523163,"stimulus":"\n                    <p><b>Action: <em>harvest</em></b></p>\n                    <p>This is the bee that you just saw.</p>\n                    <img src=\"bees-with-color/bee-A2SF.svg\" width=\"200\">\n                    <p><span class=\"greenText\"><b>Successful harvest!</b></span><br>Your pay has increased by $0.02. Your bonus pay is now $0.22.</p>\n            ","response":0,"trial_type":"html-button-response","trial_index":80,"time_elapsed":169402,"internal_node_id":"0.0-4.0-1.36","subject_id":"60395bb3bfc7963f1219fdba","study_id":"6197b3f67c2b5cd3b6d9596a","session_id":"619bef068c2b4237f051b045","condition":"contingent","relevant_dimensions":["wings","legs"],"bee_group":{"antennae":"X","wings":"1","pattern":"X","legs":"M"},"bonus":0.5800000000000003},{"rt":679.7000000476837,"stimulus":"bees-with-color/bee-B1SF.svg","response":0,"trial_type":"image-button-response","trial_index":81,"time_elapsed":170084,"internal_node_id":"0.0-4.0-0.37","subject_id":"60395bb3bfc7963f1219fdba","study_id":"6197b3f67c2b5cd3b6d9596a","session_id":"619bef068c2b4237f051b045","condition":"contingent","relevant_dimensions":["wings","legs"],"bee_group":{"antennae":"X","wings":"1","pattern":"X","legs":"M"},"action":"harvest","summary":"good-harvest","bonus":0.5800000000000003},{"rt":503,"stimulus":"\n                    <p><b>Action: <em>harvest</em></b></p>\n                    <p>This is the bee that you just saw.</p>\n                    <img src=\"bees-with-color/bee-B1SF.svg\" width=\"200\">\n                    <p><span class=\"greenText\"><b>Successful harvest!</b></span><br>Your pay has increased by $0.02. Your bonus pay is now $0.24.</p>\n            ","response":0,"trial_type":"html-button-response","trial_index":82,"time_elapsed":170588,"internal_node_id":"0.0-4.0-1.37","subject_id":"60395bb3bfc7963f1219fdba","study_id":"6197b3f67c2b5cd3b6d9596a","session_id":"619bef068c2b4237f051b045","condition":"contingent","relevant_dimensions":["wings","legs"],"bee_group":{"antennae":"X","wings":"1","pattern":"X","legs":"M"},"bonus":0.5800000000000003},{"rt":846.3000000715256,"stimulus":"bees-with-color/bee-A2DM.svg","response":1,"trial_type":"image-button-response","trial_index":83,"time_elapsed":171436,"internal_node_id":"0.0-4.0-0.38","subject_id":"60395bb3bfc7963f1219fdba","study_id":"6197b3f67c2b5cd3b6d9596a","session_id":"619bef068c2b4237f051b045","condition":"contingent","relevant_dimensions":["wings","legs"],"bee_group":{"antennae":"X","wings":"1","pattern":"X","legs":"M"},"action":"avoid","summary":"bad-avoid","bonus":0.5800000000000003},{"rt":452.90000009536743,"stimulus":"\n                    <p><b>Action: <em>avoid</em></b></p>\n                    <p>This is the bee that you just saw.</p>\n                    <img src=\"bees-with-color/bee-A2DM.svg\" width=\"200\">\n                    <p><br>Your bonus pay is unchanged, and remains at $0.24.</p>\n            ","response":0,"trial_type":"html-button-response","trial_index":84,"time_elapsed":171890,"internal_node_id":"0.0-4.0-1.38","subject_id":"60395bb3bfc7963f1219fdba","study_id":"6197b3f67c2b5cd3b6d9596a","session_id":"619bef068c2b4237f051b045","condition":"contingent","relevant_dimensions":["wings","legs"],"bee_group":{"antennae":"X","wings":"1","pattern":"X","legs":"M"},"bonus":0.5800000000000003},{"rt":641.8000000715256,"stimulus":"bees-with-color/bee-A1SM.svg","response":1,"trial_type":"image-button-response","trial_index":85,"time_elapsed":172533,"internal_node_id":"0.0-4.0-0.39","subject_id":"60395bb3bfc7963f1219fdba","study_id":"6197b3f67c2b5cd3b6d9596a","session_id":"619bef068c2b4237f051b045","condition":"contingent","relevant_dimensions":["wings","legs"],"bee_group":{"antennae":"X","wings":"1","pattern":"X","legs":"M"},"action":"avoid","summary":"good-avoid","bonus":0.5800000000000003},{"rt":443.7000000476837,"stimulus":"\n                    <p><b>Action: <em>avoid</em></b></p>\n                    <p>This is the bee that you just saw.</p>\n                    <img src=\"bees-with-color/bee-A1SM.svg\" width=\"200\">\n                    <p><br>Your bonus pay is unchanged, and remains at $0.24.</p>\n            ","response":0,"trial_type":"html-button-response","trial_index":86,"time_elapsed":172978,"internal_node_id":"0.0-4.0-1.39","subject_id":"60395bb3bfc7963f1219fdba","study_id":"6197b3f67c2b5cd3b6d9596a","session_id":"619bef068c2b4237f051b045","condition":"contingent","relevant_dimensions":["wings","legs"],"bee_group":{"antennae":"X","wings":"1","pattern":"X","legs":"M"},"bonus":0.5800000000000003},{"rt":678.6000000238419,"stimulus":"bees-with-color/bee-B2SM.svg","response":1,"trial_type":"image-button-response","trial_index":87,"time_elapsed":173658,"internal_node_id":"0.0-4.0-0.40","subject_id":"60395bb3bfc7963f1219fdba","study_id":"6197b3f67c2b5cd3b6d9596a","session_id":"619bef068c2b4237f051b045","condition":"contingent","relevant_dimensions":["wings","legs"],"bee_group":{"antennae":"X","wings":"1","pattern":"X","legs":"M"},"action":"avoid","summary":"bad-avoid","bonus":0.5800000000000003},{"rt":436.5,"stimulus":"\n                    <p><b>Action: <em>avoid</em></b></p>\n                    <p>This is the bee that you just saw.</p>\n                    <img src=\"bees-with-color/bee-B2SM.svg\" width=\"200\">\n                    <p><br>Your bonus pay is unchanged, and remains at $0.24.</p>\n            ","response":0,"trial_type":"html-button-response","trial_index":88,"time_elapsed":174096,"internal_node_id":"0.0-4.0-1.40","subject_id":"60395bb3bfc7963f1219fdba","study_id":"6197b3f67c2b5cd3b6d9596a","session_id":"619bef068c2b4237f051b045","condition":"contingent","relevant_dimensions":["wings","legs"],"bee_group":{"antennae":"X","wings":"1","pattern":"X","legs":"M"},"bonus":0.5800000000000003},{"rt":692,"stimulus":"bees-with-color/bee-A2SM.svg","response":1,"trial_type":"image-button-response","trial_index":89,"time_elapsed":174789,"internal_node_id":"0.0-4.0-0.41","subject_id":"60395bb3bfc7963f1219fdba","study_id":"6197b3f67c2b5cd3b6d9596a","session_id":"619bef068c2b4237f051b045","condition":"contingent","relevant_dimensions":["wings","legs"],"bee_group":{"antennae":"X","wings":"1","pattern":"X","legs":"M"},"action":"avoid","summary":"bad-avoid","bonus":0.5800000000000003},{"rt":477.7999999523163,"stimulus":"\n                    <p><b>Action: <em>avoid</em></b></p>\n                    <p>This is the bee that you just saw.</p>\n                    <img src=\"bees-with-color/bee-A2SM.svg\" width=\"200\">\n                    <p><br>Your bonus pay is unchanged, and remains at $0.24.</p>\n            ","response":0,"trial_type":"html-button-response","trial_index":90,"time_elapsed":175269,"internal_node_id":"0.0-4.0-1.41","subject_id":"60395bb3bfc7963f1219fdba","study_id":"6197b3f67c2b5cd3b6d9596a","session_id":"619bef068c2b4237f051b045","condition":"contingent","relevant_dimensions":["wings","legs"],"bee_group":{"antennae":"X","wings":"1","pattern":"X","legs":"M"},"bonus":0.5800000000000003},{"rt":705,"stimulus":"bees-with-color/bee-B1DM.svg","response":0,"trial_type":"image-button-response","trial_index":91,"time_elapsed":175975,"internal_node_id":"0.0-4.0-0.42","subject_id":"60395bb3bfc7963f1219fdba","study_id":"6197b3f67c2b5cd3b6d9596a","session_id":"619bef068c2b4237f051b045","condition":"contingent","relevant_dimensions":["wings","legs"],"bee_group":{"antennae":"X","wings":"1","pattern":"X","legs":"M"},"action":"harvest","summary":"bad-harvest","bonus":0.5800000000000003},{"rt":586.6000000238419,"stimulus":"\n                    <p><b>Action: <em>harvest</em></b></p>\n                    <p>This is the bee that you just saw.</p>\n                    <img src=\"bees-with-color/bee-B1DM.svg\" width=\"200\">\n                    <p><span class=\"redText\">Bad choice, the bee was angry.</span><br><b>You have been stung!</b><br>Your pay has been decreased by $0.10. Your bonus pay is now $0.14.</p>\n            ","response":0,"trial_type":"html-button-response","trial_index":92,"time_elapsed":176563,"internal_node_id":"0.0-4.0-1.42","subject_id":"60395bb3bfc7963f1219fdba","study_id":"6197b3f67c2b5cd3b6d9596a","session_id":"619bef068c2b4237f051b045","condition":"contingent","relevant_dimensions":["wings","legs"],"bee_group":{"antennae":"X","wings":"1","pattern":"X","legs":"M"},"bonus":0.5800000000000003},{"rt":508.89999997615814,"stimulus":"bees-with-color/bee-B2SF.svg","response":0,"trial_type":"image-button-response","trial_index":93,"time_elapsed":177073,"internal_node_id":"0.0-4.0-0.43","subject_id":"60395bb3bfc7963f1219fdba","study_id":"6197b3f67c2b5cd3b6d9596a","session_id":"619bef068c2b4237f051b045","condition":"contingent","relevant_dimensions":["wings","legs"],"bee_group":{"antennae":"X","wings":"1","pattern":"X","legs":"M"},"action":"harvest","summary":"good-harvest","bonus":0.5800000000000003},{"rt":510.59999990463257,"stimulus":"\n                    <p><b>Action: <em>harvest</em></b></p>\n                    <p>This is the bee that you just saw.</p>\n                    <img src=\"bees-with-color/bee-B2SF.svg\" width=\"200\">\n                    <p><span class=\"greenText\"><b>Successful harvest!</b></span><br>Your pay has increased by $0.02. Your bonus pay is now $0.16.</p>\n            ","response":0,"trial_type":"html-button-response","trial_index":94,"time_elapsed":177585,"internal_node_id":"0.0-4.0-1.43","subject_id":"60395bb3bfc7963f1219fdba","study_id":"6197b3f67c2b5cd3b6d9596a","session_id":"619bef068c2b4237f051b045","condition":"contingent","relevant_dimensions":["wings","legs"],"bee_group":{"antennae":"X","wings":"1","pattern":"X","legs":"M"},"bonus":0.5800000000000003},{"rt":501.7999999523163,"stimulus":"bees-with-color/bee-B1SM.svg","response":0,"trial_type":"image-button-response","trial_index":95,"time_elapsed":178088,"internal_node_id":"0.0-4.0-0.44","subject_id":"60395bb3bfc7963f1219fdba","study_id":"6197b3f67c2b5cd3b6d9596a","session_id":"619bef068c2b4237f051b045","condition":"contingent","relevant_dimensions":["wings","legs"],"bee_group":{"antennae":"X","wings":"1","pattern":"X","legs":"M"},"action":"harvest","summary":"bad-harvest","bonus":0.5800000000000003},{"rt":834,"stimulus":"\n                    <p><b>Action: <em>harvest</em></b></p>\n                    <p>This is the bee that you just saw.</p>\n                    <img src=\"bees-with-color/bee-B1SM.svg\" width=\"200\">\n                    <p><span class=\"redText\">Bad choice, the bee was angry.</span><br><b>You have been stung!</b><br>Your pay has been decreased by $0.10. Your bonus pay is now $0.06.</p>\n            ","response":0,"trial_type":"html-button-response","trial_index":96,"time_elapsed":178924,"internal_node_id":"0.0-4.0-1.44","subject_id":"60395bb3bfc7963f1219fdba","study_id":"6197b3f67c2b5cd3b6d9596a","session_id":"619bef068c2b4237f051b045","condition":"contingent","relevant_dimensions":["wings","legs"],"bee_group":{"antennae":"X","wings":"1","pattern":"X","legs":"M"},"bonus":0.5800000000000003},{"rt":467.1999999284744,"stimulus":"bees-with-color/bee-A1SF.svg","response":0,"trial_type":"image-button-response","trial_index":97,"time_elapsed":179392,"internal_node_id":"0.0-4.0-0.45","subject_id":"60395bb3bfc7963f1219fdba","study_id":"6197b3f67c2b5cd3b6d9596a","session_id":"619bef068c2b4237f051b045","condition":"contingent","relevant_dimensions":["wings","legs"],"bee_group":{"antennae":"X","wings":"1","pattern":"X","legs":"M"},"action":"harvest","summary":"good-harvest","bonus":0.5800000000000003},{"rt":491.89999997615814,"stimulus":"\n                    <p><b>Action: <em>harvest</em></b></p>\n                    <p>This is the bee that you just saw.</p>\n                    <img src=\"bees-with-color/bee-A1SF.svg\" width=\"200\">\n                    <p><span class=\"greenText\"><b>Successful harvest!</b></span><br>Your pay has increased by $0.02. Your bonus pay is now $0.08.</p>\n            ","response":0,"trial_type":"html-button-response","trial_index":98,"time_elapsed":179886,"internal_node_id":"0.0-4.0-1.45","subject_id":"60395bb3bfc7963f1219fdba","study_id":"6197b3f67c2b5cd3b6d9596a","session_id":"619bef068c2b4237f051b045","condition":"contingent","relevant_dimensions":["wings","legs"],"bee_group":{"antennae":"X","wings":"1","pattern":"X","legs":"M"},"bonus":0.5800000000000003},{"rt":616.1999999284744,"stimulus":"bees-with-color/bee-A1DF.svg","response":0,"trial_type":"image-button-response","trial_index":99,"time_elapsed":180503,"internal_node_id":"0.0-4.0-0.46","subject_id":"60395bb3bfc7963f1219fdba","study_id":"6197b3f67c2b5cd3b6d9596a","session_id":"619bef068c2b4237f051b045","condition":"contingent","relevant_dimensions":["wings","legs"],"bee_group":{"antennae":"X","wings":"1","pattern":"X","legs":"M"},"action":"harvest","summary":"good-harvest","bonus":0.5800000000000003},{"rt":491.2999999523163,"stimulus":"\n                    <p><b>Action: <em>harvest</em></b></p>\n                    <p>This is the bee that you just saw.</p>\n                    <img src=\"bees-with-color/bee-A1DF.svg\" width=\"200\">\n                    <p><span class=\"greenText\"><b>Successful harvest!</b></span><br>Your pay has increased by $0.02. Your bonus pay is now $0.10.</p>\n            ","response":0,"trial_type":"html-button-response","trial_index":100,"time_elapsed":180996,"internal_node_id":"0.0-4.0-1.46","subject_id":"60395bb3bfc7963f1219fdba","study_id":"6197b3f67c2b5cd3b6d9596a","session_id":"619bef068c2b4237f051b045","condition":"contingent","relevant_dimensions":["wings","legs"],"bee_group":{"antennae":"X","wings":"1","pattern":"X","legs":"M"},"bonus":0.5800000000000003},{"rt":677.5,"stimulus":"bees-with-color/bee-B2DF.svg","response":0,"trial_type":"image-button-response","trial_index":101,"time_elapsed":181675,"internal_node_id":"0.0-4.0-0.47","subject_id":"60395bb3bfc7963f1219fdba","study_id":"6197b3f67c2b5cd3b6d9596a","session_id":"619bef068c2b4237f051b045","condition":"contingent","relevant_dimensions":["wings","legs"],"bee_group":{"antennae":"X","wings":"1","pattern":"X","legs":"M"},"action":"harvest","summary":"good-harvest","bonus":0.5800000000000003},{"rt":489.7999999523163,"stimulus":"\n                    <p><b>Action: <em>harvest</em></b></p>\n                    <p>This is the bee that you just saw.</p>\n                    <img src=\"bees-with-color/bee-B2DF.svg\" width=\"200\">\n                    <p><span class=\"greenText\"><b>Successful harvest!</b></span><br>Your pay has increased by $0.02. Your bonus pay is now $0.12.</p>\n            ","response":0,"trial_type":"html-button-response","trial_index":102,"time_elapsed":182166,"internal_node_id":"0.0-4.0-1.47","subject_id":"60395bb3bfc7963f1219fdba","study_id":"6197b3f67c2b5cd3b6d9596a","session_id":"619bef068c2b4237f051b045","condition":"contingent","relevant_dimensions":["wings","legs"],"bee_group":{"antennae":"X","wings":"1","pattern":"X","legs":"M"},"bonus":0.5800000000000003},{"rt":890.8999999761581,"stimulus":"bees-with-color/bee-A2SM.svg","response":1,"trial_type":"image-button-response","trial_index":103,"time_elapsed":183058,"internal_node_id":"0.0-4.0-0.48","subject_id":"60395bb3bfc7963f1219fdba","study_id":"6197b3f67c2b5cd3b6d9596a","session_id":"619bef068c2b4237f051b045","condition":"contingent","relevant_dimensions":["wings","legs"],"bee_group":{"antennae":"X","wings":"1","pattern":"X","legs":"M"},"action":"avoid","summary":"bad-avoid","bonus":0.5800000000000003},{"rt":442,"stimulus":"\n                    <p><b>Action: <em>avoid</em></b></p>\n                    <p>This is the bee that you just saw.</p>\n                    <img src=\"bees-with-color/bee-A2SM.svg\" width=\"200\">\n                    <p><br>Your bonus pay is unchanged, and remains at $0.12.</p>\n            ","response":0,"trial_type":"html-button-response","trial_index":104,"time_elapsed":183501,"internal_node_id":"0.0-4.0-1.48","subject_id":"60395bb3bfc7963f1219fdba","study_id":"6197b3f67c2b5cd3b6d9596a","session_id":"619bef068c2b4237f051b045","condition":"contingent","relevant_dimensions":["wings","legs"],"bee_group":{"antennae":"X","wings":"1","pattern":"X","legs":"M"},"bonus":0.5800000000000003},{"rt":538.8000000715256,"stimulus":"bees-with-color/bee-B1SF.svg","response":0,"trial_type":"image-button-response","trial_index":105,"time_elapsed":184041,"internal_node_id":"0.0-4.0-0.49","subject_id":"60395bb3bfc7963f1219fdba","study_id":"6197b3f67c2b5cd3b6d9596a","session_id":"619bef068c2b4237f051b045","condition":"contingent","relevant_dimensions":["wings","legs"],"bee_group":{"antennae":"X","wings":"1","pattern":"X","legs":"M"},"action":"harvest","summary":"good-harvest","bonus":0.5800000000000003},{"rt":428.5,"stimulus":"\n                    <p><b>Action: <em>harvest</em></b></p>\n                    <p>This is the bee that you just saw.</p>\n                    <img src=\"bees-with-color/bee-B1SF.svg\" width=\"200\">\n                    <p><span class=\"greenText\"><b>Successful harvest!</b></span><br>Your pay has increased by $0.02. Your bonus pay is now $0.14.</p>\n            ","response":0,"trial_type":"html-button-response","trial_index":106,"time_elapsed":184471,"internal_node_id":"0.0-4.0-1.49","subject_id":"60395bb3bfc7963f1219fdba","study_id":"6197b3f67c2b5cd3b6d9596a","session_id":"619bef068c2b4237f051b045","condition":"contingent","relevant_dimensions":["wings","legs"],"bee_group":{"antennae":"X","wings":"1","pattern":"X","legs":"M"},"bonus":0.5800000000000003},{"rt":507.5,"stimulus":"bees-with-color/bee-A2SF.svg","response":1,"trial_type":"image-button-response","trial_index":107,"time_elapsed":184980,"internal_node_id":"0.0-4.0-0.50","subject_id":"60395bb3bfc7963f1219fdba","study_id":"6197b3f67c2b5cd3b6d9596a","session_id":"619bef068c2b4237f051b045","condition":"contingent","relevant_dimensions":["wings","legs"],"bee_group":{"antennae":"X","wings":"1","pattern":"X","legs":"M"},"action":"avoid","summary":"bad-avoid","bonus":0.5800000000000003},{"rt":624,"stimulus":"\n                    <p><b>Action: <em>avoid</em></b></p>\n                    <p>This is the bee that you just saw.</p>\n                    <img src=\"bees-with-color/bee-A2SF.svg\" width=\"200\">\n                    <p><br>Your bonus pay is unchanged, and remains at $0.14.</p>\n            ","response":0,"trial_type":"html-button-response","trial_index":108,"time_elapsed":185605,"internal_node_id":"0.0-4.0-1.50","subject_id":"60395bb3bfc7963f1219fdba","study_id":"6197b3f67c2b5cd3b6d9596a","session_id":"619bef068c2b4237f051b045","condition":"contingent","relevant_dimensions":["wings","legs"],"bee_group":{"antennae":"X","wings":"1","pattern":"X","legs":"M"},"bonus":0.5800000000000003},{"rt":761.5,"stimulus":"bees-with-color/bee-B2DF.svg","response":0,"trial_type":"image-button-response","trial_index":109,"time_elapsed":186368,"internal_node_id":"0.0-4.0-0.51","subject_id":"60395bb3bfc7963f1219fdba","study_id":"6197b3f67c2b5cd3b6d9596a","session_id":"619bef068c2b4237f051b045","condition":"contingent","relevant_dimensions":["wings","legs"],"bee_group":{"antennae":"X","wings":"1","pattern":"X","legs":"M"},"action":"harvest","summary":"good-harvest","bonus":0.5800000000000003},{"rt":440.40000009536743,"stimulus":"\n                    <p><b>Action: <em>harvest</em></b></p>\n                    <p>This is the bee that you just saw.</p>\n                    <img src=\"bees-with-color/bee-B2DF.svg\" width=\"200\">\n                    <p><span class=\"greenText\"><b>Successful harvest!</b></span><br>Your pay has increased by $0.02. Your bonus pay is now $0.16.</p>\n            ","response":0,"trial_type":"html-button-response","trial_index":110,"time_elapsed":186810,"internal_node_id":"0.0-4.0-1.51","subject_id":"60395bb3bfc7963f1219fdba","study_id":"6197b3f67c2b5cd3b6d9596a","session_id":"619bef068c2b4237f051b045","condition":"contingent","relevant_dimensions":["wings","legs"],"bee_group":{"antennae":"X","wings":"1","pattern":"X","legs":"M"},"bonus":0.5800000000000003},{"rt":736.2000000476837,"stimulus":"bees-with-color/bee-B2SM.svg","response":1,"trial_type":"image-button-response","trial_index":111,"time_elapsed":187547,"internal_node_id":"0.0-4.0-0.52","subject_id":"60395bb3bfc7963f1219fdba","study_id":"6197b3f67c2b5cd3b6d9596a","session_id":"619bef068c2b4237f051b045","condition":"contingent","relevant_dimensions":["wings","legs"],"bee_group":{"antennae":"X","wings":"1","pattern":"X","legs":"M"},"action":"avoid","summary":"bad-avoid","bonus":0.5800000000000003},{"rt":383.3000000715256,"stimulus":"\n                    <p><b>Action: <em>avoid</em></b></p>\n                    <p>This is the bee that you just saw.</p>\n                    <img src=\"bees-with-color/bee-B2SM.svg\" width=\"200\">\n                    <p><br>Your bonus pay is unchanged, and remains at $0.16.</p>\n            ","response":0,"trial_type":"html-button-response","trial_index":112,"time_elapsed":187932,"internal_node_id":"0.0-4.0-1.52","subject_id":"60395bb3bfc7963f1219fdba","study_id":"6197b3f67c2b5cd3b6d9596a","session_id":"619bef068c2b4237f051b045","condition":"contingent","relevant_dimensions":["wings","legs"],"bee_group":{"antennae":"X","wings":"1","pattern":"X","legs":"M"},"bonus":0.5800000000000003},{"rt":825.3999999761581,"stimulus":"bees-with-color/bee-B1DM.svg","response":1,"trial_type":"image-button-response","trial_index":113,"time_elapsed":188759,"internal_node_id":"0.0-4.0-0.53","subject_id":"60395bb3bfc7963f1219fdba","study_id":"6197b3f67c2b5cd3b6d9596a","session_id":"619bef068c2b4237f051b045","condition":"contingent","relevant_dimensions":["wings","legs"],"bee_group":{"antennae":"X","wings":"1","pattern":"X","legs":"M"},"action":"avoid","summary":"good-avoid","bonus":0.5800000000000003},{"rt":350.2000000476837,"stimulus":"\n                    <p><b>Action: <em>avoid</em></b></p>\n                    <p>This is the bee that you just saw.</p>\n                    <img src=\"bees-with-color/bee-B1DM.svg\" width=\"200\">\n                    <p><br>Your bonus pay is unchanged, and remains at $0.16.</p>\n            ","response":0,"trial_type":"html-button-response","trial_index":114,"time_elapsed":189112,"internal_node_id":"0.0-4.0-1.53","subject_id":"60395bb3bfc7963f1219fdba","study_id":"6197b3f67c2b5cd3b6d9596a","session_id":"619bef068c2b4237f051b045","condition":"contingent","relevant_dimensions":["wings","legs"],"bee_group":{"antennae":"X","wings":"1","pattern":"X","legs":"M"},"bonus":0.5800000000000003},{"rt":630.1000000238419,"stimulus":"bees-with-color/bee-A1SM.svg","response":1,"trial_type":"image-button-response","trial_index":115,"time_elapsed":189743,"internal_node_id":"0.0-4.0-0.54","subject_id":"60395bb3bfc7963f1219fdba","study_id":"6197b3f67c2b5cd3b6d9596a","session_id":"619bef068c2b4237f051b045","condition":"contingent","relevant_dimensions":["wings","legs"],"bee_group":{"antennae":"X","wings":"1","pattern":"X","legs":"M"},"action":"avoid","summary":"good-avoid","bonus":0.5800000000000003},{"rt":380.6999999284744,"stimulus":"\n                    <p><b>Action: <em>avoid</em></b></p>\n                    <p>This is the bee that you just saw.</p>\n                    <img src=\"bees-with-color/bee-A1SM.svg\" width=\"200\">\n                    <p><br>Your bonus pay is unchanged, and remains at $0.16.</p>\n            ","response":0,"trial_type":"html-button-response","trial_index":116,"time_elapsed":190125,"internal_node_id":"0.0-4.0-1.54","subject_id":"60395bb3bfc7963f1219fdba","study_id":"6197b3f67c2b5cd3b6d9596a","session_id":"619bef068c2b4237f051b045","condition":"contingent","relevant_dimensions":["wings","legs"],"bee_group":{"antennae":"X","wings":"1","pattern":"X","legs":"M"},"bonus":0.5800000000000003},{"rt":579.5,"stimulus":"bees-with-color/bee-A1SF.svg","response":0,"trial_type":"image-button-response","trial_index":117,"time_elapsed":190706,"internal_node_id":"0.0-4.0-0.55","subject_id":"60395bb3bfc7963f1219fdba","study_id":"6197b3f67c2b5cd3b6d9596a","session_id":"619bef068c2b4237f051b045","condition":"contingent","relevant_dimensions":["wings","legs"],"bee_group":{"antennae":"X","wings":"1","pattern":"X","legs":"M"},"action":"harvest","summary":"good-harvest","bonus":0.5800000000000003},{"rt":455.2000000476837,"stimulus":"\n                    <p><b>Action: <em>harvest</em></b></p>\n                    <p>This is the bee that you just saw.</p>\n                    <img src=\"bees-with-color/bee-A1SF.svg\" width=\"200\">\n                    <p><span class=\"greenText\"><b>Successful harvest!</b></span><br>Your pay has increased by $0.02. Your bonus pay is now $0.18.</p>\n            ","response":0,"trial_type":"html-button-response","trial_index":118,"time_elapsed":191163,"internal_node_id":"0.0-4.0-1.55","subject_id":"60395bb3bfc7963f1219fdba","study_id":"6197b3f67c2b5cd3b6d9596a","session_id":"619bef068c2b4237f051b045","condition":"contingent","relevant_dimensions":["wings","legs"],"bee_group":{"antennae":"X","wings":"1","pattern":"X","legs":"M"},"bonus":0.5800000000000003},{"rt":733.8999999761581,"stimulus":"bees-with-color/bee-A2DF.svg","response":0,"trial_type":"image-button-response","trial_index":119,"time_elapsed":191898,"internal_node_id":"0.0-4.0-0.56","subject_id":"60395bb3bfc7963f1219fdba","study_id":"6197b3f67c2b5cd3b6d9596a","session_id":"619bef068c2b4237f051b045","condition":"contingent","relevant_dimensions":["wings","legs"],"bee_group":{"antennae":"X","wings":"1","pattern":"X","legs":"M"},"action":"harvest","summary":"good-harvest","bonus":0.5800000000000003},{"rt":441.60000002384186,"stimulus":"\n                    <p><b>Action: <em>harvest</em></b></p>\n                    <p>This is the bee that you just saw.</p>\n                    <img src=\"bees-with-color/bee-A2DF.svg\" width=\"200\">\n                    <p><span class=\"greenText\"><b>Successful harvest!</b></span><br>Your pay has increased by $0.02. Your bonus pay is now $0.20.</p>\n            ","response":0,"trial_type":"html-button-response","trial_index":120,"time_elapsed":192341,"internal_node_id":"0.0-4.0-1.56","subject_id":"60395bb3bfc7963f1219fdba","study_id":"6197b3f67c2b5cd3b6d9596a","session_id":"619bef068c2b4237f051b045","condition":"contingent","relevant_dimensions":["wings","legs"],"bee_group":{"antennae":"X","wings":"1","pattern":"X","legs":"M"},"bonus":0.5800000000000003},{"rt":760,"stimulus":"bees-with-color/bee-A1DF.svg","response":0,"trial_type":"image-button-response","trial_index":121,"time_elapsed":193102,"internal_node_id":"0.0-4.0-0.57","subject_id":"60395bb3bfc7963f1219fdba","study_id":"6197b3f67c2b5cd3b6d9596a","session_id":"619bef068c2b4237f051b045","condition":"contingent","relevant_dimensions":["wings","legs"],"bee_group":{"antennae":"X","wings":"1","pattern":"X","legs":"M"},"action":"harvest","summary":"good-harvest","bonus":0.5800000000000003},{"rt":1276.6000000238419,"stimulus":"\n                    <p><b>Action: <em>harvest</em></b></p>\n                    <p>This is the bee that you just saw.</p>\n                    <img src=\"bees-with-color/bee-A1DF.svg\" width=\"200\">\n                    <p><span class=\"greenText\"><b>Successful harvest!</b></span><br>Your pay has increased by $0.02. Your bonus pay is now $0.22.</p>\n            ","response":0,"trial_type":"html-button-response","trial_index":122,"time_elapsed":194380,"internal_node_id":"0.0-4.0-1.57","subject_id":"60395bb3bfc7963f1219fdba","study_id":"6197b3f67c2b5cd3b6d9596a","session_id":"619bef068c2b4237f051b045","condition":"contingent","relevant_dimensions":["wings","legs"],"bee_group":{"antennae":"X","wings":"1","pattern":"X","legs":"M"},"bonus":0.5800000000000003},{"rt":752,"stimulus":"bees-with-color/bee-B2SF.svg","response":0,"trial_type":"image-button-response","trial_index":123,"time_elapsed":195133,"internal_node_id":"0.0-4.0-0.58","subject_id":"60395bb3bfc7963f1219fdba","study_id":"6197b3f67c2b5cd3b6d9596a","session_id":"619bef068c2b4237f051b045","condition":"contingent","relevant_dimensions":["wings","legs"],"bee_group":{"antennae":"X","wings":"1","pattern":"X","legs":"M"},"action":"harvest","summary":"good-harvest","bonus":0.5800000000000003},{"rt":494,"stimulus":"\n                    <p><b>Action: <em>harvest</em></b></p>\n                    <p>This is the bee that you just saw.</p>\n                    <img src=\"bees-with-color/bee-B2SF.svg\" width=\"200\">\n                    <p><span class=\"greenText\"><b>Successful harvest!</b></span><br>Your pay has increased by $0.02. Your bonus pay is now $0.24.</p>\n            ","response":0,"trial_type":"html-button-response","trial_index":124,"time_elapsed":195628,"internal_node_id":"0.0-4.0-1.58","subject_id":"60395bb3bfc7963f1219fdba","study_id":"6197b3f67c2b5cd3b6d9596a","session_id":"619bef068c2b4237f051b045","condition":"contingent","relevant_dimensions":["wings","legs"],"bee_group":{"antennae":"X","wings":"1","pattern":"X","legs":"M"},"bonus":0.5800000000000003},{"rt":718.3999999761581,"stimulus":"bees-with-color/bee-A1DM.svg","response":1,"trial_type":"image-button-response","trial_index":125,"time_elapsed":196348,"internal_node_id":"0.0-4.0-0.59","subject_id":"60395bb3bfc7963f1219fdba","study_id":"6197b3f67c2b5cd3b6d9596a","session_id":"619bef068c2b4237f051b045","condition":"contingent","relevant_dimensions":["wings","legs"],"bee_group":{"antennae":"X","wings":"1","pattern":"X","legs":"M"},"action":"avoid","summary":"good-avoid","bonus":0.5800000000000003},{"rt":413,"stimulus":"\n                    <p><b>Action: <em>avoid</em></b></p>\n                    <p>This is the bee that you just saw.</p>\n                    <img src=\"bees-with-color/bee-A1DM.svg\" width=\"200\">\n                    <p><br>Your bonus pay is unchanged, and remains at $0.24.</p>\n            ","response":0,"trial_type":"html-button-response","trial_index":126,"time_elapsed":196763,"internal_node_id":"0.0-4.0-1.59","subject_id":"60395bb3bfc7963f1219fdba","study_id":"6197b3f67c2b5cd3b6d9596a","session_id":"619bef068c2b4237f051b045","condition":"contingent","relevant_dimensions":["wings","legs"],"bee_group":{"antennae":"X","wings":"1","pattern":"X","legs":"M"},"bonus":0.5800000000000003},{"rt":615.1000000238419,"stimulus":"bees-with-color/bee-B1DF.svg","response":0,"trial_type":"image-button-response","trial_index":127,"time_elapsed":197379,"internal_node_id":"0.0-4.0-0.60","subject_id":"60395bb3bfc7963f1219fdba","study_id":"6197b3f67c2b5cd3b6d9596a","session_id":"619bef068c2b4237f051b045","condition":"contingent","relevant_dimensions":["wings","legs"],"bee_group":{"antennae":"X","wings":"1","pattern":"X","legs":"M"},"action":"harvest","summary":"good-harvest","bonus":0.5800000000000003},{"rt":467.3000000715256,"stimulus":"\n                    <p><b>Action: <em>harvest</em></b></p>\n                    <p>This is the bee that you just saw.</p>\n                    <img src=\"bees-with-color/bee-B1DF.svg\" width=\"200\">\n                    <p><span class=\"greenText\"><b>Successful harvest!</b></span><br>Your pay has increased by $0.02. Your bonus pay is now $0.26.</p>\n            ","response":0,"trial_type":"html-button-response","trial_index":128,"time_elapsed":197848,"internal_node_id":"0.0-4.0-1.60","subject_id":"60395bb3bfc7963f1219fdba","study_id":"6197b3f67c2b5cd3b6d9596a","session_id":"619bef068c2b4237f051b045","condition":"contingent","relevant_dimensions":["wings","legs"],"bee_group":{"antennae":"X","wings":"1","pattern":"X","legs":"M"},"bonus":0.5800000000000003},{"rt":813.9000000953674,"stimulus":"bees-with-color/bee-A2DM.svg","response":1,"trial_type":"image-button-response","trial_index":129,"time_elapsed":198663,"internal_node_id":"0.0-4.0-0.61","subject_id":"60395bb3bfc7963f1219fdba","study_id":"6197b3f67c2b5cd3b6d9596a","session_id":"619bef068c2b4237f051b045","condition":"contingent","relevant_dimensions":["wings","legs"],"bee_group":{"antennae":"X","wings":"1","pattern":"X","legs":"M"},"action":"avoid","summary":"bad-avoid","bonus":0.5800000000000003},{"rt":393.89999997615814,"stimulus":"\n                    <p><b>Action: <em>avoid</em></b></p>\n                    <p>This is the bee that you just saw.</p>\n                    <img src=\"bees-with-color/bee-A2DM.svg\" width=\"200\">\n                    <p><br>Your bonus pay is unchanged, and remains at $0.26.</p>\n            ","response":0,"trial_type":"html-button-response","trial_index":130,"time_elapsed":199058,"internal_node_id":"0.0-4.0-1.61","subject_id":"60395bb3bfc7963f1219fdba","study_id":"6197b3f67c2b5cd3b6d9596a","session_id":"619bef068c2b4237f051b045","condition":"contingent","relevant_dimensions":["wings","legs"],"bee_group":{"antennae":"X","wings":"1","pattern":"X","legs":"M"},"bonus":0.5800000000000003},{"rt":716.3999999761581,"stimulus":"bees-with-color/bee-B1SM.svg","response":1,"trial_type":"image-button-response","trial_index":131,"time_elapsed":199776,"internal_node_id":"0.0-4.0-0.62","subject_id":"60395bb3bfc7963f1219fdba","study_id":"6197b3f67c2b5cd3b6d9596a","session_id":"619bef068c2b4237f051b045","condition":"contingent","relevant_dimensions":["wings","legs"],"bee_group":{"antennae":"X","wings":"1","pattern":"X","legs":"M"},"action":"avoid","summary":"good-avoid","bonus":0.5800000000000003},{"rt":376.2999999523163,"stimulus":"\n                    <p><b>Action: <em>avoid</em></b></p>\n                    <p>This is the bee that you just saw.</p>\n                    <img src=\"bees-with-color/bee-B1SM.svg\" width=\"200\">\n                    <p><br>Your bonus pay is unchanged, and remains at $0.26.</p>\n            ","response":0,"trial_type":"html-button-response","trial_index":132,"time_elapsed":200154,"internal_node_id":"0.0-4.0-1.62","subject_id":"60395bb3bfc7963f1219fdba","study_id":"6197b3f67c2b5cd3b6d9596a","session_id":"619bef068c2b4237f051b045","condition":"contingent","relevant_dimensions":["wings","legs"],"bee_group":{"antennae":"X","wings":"1","pattern":"X","legs":"M"},"bonus":0.5800000000000003},{"rt":575.6000000238419,"stimulus":"bees-with-color/bee-B2DM.svg","response":1,"trial_type":"image-button-response","trial_index":133,"time_elapsed":200731,"internal_node_id":"0.0-4.0-0.63","subject_id":"60395bb3bfc7963f1219fdba","study_id":"6197b3f67c2b5cd3b6d9596a","session_id":"619bef068c2b4237f051b045","condition":"contingent","relevant_dimensions":["wings","legs"],"bee_group":{"antennae":"X","wings":"1","pattern":"X","legs":"M"},"action":"avoid","summary":"bad-avoid","bonus":0.5800000000000003},{"rt":401.10000002384186,"stimulus":"\n                    <p><b>Action: <em>avoid</em></b></p>\n                    <p>This is the bee that you just saw.</p>\n                    <img src=\"bees-with-color/bee-B2DM.svg\" width=\"200\">\n                    <p><br>Your bonus pay is unchanged, and remains at $0.26.</p>\n            ","response":0,"trial_type":"html-button-response","trial_index":134,"time_elapsed":201133,"internal_node_id":"0.0-4.0-1.63","subject_id":"60395bb3bfc7963f1219fdba","study_id":"6197b3f67c2b5cd3b6d9596a","session_id":"619bef068c2b4237f051b045","condition":"contingent","relevant_dimensions":["wings","legs"],"bee_group":{"antennae":"X","wings":"1","pattern":"X","legs":"M"},"bonus":0.5800000000000003},{"rt":4811.700000047684,"stimulus":"You have completed the first part of this experiment.<br><br>You will now begin a shorter second part, in which you will receive no feedback.<br>The same rules regarding bonus pay apply.<br><br>Press any key to begin.","response":" ","trial_type":"html-keyboard-response","trial_index":135,"time_elapsed":205946,"internal_node_id":"0.0-5.0","subject_id":"60395bb3bfc7963f1219fdba","study_id":"6197b3f67c2b5cd3b6d9596a","session_id":"619bef068c2b4237f051b045","condition":"contingent","relevant_dimensions":["wings","legs"],"bee_group":{"antennae":"X","wings":"1","pattern":"X","legs":"M"},"bonus":0.5800000000000003},{"rt":2303.7000000476837,"stimulus":"bees-with-color/bee-B2SF.svg","response":0,"trial_type":"image-button-response","trial_index":136,"time_elapsed":208257,"internal_node_id":"0.0-6.0-0.0","subject_id":"60395bb3bfc7963f1219fdba","study_id":"6197b3f67c2b5cd3b6d9596a","session_id":"619bef068c2b4237f051b045","condition":"contingent","relevant_dimensions":["wings","legs"],"bee_group":{"antennae":"X","wings":"1","pattern":"X","legs":"M"},"bonus":0.5800000000000003},{"rt":800.2000000476837,"stimulus":"bees-with-color/bee-A1DF.svg","response":0,"trial_type":"image-button-response","trial_index":137,"time_elapsed":209059,"internal_node_id":"0.0-6.0-0.1","subject_id":"60395bb3bfc7963f1219fdba","study_id":"6197b3f67c2b5cd3b6d9596a","session_id":"619bef068c2b4237f051b045","condition":"contingent","relevant_dimensions":["wings","legs"],"bee_group":{"antennae":"X","wings":"1","pattern":"X","legs":"M"},"bonus":0.5800000000000003},{"rt":720.3999999761581,"stimulus":"bees-with-color/bee-B1SM.svg","response":1,"trial_type":"image-button-response","trial_index":138,"time_elapsed":209781,"internal_node_id":"0.0-6.0-0.2","subject_id":"60395bb3bfc7963f1219fdba","study_id":"6197b3f67c2b5cd3b6d9596a","session_id":"619bef068c2b4237f051b045","condition":"contingent","relevant_dimensions":["wings","legs"],"bee_group":{"antennae":"X","wings":"1","pattern":"X","legs":"M"},"bonus":0.5800000000000003},{"rt":749,"stimulus":"bees-with-color/bee-B1DF.svg","response":0,"trial_type":"image-button-response","trial_index":139,"time_elapsed":210532,"internal_node_id":"0.0-6.0-0.3","subject_id":"60395bb3bfc7963f1219fdba","study_id":"6197b3f67c2b5cd3b6d9596a","session_id":"619bef068c2b4237f051b045","condition":"contingent","relevant_dimensions":["wings","legs"],"bee_group":{"antennae":"X","wings":"1","pattern":"X","legs":"M"},"bonus":0.5800000000000003},{"rt":728.7000000476837,"stimulus":"bees-with-color/bee-A2DF.svg","response":0,"trial_type":"image-button-response","trial_index":140,"time_elapsed":211263,"internal_node_id":"0.0-6.0-0.4","subject_id":"60395bb3bfc7963f1219fdba","study_id":"6197b3f67c2b5cd3b6d9596a","session_id":"619bef068c2b4237f051b045","condition":"contingent","relevant_dimensions":["wings","legs"],"bee_group":{"antennae":"X","wings":"1","pattern":"X","legs":"M"},"bonus":0.5800000000000003},{"rt":654.6000000238419,"stimulus":"bees-with-color/bee-A1SF.svg","response":0,"trial_type":"image-button-response","trial_index":141,"time_elapsed":211919,"internal_node_id":"0.0-6.0-0.5","subject_id":"60395bb3bfc7963f1219fdba","study_id":"6197b3f67c2b5cd3b6d9596a","session_id":"619bef068c2b4237f051b045","condition":"contingent","relevant_dimensions":["wings","legs"],"bee_group":{"antennae":"X","wings":"1","pattern":"X","legs":"M"},"bonus":0.5800000000000003},{"rt":664.8999999761581,"stimulus":"bees-with-color/bee-B1SF.svg","response":0,"trial_type":"image-button-response","trial_index":142,"time_elapsed":212586,"internal_node_id":"0.0-6.0-0.6","subject_id":"60395bb3bfc7963f1219fdba","study_id":"6197b3f67c2b5cd3b6d9596a","session_id":"619bef068c2b4237f051b045","condition":"contingent","relevant_dimensions":["wings","legs"],"bee_group":{"antennae":"X","wings":"1","pattern":"X","legs":"M"},"bonus":0.5800000000000003},{"rt":682.8999999761581,"stimulus":"bees-with-color/bee-B1DM.svg","response":1,"trial_type":"image-button-response","trial_index":143,"time_elapsed":213271,"internal_node_id":"0.0-6.0-0.7","subject_id":"60395bb3bfc7963f1219fdba","study_id":"6197b3f67c2b5cd3b6d9596a","session_id":"619bef068c2b4237f051b045","condition":"contingent","relevant_dimensions":["wings","legs"],"bee_group":{"antennae":"X","wings":"1","pattern":"X","legs":"M"},"bonus":0.5800000000000003},{"rt":556.8000000715256,"stimulus":"bees-with-color/bee-B2DM.svg","response":1,"trial_type":"image-button-response","trial_index":144,"time_elapsed":213830,"internal_node_id":"0.0-6.0-0.8","subject_id":"60395bb3bfc7963f1219fdba","study_id":"6197b3f67c2b5cd3b6d9596a","session_id":"619bef068c2b4237f051b045","condition":"contingent","relevant_dimensions":["wings","legs"],"bee_group":{"antennae":"X","wings":"1","pattern":"X","legs":"M"},"bonus":0.5800000000000003},{"rt":616.2999999523163,"stimulus":"bees-with-color/bee-A2DM.svg","response":1,"trial_type":"image-button-response","trial_index":145,"time_elapsed":214448,"internal_node_id":"0.0-6.0-0.9","subject_id":"60395bb3bfc7963f1219fdba","study_id":"6197b3f67c2b5cd3b6d9596a","session_id":"619bef068c2b4237f051b045","condition":"contingent","relevant_dimensions":["wings","legs"],"bee_group":{"antennae":"X","wings":"1","pattern":"X","legs":"M"},"bonus":0.5800000000000003},{"rt":575.2999999523163,"stimulus":"bees-with-color/bee-A1DM.svg","response":1,"trial_type":"image-button-response","trial_index":146,"time_elapsed":215025,"internal_node_id":"0.0-6.0-0.10","subject_id":"60395bb3bfc7963f1219fdba","study_id":"6197b3f67c2b5cd3b6d9596a","session_id":"619bef068c2b4237f051b045","condition":"contingent","relevant_dimensions":["wings","legs"],"bee_group":{"antennae":"X","wings":"1","pattern":"X","legs":"M"},"bonus":0.5800000000000003},{"rt":562.7999999523163,"stimulus":"bees-with-color/bee-A1SM.svg","response":1,"trial_type":"image-button-response","trial_index":147,"time_elapsed":215590,"internal_node_id":"0.0-6.0-0.11","subject_id":"60395bb3bfc7963f1219fdba","study_id":"6197b3f67c2b5cd3b6d9596a","session_id":"619bef068c2b4237f051b045","condition":"contingent","relevant_dimensions":["wings","legs"],"bee_group":{"antennae":"X","wings":"1","pattern":"X","legs":"M"},"bonus":0.5800000000000003},{"rt":576.3999999761581,"stimulus":"bees-with-color/bee-A2SF.svg","response":0,"trial_type":"image-button-response","trial_index":148,"time_elapsed":216168,"internal_node_id":"0.0-6.0-0.12","subject_id":"60395bb3bfc7963f1219fdba","study_id":"6197b3f67c2b5cd3b6d9596a","session_id":"619bef068c2b4237f051b045","condition":"contingent","relevant_dimensions":["wings","legs"],"bee_group":{"antennae":"X","wings":"1","pattern":"X","legs":"M"},"bonus":0.5800000000000003},{"rt":806.2000000476837,"stimulus":"bees-with-color/bee-B2DF.svg","response":0,"trial_type":"image-button-response","trial_index":149,"time_elapsed":216976,"internal_node_id":"0.0-6.0-0.13","subject_id":"60395bb3bfc7963f1219fdba","study_id":"6197b3f67c2b5cd3b6d9596a","session_id":"619bef068c2b4237f051b045","condition":"contingent","relevant_dimensions":["wings","legs"],"bee_group":{"antennae":"X","wings":"1","pattern":"X","legs":"M"},"bonus":0.5800000000000003},{"rt":644.4000000953674,"stimulus":"bees-with-color/bee-B2SM.svg","response":1,"trial_type":"image-button-response","trial_index":150,"time_elapsed":217622,"internal_node_id":"0.0-6.0-0.14","subject_id":"60395bb3bfc7963f1219fdba","study_id":"6197b3f67c2b5cd3b6d9596a","session_id":"619bef068c2b4237f051b045","condition":"contingent","relevant_dimensions":["wings","legs"],"bee_group":{"antennae":"X","wings":"1","pattern":"X","legs":"M"},"bonus":0.5800000000000003},{"rt":499.5,"stimulus":"bees-with-color/bee-A2SM.svg","response":1,"trial_type":"image-button-response","trial_index":151,"time_elapsed":218123,"internal_node_id":"0.0-6.0-0.15","subject_id":"60395bb3bfc7963f1219fdba","study_id":"6197b3f67c2b5cd3b6d9596a","session_id":"619bef068c2b4237f051b045","condition":"contingent","relevant_dimensions":["wings","legs"],"bee_group":{"antennae":"X","wings":"1","pattern":"X","legs":"M"},"bonus":0.5800000000000003},{"rt":560.5,"stimulus":"bees-with-color/bee-B1SM.svg","response":1,"trial_type":"image-button-response","trial_index":152,"time_elapsed":218685,"internal_node_id":"0.0-6.0-0.16","subject_id":"60395bb3bfc7963f1219fdba","study_id":"6197b3f67c2b5cd3b6d9596a","session_id":"619bef068c2b4237f051b045","condition":"contingent","relevant_dimensions":["wings","legs"],"bee_group":{"antennae":"X","wings":"1","pattern":"X","legs":"M"},"bonus":0.5800000000000003},{"rt":506.6999999284744,"stimulus":"bees-with-color/bee-A1DM.svg","response":1,"trial_type":"image-button-response","trial_index":153,"time_elapsed":219194,"internal_node_id":"0.0-6.0-0.17","subject_id":"60395bb3bfc7963f1219fdba","study_id":"6197b3f67c2b5cd3b6d9596a","session_id":"619bef068c2b4237f051b045","condition":"contingent","relevant_dimensions":["wings","legs"],"bee_group":{"antennae":"X","wings":"1","pattern":"X","legs":"M"},"bonus":0.5800000000000003},{"rt":636.6999999284744,"stimulus":"bees-with-color/bee-B2SF.svg","response":0,"trial_type":"image-button-response","trial_index":154,"time_elapsed":219832,"internal_node_id":"0.0-6.0-0.18","subject_id":"60395bb3bfc7963f1219fdba","study_id":"6197b3f67c2b5cd3b6d9596a","session_id":"619bef068c2b4237f051b045","condition":"contingent","relevant_dimensions":["wings","legs"],"bee_group":{"antennae":"X","wings":"1","pattern":"X","legs":"M"},"bonus":0.5800000000000003},{"rt":693.0999999046326,"stimulus":"bees-with-color/bee-B1DF.svg","response":0,"trial_type":"image-button-response","trial_index":155,"time_elapsed":220527,"internal_node_id":"0.0-6.0-0.19","subject_id":"60395bb3bfc7963f1219fdba","study_id":"6197b3f67c2b5cd3b6d9596a","session_id":"619bef068c2b4237f051b045","condition":"contingent","relevant_dimensions":["wings","legs"],"bee_group":{"antennae":"X","wings":"1","pattern":"X","legs":"M"},"bonus":0.5800000000000003},{"rt":649.2000000476837,"stimulus":"bees-with-color/bee-B2DM.svg","response":1,"trial_type":"image-button-response","trial_index":156,"time_elapsed":221178,"internal_node_id":"0.0-6.0-0.20","subject_id":"60395bb3bfc7963f1219fdba","study_id":"6197b3f67c2b5cd3b6d9596a","session_id":"619bef068c2b4237f051b045","condition":"contingent","relevant_dimensions":["wings","legs"],"bee_group":{"antennae":"X","wings":"1","pattern":"X","legs":"M"},"bonus":0.5800000000000003},{"rt":547.6999999284744,"stimulus":"bees-with-color/bee-A2SM.svg","response":1,"trial_type":"image-button-response","trial_index":157,"time_elapsed":221727,"internal_node_id":"0.0-6.0-0.21","subject_id":"60395bb3bfc7963f1219fdba","study_id":"6197b3f67c2b5cd3b6d9596a","session_id":"619bef068c2b4237f051b045","condition":"contingent","relevant_dimensions":["wings","legs"],"bee_group":{"antennae":"X","wings":"1","pattern":"X","legs":"M"},"bonus":0.5800000000000003},{"rt":655.8000000715256,"stimulus":"bees-with-color/bee-A1DF.svg","response":0,"trial_type":"image-button-response","trial_index":158,"time_elapsed":222384,"internal_node_id":"0.0-6.0-0.22","subject_id":"60395bb3bfc7963f1219fdba","study_id":"6197b3f67c2b5cd3b6d9596a","session_id":"619bef068c2b4237f051b045","condition":"contingent","relevant_dimensions":["wings","legs"],"bee_group":{"antennae":"X","wings":"1","pattern":"X","legs":"M"},"bonus":0.5800000000000003},{"rt":656.4000000953674,"stimulus":"bees-with-color/bee-B2SM.svg","response":1,"trial_type":"image-button-response","trial_index":159,"time_elapsed":223043,"internal_node_id":"0.0-6.0-0.23","subject_id":"60395bb3bfc7963f1219fdba","study_id":"6197b3f67c2b5cd3b6d9596a","session_id":"619bef068c2b4237f051b045","condition":"contingent","relevant_dimensions":["wings","legs"],"bee_group":{"antennae":"X","wings":"1","pattern":"X","legs":"M"},"bonus":0.5800000000000003},{"rt":567.5,"stimulus":"bees-with-color/bee-A2SF.svg","response":0,"trial_type":"image-button-response","trial_index":160,"time_elapsed":223612,"internal_node_id":"0.0-6.0-0.24","subject_id":"60395bb3bfc7963f1219fdba","study_id":"6197b3f67c2b5cd3b6d9596a","session_id":"619bef068c2b4237f051b045","condition":"contingent","relevant_dimensions":["wings","legs"],"bee_group":{"antennae":"X","wings":"1","pattern":"X","legs":"M"},"bonus":0.5800000000000003},{"rt":626.3999999761581,"stimulus":"bees-with-color/bee-B1DM.svg","response":1,"trial_type":"image-button-response","trial_index":161,"time_elapsed":224240,"internal_node_id":"0.0-6.0-0.25","subject_id":"60395bb3bfc7963f1219fdba","study_id":"6197b3f67c2b5cd3b6d9596a","session_id":"619bef068c2b4237f051b045","condition":"contingent","relevant_dimensions":["wings","legs"],"bee_group":{"antennae":"X","wings":"1","pattern":"X","legs":"M"},"bonus":0.5800000000000003},{"rt":547.3999999761581,"stimulus":"bees-with-color/bee-A2DF.svg","response":0,"trial_type":"image-button-response","trial_index":162,"time_elapsed":224789,"internal_node_id":"0.0-6.0-0.26","subject_id":"60395bb3bfc7963f1219fdba","study_id":"6197b3f67c2b5cd3b6d9596a","session_id":"619bef068c2b4237f051b045","condition":"contingent","relevant_dimensions":["wings","legs"],"bee_group":{"antennae":"X","wings":"1","pattern":"X","legs":"M"},"bonus":0.5800000000000003},{"rt":616.0999999046326,"stimulus":"bees-with-color/bee-A2DM.svg","response":1,"trial_type":"image-button-response","trial_index":163,"time_elapsed":225407,"internal_node_id":"0.0-6.0-0.27","subject_id":"60395bb3bfc7963f1219fdba","study_id":"6197b3f67c2b5cd3b6d9596a","session_id":"619bef068c2b4237f051b045","condition":"contingent","relevant_dimensions":["wings","legs"],"bee_group":{"antennae":"X","wings":"1","pattern":"X","legs":"M"},"bonus":0.5800000000000003},{"rt":620.8999999761581,"stimulus":"bees-with-color/bee-B1SF.svg","response":0,"trial_type":"image-button-response