[{"success":true,"trial_type":"fullscreen","trial_index":0,"time_elapsed":3343,"internal_node_id":"0.0-0.0","subject_id":"5f29a219fd79260ef749a01d","study_id":"6197b3f67c2b5cd3b6d9596a","session_id":"619be58e4abfed32cce584e7","condition":"full-information","relevant_dimensions":["pattern","legs"],"bee_group":{"antennae":"X","wings":"X","pattern":"D","legs":"F"},"bonus":1.7800000000000014},{"success":true,"timeout":false,"failed_images":[],"failed_audio":[],"failed_video":[],"trial_type":"preload","trial_index":1,"time_elapsed":4803,"internal_node_id":"0.0-1.0","subject_id":"5f29a219fd79260ef749a01d","study_id":"6197b3f67c2b5cd3b6d9596a","session_id":"619be58e4abfed32cce584e7","condition":"full-information","relevant_dimensions":["pattern","legs"],"bee_group":{"antennae":"X","wings":"X","pattern":"D","legs":"F"},"bonus":1.7800000000000014},{"rt":995.5,"stimulus":"Welcome! Press any key to begin.","response":" ","trial_type":"html-keyboard-response","trial_index":2,"time_elapsed":5799,"internal_node_id":"0.0-2.0","subject_id":"5f29a219fd79260ef749a01d","study_id":"6197b3f67c2b5cd3b6d9596a","session_id":"619be58e4abfed32cce584e7","condition":"full-information","relevant_dimensions":["pattern","legs"],"bee_group":{"antennae":"X","wings":"X","pattern":"D","legs":"F"},"bonus":1.7800000000000014},{"view_history":[{"page_index":0,"viewing_time":3232.100000023842},{"page_index":1,"viewing_time":8049},{"page_index":2,"viewing_time":12180.5},{"page_index":3,"viewing_time":14703.700000047684},{"page_index":4,"viewing_time":4833},{"page_index":5,"viewing_time":7459.099999904633},{"page_index":6,"viewing_time":6340.5},{"page_index":7,"viewing_time":4096.700000047684},{"page_index":8,"viewing_time":4293},{"page_index":9,"viewing_time":4018.100000023842},{"page_index":10,"viewing_time":3974.6999999284744},{"page_index":11,"viewing_time":7836.900000095367},{"page_index":12,"viewing_time":11541.799999952316},{"page_index":13,"viewing_time":1482.1000000238419},{"page_index":14,"viewing_time":1731.8999999761581}],"rt":95774,"trial_type":"instructions","trial_index":3,"time_elapsed":101569,"internal_node_id":"0.0-3.0-0.0","subject_id":"5f29a219fd79260ef749a01d","study_id":"6197b3f67c2b5cd3b6d9596a","session_id":"619be58e4abfed32cce584e7","condition":"full-information","relevant_dimensions":["pattern","legs"],"bee_group":{"antennae":"X","wings":"X","pattern":"D","legs":"F"},"bonus":1.7800000000000014},{"rt":7930.699999928474,"response":{"Q0":["Two or six legs","Stripes or spots on body","Single or double wings","Antennae or no antennae"]},"question_order":[0],"trial_type":"survey-multi-select","trial_index":4,"time_elapsed":109519,"internal_node_id":"0.0-3.0-1.0","subject_id":"5f29a219fd79260ef749a01d","study_id":"6197b3f67c2b5cd3b6d9596a","session_id":"619be58e4abfed32cce584e7","condition":"full-information","relevant_dimensions":["pattern","legs"],"bee_group":{"antennae":"X","wings":"X","pattern":"D","legs":"F"},"correct":true,"bonus":1.7800000000000014},{"rt":16512.199999928474,"response":{"Q1":"No.","Q2":"Based on the four features of the bee.","Q3":"You learn if it was friendly or dangerous, but do not alter your bonus."},"question_order":[0,1,2],"trial_type":"survey-multi-choice","trial_index":5,"time_elapsed":126051,"internal_node_id":"0.0-3.0-2.0","subject_id":"5f29a219fd79260ef749a01d","study_id":"6197b3f67c2b5cd3b6d9596a","session_id":"619be58e4abfed32cce584e7","condition":"full-information","relevant_dimensions":["pattern","legs"],"bee_group":{"antennae":"X","wings":"X","pattern":"D","legs":"F"},"correct":true,"bonus":1.7800000000000014},{"rt":2138.100000023842,"stimulus":"<p>Congrats, you got everything right<br>When you're ready, click the button below to continue to the experiment.</p>","response":0,"trial_type":"html-button-response","trial_index":6,"time_elapsed":128198,"internal_node_id":"0.0-3.0-3.0","subject_id":"5f29a219fd79260ef749a01d","study_id":"6197b3f67c2b5cd3b6d9596a","session_id":"619be58e4abfed32cce584e7","condition":"full-information","relevant_dimensions":["pattern","legs"],"bee_group":{"antennae":"X","wings":"X","pattern":"D","legs":"F"},"bonus":1.7800000000000014},{"rt":4977.099999904633,"stimulus":"bees-with-color/bee-B2SF.svg","response":0,"trial_type":"image-button-response","trial_index":7,"time_elapsed":133196,"internal_node_id":"0.0-4.0-0.0","subject_id":"5f29a219fd79260ef749a01d","study_id":"6197b3f67c2b5cd3b6d9596a","session_id":"619be58e4abfed32cce584e7","condition":"full-information","relevant_dimensions":["pattern","legs"],"bee_group":{"antennae":"X","wings":"X","pattern":"D","legs":"F"},"action":"harvest","summary":"good-harvest","bonus":1.7800000000000014},{"rt":5683.299999952316,"stimulus":"\n                    <p><b>Action: <em>harvest</em></b></p>\n                    <p>This is the bee that you just saw.</p>\n                    <img src=\"bees-with-color/bee-B2SF.svg\" width=\"200\">\n                    <p><span class=\"greenText\"><b>Successful harvest!</b></span><br>Your pay has increased by $0.02. Your bonus pay is now $0.56.</p>\n            ","response":0,"trial_type":"html-button-response","trial_index":8,"time_elapsed":138892,"internal_node_id":"0.0-4.0-1.0","subject_id":"5f29a219fd79260ef749a01d","study_id":"6197b3f67c2b5cd3b6d9596a","session_id":"619be58e4abfed32cce584e7","condition":"full-information","relevant_dimensions":["pattern","legs"],"bee_group":{"antennae":"X","wings":"X","pattern":"D","legs":"F"},"bonus":1.7800000000000014},{"rt":3797.100000023842,"stimulus":"bees-with-color/bee-A2DM.svg","response":0,"trial_type":"image-button-response","trial_index":9,"time_elapsed":142700,"internal_node_id":"0.0-4.0-0.1","subject_id":"5f29a219fd79260ef749a01d","study_id":"6197b3f67c2b5cd3b6d9596a","session_id":"619be58e4abfed32cce584e7","condition":"full-information","relevant_dimensions":["pattern","legs"],"bee_group":{"antennae":"X","wings":"X","pattern":"D","legs":"F"},"action":"harvest","summary":"good-harvest","bonus":1.7800000000000014},{"rt":6506.100000023842,"stimulus":"\n                    <p><b>Action: <em>harvest</em></b></p>\n                    <p>This is the bee that you just saw.</p>\n                    <img src=\"bees-with-color/bee-A2DM.svg\" width=\"200\">\n                    <p><span class=\"greenText\"><b>Successful harvest!</b></span><br>Your pay has increased by $0.02. Your bonus pay is now $0.58.</p>\n            ","response":0,"trial_type":"html-button-response","trial_index":10,"time_elapsed":149214,"internal_node_id":"0.0-4.0-1.1","subject_id":"5f29a219fd79260ef749a01d","study_id":"6197b3f67c2b5cd3b6d9596a","session_id":"619be58e4abfed32cce584e7","condition":"full-information","relevant_dimensions":["pattern","legs"],"bee_group":{"antennae":"X","wings":"X","pattern":"D","legs":"F"},"bonus":1.7800000000000014},{"rt":1744.5,"stimulus":"bees-with-color/bee-B1SF.svg","response":0,"trial_type":"image-button-response","trial_index":11,"time_elapsed":150966,"internal_node_id":"0.0-4.0-0.2","subject_id":"5f29a219fd79260ef749a01d","study_id":"6197b3f67c2b5cd3b6d9596a","session_id":"619be58e4abfed32cce584e7","condition":"full-information","relevant_dimensions":["pattern","legs"],"bee_group":{"antennae":"X","wings":"X","pattern":"D","legs":"F"},"action":"harvest","summary":"good-harvest","bonus":1.7800000000000014},{"rt":9281.100000023842,"stimulus":"\n                    <p><b>Action: <em>harvest</em></b></p>\n                    <p>This is the bee that you just saw.</p>\n                    <img src=\"bees-with-color/bee-B1SF.svg\" width=\"200\">\n                    <p><span class=\"greenText\"><b>Successful harvest!</b></span><br>Your pay has increased by $0.02. Your bonus pay is now $0.60.</p>\n            ","response":0,"trial_type":"html-button-response","trial_index":12,"time_elapsed":160254,"internal_node_id":"0.0-4.0-1.2","subject_id":"5f29a219fd79260ef749a01d","study_id":"6197b3f67c2b5cd3b6d9596a","session_id":"619be58e4abfed32cce584e7","condition":"full-information","relevant_dimensions":["pattern","legs"],"bee_group":{"antennae":"X","wings":"X","pattern":"D","legs":"F"},"bonus":1.7800000000000014},{"rt":2894.2000000476837,"stimulus":"bees-with-color/bee-B2SM.svg","response":0,"trial_type":"image-button-response","trial_index":13,"time_elapsed":163154,"internal_node_id":"0.0-4.0-0.3","subject_id":"5f29a219fd79260ef749a01d","study_id":"6197b3f67c2b5cd3b6d9596a","session_id":"619be58e4abfed32cce584e7","condition":"full-information","relevant_dimensions":["pattern","legs"],"bee_group":{"antennae":"X","wings":"X","pattern":"D","legs":"F"},"action":"harvest","summary":"good-harvest","bonus":1.7800000000000014},{"rt":4488.400000095367,"stimulus":"\n                    <p><b>Action: <em>harvest</em></b></p>\n                    <p>This is the bee that you just saw.</p>\n                    <img src=\"bees-with-color/bee-B2SM.svg\" width=\"200\">\n                    <p><span class=\"greenText\"><b>Successful harvest!</b></span><br>Your pay has increased by $0.02. Your bonus pay is now $0.62.</p>\n            ","response":0,"trial_type":"html-button-response","trial_index":14,"time_elapsed":167647,"internal_node_id":"0.0-4.0-1.3","subject_id":"5f29a219fd79260ef749a01d","study_id":"6197b3f67c2b5cd3b6d9596a","session_id":"619be58e4abfed32cce584e7","condition":"full-information","relevant_dimensions":["pattern","legs"],"bee_group":{"antennae":"X","wings":"X","pattern":"D","legs":"F"},"bonus":1.7800000000000014},{"rt":2902.399999976158,"stimulus":"bees-with-color/bee-B1DF.svg","response":0,"trial_type":"image-button-response","trial_index":15,"time_elapsed":170558,"internal_node_id":"0.0-4.0-0.4","subject_id":"5f29a219fd79260ef749a01d","study_id":"6197b3f67c2b5cd3b6d9596a","session_id":"619be58e4abfed32cce584e7","condition":"full-information","relevant_dimensions":["pattern","legs"],"bee_group":{"antennae":"X","wings":"X","pattern":"D","legs":"F"},"action":"harvest","summary":"bad-harvest","bonus":1.7800000000000014},{"rt":6353.5,"stimulus":"\n                    <p><b>Action: <em>harvest</em></b></p>\n                    <p>This is the bee that you just saw.</p>\n                    <img src=\"bees-with-color/bee-B1DF.svg\" width=\"200\">\n                    <p><span class=\"redText\">Bad choice, the bee was angry.</span><br><b>You have been stung!</b><br>Your pay has been decreased by $0.10. Your bonus pay is now $0.52.</p>\n            ","response":0,"trial_type":"html-button-response","trial_index":16,"time_elapsed":176921,"internal_node_id":"0.0-4.0-1.4","subject_id":"5f29a219fd79260ef749a01d","study_id":"6197b3f67c2b5cd3b6d9596a","session_id":"619be58e4abfed32cce584e7","condition":"full-information","relevant_dimensions":["pattern","legs"],"bee_group":{"antennae":"X","wings":"X","pattern":"D","legs":"F"},"bonus":1.7800000000000014},{"rt":2373.5,"stimulus":"bees-with-color/bee-A1SF.svg","response":0,"trial_type":"image-button-response","trial_index":17,"time_elapsed":179305,"internal_node_id":"0.0-4.0-0.5","subject_id":"5f29a219fd79260ef749a01d","study_id":"6197b3f67c2b5cd3b6d9596a","session_id":"619be58e4abfed32cce584e7","condition":"full-information","relevant_dimensions":["pattern","legs"],"bee_group":{"antennae":"X","wings":"X","pattern":"D","legs":"F"},"action":"harvest","summary":"good-harvest","bonus":1.7800000000000014},{"rt":2196,"stimulus":"\n                    <p><b>Action: <em>harvest</em></b></p>\n                    <p>This is the bee that you just saw.</p>\n                    <img src=\"bees-with-color/bee-A1SF.svg\" width=\"200\">\n                    <p><span class=\"greenText\"><b>Successful harvest!</b></span><br>Your pay has increased by $0.02. Your bonus pay is now $0.54.</p>\n            ","response":0,"trial_type":"html-button-response","trial_index":18,"time_elapsed":181507,"internal_node_id":"0.0-4.0-1.5","subject_id":"5f29a219fd79260ef749a01d","study_id":"6197b3f67c2b5cd3b6d9596a","session_id":"619be58e4abfed32cce584e7","condition":"full-information","relevant_dimensions":["pattern","legs"],"bee_group":{"antennae":"X","wings":"X","pattern":"D","legs":"F"},"bonus":1.7800000000000014},{"rt":2204.600000023842,"stimulus":"bees-with-color/bee-A2SM.svg","response":0,"trial_type":"image-button-response","trial_index":19,"time_elapsed":183724,"internal_node_id":"0.0-4.0-0.6","subject_id":"5f29a219fd79260ef749a01d","study_id":"6197b3f67c2b5cd3b6d9596a","session_id":"619be58e4abfed32cce584e7","condition":"full-information","relevant_dimensions":["pattern","legs"],"bee_group":{"antennae":"X","wings":"X","pattern":"D","legs":"F"},"action":"harvest","summary":"good-harvest","bonus":1.7800000000000014},{"rt":1156,"stimulus":"\n                    <p><b>Action: <em>harvest</em></b></p>\n                    <p>This is the bee that you just saw.</p>\n                    <img src=\"bees-with-color/bee-A2SM.svg\" width=\"200\">\n                    <p><span class=\"greenText\"><b>Successful harvest!</b></span><br>Your pay has increased by $0.02. Your bonus pay is now $0.56.</p>\n            ","response":0,"trial_type":"html-button-response","trial_index":20,"time_elapsed":184887,"internal_node_id":"0.0-4.0-1.6","subject_id":"5f29a219fd79260ef749a01d","study_id":"6197b3f67c2b5cd3b6d9596a","session_id":"619be58e4abfed32cce584e7","condition":"full-information","relevant_dimensions":["pattern","legs"],"bee_group":{"antennae":"X","wings":"X","pattern":"D","legs":"F"},"bonus":1.7800000000000014},{"rt":3204.7000000476837,"stimulus":"bees-with-color/bee-A2DF.svg","response":0,"trial_type":"image-button-response","trial_index":21,"time_elapsed":188100,"internal_node_id":"0.0-4.0-0.7","subject_id":"5f29a219fd79260ef749a01d","study_id":"6197b3f67c2b5cd3b6d9596a","session_id":"619be58e4abfed32cce584e7","condition":"full-information","relevant_dimensions":["pattern","legs"],"bee_group":{"antennae":"X","wings":"X","pattern":"D","legs":"F"},"action":"harvest","summary":"bad-harvest","bonus":1.7800000000000014},{"rt":2971.7000000476837,"stimulus":"\n                    <p><b>Action: <em>harvest</em></b></p>\n                    <p>This is the bee that you just saw.</p>\n                    <img src=\"bees-with-color/bee-A2DF.svg\" width=\"200\">\n                    <p><span class=\"redText\">Bad choice, the bee was angry.</span><br><b>You have been stung!</b><br>Your pay has been decreased by $0.10. Your bonus pay is now $0.46.</p>\n            ","response":0,"trial_type":"html-button-response","trial_index":22,"time_elapsed":191078,"internal_node_id":"0.0-4.0-1.7","subject_id":"5f29a219fd79260ef749a01d","study_id":"6197b3f67c2b5cd3b6d9596a","session_id":"619be58e4abfed32cce584e7","condition":"full-information","relevant_dimensions":["pattern","legs"],"bee_group":{"antennae":"X","wings":"X","pattern":"D","legs":"F"},"bonus":1.7800000000000014},{"rt":1928.2000000476837,"stimulus":"bees-with-color/bee-A1DM.svg","response":0,"trial_type":"image-button-response","trial_index":23,"time_elapsed":193012,"internal_node_id":"0.0-4.0-0.8","subject_id":"5f29a219fd79260ef749a01d","study_id":"6197b3f67c2b5cd3b6d9596a","session_id":"619be58e4abfed32cce584e7","condition":"full-information","relevant_dimensions":["pattern","legs"],"bee_group":{"antennae":"X","wings":"X","pattern":"D","legs":"F"},"action":"harvest","summary":"good-harvest","bonus":1.7800000000000014},{"rt":1145.6000000238419,"stimulus":"\n                    <p><b>Action: <em>harvest</em></b></p>\n                    <p>This is the bee that you just saw.</p>\n                    <img src=\"bees-with-color/bee-A1DM.svg\" width=\"200\">\n                    <p><span class=\"greenText\"><b>Successful harvest!</b></span><br>Your pay has increased by $0.02. Your bonus pay is now $0.48.</p>\n            ","response":0,"trial_type":"html-button-response","trial_index":24,"time_elapsed":194169,"internal_node_id":"0.0-4.0-1.8","subject_id":"5f29a219fd79260ef749a01d","study_id":"6197b3f67c2b5cd3b6d9596a","session_id":"619be58e4abfed32cce584e7","condition":"full-information","relevant_dimensions":["pattern","legs"],"bee_group":{"antennae":"X","wings":"X","pattern":"D","legs":"F"},"bonus":1.7800000000000014},{"rt":4127.199999928474,"stimulus":"bees-with-color/bee-B1DM.svg","response":0,"trial_type":"image-button-response","trial_index":25,"time_elapsed":198303,"internal_node_id":"0.0-4.0-0.9","subject_id":"5f29a219fd79260ef749a01d","study_id":"6197b3f67c2b5cd3b6d9596a","session_id":"619be58e4abfed32cce584e7","condition":"full-information","relevant_dimensions":["pattern","legs"],"bee_group":{"antennae":"X","wings":"X","pattern":"D","legs":"F"},"action":"harvest","summary":"good-harvest","bonus":1.7800000000000014},{"rt":1939.3000000715256,"stimulus":"\n                    <p><b>Action: <em>harvest</em></b></p>\n                    <p>This is the bee that you just saw.</p>\n                    <img src=\"bees-with-color/bee-B1DM.svg\" width=\"200\">\n                    <p><span class=\"greenText\"><b>Successful harvest!</b></span><br>Your pay has increased by $0.02. Your bonus pay is now $0.50.</p>\n            ","response":0,"trial_type":"html-button-response","trial_index":26,"time_elapsed":200249,"internal_node_id":"0.0-4.0-1.9","subject_id":"5f29a219fd79260ef749a01d","study_id":"6197b3f67c2b5cd3b6d9596a","session_id":"619be58e4abfed32cce584e7","condition":"full-information","relevant_dimensions":["pattern","legs"],"bee_group":{"antennae":"X","wings":"X","pattern":"D","legs":"F"},"bonus":1.7800000000000014},{"rt":1711.7999999523163,"stimulus":"bees-with-color/bee-A1DF.svg","response":1,"trial_type":"image-button-response","trial_index":27,"time_elapsed":201969,"internal_node_id":"0.0-4.0-0.10","subject_id":"5f29a219fd79260ef749a01d","study_id":"6197b3f67c2b5cd3b6d9596a","session_id":"619be58e4abfed32cce584e7","condition":"full-information","relevant_dimensions":["pattern","legs"],"bee_group":{"antennae":"X","wings":"X","pattern":"D","legs":"F"},"action":"avoid","summary":"good-avoid","bonus":1.7800000000000014},{"rt":4405.600000023842,"stimulus":"\n                    <p><b>Action: <em>avoid</em></b></p>\n                    <p>This is the bee that you just saw.</p>\n                    <img src=\"bees-with-color/bee-A1DF.svg\" width=\"200\">\n                    <p><span class=\"greenText\">Good choice!</span>  This bee would have stung you.<br>Your bonus pay is unchanged, and remains at $0.50.</p>\n            ","response":0,"trial_type":"html-button-response","trial_index":28,"time_elapsed":206387,"internal_node_id":"0.0-4.0-1.10","subject_id":"5f29a219fd79260ef749a01d","study_id":"6197b3f67c2b5cd3b6d9596a","session_id":"619be58e4abfed32cce584e7","condition":"full-information","relevant_dimensions":["pattern","legs"],"bee_group":{"antennae":"X","wings":"X","pattern":"D","legs":"F"},"bonus":1.7800000000000014},{"rt":2091.2000000476837,"stimulus":"bees-with-color/bee-B1SM.svg","response":0,"trial_type":"image-button-response","trial_index":29,"time_elapsed":208487,"internal_node_id":"0.0-4.0-0.11","subject_id":"5f29a219fd79260ef749a01d","study_id":"6197b3f67c2b5cd3b6d9596a","session_id":"619be58e4abfed32cce584e7","condition":"full-information","relevant_dimensions":["pattern","legs"],"bee_group":{"antennae":"X","wings":"X","pattern":"D","legs":"F"},"action":"harvest","summary":"good-harvest","bonus":1.7800000000000014},{"rt":1249.2999999523163,"stimulus":"\n                    <p><b>Action: <em>harvest</em></b></p>\n                    <p>This is the bee that you just saw.</p>\n                    <img src=\"bees-with-color/bee-B1SM.svg\" width=\"200\">\n                    <p><span class=\"greenText\"><b>Successful harvest!</b></span><br>Your pay has increased by $0.02. Your bonus pay is now $0.52.</p>\n            ","response":0,"trial_type":"html-button-response","trial_index":30,"time_elapsed":209745,"internal_node_id":"0.0-4.0-1.11","subject_id":"5f29a219fd79260ef749a01d","study_id":"6197b3f67c2b5cd3b6d9596a","session_id":"619be58e4abfed32cce584e7","condition":"full-information","relevant_dimensions":["pattern","legs"],"bee_group":{"antennae":"X","wings":"X","pattern":"D","legs":"F"},"bonus":1.7800000000000014},{"rt":2309.600000023842,"stimulus":"bees-with-color/bee-B2DM.svg","response":0,"trial_type":"image-button-response","trial_index":31,"time_elapsed":212064,"internal_node_id":"0.0-4.0-0.12","subject_id":"5f29a219fd79260ef749a01d","study_id":"6197b3f67c2b5cd3b6d9596a","session_id":"619be58e4abfed32cce584e7","condition":"full-information","relevant_dimensions":["pattern","legs"],"bee_group":{"antennae":"X","wings":"X","pattern":"D","legs":"F"},"action":"harvest","summary":"good-harvest","bonus":1.7800000000000014},{"rt":1580.7999999523163,"stimulus":"\n                    <p><b>Action: <em>harvest</em></b></p>\n                    <p>This is the bee that you just saw.</p>\n                    <img src=\"bees-with-color/bee-B2DM.svg\" width=\"200\">\n                    <p><span class=\"greenText\"><b>Successful harvest!</b></span><br>Your pay has increased by $0.02. Your bonus pay is now $0.54.</p>\n            ","response":0,"trial_type":"html-button-response","trial_index":32,"time_elapsed":213651,"internal_node_id":"0.0-4.0-1.12","subject_id":"5f29a219fd79260ef749a01d","study_id":"6197b3f67c2b5cd3b6d9596a","session_id":"619be58e4abfed32cce584e7","condition":"full-information","relevant_dimensions":["pattern","legs"],"bee_group":{"antennae":"X","wings":"X","pattern":"D","legs":"F"},"bonus":1.7800000000000014},{"rt":3208.7999999523163,"stimulus":"bees-with-color/bee-A2SF.svg","response":0,"trial_type":"image-button-response","trial_index":33,"time_elapsed":216865,"internal_node_id":"0.0-4.0-0.13","subject_id":"5f29a219fd79260ef749a01d","study_id":"6197b3f67c2b5cd3b6d9596a","session_id":"619be58e4abfed32cce584e7","condition":"full-information","relevant_dimensions":["pattern","legs"],"bee_group":{"antennae":"X","wings":"X","pattern":"D","legs":"F"},"action":"harvest","summary":"good-harvest","bonus":1.7800000000000014},{"rt":1584.1999999284744,"stimulus":"\n                    <p><b>Action: <em>harvest</em></b></p>\n                    <p>This is the bee that you just saw.</p>\n                    <img src=\"bees-with-color/bee-A2SF.svg\" width=\"200\">\n                    <p><span class=\"greenText\"><b>Successful harvest!</b></span><br>Your pay has increased by $0.02. Your bonus pay is now $0.56.</p>\n            ","response":0,"trial_type":"html-button-response","trial_index":34,"time_elapsed":218458,"internal_node_id":"0.0-4.0-1.13","subject_id":"5f29a219fd79260ef749a01d","study_id":"6197b3f67c2b5cd3b6d9596a","session_id":"619be58e4abfed32cce584e7","condition":"full-information","relevant_dimensions":["pattern","legs"],"bee_group":{"antennae":"X","wings":"X","pattern":"D","legs":"F"},"bonus":1.7800000000000014},{"rt":2436.100000023842,"stimulus":"bees-with-color/bee-A1SM.svg","response":0,"trial_type":"image-button-response","trial_index":35,"time_elapsed":220903,"internal_node_id":"0.0-4.0-0.14","subject_id":"5f29a219fd79260ef749a01d","study_id":"6197b3f67c2b5cd3b6d9596a","session_id":"619be58e4abfed32cce584e7","condition":"full-information","relevant_dimensions":["pattern","legs"],"bee_group":{"antennae":"X","wings":"X","pattern":"D","legs":"F"},"action":"harvest","summary":"good-harvest","bonus":1.7800000000000014},{"rt":1180.1999999284744,"stimulus":"\n                    <p><b>Action: <em>harvest</em></b></p>\n                    <p>This is the bee that you just saw.</p>\n                    <img src=\"bees-with-color/bee-A1SM.svg\" width=\"200\">\n                    <p><span class=\"greenText\"><b>Successful harvest!</b></span><br>Your pay has increased by $0.02. Your bonus pay is now $0.58.</p>\n            ","response":0,"trial_type":"html-button-response","trial_index":36,"time_elapsed":222090,"internal_node_id":"0.0-4.0-1.14","subject_id":"5f29a219fd79260ef749a01d","study_id":"6197b3f67c2b5cd3b6d9596a","session_id":"619be58e4abfed32cce584e7","condition":"full-information","relevant_dimensions":["pattern","legs"],"bee_group":{"antennae":"X","wings":"X","pattern":"D","legs":"F"},"bonus":1.7800000000000014},{"rt":1391.7000000476837,"stimulus":"bees-with-color/bee-B2DF.svg","response":1,"trial_type":"image-button-response","trial_index":37,"time_elapsed":223491,"internal_node_id":"0.0-4.0-0.15","subject_id":"5f29a219fd79260ef749a01d","study_id":"6197b3f67c2b5cd3b6d9596a","session_id":"619be58e4abfed32cce584e7","condition":"full-information","relevant_dimensions":["pattern","legs"],"bee_group":{"antennae":"X","wings":"X","pattern":"D","legs":"F"},"action":"avoid","summary":"good-avoid","bonus":1.7800000000000014},{"rt":3764,"stimulus":"\n                    <p><b>Action: <em>avoid</em></b></p>\n                    <p>This is the bee that you just saw.</p>\n                    <img src=\"bees-with-color/bee-B2DF.svg\" width=\"200\">\n                    <p><span class=\"greenText\">Good choice!</span>  This bee would have stung you.<br>Your bonus pay is unchanged, and remains at $0.58.</p>\n            ","response":0,"trial_type":"html-button-response","trial_index":38,"time_elapsed":227266,"internal_node_id":"0.0-4.0-1.15","subject_id":"5f29a219fd79260ef749a01d","study_id":"6197b3f67c2b5cd3b6d9596a","session_id":"619be58e4abfed32cce584e7","condition":"full-information","relevant_dimensions":["pattern","legs"],"bee_group":{"antennae":"X","wings":"X","pattern":"D","legs":"F"},"bonus":1.7800000000000014},{"rt":1214,"stimulus":"bees-with-color/bee-A1DF.svg","response":1,"trial_type":"image-button-response","trial_index":39,"time_elapsed":228489,"internal_node_id":"0.0-4.0-0.16","subject_id":"5f29a219fd79260ef749a01d","study_id":"6197b3f67c2b5cd3b6d9596a","session_id":"619be58e4abfed32cce584e7","condition":"full-information","relevant_dimensions":["pattern","legs"],"bee_group":{"antennae":"X","wings":"X","pattern":"D","legs":"F"},"action":"avoid","summary":"good-avoid","bonus":1.7800000000000014},{"rt":2969.100000023842,"stimulus":"\n                    <p><b>Action: <em>avoid</em></b></p>\n                    <p>This is the bee that you just saw.</p>\n                    <img src=\"bees-with-color/bee-A1DF.svg\" width=\"200\">\n                    <p><span class=\"greenText\">Good choice!</span>  This bee would have stung you.<br>Your bonus pay is unchanged, and remains at $0.58.</p>\n            ","response":0,"trial_type":"html-button-response","trial_index":40,"time_elapsed":231465,"internal_node_id":"0.0-4.0-1.16","subject_id":"5f29a219fd79260ef749a01d","study_id":"6197b3f67c2b5cd3b6d9596a","session_id":"619be58e4abfed32cce584e7","condition":"full-information","relevant_dimensions":["pattern","legs"],"bee_group":{"antennae":"X","wings":"X","pattern":"D","legs":"F"},"bonus":1.7800000000000014},{"rt":2643.100000023842,"stimulus":"bees-with-color/bee-A2SF.svg","response":0,"trial_type":"image-button-response","trial_index":41,"time_elapsed":234117,"internal_node_id":"0.0-4.0-0.17","subject_id":"5f29a219fd79260ef749a01d","study_id":"6197b3f67c2b5cd3b6d9596a","session_id":"619be58e4abfed32cce584e7","condition":"full-information","relevant_dimensions":["pattern","legs"],"bee_group":{"antennae":"X","wings":"X","pattern":"D","legs":"F"},"action":"harvest","summary":"good-harvest","bonus":1.7800000000000014},{"rt":1088.8000000715256,"stimulus":"\n                    <p><b>Action: <em>harvest</em></b></p>\n                    <p>This is the bee that you just saw.</p>\n                    <img src=\"bees-with-color/bee-A2SF.svg\" width=\"200\">\n                    <p><span class=\"greenText\"><b>Successful harvest!</b></span><br>Your pay has increased by $0.02. Your bonus pay is now $0.60.</p>\n            ","response":0,"trial_type":"html-button-response","trial_index":42,"time_elapsed":235213,"internal_node_id":"0.0-4.0-1.17","subject_id":"5f29a219fd79260ef749a01d","study_id":"6197b3f67c2b5cd3b6d9596a","session_id":"619be58e4abfed32cce584e7","condition":"full-information","relevant_dimensions":["pattern","legs"],"bee_group":{"antennae":"X","wings":"X","pattern":"D","legs":"F"},"bonus":1.7800000000000014},{"rt":1957,"stimulus":"bees-with-color/bee-A1DM.svg","response":0,"trial_type":"image-button-response","trial_index":43,"time_elapsed":237180,"internal_node_id":"0.0-4.0-0.18","subject_id":"5f29a219fd79260ef749a01d","study_id":"6197b3f67c2b5cd3b6d9596a","session_id":"619be58e4abfed32cce584e7","condition":"full-information","relevant_dimensions":["pattern","legs"],"bee_group":{"antennae":"X","wings":"X","pattern":"D","legs":"F"},"action":"harvest","summary":"good-harvest","bonus":1.7800000000000014},{"rt":1148.2999999523163,"stimulus":"\n                    <p><b>Action: <em>harvest</em></b></p>\n                    <p>This is the bee that you just saw.</p>\n                    <img src=\"bees-with-color/bee-A1DM.svg\" width=\"200\">\n                    <p><span class=\"greenText\"><b>Successful harvest!</b></span><br>Your pay has increased by $0.02. Your bonus pay is now $0.62.</p>\n            ","response":0,"trial_type":"html-button-response","trial_index":44,"time_elapsed":238336,"internal_node_id":"0.0-4.0-1.18","subject_id":"5f29a219fd79260ef749a01d","study_id":"6197b3f67c2b5cd3b6d9596a","session_id":"619be58e4abfed32cce584e7","condition":"full-information","relevant_dimensions":["pattern","legs"],"bee_group":{"antennae":"X","wings":"X","pattern":"D","legs":"F"},"bonus":1.7800000000000014},{"rt":1278,"stimulus":"bees-with-color/bee-A1SM.svg","response":0,"trial_type":"image-button-response","trial_index":45,"time_elapsed":239620,"internal_node_id":"0.0-4.0-0.19","subject_id":"5f29a219fd79260ef749a01d","study_id":"6197b3f67c2b5cd3b6d9596a","session_id":"619be58e4abfed32cce584e7","condition":"full-information","relevant_dimensions":["pattern","legs"],"bee_group":{"antennae":"X","wings":"X","pattern":"D","legs":"F"},"action":"harvest","summary":"good-harvest","bonus":1.7800000000000014},{"rt":910.9000000953674,"stimulus":"\n                    <p><b>Action: <em>harvest</em></b></p>\n                    <p>This is the bee that you just saw.</p>\n                    <img src=\"bees-with-color/bee-A1SM.svg\" width=\"200\">\n                    <p><span class=\"greenText\"><b>Successful harvest!</b></span><br>Your pay has increased by $0.02. Your bonus pay is now $0.64.</p>\n            ","response":0,"trial_type":"html-button-response","trial_index":46,"time_elapsed":240537,"internal_node_id":"0.0-4.0-1.19","subject_id":"5f29a219fd79260ef749a01d","study_id":"6197b3f67c2b5cd3b6d9596a","session_id":"619be58e4abfed32cce584e7","condition":"full-information","relevant_dimensions":["pattern","legs"],"bee_group":{"antennae":"X","wings":"X","pattern":"D","legs":"F"},"bonus":1.7800000000000014},{"rt":2116.600000023842,"stimulus":"bees-with-color/bee-B2DM.svg","response":0,"trial_type":"image-button-response","trial_index":47,"time_elapsed":242668,"internal_node_id":"0.0-4.0-0.20","subject_id":"5f29a219fd79260ef749a01d","study_id":"6197b3f67c2b5cd3b6d9596a","session_id":"619be58e4abfed32cce584e7","condition":"full-information","relevant_dimensions":["pattern","legs"],"bee_group":{"antennae":"X","wings":"X","pattern":"D","legs":"F"},"action":"harvest","summary":"good-harvest","bonus":1.7800000000000014},{"rt":928.3000000715256,"stimulus":"\n                    <p><b>Action: <em>harvest</em></b></p>\n                    <p>This is the bee that you just saw.</p>\n                    <img src=\"bees-with-color/bee-B2DM.svg\" width=\"200\">\n                    <p><span class=\"greenText\"><b>Successful harvest!</b></span><br>Your pay has increased by $0.02. Your bonus pay is now $0.66.</p>\n            ","response":0,"trial_type":"html-button-response","trial_index":48,"time_elapsed":243602,"internal_node_id":"0.0-4.0-1.20","subject_id":"5f29a219fd79260ef749a01d","study_id":"6197b3f67c2b5cd3b6d9596a","session_id":"619be58e4abfed32cce584e7","condition":"full-information","relevant_dimensions":["pattern","legs"],"bee_group":{"antennae":"X","wings":"X","pattern":"D","legs":"F"},"bonus":1.7800000000000014},{"rt":1912.5,"stimulus":"bees-with-color/bee-B1DM.svg","response":0,"trial_type":"image-button-response","trial_index":49,"time_elapsed":245520,"internal_node_id":"0.0-4.0-0.21","subject_id":"5f29a219fd79260ef749a01d","study_id":"6197b3f67c2b5cd3b6d9596a","session_id":"619be58e4abfed32cce584e7","condition":"full-information","relevant_dimensions":["pattern","legs"],"bee_group":{"antennae":"X","wings":"X","pattern":"D","legs":"F"},"action":"harvest","summary":"good-harvest","bonus":1.7800000000000014},{"rt":1027.7000000476837,"stimulus":"\n                    <p><b>Action: <em>harvest</em></b></p>\n                    <p>This is the bee that you just saw.</p>\n                    <img src=\"bees-with-color/bee-B1DM.svg\" width=\"200\">\n                    <p><span class=\"greenText\"><b>Successful harvest!</b></span><br>Your pay has increased by $0.02. Your bonus pay is now $0.68.</p>\n            ","response":0,"trial_type":"html-button-response","trial_index":50,"time_elapsed":246562,"internal_node_id":"0.0-4.0-1.21","subject_id":"5f29a219fd79260ef749a01d","study_id":"6197b3f67c2b5cd3b6d9596a","session_id":"619be58e4abfed32cce584e7","condition":"full-information","relevant_dimensions":["pattern","legs"],"bee_group":{"antennae":"X","wings":"X","pattern":"D","legs":"F"},"bonus":1.7800000000000014},{"rt":1456,"stimulus":"bees-with-color/bee-B2DF.svg","response":1,"trial_type":"image-button-response","trial_index":51,"time_elapsed":248025,"internal_node_id":"0.0-4.0-0.22","subject_id":"5f29a219fd79260ef749a01d","study_id":"6197b3f67c2b5cd3b6d9596a","session_id":"619be58e4abfed32cce584e7","condition":"full-information","relevant_dimensions":["pattern","legs"],"bee_group":{"antennae":"X","wings":"X","pattern":"D","legs":"F"},"action":"avoid","summary":"good-avoid","bonus":1.7800000000000014},{"rt":1958.2999999523163,"stimulus":"\n                    <p><b>Action: <em>avoid</em></b></p>\n                    <p>This is the bee that you just saw.</p>\n                    <img src=\"bees-with-color/bee-B2DF.svg\" width=\"200\">\n                    <p><span class=\"greenText\">Good choice!</span>  This bee would have stung you.<br>Your bonus pay is unchanged, and remains at $0.68.</p>\n            ","response":0,"trial_type":"html-button-response","trial_index":52,"time_elapsed":249990,"internal_node_id":"0.0-4.0-1.22","subject_id":"5f29a219fd79260ef749a01d","study_id":"6197b3f67c2b5cd3b6d9596a","session_id":"619be58e4abfed32cce584e7","condition":"full-information","relevant_dimensions":["pattern","legs"],"bee_group":{"antennae":"X","wings":"X","pattern":"D","legs":"F"},"bonus":1.7800000000000014},{"rt":1224,"stimulus":"bees-with-color/bee-A2DM.svg","response":0,"trial_type":"image-button-response","trial_index":53,"time_elapsed":251219,"internal_node_id":"0.0-4.0-0.23","subject_id":"5f29a219fd79260ef749a01d","study_id":"6197b3f67c2b5cd3b6d9596a","session_id":"619be58e4abfed32cce584e7","condition":"full-information","relevant_dimensions":["pattern","legs"],"bee_group":{"antennae":"X","wings":"X","pattern":"D","legs":"F"},"action":"harvest","summary":"good-harvest","bonus":1.7800000000000014},{"rt":1228,"stimulus":"\n                    <p><b>Action: <em>harvest</em></b></p>\n                    <p>This is the bee that you just saw.</p>\n                    <img src=\"bees-with-color/bee-A2DM.svg\" width=\"200\">\n                    <p><span class=\"greenText\"><b>Successful harvest!</b></span><br>Your pay has increased by $0.02. Your bonus pay is now $0.70.</p>\n            ","response":0,"trial_type":"html-button-response","trial_index":54,"time_elapsed":252454,"internal_node_id":"0.0-4.0-1.23","subject_id":"5f29a219fd79260ef749a01d","study_id":"6197b3f67c2b5cd3b6d9596a","session_id":"619be58e4abfed32cce584e7","condition":"full-information","relevant_dimensions":["pattern","legs"],"bee_group":{"antennae":"X","wings":"X","pattern":"D","legs":"F"},"bonus":1.7800000000000014},{"rt":1042.6999999284744,"stimulus":"bees-with-color/bee-B1SM.svg","response":0,"trial_type":"image-button-response","trial_index":55,"time_elapsed":253504,"internal_node_id":"0.0-4.0-0.24","subject_id":"5f29a219fd79260ef749a01d","study_id":"6197b3f67c2b5cd3b6d9596a","session_id":"619be58e4abfed32cce584e7","condition":"full-information","relevant_dimensions":["pattern","legs"],"bee_group":{"antennae":"X","wings":"X","pattern":"D","legs":"F"},"action":"harvest","summary":"good-harvest","bonus":1.7800000000000014},{"rt":996.1999999284744,"stimulus":"\n                    <p><b>Action: <em>harvest</em></b></p>\n                    <p>This is the bee that you just saw.</p>\n                    <img src=\"bees-with-color/bee-B1SM.svg\" width=\"200\">\n                    <p><span class=\"greenText\"><b>Successful harvest!</b></span><br>Your pay has increased by $0.02. Your bonus pay is now $0.72.</p>\n            ","response":0,"trial_type":"html-button-response","trial_index":56,"time_elapsed":254509,"internal_node_id":"0.0-4.0-1.24","subject_id":"5f29a219fd79260ef749a01d","study_id":"6197b3f67c2b5cd3b6d9596a","session_id":"619be58e4abfed32cce584e7","condition":"full-information","relevant_dimensions":["pattern","legs"],"bee_group":{"antennae":"X","wings":"X","pattern":"D","legs":"F"},"bonus":1.7800000000000014},{"rt":891.5,"stimulus":"bees-with-color/bee-A2SM.svg","response":0,"trial_type":"image-button-response","trial_index":57,"time_elapsed":255406,"internal_node_id":"0.0-4.0-0.25","subject_id":"5f29a219fd79260ef749a01d","study_id":"6197b3f67c2b5cd3b6d9596a","session_id":"619be58e4abfed32cce584e7","condition":"full-information","relevant_dimensions":["pattern","legs"],"bee_group":{"antennae":"X","wings":"X","pattern":"D","legs":"F"},"action":"harvest","summary":"good-harvest","bonus":1.7800000000000014},{"rt":847.3999999761581,"stimulus":"\n                    <p><b>Action: <em>harvest</em></b></p>\n                    <p>This is the bee that you just saw.</p>\n                    <img src=\"bees-with-color/bee-A2SM.svg\" width=\"200\">\n                    <p><span class=\"greenText\"><b>Successful harvest!</b></span><br>Your pay has increased by $0.02. Your bonus pay is now $0.74.</p>\n            ","response":0,"trial_type":"html-button-response","trial_index":58,"time_elapsed":256261,"internal_node_id":"0.0-4.0-1.25","subject_id":"5f29a219fd79260ef749a01d","study_id":"6197b3f67c2b5cd3b6d9596a","session_id":"619be58e4abfed32cce584e7","condition":"full-information","relevant_dimensions":["pattern","legs"],"bee_group":{"antennae":"X","wings":"X","pattern":"D","legs":"F"},"bonus":1.7800000000000014},{"rt":1939.2000000476837,"stimulus":"bees-with-color/bee-A1SF.svg","response":0,"trial_type":"image-button-response","trial_index":59,"time_elapsed":258209,"internal_node_id":"0.0-4.0-0.26","subject_id":"5f29a219fd79260ef749a01d","study_id":"6197b3f67c2b5cd3b6d9596a","session_id":"619be58e4abfed32cce584e7","condition":"full-information","relevant_dimensions":["pattern","legs"],"bee_group":{"antennae":"X","wings":"X","pattern":"D","legs":"F"},"action":"harvest","summary":"good-harvest","bonus":1.7800000000000014},{"rt":1044.0999999046326,"stimulus":"\n                    <p><b>Action: <em>harvest</em></b></p>\n                    <p>This is the bee that you just saw.</p>\n                    <img src=\"bees-with-color/bee-A1SF.svg\" width=\"200\">\n                    <p><span class=\"greenText\"><b>Successful harvest!</b></span><br>Your pay has increased by $0.02. Your bonus pay is now $0.76.</p>\n            ","response":0,"trial_type":"html-button-response","trial_index":60,"time_elapsed":259261,"internal_node_id":"0.0-4.0-1.26","subject_id":"5f29a219fd79260ef749a01d","study_id":"6197b3f67c2b5cd3b6d9596a","session_id":"619be58e4abfed32cce584e7","condition":"full-information","relevant_dimensions":["pattern","legs"],"bee_group":{"antennae":"X","wings":"X","pattern":"D","legs":"F"},"bonus":1.7800000000000014},{"rt":1868.6000000238419,"stimulus":"bees-with-color/bee-B2SF.svg","response":0,"trial_type":"image-button-response","trial_index":61,"time_elapsed":261138,"internal_node_id":"0.0-4.0-0.27","subject_id":"5f29a219fd79260ef749a01d","study_id":"6197b3f67c2b5cd3b6d9596a","session_id":"619be58e4abfed32cce584e7","condition":"full-information","relevant_dimensions":["pattern","legs"],"bee_group":{"antennae":"X","wings":"X","pattern":"D","legs":"F"},"action":"harvest","summary":"good-harvest","bonus":1.7800000000000014},{"rt":1352.2999999523163,"stimulus":"\n                    <p><b>Action: <em>harvest</em></b></p>\n                    <p>This is the bee that you just saw.</p>\n                    <img src=\"bees-with-color/bee-B2SF.svg\" width=\"200\">\n                    <p><span class=\"greenText\"><b>Successful harvest!</b></span><br>Your pay has increased by $0.02. Your bonus pay is now $0.78.</p>\n            ","response":0,"trial_type":"html-button-response","trial_index":62,"time_elapsed":262499,"internal_node_id":"0.0-4.0-1.27","subject_id":"5f29a219fd79260ef749a01d","study_id":"6197b3f67c2b5cd3b6d9596a","session_id":"619be58e4abfed32cce584e7","condition":"full-information","relevant_dimensions":["pattern","legs"],"bee_group":{"antennae":"X","wings":"X","pattern":"D","legs":"F"},"bonus":1.7800000000000014},{"rt":1845.1999999284744,"stimulus":"bees-with-color/bee-B1SF.svg","response":0,"trial_type":"image-button-response","trial_index":63,"time_elapsed":264352,"internal_node_id":"0.0-4.0-0.28","subject_id":"5f29a219fd79260ef749a01d","study_id":"6197b3f67c2b5cd3b6d9596a","session_id":"619be58e4abfed32cce584e7","condition":"full-information","relevant_dimensions":["pattern","legs"],"bee_group":{"antennae":"X","wings":"X","pattern":"D","legs":"F"},"action":"harvest","summary":"good-harvest","bonus":1.7800000000000014},{"rt":1263.3999999761581,"stimulus":"\n                    <p><b>Action: <em>harvest</em></b></p>\n                    <p>This is the bee that you just saw.</p>\n                    <img src=\"bees-with-color/bee-B1SF.svg\" width=\"200\">\n                    <p><span class=\"greenText\"><b>Successful harvest!</b></span><br>Your pay has increased by $0.02. Your bonus pay is now $0.80.</p>\n            ","response":0,"trial_type":"html-button-response","trial_index":64,"time_elapsed":265624,"internal_node_id":"0.0-4.0-1.28","subject_id":"5f29a219fd79260ef749a01d","study_id":"6197b3f67c2b5cd3b6d9596a","session_id":"619be58e4abfed32cce584e7","condition":"full-information","relevant_dimensions":["pattern","legs"],"bee_group":{"antennae":"X","wings":"X","pattern":"D","legs":"F"},"bonus":1.7800000000000014},{"rt":1262,"stimulus":"bees-with-color/bee-B1DF.svg","response":1,"trial_type":"image-button-response","trial_index":65,"time_elapsed":266890,"internal_node_id":"0.0-4.0-0.29","subject_id":"5f29a219fd79260ef749a01d","study_id":"6197b3f67c2b5cd3b6d9596a","session_id":"619be58e4abfed32cce584e7","condition":"full-information","relevant_dimensions":["pattern","legs"],"bee_group":{"antennae":"X","wings":"X","pattern":"D","legs":"F"},"action":"avoid","summary":"good-avoid","bonus":1.7800000000000014},{"rt":1578.1000000238419,"stimulus":"\n                    <p><b>Action: <em>avoid</em></b></p>\n                    <p>This is the bee that you just saw.</p>\n                    <img src=\"bees-with-color/bee-B1DF.svg\" width=\"200\">\n                    <p><span class=\"greenText\">Good choice!</span>  This bee would have stung you.<br>Your bonus pay is unchanged, and remains at $0.80.</p>\n            ","response":0,"trial_type":"html-button-response","trial_index":66,"time_elapsed":268473,"internal_node_id":"0.0-4.0-1.29","subject_id":"5f29a219fd79260ef749a01d","study_id":"6197b3f67c2b5cd3b6d9596a","session_id":"619be58e4abfed32cce584e7","condition":"full-information","relevant_dimensions":["pattern","legs"],"bee_group":{"antennae":"X","wings":"X","pattern":"D","legs":"F"},"bonus":1.7800000000000014},{"rt":1313.1999999284744,"stimulus":"bees-with-color/bee-B2SM.svg","response":0,"trial_type":"image-button-response","trial_index":67,"time_elapsed":269804,"internal_node_id":"0.0-4.0-0.30","subject_id":"5f29a219fd79260ef749a01d","study_id":"6197b3f67c2b5cd3b6d9596a","session_id":"619be58e4abfed32cce584e7","condition":"full-information","relevant_dimensions":["pattern","legs"],"bee_group":{"antennae":"X","wings":"X","pattern":"D","legs":"F"},"action":"harvest","summary":"good-harvest","bonus":1.7800000000000014},{"rt":1116.4000000953674,"stimulus":"\n                    <p><b>Action: <em>harvest</em></b></p>\n                    <p>This is the bee that you just saw.</p>\n                    <img src=\"bees-with-color/bee-B2SM.svg\" width=\"200\">\n                    <p><span class=\"greenText\"><b>Successful harvest!</b></span><br>Your pay has increased by $0.02. Your bonus pay is now $0.82.</p>\n            ","response":0,"trial_type":"html-button-response","trial_index":68,"time_elapsed":270928,"internal_node_id":"0.0-4.0-1.30","subject_id":"5f29a219fd79260ef749a01d","study_id":"6197b3f67c2b5cd3b6d9596a","session_id":"619be58e4abfed32cce584e7","condition":"full-information","relevant_dimensions":["pattern","legs"],"bee_group":{"antennae":"X","wings":"X","pattern":"D","legs":"F"},"bonus":1.7800000000000014},{"rt":1311.5,"stimulus":"bees-with-color/bee-A2DF.svg","response":1,"trial_type":"image-button-response","trial_index":69,"time_elapsed":272247,"internal_node_id":"0.0-4.0-0.31","subject_id":"5f29a219fd79260ef749a01d","study_id":"6197b3f67c2b5cd3b6d9596a","session_id":"619be58e4abfed32cce584e7","condition":"full-information","relevant_dimensions":["pattern","legs"],"bee_group":{"antennae":"X","wings":"X","pattern":"D","legs":"F"},"action":"avoid","summary":"good-avoid","bonus":1.7800000000000014},{"rt":3531.5,"stimulus":"\n                    <p><b>Action: <em>avoid</em></b></p>\n                    <p>This is the bee that you just saw.</p>\n                    <img src=\"bees-with-color/bee-A2DF.svg\" width=\"200\">\n                    <p><span class=\"greenText\">Good choice!</span>  This bee would have stung you.<br>Your bonus pay is unchanged, and remains at $0.82.</p>\n            ","response":0,"trial_type":"html-button-response","trial_index":70,"time_elapsed":275798,"internal_node_id":"0.0-4.0-1.31","subject_id":"5f29a219fd79260ef749a01d","study_id":"6197b3f67c2b5cd3b6d9596a","session_id":"619be58e4abfed32cce584e7","condition":"full-information","relevant_dimensions":["pattern","legs"],"bee_group":{"antennae":"X","wings":"X","pattern":"D","legs":"F"},"bonus":1.7800000000000014},{"rt":1735.6000000238419,"stimulus":"bees-with-color/bee-A1SM.svg","response":0,"trial_type":"image-button-response","trial_index":71,"time_elapsed":277537,"internal_node_id":"0.0-4.0-0.32","subject_id":"5f29a219fd79260ef749a01d","study_id":"6197b3f67c2b5cd3b6d9596a","session_id":"619be58e4abfed32cce584e7","condition":"full-information","relevant_dimensions":["pattern","legs"],"bee_group":{"antennae":"X","wings":"X","pattern":"D","legs":"F"},"action":"harvest","summary":"good-harvest","bonus":1.7800000000000014},{"rt":1089.3999999761581,"stimulus":"\n                    <p><b>Action: <em>harvest</em></b></p>\n                    <p>This is the bee that you just saw.</p>\n                    <img src=\"bees-with-color/bee-A1SM.svg\" width=\"200\">\n                    <p><span class=\"greenText\"><b>Successful harvest!</b></span><br>Your pay has increased by $0.02. Your bonus pay is now $0.84.</p>\n            ","response":0,"trial_type":"html-button-response","trial_index":72,"time_elapsed":278630,"internal_node_id":"0.0-4.0-1.32","subject_id":"5f29a219fd79260ef749a01d","study_id":"6197b3f67c2b5cd3b6d9596a","session_id":"619be58e4abfed32cce584e7","condition":"full-information","relevant_dimensions":["pattern","legs"],"bee_group":{"antennae":"X","wings":"X","pattern":"D","legs":"F"},"bonus":1.7800000000000014},{"rt":1383.3999999761581,"stimulus":"bees-with-color/bee-A2DF.svg","response":1,"trial_type":"image-button-response","trial_index":73,"time_elapsed":280017,"internal_node_id":"0.0-4.0-0.33","subject_id":"5f29a219fd79260ef749a01d","study_id":"6197b3f67c2b5cd3b6d9596a","session_id":"619be58e4abfed32cce584e7","condition":"full-information","relevant_dimensions":["pattern","legs"],"bee_group":{"antennae":"X","wings":"X","pattern":"D","legs":"F"},"action":"avoid","summary":"good-avoid","bonus":1.7800000000000014},{"rt":2091.8000000715256,"stimulus":"\n                    <p><b>Action: <em>avoid</em></b></p>\n                    <p>This is the bee that you just saw.</p>\n                    <img src=\"bees-with-color/bee-A2DF.svg\" width=\"200\">\n                    <p><span class=\"greenText\">Good choice!</span>  This bee would have stung you.<br>Your bonus pay is unchanged, and remains at $0.84.</p>\n            ","response":0,"trial_type":"html-button-response","trial_index":74,"time_elapsed":282117,"internal_node_id":"0.0-4.0-1.33","subject_id":"5f29a219fd79260ef749a01d","study_id":"6197b3f67c2b5cd3b6d9596a","session_id":"619be58e4abfed32cce584e7","condition":"full-information","relevant_dimensions":["pattern","legs"],"bee_group":{"antennae":"X","wings":"X","pattern":"D","legs":"F"},"bonus":1.7800000000000014},{"rt":1503,"stimulus":"bees-with-color/bee-A1SF.svg","response":0,"trial_type":"image-button-response","trial_index":75,"time_elapsed":283629,"internal_node_id":"0.0-4.0-0.34","subject_id":"5f29a219fd79260ef749a01d","study_id":"6197b3f67c2b5cd3b6d9596a","session_id":"619be58e4abfed32cce584e7","condition":"full-information","relevant_dimensions":["pattern","legs"],"bee_group":{"antennae":"X","wings":"X","pattern":"D","legs":"F"},"action":"harvest","summary":"good-harvest","bonus":1.7800000000000014},{"rt":854.8000000715256,"stimulus":"\n                    <p><b>Action: <em>harvest</em></b></p>\n                    <p>This is the bee that you just saw.</p>\n                    <img src=\"bees-with-color/bee-A1SF.svg\" width=\"200\">\n                    <p><span class=\"greenText\"><b>Successful harvest!</b></span><br>Your pay has increased by $0.02. Your bonus pay is now $0.86.</p>\n            ","response":0,"trial_type":"html-button-response","trial_index":76,"time_elapsed":284497,"internal_node_id":"0.0-4.0-1.34","subject_id":"5f29a219fd79260ef749a01d","study_id":"6197b3f67c2b5cd3b6d9596a","session_id":"619be58e4abfed32cce584e7","condition":"full-information","relevant_dimensions":["pattern","legs"],"bee_group":{"antennae":"X","wings":"X","pattern":"D","legs":"F"},"bonus":1.7800000000000014},{"rt":1027.6999999284744,"stimulus":"bees-with-color/bee-A1DM.svg","response":0,"trial_type":"image-button-response","trial_index":77,"time_elapsed":285530,"internal_node_id":"0.0-4.0-0.35","subject_id":"5f29a219fd79260ef749a01d","study_id":"6197b3f67c2b5cd3b6d9596a","session_id":"619be58e4abfed32cce584e7","condition":"full-information","relevant_dimensions":["pattern","legs"],"bee_group":{"antennae":"X","wings":"X","pattern":"D","legs":"F"},"action":"harvest","summary":"good-harvest","bonus":1.7800000000000014},{"rt":926.3999999761581,"stimulus":"\n                    <p><b>Action: <em>harvest</em></b></p>\n                    <p>This is the bee that you just saw.</p>\n                    <img src=\"bees-with-color/bee-A1DM.svg\" width=\"200\">\n                    <p><span class=\"greenText\"><b>Successful harvest!</b></span><br>Your pay has increased by $0.02. Your bonus pay is now $0.88.</p>\n            ","response":0,"trial_type":"html-button-response","trial_index":78,"time_elapsed":286463,"internal_node_id":"0.0-4.0-1.35","subject_id":"5f29a219fd79260ef749a01d","study_id":"6197b3f67c2b5cd3b6d9596a","session_id":"619be58e4abfed32cce584e7","condition":"full-information","relevant_dimensions":["pattern","legs"],"bee_group":{"antennae":"X","wings":"X","pattern":"D","legs":"F"},"bonus":1.7800000000000014},{"rt":1064.6000000238419,"stimulus":"bees-with-color/bee-B2DF.svg","response":1,"trial_type":"image-button-response","trial_index":79,"time_elapsed":287533,"internal_node_id":"0.0-4.0-0.36","subject_id":"5f29a219fd79260ef749a01d","study_id":"6197b3f67c2b5cd3b6d9596a","session_id":"619be58e4abfed32cce584e7","condition":"full-information","relevant_dimensions":["pattern","legs"],"bee_group":{"antennae":"X","wings":"X","pattern":"D","legs":"F"},"action":"avoid","summary":"good-avoid","bonus":1.7800000000000014},{"rt":1218.9000000953674,"stimulus":"\n                    <p><b>Action: <em>avoid</em></b></p>\n                    <p>This is the bee that you just saw.</p>\n                    <img src=\"bees-with-color/bee-B2DF.svg\" width=\"200\">\n                    <p><span class=\"greenText\">Good choice!</span>  This bee would have stung you.<br>Your bonus pay is unchanged, and remains at $0.88.</p>\n            ","response":0,"trial_type":"html-button-response","trial_index":80,"time_elapsed":288760,"internal_node_id":"0.0-4.0-1.36","subject_id":"5f29a219fd79260ef749a01d","study_id":"6197b3f67c2b5cd3b6d9596a","session_id":"619be58e4abfed32cce584e7","condition":"full-information","relevant_dimensions":["pattern","legs"],"bee_group":{"antennae":"X","wings":"X","pattern":"D","legs":"F"},"bonus":1.7800000000000014},{"rt":2178.5,"stimulus":"bees-with-color/bee-B2DM.svg","response":0,"trial_type":"image-button-response","trial_index":81,"time_elapsed":290944,"internal_node_id":"0.0-4.0-0.37","subject_id":"5f29a219fd79260ef749a01d","study_id":"6197b3f67c2b5cd3b6d9596a","session_id":"619be58e4abfed32cce584e7","condition":"full-information","relevant_dimensions":["pattern","legs"],"bee_group":{"antennae":"X","wings":"X","pattern":"D","legs":"F"},"action":"harvest","summary":"good-harvest","bonus":1.7800000000000014},{"rt":892.5,"stimulus":"\n                    <p><b>Action: <em>harvest</em></b></p>\n                    <p>This is the bee that you just saw.</p>\n                    <img src=\"bees-with-color/bee-B2DM.svg\" width=\"200\">\n                    <p><span class=\"greenText\"><b>Successful harvest!</b></span><br>Your pay has increased by $0.02. Your bonus pay is now $0.90.</p>\n            ","response":0,"trial_type":"html-button-response","trial_index":82,"time_elapsed":291843,"internal_node_id":"0.0-4.0-1.37","subject_id":"5f29a219fd79260ef749a01d","study_id":"6197b3f67c2b5cd3b6d9596a","session_id":"619be58e4abfed32cce584e7","condition":"full-information","relevant_dimensions":["pattern","legs"],"bee_group":{"antennae":"X","wings":"X","pattern":"D","legs":"F"},"bonus":1.7800000000000014},{"rt":1077.8999999761581,"stimulus":"bees-with-color/bee-B2SF.svg","response":0,"trial_type":"image-button-response","trial_index":83,"time_elapsed":292929,"internal_node_id":"0.0-4.0-0.38","subject_id":"5f29a219fd79260ef749a01d","study_id":"6197b3f67c2b5cd3b6d9596a","session_id":"619be58e4abfed32cce584e7","condition":"full-information","relevant_dimensions":["pattern","legs"],"bee_group":{"antennae":"X","wings":"X","pattern":"D","legs":"F"},"action":"harvest","summary":"good-harvest","bonus":1.7800000000000014},{"rt":857.3000000715256,"stimulus":"\n                    <p><b>Action: <em>harvest</em></b></p>\n                    <p>This is the bee that you just saw.</p>\n                    <img src=\"bees-with-color/bee-B2SF.svg\" width=\"200\">\n                    <p><span class=\"greenText\"><b>Successful harvest!</b></span><br>Your pay has increased by $0.02. Your bonus pay is now $0.92.</p>\n            ","response":0,"trial_type":"html-button-response","trial_index":84,"time_elapsed":293792,"internal_node_id":"0.0-4.0-1.38","subject_id":"5f29a219fd79260ef749a01d","study_id":"6197b3f67c2b5cd3b6d9596a","session_id":"619be58e4abfed32cce584e7","condition":"full-information","relevant_dimensions":["pattern","legs"],"bee_group":{"antennae":"X","wings":"X","pattern":"D","legs":"F"},"bonus":1.7800000000000014},{"rt":900.2999999523163,"stimulus":"bees-with-color/bee-B1DM.svg","response":0,"trial_type":"image-button-response","trial_index":85,"time_elapsed":294701,"internal_node_id":"0.0-4.0-0.39","subject_id":"5f29a219fd79260ef749a01d","study_id":"6197b3f67c2b5cd3b6d9596a","session_id":"619be58e4abfed32cce584e7","condition":"full-information","relevant_dimensions":["pattern","legs"],"bee_group":{"antennae":"X","wings":"X","pattern":"D","legs":"F"},"action":"harvest","summary":"good-harvest","bonus":1.7800000000000014},{"rt":735.6000000238419,"stimulus":"\n                    <p><b>Action: <em>harvest</em></b></p>\n                    <p>This is the bee that you just saw.</p>\n                    <img src=\"bees-with-color/bee-B1DM.svg\" width=\"200\">\n                    <p><span class=\"greenText\"><b>Successful harvest!</b></span><br>Your pay has increased by $0.02. Your bonus pay is now $0.94.</p>\n            ","response":0,"trial_type":"html-button-response","trial_index":86,"time_elapsed":295442,"internal_node_id":"0.0-4.0-1.39","subject_id":"5f29a219fd79260ef749a01d","study_id":"6197b3f67c2b5cd3b6d9596a","session_id":"619be58e4abfed32cce584e7","condition":"full-information","relevant_dimensions":["pattern","legs"],"bee_group":{"antennae":"X","wings":"X","pattern":"D","legs":"F"},"bonus":1.7800000000000014},{"rt":1161.8999999761581,"stimulus":"bees-with-color/bee-B1SF.svg","response":0,"trial_type":"image-button-response","trial_index":87,"time_elapsed":296611,"internal_node_id":"0.0-4.0-0.40","subject_id":"5f29a219fd79260ef749a01d","study_id":"6197b3f67c2b5cd3b6d9596a","session_id":"619be58e4abfed32cce584e7","condition":"full-information","relevant_dimensions":["pattern","legs"],"bee_group":{"antennae":"X","wings":"X","pattern":"D","legs":"F"},"action":"harvest","summary":"good-harvest","bonus":1.7800000000000014},{"rt":720.7999999523163,"stimulus":"\n                    <p><b>Action: <em>harvest</em></b></p>\n                    <p>This is the bee that you just saw.</p>\n                    <img src=\"bees-with-color/bee-B1SF.svg\" width=\"200\">\n                    <p><span class=\"greenText\"><b>Successful harvest!</b></span><br>Your pay has increased by $0.02. Your bonus pay is now $0.96.</p>\n            ","response":0,"trial_type":"html-button-response","trial_index":88,"time_elapsed":297339,"internal_node_id":"0.0-4.0-1.40","subject_id":"5f29a219fd79260ef749a01d","study_id":"6197b3f67c2b5cd3b6d9596a","session_id":"619be58e4abfed32cce584e7","condition":"full-information","relevant_dimensions":["pattern","legs"],"bee_group":{"antennae":"X","wings":"X","pattern":"D","legs":"F"},"bonus":1.7800000000000014},{"rt":974.7000000476837,"stimulus":"bees-with-color/bee-B1SM.svg","response":0,"trial_type":"image-button-response","trial_index":89,"time_elapsed":298317,"internal_node_id":"0.0-4.0-0.41","subject_id":"5f29a219fd79260ef749a01d","study_id":"6197b3f67c2b5cd3b6d9596a","session_id":"619be58e4abfed32cce584e7","condition":"full-information","relevant_dimensions":["pattern","legs"],"bee_group":{"antennae":"X","wings":"X","pattern":"D","legs":"F"},"action":"harvest","summary":"good-harvest","bonus":1.7800000000000014},{"rt":874.5,"stimulus":"\n                    <p><b>Action: <em>harvest</em></b></p>\n                    <p>This is the bee that you just saw.</p>\n                    <img src=\"bees-with-color/bee-B1SM.svg\" width=\"200\">\n                    <p><span class=\"greenText\"><b>Successful harvest!</b></span><br>Your pay has increased by $0.02. Your bonus pay is now $0.98.</p>\n            ","response":0,"trial_type":"html-button-response","trial_index":90,"time_elapsed":299195,"internal_node_id":"0.0-4.0-1.41","subject_id":"5f29a219fd79260ef749a01d","study_id":"6197b3f67c2b5cd3b6d9596a","session_id":"619be58e4abfed32cce584e7","condition":"full-information","relevant_dimensions":["pattern","legs"],"bee_group":{"antennae":"X","wings":"X","pattern":"D","legs":"F"},"bonus":1.7800000000000014},{"rt":831.7000000476837,"stimulus":"bees-with-color/bee-B2SM.svg","response":0,"trial_type":"image-button-response","trial_index":91,"time_elapsed":300032,"internal_node_id":"0.0-4.0-0.42","subject_id":"5f29a219fd79260ef749a01d","study_id":"6197b3f67c2b5cd3b6d9596a","session_id":"619be58e4abfed32cce584e7","condition":"full-information","relevant_dimensions":["pattern","legs"],"bee_group":{"antennae":"X","wings":"X","pattern":"D","legs":"F"},"action":"harvest","summary":"good-harvest","bonus":1.7800000000000014},{"rt":932.1000000238419,"stimulus":"\n                    <p><b>Action: <em>harvest</em></b></p>\n                    <p>This is the bee that you just saw.</p>\n                    <img src=\"bees-with-color/bee-B2SM.svg\" width=\"200\">\n                    <p><span class=\"greenText\"><b>Successful harvest!</b></span><br>Your pay has increased by $0.02. Your bonus pay is now $1.00.</p>\n            ","response":0,"trial_type":"html-button-response","trial_index":92,"time_elapsed":300972,"internal_node_id":"0.0-4.0-1.42","subject_id":"5f29a219fd79260ef749a01d","study_id":"6197b3f67c2b5cd3b6d9596a","session_id":"619be58e4abfed32cce584e7","condition":"full-information","relevant_dimensions":["pattern","legs"],"bee_group":{"antennae":"X","wings":"X","pattern":"D","legs":"F"},"bonus":1.7800000000000014},{"rt":1361.2999999523163,"stimulus":"bees-with-color/bee-A1DF.svg","response":1,"trial_type":"image-button-response","trial_index":93,"time_elapsed":302343,"internal_node_id":"0.0-4.0-0.43","subject_id":"5f29a219fd79260ef749a01d","study_id":"6197b3f67c2b5cd3b6d9596a","session_id":"619be58e4abfed32cce584e7","condition":"full-information","relevant_dimensions":["pattern","legs"],"bee_group":{"antennae":"X","wings":"X","pattern":"D","legs":"F"},"action":"avoid","summary":"good-avoid","bonus":1.7800000000000014},{"rt":1229.1000000238419,"stimulus":"\n                    <p><b>Action: <em>avoid</em></b></p>\n                    <p>This is the bee that you just saw.</p>\n                    <img src=\"bees-with-color/bee-A1DF.svg\" width=\"200\">\n                    <p><span class=\"greenText\">Good choice!</span>  This bee would have stung you.<br>Your bonus pay is unchanged, and remains at $1.00.</p>\n            ","response":0,"trial_type":"html-button-response","trial_index":94,"time_elapsed":303579,"internal_node_id":"0.0-4.0-1.43","subject_id":"5f29a219fd79260ef749a01d","study_id":"6197b3f67c2b5cd3b6d9596a","session_id":"619be58e4abfed32cce584e7","condition":"full-information","relevant_dimensions":["pattern","legs"],"bee_group":{"antennae":"X","wings":"X","pattern":"D","legs":"F"},"bonus":1.7800000000000014},{"rt":1258.1000000238419,"stimulus":"bees-with-color/bee-A2DM.svg","response":0,"trial_type":"image-button-response","trial_index":95,"time_elapsed":304843,"internal_node_id":"0.0-4.0-0.44","subject_id":"5f29a219fd79260ef749a01d","study_id":"6197b3f67c2b5cd3b6d9596a","session_id":"619be58e4abfed32cce584e7","condition":"full-information","relevant_dimensions":["pattern","legs"],"bee_group":{"antennae":"X","wings":"X","pattern":"D","legs":"F"},"action":"harvest","summary":"good-harvest","bonus":1.7800000000000014},{"rt":1062.7999999523163,"stimulus":"\n                    <p><b>Action: <em>harvest</em></b></p>\n                    <p>This is the bee that you just saw.</p>\n                    <img src=\"bees-with-color/bee-A2DM.svg\" width=\"200\">\n                    <p><span class=\"greenText\"><b>Successful harvest!</b></span><br>Your pay has increased by $0.02. Your bonus pay is now $1.02.</p>\n            ","response":0,"trial_type":"html-button-response","trial_index":96,"time_elapsed":305911,"internal_node_id":"0.0-4.0-1.44","subject_id":"5f29a219fd79260ef749a01d","study_id":"6197b3f67c2b5cd3b6d9596a","session_id":"619be58e4abfed32cce584e7","condition":"full-information","relevant_dimensions":["pattern","legs"],"bee_group":{"antennae":"X","wings":"X","pattern":"D","legs":"F"},"bonus":1.7800000000000014},{"rt":3742.399999976158,"stimulus":"bees-with-color/bee-A2SF.svg","response":0,"trial_type":"image-button-response","trial_index":97,"time_elapsed":309660,"internal_node_id":"0.0-4.0-0.45","subject_id":"5f29a219fd79260ef749a01d","study_id":"6197b3f67c2b5cd3b6d9596a","session_id":"619be58e4abfed32cce584e7","condition":"full-information","relevant_dimensions":["pattern","legs"],"bee_group":{"antennae":"X","wings":"X","pattern":"D","legs":"F"},"action":"harvest","summary":"good-harvest","bonus":1.7800000000000014},{"rt":689.4000000953674,"stimulus":"\n                    <p><b>Action: <em>harvest</em></b></p>\n                    <p>This is the bee that you just saw.</p>\n                    <img src=\"bees-with-color/bee-A2SF.svg\" width=\"200\">\n                    <p><span class=\"greenText\"><b>Successful harvest!</b></span><br>Your pay has increased by $0.02. Your bonus pay is now $1.04.</p>\n            ","response":0,"trial_type":"html-button-response","trial_index":98,"time_elapsed":310357,"internal_node_id":"0.0-4.0-1.45","subject_id":"5f29a219fd79260ef749a01d","study_id":"6197b3f67c2b5cd3b6d9596a","session_id":"619be58e4abfed32cce584e7","condition":"full-information","relevant_dimensions":["pattern","legs"],"bee_group":{"antennae":"X","wings":"X","pattern":"D","legs":"F"},"bonus":1.7800000000000014},{"rt":1702.5999999046326,"stimulus":"bees-with-color/bee-B1DF.svg","response":1,"trial_type":"image-button-response","trial_index":99,"time_elapsed":312070,"internal_node_id":"0.0-4.0-0.46","subject_id":"5f29a219fd79260ef749a01d","study_id":"6197b3f67c2b5cd3b6d9596a","session_id":"619be58e4abfed32cce584e7","condition":"full-information","relevant_dimensions":["pattern","legs"],"bee_group":{"antennae":"X","wings":"X","pattern":"D","legs":"F"},"action":"avoid","summary":"good-avoid","bonus":1.7800000000000014},{"rt":1540.6000000238419,"stimulus":"\n                    <p><b>Action: <em>avoid</em></b></p>\n                    <p>This is the bee that you just saw.</p>\n                    <img src=\"bees-with-color/bee-B1DF.svg\" width=\"200\">\n                    <p><span class=\"greenText\">Good choice!</span>  This bee would have stung you.<br>Your bonus pay is unchanged, and remains at $1.04.</p>\n            ","response":0,"trial_type":"html-button-response","trial_index":100,"time_elapsed":313618,"internal_node_id":"0.0-4.0-1.46","subject_id":"5f29a219fd79260ef749a01d","study_id":"6197b3f67c2b5cd3b6d9596a","session_id":"619be58e4abfed32cce584e7","condition":"full-information","relevant_dimensions":["pattern","legs"],"bee_group":{"antennae":"X","wings":"X","pattern":"D","legs":"F"},"bonus":1.7800000000000014},{"rt":1129.8999999761581,"stimulus":"bees-with-color/bee-A2SM.svg","response":0,"trial_type":"image-button-response","trial_index":101,"time_elapsed":314764,"internal_node_id":"0.0-4.0-0.47","subject_id":"5f29a219fd79260ef749a01d","study_id":"6197b3f67c2b5cd3b6d9596a","session_id":"619be58e4abfed32cce584e7","condition":"full-information","relevant_dimensions":["pattern","legs"],"bee_group":{"antennae":"X","wings":"X","pattern":"D","legs":"F"},"action":"harvest","summary":"good-harvest","bonus":1.7800000000000014},{"rt":801.7000000476837,"stimulus":"\n                    <p><b>Action: <em>harvest</em></b></p>\n                    <p>This is the bee that you just saw.</p>\n                    <img src=\"bees-with-color/bee-A2SM.svg\" width=\"200\">\n                    <p><span class=\"greenText\"><b>Successful harvest!</b></span><br>Your pay has increased by $0.02. Your bonus pay is now $1.06.</p>\n            ","response":0,"trial_type":"html-button-response","trial_index":102,"time_elapsed":315574,"internal_node_id":"0.0-4.0-1.47","subject_id":"5f29a219fd79260ef749a01d","study_id":"6197b3f67c2b5cd3b6d9596a","session_id":"619be58e4abfed32cce584e7","condition":"full-information","relevant_dimensions":["pattern","legs"],"bee_group":{"antennae":"X","wings":"X","pattern":"D","legs":"F"},"bonus":1.7800000000000014},{"rt":1553.2000000476837,"stimulus":"bees-with-color/bee-B1DF.svg","response":1,"trial_type":"image-button-response","trial_index":103,"time_elapsed":317141,"internal_node_id":"0.0-4.0-0.48","subject_id":"5f29a219fd79260ef749a01d","study_id":"6197b3f67c2b5cd3b6d9596a","session_id":"619be58e4abfed32cce584e7","condition":"full-information","relevant_dimensions":["pattern","legs"],"bee_group":{"antennae":"X","wings":"X","pattern":"D","legs":"F"},"action":"avoid","summary":"good-avoid","bonus":1.7800000000000014},{"rt":1353.5,"stimulus":"\n                    <p><b>Action: <em>avoid</em></b></p>\n                    <p>This is the bee that you just saw.</p>\n                    <img src=\"bees-with-color/bee-B1DF.svg\" width=\"200\">\n                    <p><span class=\"greenText\">Good choice!</span>  This bee would have stung you.<br>Your bonus pay is unchanged, and remains at $1.06.</p>\n            ","response":0,"trial_type":"html-button-response","trial_index":104,"time_elapsed":318501,"internal_node_id":"0.0-4.0-1.48","subject_id":"5f29a219fd79260ef749a01d","study_id":"6197b3f67c2b5cd3b6d9596a","session_id":"619be58e4abfed32cce584e7","condition":"full-information","relevant_dimensions":["pattern","legs"],"bee_group":{"antennae":"X","wings":"X","pattern":"D","legs":"F"},"bonus":1.7800000000000014},{"rt":1089.2999999523163,"stimulus":"bees-with-color/bee-B1SM.svg","response":0,"trial_type":"image-button-response","trial_index":105,"time_elapsed":319596,"internal_node_id":"0.0-4.0-0.49","subject_id":"5f29a219fd79260ef749a01d","study_id":"6197b3f67c2b5cd3b6d9596a","session_id":"619be58e4abfed32cce584e7","condition":"full-information","relevant_dimensions":["pattern","legs"],"bee_group":{"antennae":"X","wings":"X","pattern":"D","legs":"F"},"action":"harvest","summary":"good-harvest","bonus":1.7800000000000014},{"rt":1426.6000000238419,"stimulus":"\n                    <p><b>Action: <em>harvest</em></b></p>\n                    <p>This is the bee that you just saw.</p>\n                    <img src=\"bees-with-color/bee-B1SM.svg\" width=\"200\">\n                    <p><span class=\"greenText\"><b>Successful harvest!</b></span><br>Your pay has increased by $0.02. Your bonus pay is now $1.08.</p>\n            ","response":0,"trial_type":"html-button-response","trial_index":106,"time_elapsed":321028,"internal_node_id":"0.0-4.0-1.49","subject_id":"5f29a219fd79260ef749a01d","study_id":"6197b3f67c2b5cd3b6d9596a","session_id":"619be58e4abfed32cce584e7","condition":"full-information","relevant_dimensions":["pattern","legs"],"bee_group":{"antennae":"X","wings":"X","pattern":"D","legs":"F"},"bonus":1.7800000000000014},{"rt":1150.1999999284744,"stimulus":"bees-with-color/bee-B2DM.svg","response":0,"trial_type":"image-button-response","trial_index":107,"time_elapsed":322183,"internal_node_id":"0.0-4.0-0.50","subject_id":"5f29a219fd79260ef749a01d","study_id":"6197b3f67c2b5cd3b6d9596a","session_id":"619be58e4abfed32cce584e7","condition":"full-information","relevant_dimensions":["pattern","legs"],"bee_group":{"antennae":"X","wings":"X","pattern":"D","legs":"F"},"action":"harvest","summary":"good-harvest","bonus":1.7800000000000014},{"rt":860,"stimulus":"\n                    <p><b>Action: <em>harvest</em></b></p>\n                    <p>This is the bee that you just saw.</p>\n                    <img src=\"bees-with-color/bee-B2DM.svg\" width=\"200\">\n                    <p><span class=\"greenText\"><b>Successful harvest!</b></span><br>Your pay has increased by $0.02. Your bonus pay is now $1.10.</p>\n            ","response":0,"trial_type":"html-button-response","trial_index":108,"time_elapsed":323051,"internal_node_id":"0.0-4.0-1.50","subject_id":"5f29a219fd79260ef749a01d","study_id":"6197b3f67c2b5cd3b6d9596a","session_id":"619be58e4abfed32cce584e7","condition":"full-information","relevant_dimensions":["pattern","legs"],"bee_group":{"antennae":"X","wings":"X","pattern":"D","legs":"F"},"bonus":1.7800000000000014},{"rt":794.5,"stimulus":"bees-with-color/bee-B2SM.svg","response":0,"trial_type":"image-button-response","trial_index":109,"time_elapsed":323852,"internal_node_id":"0.0-4.0-0.51","subject_id":"5f29a219fd79260ef749a01d","study_id":"6197b3f67c2b5cd3b6d9596a","session_id":"619be58e4abfed32cce584e7","condition":"full-information","relevant_dimensions":["pattern","legs"],"bee_group":{"antennae":"X","wings":"X","pattern":"D","legs":"F"},"action":"harvest","summary":"good-harvest","bonus":1.7800000000000014},{"rt":824.7999999523163,"stimulus":"\n                    <p><b>Action: <em>harvest</em></b></p>\n                    <p>This is the bee that you just saw.</p>\n                    <img src=\"bees-with-color/bee-B2SM.svg\" width=\"200\">\n                    <p><span class=\"greenText\"><b>Successful harvest!</b></span><br>Your pay has increased by $0.02. Your bonus pay is now $1.12.</p>\n            ","response":0,"trial_type":"html-button-response","trial_index":110,"time_elapsed":324694,"internal_node_id":"0.0-4.0-1.51","subject_id":"5f29a219fd79260ef749a01d","study_id":"6197b3f67c2b5cd3b6d9596a","session_id":"619be58e4abfed32cce584e7","condition":"full-information","relevant_dimensions":["pattern","legs"],"bee_group":{"antennae":"X","wings":"X","pattern":"D","legs":"F"},"bonus":1.7800000000000014},{"rt":1012.5,"stimulus":"bees-with-color/bee-B2DF.svg","response":1,"trial_type":"image-button-response","trial_index":111,"time_elapsed":325709,"internal_node_id":"0.0-4.0-0.52","subject_id":"5f29a219fd79260ef749a01d","study_id":"6197b3f67c2b5cd3b6d9596a","session_id":"619be58e4abfed32cce584e7","condition":"full-information","relevant_dimensions":["pattern","legs"],"bee_group":{"antennae":"X","wings":"X","pattern":"D","legs":"F"},"action":"avoid","summary":"good-avoid","bonus":1.7800000000000014},{"rt":1070.2999999523163,"stimulus":"\n                    <p><b>Action: <em>avoid</em></b></p>\n                    <p>This is the bee that you just saw.</p>\n                    <img src=\"bees-with-color/bee-B2DF.svg\" width=\"200\">\n                    <p><span class=\"greenText\">Good choice!</span>  This bee would have stung you.<br>Your bonus pay is unchanged, and remains at $1.12.</p>\n            ","response":0,"trial_type":"html-button-response","trial_index":112,"time_elapsed":326784,"internal_node_id":"0.0-4.0-1.52","subject_id":"5f29a219fd79260ef749a01d","study_id":"6197b3f67c2b5cd3b6d9596a","session_id":"619be58e4abfed32cce584e7","condition":"full-information","relevant_dimensions":["pattern","legs"],"bee_group":{"antennae":"X","wings":"X","pattern":"D","legs":"F"},"bonus":1.7800000000000014},{"rt":1294,"stimulus":"bees-with-color/bee-A1DM.svg","response":0,"trial_type":"image-button-response","trial_index":113,"time_elapsed":328082,"internal_node_id":"0.0-4.0-0.53","subject_id":"5f29a219fd79260ef749a01d","study_id":"6197b3f67c2b5cd3b6d9596a","session_id":"619be58e4abfed32cce584e7","condition":"full-information","relevant_dimensions":["pattern","legs"],"bee_group":{"antennae":"X","wings":"X","pattern":"D","legs":"F"},"action":"harvest","summary":"good-harvest","bonus":1.7800000000000014},{"rt":1020.1999999284744,"stimulus":"\n                    <p><b>Action: <em>harvest</em></b></p>\n                    <p>This is the bee that you just saw.</p>\n                    <img src=\"bees-with-color/bee-A1DM.svg\" width=\"200\">\n                    <p><span class=\"greenText\"><b>Successful harvest!</b></span><br>Your pay has increased by $0.02. Your bonus pay is now $1.14.</p>\n            ","response":0,"trial_type":"html-button-response","trial_index":114,"time_elapsed":329112,"internal_node_id":"0.0-4.0-1.53","subject_id":"5f29a219fd79260ef749a01d","study_id":"6197b3f67c2b5cd3b6d9596a","session_id":"619be58e4abfed32cce584e7","condition":"full-information","relevant_dimensions":["pattern","legs"],"bee_group":{"antennae":"X","wings":"X","pattern":"D","legs":"F"},"bonus":1.7800000000000014},{"rt":1014.6000000238419,"stimulus":"bees-with-color/bee-B2SF.svg","response":0,"trial_type":"image-button-response","trial_index":115,"time_elapsed":330134,"internal_node_id":"0.0-4.0-0.54","subject_id":"5f29a219fd79260ef749a01d","study_id":"6197b3f67c2b5cd3b6d9596a","session_id":"619be58e4abfed32cce584e7","condition":"full-information","relevant_dimensions":["pattern","legs"],"bee_group":{"antennae":"X","wings":"X","pattern":"D","legs":"F"},"action":"harvest","summary":"good-harvest","bonus":1.7800000000000014},{"rt":759.1000000238419,"stimulus":"\n                    <p><b>Action: <em>harvest</em></b></p>\n                    <p>This is the bee that you just saw.</p>\n                    <img src=\"bees-with-color/bee-B2SF.svg\" width=\"200\">\n                    <p><span class=\"greenText\"><b>Successful harvest!</b></span><br>Your pay has increased by $0.02. Your bonus pay is now $1.16.</p>\n            ","response":0,"trial_type":"html-button-response","trial_index":116,"time_elapsed":330900,"internal_node_id":"0.0-4.0-1.54","subject_id":"5f29a219fd79260ef749a01d","study_id":"6197b3f67c2b5cd3b6d9596a","session_id":"619be58e4abfed32cce584e7","condition":"full-information","relevant_dimensions":["pattern","legs"],"bee_group":{"antennae":"X","wings":"X","pattern":"D","legs":"F"},"bonus":1.7800000000000014},{"rt":811.7000000476837,"stimulus":"bees-with-color/bee-B1SF.svg","response":0,"trial_type":"image-button-response","trial_index":117,"time_elapsed":331721,"internal_node_id":"0.0-4.0-0.55","subject_id":"5f29a219fd79260ef749a01d","study_id":"6197b3f67c2b5cd3b6d9596a","session_id":"619be58e4abfed32cce584e7","condition":"full-information","relevant_dimensions":["pattern","legs"],"bee_group":{"antennae":"X","wings":"X","pattern":"D","legs":"F"},"action":"harvest","summary":"good-harvest","bonus":1.7800000000000014},{"rt":1068.1999999284744,"stimulus":"\n                    <p><b>Action: <em>harvest</em></b></p>\n                    <p>This is the bee that you just saw.</p>\n                    <img src=\"bees-with-color/bee-B1SF.svg\" width=\"200\">\n                    <p><span class=\"greenText\"><b>Successful harvest!</b></span><br>Your pay has increased by $0.02. Your bonus pay is now $1.18.</p>\n            ","response":0,"trial_type":"html-button-response","trial_index":118,"time_elapsed":332798,"internal_node_id":"0.0-4.0-1.55","subject_id":"5f29a219fd79260ef749a01d","study_id":"6197b3f67c2b5cd3b6d9596a","session_id":"619be58e4abfed32cce584e7","condition":"full-information","relevant_dimensions":["pattern","legs"],"bee_group":{"antennae":"X","wings":"X","pattern":"D","legs":"F"},"bonus":1.7800000000000014},{"rt":1030,"stimulus":"bees-with-color/bee-A2DF.svg","response":1,"trial_type":"image-button-response","trial_index":119,"time_elapsed":333833,"internal_node_id":"0.0-4.0-0.56","subject_id":"5f29a219fd79260ef749a01d","study_id":"6197b3f67c2b5cd3b6d9596a","session_id":"619be58e4abfed32cce584e7","condition":"full-information","relevant_dimensions":["pattern","legs"],"bee_group":{"antennae":"X","wings":"X","pattern":"D","legs":"F"},"action":"avoid","summary":"good-avoid","bonus":1.7800000000000014},{"rt":2007.6999999284744,"stimulus":"\n                    <p><b>Action: <em>avoid</em></b></p>\n                    <p>This is the bee that you just saw.</p>\n                    <img src=\"bees-with-color/bee-A2DF.svg\" width=\"200\">\n                    <p><span class=\"greenText\">Good choice!</span>  This bee would have stung you.<br>Your bonus pay is unchanged, and remains at $1.18.</p>\n            ","response":0,"trial_type":"html-button-response","trial_index":120,"time_elapsed":335848,"internal_node_id":"0.0-4.0-1.56","subject_id":"5f29a219fd79260ef749a01d","study_id":"6197b3f67c2b5cd3b6d9596a","session_id":"619be58e4abfed32cce584e7","condition":"full-information","relevant_dimensions":["pattern","legs"],"bee_group":{"antennae":"X","wings":"X","pattern":"D","legs":"F"},"bonus":1.7800000000000014},{"rt":874.7000000476837,"stimulus":"bees-with-color/bee-A1SM.svg","response":0,"trial_type":"image-button-response","trial_index":121,"time_elapsed":336729,"internal_node_id":"0.0-4.0-0.57","subject_id":"5f29a219fd79260ef749a01d","study_id":"6197b3f67c2b5cd3b6d9596a","session_id":"619be58e4abfed32cce584e7","condition":"full-information","relevant_dimensions":["pattern","legs"],"bee_group":{"antennae":"X","wings":"X","pattern":"D","legs":"F"},"action":"harvest","summary":"good-harvest","bonus":1.7800000000000014},{"rt":758.0999999046326,"stimulus":"\n                    <p><b>Action: <em>harvest</em></b></p>\n                    <p>This is the bee that you just saw.</p>\n                    <img src=\"bees-with-color/bee-A1SM.svg\" width=\"200\">\n                    <p><span class=\"greenText\"><b>Successful harvest!</b></span><br>Your pay has increased by $0.02. Your bonus pay is now $1.20.</p>\n            ","response":0,"trial_type":"html-button-response","trial_index":122,"time_elapsed":337494,"internal_node_id":"0.0-4.0-1.57","subject_id":"5f29a219fd79260ef749a01d","study_id":"6197b3f67c2b5cd3b6d9596a","session_id":"619be58e4abfed32cce584e7","condition":"full-information","relevant_dimensions":["pattern","legs"],"bee_group":{"antennae":"X","wings":"X","pattern":"D","legs":"F"},"bonus":1.7800000000000014},{"rt":1072.2999999523163,"stimulus":"bees-with-color/bee-A2DM.svg","response":0,"trial_type":"image-button-response","trial_index":123,"time_elapsed":338580,"internal_node_id":"0.0-4.0-0.58","subject_id":"5f29a219fd79260ef749a01d","study_id":"6197b3f67c2b5cd3b6d9596a","session_id":"619be58e4abfed32cce584e7","condition":"full-information","relevant_dimensions":["pattern","legs"],"bee_group":{"antennae":"X","wings":"X","pattern":"D","legs":"F"},"action":"harvest","summary":"good-harvest","bonus":1.7800000000000014},{"rt":780.5999999046326,"stimulus":"\n                    <p><b>Action: <em>harvest</em></b></p>\n                    <p>This is the bee that you just saw.</p>\n                    <img src=\"bees-with-color/bee-A2DM.svg\" width=\"200\">\n                    <p><span class=\"greenText\"><b>Successful harvest!</b></span><br>Your pay has increased by $0.02. Your bonus pay is now $1.22.</p>\n            ","response":0,"trial_type":"html-button-response","trial_index":124,"time_elapsed":339368,"internal_node_id":"0.0-4.0-1.58","subject_id":"5f29a219fd79260ef749a01d","study_id":"6197b3f67c2b5cd3b6d9596a","session_id":"619be58e4abfed32cce584e7","condition":"full-information","relevant_dimensions":["pattern","legs"],"bee_group":{"antennae":"X","wings":"X","pattern":"D","legs":"F"},"bonus":1.7800000000000014},{"rt":1244.5,"stimulus":"bees-with-color/bee-A1DF.svg","response":1,"trial_type":"image-button-response","trial_index":125,"time_elapsed":340618,"internal_node_id":"0.0-4.0-0.59","subject_id":"5f29a219fd79260ef749a01d","study_id":"6197b3f67c2b5cd3b6d9596a","session_id":"619be58e4abfed32cce584e7","condition":"full-information","relevant_dimensions":["pattern","legs"],"bee_group":{"antennae":"X","wings":"X","pattern":"D","legs":"F"},"action":"avoid","summary":"good-avoid","bonus":1.7800000000000014},{"rt":1175.2999999523163,"stimulus":"\n                    <p><b>Action: <em>avoid</em></b></p>\n                    <p>This is the bee that you just saw.</p>\n                    <img src=\"bees-with-color/bee-A1DF.svg\" width=\"200\">\n                    <p><span class=\"greenText\">Good choice!</span>  This bee would have stung you.<br>Your bonus pay is unchanged, and remains at $1.22.</p>\n            ","response":0,"trial_type":"html-button-response","trial_index":126,"time_elapsed":341798,"internal_node_id":"0.0-4.0-1.59","subject_id":"5f29a219fd79260ef749a01d","study_id":"6197b3f67c2b5cd3b6d9596a","session_id":"619be58e4abfed32cce584e7","condition":"full-information","relevant_dimensions":["pattern","legs"],"bee_group":{"antennae":"X","wings":"X","pattern":"D","legs":"F"},"bonus":1.7800000000000014},{"rt":774.5,"stimulus":"bees-with-color/bee-A2SF.svg","response":0,"trial_type":"image-button-response","trial_index":127,"time_elapsed":342578,"internal_node_id":"0.0-4.0-0.60","subject_id":"5f29a219fd79260ef749a01d","study_id":"6197b3f67c2b5cd3b6d9596a","session_id":"619be58e4abfed32cce584e7","condition":"full-information","relevant_dimensions":["pattern","legs"],"bee_group":{"antennae":"X","wings":"X","pattern":"D","legs":"F"},"action":"harvest","summary":"good-harvest","bonus":1.7800000000000014},{"rt":752.7000000476837,"stimulus":"\n                    <p><b>Action: <em>harvest</em></b></p>\n                    <p>This is the bee that you just saw.</p>\n                    <img src=\"bees-with-color/bee-A2SF.svg\" width=\"200\">\n                    <p><span class=\"greenText\"><b>Successful harvest!</b></span><br>Your pay has increased by $0.02. Your bonus pay is now $1.24.</p>\n            ","response":0,"trial_type":"html-button-response","trial_index":128,"time_elapsed":343337,"internal_node_id":"0.0-4.0-1.60","subject_id":"5f29a219fd79260ef749a01d","study_id":"6197b3f67c2b5cd3b6d9596a","session_id":"619be58e4abfed32cce584e7","condition":"full-information","relevant_dimensions":["pattern","legs"],"bee_group":{"antennae":"X","wings":"X","pattern":"D","legs":"F"},"bonus":1.7800000000000014},{"rt":1008.3000000715256,"stimulus":"bees-with-color/bee-A1SF.svg","response":0,"trial_type":"image-button-response","trial_index":129,"time_elapsed":344351,"internal_node_id":"0.0-4.0-0.61","subject_id":"5f29a219fd79260ef749a01d","study_id":"6197b3f67c2b5cd3b6d9596a","session_id":"619be58e4abfed32cce584e7","condition":"full-information","relevant_dimensions":["pattern","legs"],"bee_group":{"antennae":"X","wings":"X","pattern":"D","legs":"F"},"action":"harvest","summary":"good-harvest","bonus":1.7800000000000014},{"rt":882.5,"stimulus":"\n                    <p><b>Action: <em>harvest</em></b></p>\n                    <p>This is the bee that you just saw.</p>\n                    <img src=\"bees-with-color/bee-A1SF.svg\" width=\"200\">\n                    <p><span class=\"greenText\"><b>Successful harvest!</b></span><br>Your pay has increased by $0.02. Your bonus pay is now $1.26.</p>\n            ","response":0,"trial_type":"html-button-response","trial_index":130,"time_elapsed":345241,"internal_node_id":"0.0-4.0-1.61","subject_id":"5f29a219fd79260ef749a01d","study_id":"6197b3f67c2b5cd3b6d9596a","session_id":"619be58e4abfed32cce584e7","condition":"full-information","relevant_dimensions":["pattern","legs"],"bee_group":{"antennae":"X","wings":"X","pattern":"D","legs":"F"},"bonus":1.7800000000000014},{"rt":1052.1999999284744,"stimulus":"bees-with-color/bee-B1DM.svg","response":0,"trial_type":"image-button-response","trial_index":131,"time_elapsed":346300,"internal_node_id":"0.0-4.0-0.62","subject_id":"5f29a219fd79260ef749a01d","study_id":"6197b3f67c2b5cd3b6d9596a","session_id":"619be58e4abfed32cce584e7","condition":"full-information","relevant_dimensions":["pattern","legs"],"bee_group":{"antennae":"X","wings":"X","pattern":"D","legs":"F"},"action":"harvest","summary":"good-harvest","bonus":1.7800000000000014},{"rt":822,"stimulus":"\n                    <p><b>Action: <em>harvest</em></b></p>\n                    <p>This is the bee that you just saw.</p>\n                    <img src=\"bees-with-color/bee-B1DM.svg\" width=\"200\">\n                    <p><span class=\"greenText\"><b>Successful harvest!</b></span><br>Your pay has increased by $0.02. Your bonus pay is now $1.28.</p>\n            ","response":0,"trial_type":"html-button-response","trial_index":132,"time_elapsed":347127,"internal_node_id":"0.0-4.0-1.62","subject_id":"5f29a219fd79260ef749a01d","study_id":"6197b3f67c2b5cd3b6d9596a","session_id":"619be58e4abfed32cce584e7","condition":"full-information","relevant_dimensions":["pattern","legs"],"bee_group":{"antennae":"X","wings":"X","pattern":"D","legs":"F"},"bonus":1.7800000000000014},{"rt":728.7999999523163,"stimulus":"bees-with-color/bee-A2SM.svg","response":0,"trial_type":"image-button-response","trial_index":133,"time_elapsed":347859,"internal_node_id":"0.0-4.0-0.63","subject_id":"5f29a219fd79260ef749a01d","study_id":"6197b3f67c2b5cd3b6d9596a","session_id":"619be58e4abfed32cce584e7","condition":"full-information","relevant_dimensions":["pattern","legs"],"bee_group":{"antennae":"X","wings":"X","pattern":"D","legs":"F"},"action":"harvest","summary":"good-harvest","bonus":1.7800000000000014},{"rt":887.3000000715256,"stimulus":"\n                    <p><b>Action: <em>harvest</em></b></p>\n                    <p>This is the bee that you just saw.</p>\n                    <img src=\"bees-with-color/bee-A2SM.svg\" width=\"200\">\n                    <p><span class=\"greenText\"><b>Successful harvest!</b></span><br>Your pay has increased by $0.02. Your bonus pay is now $1.30.</p>\n            ","response":0,"trial_type":"html-button-response","trial_index":134,"time_elapsed":348750,"internal_node_id":"0.0-4.0-1.63","subject_id":"5f29a219fd79260ef749a01d","study_id":"6197b3f67c2b5cd3b6d9596a","session_id":"619be58e4abfed32cce584e7","condition":"full-information","relevant_dimensions":["pattern","legs"],"bee_group":{"antennae":"X","wings":"X","pattern":"D","legs":"F"},"bonus":1.7800000000000014},{"rt":9953.299999952316,"stimulus":"You have completed the first part of this experiment.<br><br>You will now begin a shorter second part, in which you will receive no feedback.<br>The same rules regarding bonus pay apply.<br><br>Press any key to begin.","response":" ","trial_type":"html-keyboard-response","trial_index":135,"time_elapsed":358713,"internal_node_id":"0.0-5.0","subject_id":"5f29a219fd79260ef749a01d","study_id":"6197b3f67c2b5cd3b6d9596a","session_id":"619be58e4abfed32cce584e7","condition":"full-information","relevant_dimensions":["pattern","legs"],"bee_group":{"antennae":"X","wings":"X","pattern":"D","legs":"F"},"bonus":1.7800000000000014},{"rt":2771.2999999523163,"stimulus":"bees-with-color/bee-B1DM.svg","response":0,"trial_type":"image-button-response","trial_index":136,"time_elapsed":361516,"internal_node_id":"0.0-6.0-0.0","subject_id":"5f29a219fd79260ef749a01d","study_id":"6197b3f67c2b5cd3b6d9596a","session_id":"619be58e4abfed32cce584e7","condition":"full-information","relevant_dimensions":["pattern","legs"],"bee_group":{"antennae":"X","wings":"X","pattern":"D","legs":"F"},"bonus":1.7800000000000014},{"rt":1174.6000000238419,"stimulus":"bees-with-color/bee-A1SF.svg","response":0,"trial_type":"image-button-response","trial_index":137,"time_elapsed":362706,"internal_node_id":"0.0-6.0-0.1","subject_id":"5f29a219fd79260ef749a01d","study_id":"6197b3f67c2b5cd3b6d9596a","session_id":"619be58e4abfed32cce584e7","condition":"full-information","relevant_dimensions":["pattern","legs"],"bee_group":{"antennae":"X","wings":"X","pattern":"D","legs":"F"},"bonus":1.7800000000000014},{"rt":2372,"stimulus":"bees-with-color/bee-A2DF.svg","response":1,"trial_type":"image-button-response","trial_index":138,"time_elapsed":365088,"internal_node_id":"0.0-6.0-0.2","subject_id":"5f29a219fd79260ef749a01d","study_id":"6197b3f67c2b5cd3b6d9596a","session_id":"619be58e4abfed32cce584e7","condition":"full-information","relevant_dimensions":["pattern","legs"],"bee_group":{"antennae":"X","wings":"X","pattern":"D","legs":"F"},"bonus":1.7800000000000014},{"rt":1522.5,"stimulus":"bees-with-color/bee-A1DM.svg","response":0,"trial_type":"image-button-response","trial_index":139,"time_elapsed":366617,"internal_node_id":"0.0-6.0-0.3","subject_id":"5f29a219fd79260ef749a01d","study_id":"6197b3f67c2b5cd3b6d9596a","session_id":"619be58e4abfed32cce584e7","condition":"full-information","relevant_dimensions":["pattern","legs"],"bee_group":{"antennae":"X","wings":"X","pattern":"D","legs":"F"},"bonus":1.7800000000000014},{"rt":997.4000000953674,"stimulus":"bees-with-color/bee-A2SF.svg","response":0,"trial_type":"image-button-response","trial_index":140,"time_elapsed":367625,"internal_node_id":"0.0-6.0-0.4","subject_id":"5f29a219fd79260ef749a01d","study_id":"6197b3f67c2b5cd3b6d9596a","session_id":"619be58e4abfed32cce584e7","condition":"full-information","relevant_dimensions":["pattern","legs"],"bee_group":{"antennae":"X","wings":"X","pattern":"D","legs":"F"},"bonus":1.7800000000000014},{"rt":799.9000000953674,"stimulus":"bees-with-color/bee-A2SM.svg","response":0,"trial_type":"image-button-response","trial_index":141,"time_elapsed":368437,"internal_node_id":"0.0-6.0-0.5","subject_id":"5f29a219fd79260ef749a01d","study_id":"6197b3f67c2b5cd3b6d9596a","session_id":"619be58e4abfed32cce584e7","condition":"full-information","relevant_dimensions":["pattern","legs"],"bee_group":{"antennae":"X","wings":"X","pattern":"D","legs":"F"},"bonus":1.7800000000000014},{"rt":1124.2000000476837,"stimulus":"bees-with-color/bee-A1DF.svg","response":1,"trial_type":"image-button-response","trial_index":142,"time_elapsed":369569,"internal_node_id":"0.0-6.0-0.6","subject_id":"5f29a219fd79260ef749a01d","study_id":"6197b3f67c2b5cd3b6d9596a","session_id":"619be58e4abfed32cce584e7","condition":"full-information","relevant_dimensions":["pattern","legs"],"bee_group":{"antennae":"X","wings":"X","pattern":"D","legs":"F"},"bonus":1.7800000000000014},{"rt":1101.8000000715256,"stimulus":"bees-with-color/bee-B2SM.svg","response":0,"trial_type":"image-button-response","trial_index":143,"time_elapsed":370682,"internal_node_id":"0.0-6.0-0.7","subject_id":"5f29a219fd79260ef749a01d","study_id":"6197b3f67c2b5cd3b6d9596a","session_id":"619be58e4abfed32cce584e7","condition":"full-information","relevant_dimensions":["pattern","legs"],"bee_group":{"antennae":"X","wings":"X","pattern":"D","legs":"F"},"bonus":1.7800000000000014},{"rt":829.5,"stimulus":"bees-with-color/bee-A1SM.svg","response":0,"trial_type":"image-button-response","trial_index":144,"time_elapsed":371521,"internal_node_id":"0.0-6.0-0.8","subject_id":"5f29a219fd79260ef749a01d","study_id":"6197b3f67c2b5cd3b6d9596a","session_id":"619be58e4abfed32cce584e7","condition":"full-information","relevant_dimensions":["pattern","legs"],"bee_group":{"antennae":"X","wings":"X","pattern":"D","legs":"F"},"bonus":1.7800000000000014},{"rt":1056.7999999523163,"stimulus":"bees-with-color/bee-B2DF.svg","response":1,"trial_type":"image-button-response","trial_index":145,"time_elapsed":372586,"internal_node_id":"0.0-6.0-0.9","subject_id":"5f29a219fd79260ef749a01d","study_id":"6197b3f67c2b5cd3b6d9596a","session_id":"619be58e4abfed32cce584e7","condition":"full-information","relevant_dimensions":["pattern","legs"],"bee_group":{"antennae":"X","wings":"X","pattern":"D","legs":"F"},"bonus":1.7800000000000014},{"rt":1028.7000000476837,"stimulus":"bees-with-color/bee-B1SM.svg","response":0,"trial_type":"image-button-response","trial_index":146,"time_elapsed":373624,"internal_node_id":"0.0-6.0-0.10","subject_id":"5f29a219fd79260ef749a01d","study_id":"6197b3f67c2b5cd3b6d9596a","session_id":"619be58e4abfed32cce584e7","condition":"full-information","relevant_dimensions":["pattern","legs"],"bee_group":{"antennae":"X","wings":"X","pattern":"D","legs":"F"},"bonus":1.7800000000000014},{"rt":945.7000000476837,"stimulus":"bees-with-color/bee-A2DM.svg","response":0,"trial_type":"image-button-response","trial_index":147,"time_elapsed":374576,"internal_node_id":"0.0-6.0-0.11","subject_id":"5f29a219fd79260ef749a01d","study_id":"6197b3f67c2b5cd3b6d9596a","session_id":"619be58e4abfed32cce584e7","condition":"full-information","relevant_dimensions":["pattern","legs"],"bee_group":{"antennae":"X","wings":"X","pattern":"D","legs":"F"},"bonus":1.7800000000000014},{"rt":1034.1000000238419,"stimulus":"bees-with-color/bee-B2SF.svg","response":0,"trial_type":"image-button-response","trial_index":148,"time_elapsed":375617,"internal_node_id":"0.0-6.0-0.12","subject_id":"5f29a219fd79260ef749a01d","study_id":"6197b3f67c2b5cd3b6d9596a","session_id":"619be58e4abfed32cce584e7","condition":"full-information","relevant_dimensions":["pattern","legs"],"bee_group":{"antennae":"X","wings":"X","pattern":"D","legs":"F"},"bonus":1.7800000000000014},{"rt":853.5,"stimulus":"bees-with-color/bee-B2DM.svg","response":0,"trial_type":"image-button-response","trial_index":149,"time_elapsed":376475,"internal_node_id":"0.0-6.0-0.13","subject_id":"5f29a219fd79260ef749a01d","study_id":"6197b3f67c2b5cd3b6d9596a","session_id":"619be58e4abfed32cce584e7","condition":"full-information","relevant_dimensions":["pattern","legs"],"bee_group":{"antennae":"X","wings":"X","pattern":"D","legs":"F"},"bonus":1.7800000000000014},{"rt":954.1000000238419,"stimulus":"bees-with-color/bee-B1SF.svg","response":0,"trial_type":"image-button-response","trial_index":150,"time_elapsed":377438,"internal_node_id":"0.0-6.0-0.14","subject_id":"5f29a219fd79260ef749a01d","study_id":"6197b3f67c2b5cd3b6d9596a","session_id":"619be58e4abfed32cce584e7","condition":"full-information","relevant_dimensions":["pattern","legs"],"bee_group":{"antennae":"X","wings":"X","pattern":"D","legs":"F"},"bonus":1.7800000000000014},{"rt":1107.1999999284744,"stimulus":"bees-with-color/bee-B1DF.svg","response":1,"trial_type":"image-button-response","trial_index":151,"time_elapsed":378556,"internal_node_id":"0.0-6.0-0.15","subject_id":"5f29a219fd79260ef749a01d","study_id":"6197b3f67c2b5cd3b6d9596a","session_id":"619be58e4abfed32cce584e7","condition":"full-information","relevant_dimensions":["pattern","legs"],"bee_group":{"antennae":"X","wings":"X","pattern":"D","legs":"F"},"bonus":1.7800000000000014},{"rt":1055.6000000238419,"stimulus":"bees-with-color/bee-B1DM.svg","response":0,"trial_type":"image-button-response","trial_index":152,"time_elapsed":379620,"internal_node_id":"0.0-6.0-0.16","subject_id":"5f29a219fd79260ef749a01d","study_id":"6197b3f67c2b5cd3b6d9596a","session_id":"619be58e4abfed32cce584e7","condition":"full-information","relevant_dimensions":["pattern","legs"],"bee_group":{"antennae":"X","wings":"X","pattern":"D","legs":"F"},"bonus":1.7800000000000014},{"rt":1930.7999999523163,"stimulus":"bees-with-color/bee-B1DF.svg","response":1,"trial_type":"image-button-response","trial_index":153,"time_elapsed":381558,"internal_node_id":"0.0-6.0-0.17","subject_id":"5f29a219fd79260ef749a01d","study_id":"6197b3f67c2b5cd3b6d9596a","session_id":"619be58e4abfed32cce584e7","condition":"full-information","relevant_dimensions":["pattern","legs"],"bee_group":{"antennae":"X","wings":"X","pattern":"D","legs":"F"},"bonus":1.7800000000000014},{"rt":881.8999999761581,"stimulus":"bees-with-color/bee-A2DF.svg","response":1,"trial_type":"image-button-response","trial_index":154,"time_elapsed":382447,"internal_node_id":"0.0-6.0-0.18","subject_id":"5f29a219fd79260ef749a01d","study_id":"6197b3f67c2b5cd3b6d9596a","session_id":"619be58e4abfed32cce584e7","condition":"full-information","relevant_dimensions":["pattern","legs"],"bee_group":{"antennae":"X","wings":"X","pattern":"D","legs":"F"},"bonus":1.7800000000000014},{"rt":1104.1999999284744,"stimulus":"bees-with-color/bee-A2SF.svg","response":0,"trial_type":"image-button-response","trial_index":155,"time_elapsed":383561,"internal_node_id":"0.0-6.0-0.19","subject_id":"5f29a219fd79260ef749a01d","study_id":"6197b3f67c2b5cd3b6d9596a","session_id":"619be58e4abfed32cce584e7","condition":"full-information","relevant_dimensions":["pattern","legs"],"bee_group":{"antennae":"X","wings":"X","pattern":"D","legs":"F"},"bonus":1.7800000000000014},{"rt":1272.1999999284744,"stimulus":"bees-with-color/bee-A1DM.svg","response":0,"trial_type":"image-button-response","trial_index":156,"time_elapsed":384843,"internal_node_id":"0.0-6.0-0.20","subject_id":"5f29a219fd79260ef749a01d","study_id":"6197b3f67c2b5cd3b6d9596a","session_id":"619be58e4abfed32cce584e7","condition":"full-information","relevant_dimensions":["pattern","legs"],"bee_group":{"antennae":"X","wings":"X","pattern":"D","legs":"F"},"bonus":1.7800000000000014},{"rt":902.3999999761581,"stimulus":"bees-with-color/bee-A2DM.svg","response":0,"trial_type":"image-button-response","trial_index":157,"time_elapsed":385753,"internal_node_id":"0.0-6.0-0.21","subject_id":"5f29a219fd79260ef749a01d","study_id":"6197b3f67c2b5cd3b6d9596a","session_id":"619be58e4abfed32cce584e7","condition":"full-information","relevant_dimensions":["pattern","legs"],"bee_group":{"antennae":"X","wings":"X","pattern":"D","legs":"F"}