[{"success":true,"trial_type":"fullscreen","trial_index":0,"time_elapsed":5665,"internal_node_id":"0.0-0.0","subject_id":"6041499ba066050e18a7934d","study_id":"60edd13110225f80f9f3709b","session_id":"6196bf641a291376774d3e4a","condition":"contingent","relevant_dimensions":["antennae","legs"],"bee_group":{"antennae":"B","wings":"X","pattern":"X","legs":"M"},"bonus":1.6800000000000013},{"success":true,"timeout":false,"failed_images":[],"failed_audio":[],"failed_video":[],"trial_type":"preload","trial_index":1,"time_elapsed":11826,"internal_node_id":"0.0-1.0","subject_id":"6041499ba066050e18a7934d","study_id":"60edd13110225f80f9f3709b","session_id":"6196bf641a291376774d3e4a","condition":"contingent","relevant_dimensions":["antennae","legs"],"bee_group":{"antennae":"B","wings":"X","pattern":"X","legs":"M"},"bonus":1.6800000000000013},{"rt":1288.800000011921,"stimulus":"Welcome! Press any key to begin.","response":" ","trial_type":"html-keyboard-response","trial_index":2,"time_elapsed":13115,"internal_node_id":"0.0-2.0","subject_id":"6041499ba066050e18a7934d","study_id":"60edd13110225f80f9f3709b","session_id":"6196bf641a291376774d3e4a","condition":"contingent","relevant_dimensions":["antennae","legs"],"bee_group":{"antennae":"B","wings":"X","pattern":"X","legs":"M"},"bonus":1.6800000000000013},{"view_history":[{"page_index":0,"viewing_time":3533.4000000059605},{"page_index":1,"viewing_time":12579},{"page_index":2,"viewing_time":15747.699999988079},{"page_index":3,"viewing_time":25020.30000001192},{"page_index":4,"viewing_time":9340.90000000596},{"page_index":5,"viewing_time":9961.40000000596},{"page_index":6,"viewing_time":18293.69999998808},{"page_index":7,"viewing_time":6676.0999999940395},{"page_index":8,"viewing_time":5117.200000017881},{"page_index":9,"viewing_time":4557.799999982119},{"page_index":10,"viewing_time":4867.0999999940395},{"page_index":11,"viewing_time":9140.90000000596},{"page_index":12,"viewing_time":5861.9000000059605},{"page_index":13,"viewing_time":1044},{"page_index":14,"viewing_time":2178.4000000059605}],"rt":133920.09999999404,"trial_type":"instructions","trial_index":3,"time_elapsed":147035,"internal_node_id":"0.0-3.0-0.0","subject_id":"6041499ba066050e18a7934d","study_id":"60edd13110225f80f9f3709b","session_id":"6196bf641a291376774d3e4a","condition":"contingent","relevant_dimensions":["antennae","legs"],"bee_group":{"antennae":"B","wings":"X","pattern":"X","legs":"M"},"bonus":1.6800000000000013},{"rt":11796.899999976158,"response":{"Q0":["Two or six legs","Stripes or spots on body","Single or double wings","Antennae or no antennae"]},"question_order":[0],"trial_type":"survey-multi-select","trial_index":4,"time_elapsed":158836,"internal_node_id":"0.0-3.0-1.0","subject_id":"6041499ba066050e18a7934d","study_id":"60edd13110225f80f9f3709b","session_id":"6196bf641a291376774d3e4a","condition":"contingent","relevant_dimensions":["antennae","legs"],"bee_group":{"antennae":"B","wings":"X","pattern":"X","legs":"M"},"correct":true,"bonus":1.6800000000000013},{"rt":23247.90000000596,"response":{"Q1":"No.","Q2":"Based on the four features of the bee.","Q3":"You do not learn if it was friendly or dangerous, and do not alter your bonus."},"question_order":[0,1,2],"trial_type":"survey-multi-choice","trial_index":5,"time_elapsed":182088,"internal_node_id":"0.0-3.0-2.0","subject_id":"6041499ba066050e18a7934d","study_id":"60edd13110225f80f9f3709b","session_id":"6196bf641a291376774d3e4a","condition":"contingent","relevant_dimensions":["antennae","legs"],"bee_group":{"antennae":"B","wings":"X","pattern":"X","legs":"M"},"correct":true,"bonus":1.6800000000000013},{"rt":2845.0999999940395,"stimulus":"<p>Congrats, you got everything right<br>When you're ready, click the button below to continue to the experiment.</p>","response":0,"trial_type":"html-button-response","trial_index":6,"time_elapsed":184937,"internal_node_id":"0.0-3.0-3.0","subject_id":"6041499ba066050e18a7934d","study_id":"60edd13110225f80f9f3709b","session_id":"6196bf641a291376774d3e4a","condition":"contingent","relevant_dimensions":["antennae","legs"],"bee_group":{"antennae":"B","wings":"X","pattern":"X","legs":"M"},"bonus":1.6800000000000013},{"rt":98108.39999997616,"stimulus":"bees-with-color/bee-B1DF.svg","response":0,"trial_type":"image-button-response","trial_index":7,"time_elapsed":283048,"internal_node_id":"0.0-4.0-0.0","subject_id":"6041499ba066050e18a7934d","study_id":"60edd13110225f80f9f3709b","session_id":"6196bf641a291376774d3e4a","condition":"contingent","relevant_dimensions":["antennae","legs"],"bee_group":{"antennae":"B","wings":"X","pattern":"X","legs":"M"},"action":"harvest","summary":"good-harvest","bonus":1.6800000000000013},{"rt":15209.5,"stimulus":"\n                    <p><b>Action: <em>harvest</em></b></p>\n                    <p>This is the bee that you just saw.</p>\n                    <img src=\"bees-with-color/bee-B1DF.svg\" width=\"200\">\n                    <p><span class=\"greenText\"><b>Successful harvest!</b></span><br>Your pay has increased by $0.02. Your bonus pay is now $0.56.</p>\n            ","response":0,"trial_type":"html-button-response","trial_index":8,"time_elapsed":298260,"internal_node_id":"0.0-4.0-1.0","subject_id":"6041499ba066050e18a7934d","study_id":"60edd13110225f80f9f3709b","session_id":"6196bf641a291376774d3e4a","condition":"contingent","relevant_dimensions":["antennae","legs"],"bee_group":{"antennae":"B","wings":"X","pattern":"X","legs":"M"},"bonus":1.6800000000000013},{"rt":28050.69999998808,"stimulus":"bees-with-color/bee-A2SM.svg","response":0,"trial_type":"image-button-response","trial_index":9,"time_elapsed":326312,"internal_node_id":"0.0-4.0-0.1","subject_id":"6041499ba066050e18a7934d","study_id":"60edd13110225f80f9f3709b","session_id":"6196bf641a291376774d3e4a","condition":"contingent","relevant_dimensions":["antennae","legs"],"bee_group":{"antennae":"B","wings":"X","pattern":"X","legs":"M"},"action":"harvest","summary":"good-harvest","bonus":1.6800000000000013},{"rt":6311.199999988079,"stimulus":"\n                    <p><b>Action: <em>harvest</em></b></p>\n                    <p>This is the bee that you just saw.</p>\n                    <img src=\"bees-with-color/bee-A2SM.svg\" width=\"200\">\n                    <p><span class=\"greenText\"><b>Successful harvest!</b></span><br>Your pay has increased by $0.02. Your bonus pay is now $0.58.</p>\n            ","response":0,"trial_type":"html-button-response","trial_index":10,"time_elapsed":332628,"internal_node_id":"0.0-4.0-1.1","subject_id":"6041499ba066050e18a7934d","study_id":"60edd13110225f80f9f3709b","session_id":"6196bf641a291376774d3e4a","condition":"contingent","relevant_dimensions":["antennae","legs"],"bee_group":{"antennae":"B","wings":"X","pattern":"X","legs":"M"},"bonus":1.6800000000000013},{"rt":22571.19999998808,"stimulus":"bees-with-color/bee-B2SM.svg","response":0,"trial_type":"image-button-response","trial_index":11,"time_elapsed":355201,"internal_node_id":"0.0-4.0-0.2","subject_id":"6041499ba066050e18a7934d","study_id":"60edd13110225f80f9f3709b","session_id":"6196bf641a291376774d3e4a","condition":"contingent","relevant_dimensions":["antennae","legs"],"bee_group":{"antennae":"B","wings":"X","pattern":"X","legs":"M"},"action":"harvest","summary":"bad-harvest","bonus":1.6800000000000013},{"rt":16963.69999998808,"stimulus":"\n                    <p><b>Action: <em>harvest</em></b></p>\n                    <p>This is the bee that you just saw.</p>\n                    <img src=\"bees-with-color/bee-B2SM.svg\" width=\"200\">\n                    <p><span class=\"redText\">Bad choice, the bee was angry.</span><br><b>You have been stung!</b><br>Your pay has been decreased by $0.10. Your bonus pay is now $0.48.</p>\n            ","response":0,"trial_type":"html-button-response","trial_index":12,"time_elapsed":372166,"internal_node_id":"0.0-4.0-1.2","subject_id":"6041499ba066050e18a7934d","study_id":"60edd13110225f80f9f3709b","session_id":"6196bf641a291376774d3e4a","condition":"contingent","relevant_dimensions":["antennae","legs"],"bee_group":{"antennae":"B","wings":"X","pattern":"X","legs":"M"},"bonus":1.6800000000000013},{"rt":43040.69999998808,"stimulus":"bees-with-color/bee-A2DF.svg","response":0,"trial_type":"image-button-response","trial_index":13,"time_elapsed":415208,"internal_node_id":"0.0-4.0-0.3","subject_id":"6041499ba066050e18a7934d","study_id":"60edd13110225f80f9f3709b","session_id":"6196bf641a291376774d3e4a","condition":"contingent","relevant_dimensions":["antennae","legs"],"bee_group":{"antennae":"B","wings":"X","pattern":"X","legs":"M"},"action":"harvest","summary":"good-harvest","bonus":1.6800000000000013},{"rt":7620.800000011921,"stimulus":"\n                    <p><b>Action: <em>harvest</em></b></p>\n                    <p>This is the bee that you just saw.</p>\n                    <img src=\"bees-with-color/bee-A2DF.svg\" width=\"200\">\n                    <p><span class=\"greenText\"><b>Successful harvest!</b></span><br>Your pay has increased by $0.02. Your bonus pay is now $0.50.</p>\n            ","response":0,"trial_type":"html-button-response","trial_index":14,"time_elapsed":422830,"internal_node_id":"0.0-4.0-1.3","subject_id":"6041499ba066050e18a7934d","study_id":"60edd13110225f80f9f3709b","session_id":"6196bf641a291376774d3e4a","condition":"contingent","relevant_dimensions":["antennae","legs"],"bee_group":{"antennae":"B","wings":"X","pattern":"X","legs":"M"},"bonus":1.6800000000000013},{"rt":27599.5,"stimulus":"bees-with-color/bee-B2DM.svg","response":0,"trial_type":"image-button-response","trial_index":15,"time_elapsed":450431,"internal_node_id":"0.0-4.0-0.4","subject_id":"6041499ba066050e18a7934d","study_id":"60edd13110225f80f9f3709b","session_id":"6196bf641a291376774d3e4a","condition":"contingent","relevant_dimensions":["antennae","legs"],"bee_group":{"antennae":"B","wings":"X","pattern":"X","legs":"M"},"action":"harvest","summary":"bad-harvest","bonus":1.6800000000000013},{"rt":1328.699999988079,"stimulus":"\n                    <p><b>Action: <em>harvest</em></b></p>\n                    <p>This is the bee that you just saw.</p>\n                    <img src=\"bees-with-color/bee-B2DM.svg\" width=\"200\">\n                    <p><span class=\"redText\">Bad choice, the bee was angry.</span><br><b>You have been stung!</b><br>Your pay has been decreased by $0.10. Your bonus pay is now $0.40.</p>\n            ","response":0,"trial_type":"html-button-response","trial_index":16,"time_elapsed":451761,"internal_node_id":"0.0-4.0-1.4","subject_id":"6041499ba066050e18a7934d","study_id":"60edd13110225f80f9f3709b","session_id":"6196bf641a291376774d3e4a","condition":"contingent","relevant_dimensions":["antennae","legs"],"bee_group":{"antennae":"B","wings":"X","pattern":"X","legs":"M"},"bonus":1.6800000000000013},{"rt":33864.19999998808,"stimulus":"bees-with-color/bee-B2DF.svg","response":0,"trial_type":"image-button-response","trial_index":17,"time_elapsed":485626,"internal_node_id":"0.0-4.0-0.5","subject_id":"6041499ba066050e18a7934d","study_id":"60edd13110225f80f9f3709b","session_id":"6196bf641a291376774d3e4a","condition":"contingent","relevant_dimensions":["antennae","legs"],"bee_group":{"antennae":"B","wings":"X","pattern":"X","legs":"M"},"action":"harvest","summary":"good-harvest","bonus":1.6800000000000013},{"rt":51972.29999998212,"stimulus":"\n                    <p><b>Action: <em>harvest</em></b></p>\n                    <p>This is the bee that you just saw.</p>\n                    <img src=\"bees-with-color/bee-B2DF.svg\" width=\"200\">\n                    <p><span class=\"greenText\"><b>Successful harvest!</b></span><br>Your pay has increased by $0.02. Your bonus pay is now $0.42.</p>\n            ","response":0,"trial_type":"html-button-response","trial_index":18,"time_elapsed":537600,"internal_node_id":"0.0-4.0-1.5","subject_id":"6041499ba066050e18a7934d","study_id":"60edd13110225f80f9f3709b","session_id":"6196bf641a291376774d3e4a","condition":"contingent","relevant_dimensions":["antennae","legs"],"bee_group":{"antennae":"B","wings":"X","pattern":"X","legs":"M"},"bonus":1.6800000000000013},{"rt":54411.80000001192,"stimulus":"bees-with-color/bee-A1SF.svg","response":0,"trial_type":"image-button-response","trial_index":19,"time_elapsed":592013,"internal_node_id":"0.0-4.0-0.6","subject_id":"6041499ba066050e18a7934d","study_id":"60edd13110225f80f9f3709b","session_id":"6196bf641a291376774d3e4a","condition":"contingent","relevant_dimensions":["antennae","legs"],"bee_group":{"antennae":"B","wings":"X","pattern":"X","legs":"M"},"action":"harvest","summary":"good-harvest","bonus":1.6800000000000013},{"rt":4662.299999982119,"stimulus":"\n                    <p><b>Action: <em>harvest</em></b></p>\n                    <p>This is the bee that you just saw.</p>\n                    <img src=\"bees-with-color/bee-A1SF.svg\" width=\"200\">\n                    <p><span class=\"greenText\"><b>Successful harvest!</b></span><br>Your pay has increased by $0.02. Your bonus pay is now $0.44.</p>\n            ","response":0,"trial_type":"html-button-response","trial_index":20,"time_elapsed":596676,"internal_node_id":"0.0-4.0-1.6","subject_id":"6041499ba066050e18a7934d","study_id":"60edd13110225f80f9f3709b","session_id":"6196bf641a291376774d3e4a","condition":"contingent","relevant_dimensions":["antennae","legs"],"bee_group":{"antennae":"B","wings":"X","pattern":"X","legs":"M"},"bonus":1.6800000000000013},{"rt":34756,"stimulus":"bees-with-color/bee-B2SF.svg","response":0,"trial_type":"image-button-response","trial_index":21,"time_elapsed":631434,"internal_node_id":"0.0-4.0-0.7","subject_id":"6041499ba066050e18a7934d","study_id":"60edd13110225f80f9f3709b","session_id":"6196bf641a291376774d3e4a","condition":"contingent","relevant_dimensions":["antennae","legs"],"bee_group":{"antennae":"B","wings":"X","pattern":"X","legs":"M"},"action":"harvest","summary":"good-harvest","bonus":1.6800000000000013},{"rt":4201.299999982119,"stimulus":"\n                    <p><b>Action: <em>harvest</em></b></p>\n                    <p>This is the bee that you just saw.</p>\n                    <img src=\"bees-with-color/bee-B2SF.svg\" width=\"200\">\n                    <p><span class=\"greenText\"><b>Successful harvest!</b></span><br>Your pay has increased by $0.02. Your bonus pay is now $0.46.</p>\n            ","response":0,"trial_type":"html-button-response","trial_index":22,"time_elapsed":635636,"internal_node_id":"0.0-4.0-1.7","subject_id":"6041499ba066050e18a7934d","study_id":"60edd13110225f80f9f3709b","session_id":"6196bf641a291376774d3e4a","condition":"contingent","relevant_dimensions":["antennae","legs"],"bee_group":{"antennae":"B","wings":"X","pattern":"X","legs":"M"},"bonus":1.6800000000000013},{"rt":38999.5,"stimulus":"bees-with-color/bee-A2SF.svg","response":0,"trial_type":"image-button-response","trial_index":23,"time_elapsed":674638,"internal_node_id":"0.0-4.0-0.8","subject_id":"6041499ba066050e18a7934d","study_id":"60edd13110225f80f9f3709b","session_id":"6196bf641a291376774d3e4a","condition":"contingent","relevant_dimensions":["antennae","legs"],"bee_group":{"antennae":"B","wings":"X","pattern":"X","legs":"M"},"action":"harvest","summary":"good-harvest","bonus":1.6800000000000013},{"rt":3589,"stimulus":"\n                    <p><b>Action: <em>harvest</em></b></p>\n                    <p>This is the bee that you just saw.</p>\n                    <img src=\"bees-with-color/bee-A2SF.svg\" width=\"200\">\n                    <p><span class=\"greenText\"><b>Successful harvest!</b></span><br>Your pay has increased by $0.02. Your bonus pay is now $0.48.</p>\n            ","response":0,"trial_type":"html-button-response","trial_index":24,"time_elapsed":678229,"internal_node_id":"0.0-4.0-1.8","subject_id":"6041499ba066050e18a7934d","study_id":"60edd13110225f80f9f3709b","session_id":"6196bf641a291376774d3e4a","condition":"contingent","relevant_dimensions":["antennae","legs"],"bee_group":{"antennae":"B","wings":"X","pattern":"X","legs":"M"},"bonus":1.6800000000000013},{"rt":36928.5,"stimulus":"bees-with-color/bee-B1SM.svg","response":0,"trial_type":"image-button-response","trial_index":25,"time_elapsed":715159,"internal_node_id":"0.0-4.0-0.9","subject_id":"6041499ba066050e18a7934d","study_id":"60edd13110225f80f9f3709b","session_id":"6196bf641a291376774d3e4a","condition":"contingent","relevant_dimensions":["antennae","legs"],"bee_group":{"antennae":"B","wings":"X","pattern":"X","legs":"M"},"action":"harvest","summary":"bad-harvest","bonus":1.6800000000000013},{"rt":28506.70000001788,"stimulus":"\n                    <p><b>Action: <em>harvest</em></b></p>\n                    <p>This is the bee that you just saw.</p>\n                    <img src=\"bees-with-color/bee-B1SM.svg\" width=\"200\">\n                    <p><span class=\"redText\">Bad choice, the bee was angry.</span><br><b>You have been stung!</b><br>Your pay has been decreased by $0.10. Your bonus pay is now $0.38.</p>\n            ","response":0,"trial_type":"html-button-response","trial_index":26,"time_elapsed":743666,"internal_node_id":"0.0-4.0-1.9","subject_id":"6041499ba066050e18a7934d","study_id":"60edd13110225f80f9f3709b","session_id":"6196bf641a291376774d3e4a","condition":"contingent","relevant_dimensions":["antennae","legs"],"bee_group":{"antennae":"B","wings":"X","pattern":"X","legs":"M"},"bonus":1.6800000000000013},{"rt":15749.200000017881,"stimulus":"bees-with-color/bee-B1SF.svg","response":0,"trial_type":"image-button-response","trial_index":27,"time_elapsed":759417,"internal_node_id":"0.0-4.0-0.10","subject_id":"6041499ba066050e18a7934d","study_id":"60edd13110225f80f9f3709b","session_id":"6196bf641a291376774d3e4a","condition":"contingent","relevant_dimensions":["antennae","legs"],"bee_group":{"antennae":"B","wings":"X","pattern":"X","legs":"M"},"action":"harvest","summary":"good-harvest","bonus":1.6800000000000013},{"rt":6708,"stimulus":"\n                    <p><b>Action: <em>harvest</em></b></p>\n                    <p>This is the bee that you just saw.</p>\n                    <img src=\"bees-with-color/bee-B1SF.svg\" width=\"200\">\n                    <p><span class=\"greenText\"><b>Successful harvest!</b></span><br>Your pay has increased by $0.02. Your bonus pay is now $0.40.</p>\n            ","response":0,"trial_type":"html-button-response","trial_index":28,"time_elapsed":766126,"internal_node_id":"0.0-4.0-1.10","subject_id":"6041499ba066050e18a7934d","study_id":"60edd13110225f80f9f3709b","session_id":"6196bf641a291376774d3e4a","condition":"contingent","relevant_dimensions":["antennae","legs"],"bee_group":{"antennae":"B","wings":"X","pattern":"X","legs":"M"},"bonus":1.6800000000000013},{"rt":15121.09999999404,"stimulus":"bees-with-color/bee-A2DM.svg","response":0,"trial_type":"image-button-response","trial_index":29,"time_elapsed":781249,"internal_node_id":"0.0-4.0-0.11","subject_id":"6041499ba066050e18a7934d","study_id":"60edd13110225f80f9f3709b","session_id":"6196bf641a291376774d3e4a","condition":"contingent","relevant_dimensions":["antennae","legs"],"bee_group":{"antennae":"B","wings":"X","pattern":"X","legs":"M"},"action":"harvest","summary":"good-harvest","bonus":1.6800000000000013},{"rt":819.9000000059605,"stimulus":"\n                    <p><b>Action: <em>harvest</em></b></p>\n                    <p>This is the bee that you just saw.</p>\n                    <img src=\"bees-with-color/bee-A2DM.svg\" width=\"200\">\n                    <p><span class=\"greenText\"><b>Successful harvest!</b></span><br>Your pay has increased by $0.02. Your bonus pay is now $0.42.</p>\n            ","response":0,"trial_type":"html-button-response","trial_index":30,"time_elapsed":782069,"internal_node_id":"0.0-4.0-1.11","subject_id":"6041499ba066050e18a7934d","study_id":"60edd13110225f80f9f3709b","session_id":"6196bf641a291376774d3e4a","condition":"contingent","relevant_dimensions":["antennae","legs"],"bee_group":{"antennae":"B","wings":"X","pattern":"X","legs":"M"},"bonus":1.6800000000000013},{"rt":116615.79999998212,"stimulus":"bees-with-color/bee-A1SM.svg","response":0,"trial_type":"image-button-response","trial_index":31,"time_elapsed":898686,"internal_node_id":"0.0-4.0-0.12","subject_id":"6041499ba066050e18a7934d","study_id":"60edd13110225f80f9f3709b","session_id":"6196bf641a291376774d3e4a","condition":"contingent","relevant_dimensions":["antennae","legs"],"bee_group":{"antennae":"B","wings":"X","pattern":"X","legs":"M"},"action":"harvest","summary":"good-harvest","bonus":1.6800000000000013},{"rt":4996,"stimulus":"\n                    <p><b>Action: <em>harvest</em></b></p>\n                    <p>This is the bee that you just saw.</p>\n                    <img src=\"bees-with-color/bee-A1SM.svg\" width=\"200\">\n                    <p><span class=\"greenText\"><b>Successful harvest!</b></span><br>Your pay has increased by $0.02. Your bonus pay is now $0.44.</p>\n            ","response":0,"trial_type":"html-button-response","trial_index":32,"time_elapsed":903683,"internal_node_id":"0.0-4.0-1.12","subject_id":"6041499ba066050e18a7934d","study_id":"60edd13110225f80f9f3709b","session_id":"6196bf641a291376774d3e4a","condition":"contingent","relevant_dimensions":["antennae","legs"],"bee_group":{"antennae":"B","wings":"X","pattern":"X","legs":"M"},"bonus":1.6800000000000013},{"rt":36222.29999998212,"stimulus":"bees-with-color/bee-A1DF.svg","response":0,"trial_type":"image-button-response","trial_index":33,"time_elapsed":939907,"internal_node_id":"0.0-4.0-0.13","subject_id":"6041499ba066050e18a7934d","study_id":"60edd13110225f80f9f3709b","session_id":"6196bf641a291376774d3e4a","condition":"contingent","relevant_dimensions":["antennae","legs"],"bee_group":{"antennae":"B","wings":"X","pattern":"X","legs":"M"},"action":"harvest","summary":"good-harvest","bonus":1.6800000000000013},{"rt":756.7999999821186,"stimulus":"\n                    <p><b>Action: <em>harvest</em></b></p>\n                    <p>This is the bee that you just saw.</p>\n                    <img src=\"bees-with-color/bee-A1DF.svg\" width=\"200\">\n                    <p><span class=\"greenText\"><b>Successful harvest!</b></span><br>Your pay has increased by $0.02. Your bonus pay is now $0.46.</p>\n            ","response":0,"trial_type":"html-button-response","trial_index":34,"time_elapsed":940665,"internal_node_id":"0.0-4.0-1.13","subject_id":"6041499ba066050e18a7934d","study_id":"60edd13110225f80f9f3709b","session_id":"6196bf641a291376774d3e4a","condition":"contingent","relevant_dimensions":["antennae","legs"],"bee_group":{"antennae":"B","wings":"X","pattern":"X","legs":"M"},"bonus":1.6800000000000013},{"rt":1958.199999988079,"stimulus":"bees-with-color/bee-B1DM.svg","response":1,"trial_type":"image-button-response","trial_index":35,"time_elapsed":942626,"internal_node_id":"0.0-4.0-0.14","subject_id":"6041499ba066050e18a7934d","study_id":"60edd13110225f80f9f3709b","session_id":"6196bf641a291376774d3e4a","condition":"contingent","relevant_dimensions":["antennae","legs"],"bee_group":{"antennae":"B","wings":"X","pattern":"X","legs":"M"},"action":"avoid","summary":"good-avoid","bonus":1.6800000000000013},{"rt":3055.7999999821186,"stimulus":"\n                    <p><b>Action: <em>avoid</em></b></p>\n                    <p>This is the bee that you just saw.</p>\n                    <img src=\"bees-with-color/bee-B1DM.svg\" width=\"200\">\n                    <p><br>Your bonus pay is unchanged, and remains at $0.46.</p>\n            ","response":0,"trial_type":"html-button-response","trial_index":36,"time_elapsed":945683,"internal_node_id":"0.0-4.0-1.14","subject_id":"6041499ba066050e18a7934d","study_id":"60edd13110225f80f9f3709b","session_id":"6196bf641a291376774d3e4a","condition":"contingent","relevant_dimensions":["antennae","legs"],"bee_group":{"antennae":"B","wings":"X","pattern":"X","legs":"M"},"bonus":1.6800000000000013},{"rt":1592.699999988079,"stimulus":"bees-with-color/bee-A1DM.svg","response":0,"trial_type":"image-button-response","trial_index":37,"time_elapsed":947277,"internal_node_id":"0.0-4.0-0.15","subject_id":"6041499ba066050e18a7934d","study_id":"60edd13110225f80f9f3709b","session_id":"6196bf641a291376774d3e4a","condition":"contingent","relevant_dimensions":["antennae","legs"],"bee_group":{"antennae":"B","wings":"X","pattern":"X","legs":"M"},"action":"harvest","summary":"good-harvest","bonus":1.6800000000000013},{"rt":723.3000000119209,"stimulus":"\n                    <p><b>Action: <em>harvest</em></b></p>\n                    <p>This is the bee that you just saw.</p>\n                    <img src=\"bees-with-color/bee-A1DM.svg\" width=\"200\">\n                    <p><span class=\"greenText\"><b>Successful harvest!</b></span><br>Your pay has increased by $0.02. Your bonus pay is now $0.48.</p>\n            ","response":0,"trial_type":"html-button-response","trial_index":38,"time_elapsed":948001,"internal_node_id":"0.0-4.0-1.15","subject_id":"6041499ba066050e18a7934d","study_id":"60edd13110225f80f9f3709b","session_id":"6196bf641a291376774d3e4a","condition":"contingent","relevant_dimensions":["antennae","legs"],"bee_group":{"antennae":"B","wings":"X","pattern":"X","legs":"M"},"bonus":1.6800000000000013},{"rt":1387.9000000059605,"stimulus":"bees-with-color/bee-B2DM.svg","response":1,"trial_type":"image-button-response","trial_index":39,"time_elapsed":949390,"internal_node_id":"0.0-4.0-0.16","subject_id":"6041499ba066050e18a7934d","study_id":"60edd13110225f80f9f3709b","session_id":"6196bf641a291376774d3e4a","condition":"contingent","relevant_dimensions":["antennae","legs"],"bee_group":{"antennae":"B","wings":"X","pattern":"X","legs":"M"},"action":"avoid","summary":"good-avoid","bonus":1.6800000000000013},{"rt":587.7999999821186,"stimulus":"\n                    <p><b>Action: <em>avoid</em></b></p>\n                    <p>This is the bee that you just saw.</p>\n                    <img src=\"bees-with-color/bee-B2DM.svg\" width=\"200\">\n                    <p><br>Your bonus pay is unchanged, and remains at $0.48.</p>\n            ","response":0,"trial_type":"html-button-response","trial_index":40,"time_elapsed":949979,"internal_node_id":"0.0-4.0-1.16","subject_id":"6041499ba066050e18a7934d","study_id":"60edd13110225f80f9f3709b","session_id":"6196bf641a291376774d3e4a","condition":"contingent","relevant_dimensions":["antennae","legs"],"bee_group":{"antennae":"B","wings":"X","pattern":"X","legs":"M"},"bonus":1.6800000000000013},{"rt":2225.399999976158,"stimulus":"bees-with-color/bee-A1SF.svg","response":0,"trial_type":"image-button-response","trial_index":41,"time_elapsed":952205,"internal_node_id":"0.0-4.0-0.17","subject_id":"6041499ba066050e18a7934d","study_id":"60edd13110225f80f9f3709b","session_id":"6196bf641a291376774d3e4a","condition":"contingent","relevant_dimensions":["antennae","legs"],"bee_group":{"antennae":"B","wings":"X","pattern":"X","legs":"M"},"action":"harvest","summary":"good-harvest","bonus":1.6800000000000013},{"rt":646.2000000178814,"stimulus":"\n                    <p><b>Action: <em>harvest</em></b></p>\n                    <p>This is the bee that you just saw.</p>\n                    <img src=\"bees-with-color/bee-A1SF.svg\" width=\"200\">\n                    <p><span class=\"greenText\"><b>Successful harvest!</b></span><br>Your pay has increased by $0.02. Your bonus pay is now $0.50.</p>\n            ","response":0,"trial_type":"html-button-response","trial_index":42,"time_elapsed":952852,"internal_node_id":"0.0-4.0-1.17","subject_id":"6041499ba066050e18a7934d","study_id":"60edd13110225f80f9f3709b","session_id":"6196bf641a291376774d3e4a","condition":"contingent","relevant_dimensions":["antennae","legs"],"bee_group":{"antennae":"B","wings":"X","pattern":"X","legs":"M"},"bonus":1.6800000000000013},{"rt":1202.300000011921,"stimulus":"bees-with-color/bee-A2SF.svg","response":0,"trial_type":"image-button-response","trial_index":43,"time_elapsed":954056,"internal_node_id":"0.0-4.0-0.18","subject_id":"6041499ba066050e18a7934d","study_id":"60edd13110225f80f9f3709b","session_id":"6196bf641a291376774d3e4a","condition":"contingent","relevant_dimensions":["antennae","legs"],"bee_group":{"antennae":"B","wings":"X","pattern":"X","legs":"M"},"action":"harvest","summary":"good-harvest","bonus":1.6800000000000013},{"rt":482.09999999403954,"stimulus":"\n                    <p><b>Action: <em>harvest</em></b></p>\n                    <p>This is the bee that you just saw.</p>\n                    <img src=\"bees-with-color/bee-A2SF.svg\" width=\"200\">\n                    <p><span class=\"greenText\"><b>Successful harvest!</b></span><br>Your pay has increased by $0.02. Your bonus pay is now $0.52.</p>\n            ","response":0,"trial_type":"html-button-response","trial_index":44,"time_elapsed":954539,"internal_node_id":"0.0-4.0-1.18","subject_id":"6041499ba066050e18a7934d","study_id":"60edd13110225f80f9f3709b","session_id":"6196bf641a291376774d3e4a","condition":"contingent","relevant_dimensions":["antennae","legs"],"bee_group":{"antennae":"B","wings":"X","pattern":"X","legs":"M"},"bonus":1.6800000000000013},{"rt":769.5999999940395,"stimulus":"bees-with-color/bee-A2DM.svg","response":0,"trial_type":"image-button-response","trial_index":45,"time_elapsed":955310,"internal_node_id":"0.0-4.0-0.19","subject_id":"6041499ba066050e18a7934d","study_id":"60edd13110225f80f9f3709b","session_id":"6196bf641a291376774d3e4a","condition":"contingent","relevant_dimensions":["antennae","legs"],"bee_group":{"antennae":"B","wings":"X","pattern":"X","legs":"M"},"action":"harvest","summary":"good-harvest","bonus":1.6800000000000013},{"rt":853.1000000238419,"stimulus":"\n                    <p><b>Action: <em>harvest</em></b></p>\n                    <p>This is the bee that you just saw.</p>\n                    <img src=\"bees-with-color/bee-A2DM.svg\" width=\"200\">\n                    <p><span class=\"greenText\"><b>Successful harvest!</b></span><br>Your pay has increased by $0.02. Your bonus pay is now $0.54.</p>\n            ","response":0,"trial_type":"html-button-response","trial_index":46,"time_elapsed":956164,"internal_node_id":"0.0-4.0-1.19","subject_id":"6041499ba066050e18a7934d","study_id":"60edd13110225f80f9f3709b","session_id":"6196bf641a291376774d3e4a","condition":"contingent","relevant_dimensions":["antennae","legs"],"bee_group":{"antennae":"B","wings":"X","pattern":"X","legs":"M"},"bonus":1.6800000000000013},{"rt":1334.7999999821186,"stimulus":"bees-with-color/bee-B2SM.svg","response":1,"trial_type":"image-button-response","trial_index":47,"time_elapsed":957500,"internal_node_id":"0.0-4.0-0.20","subject_id":"6041499ba066050e18a7934d","study_id":"60edd13110225f80f9f3709b","session_id":"6196bf641a291376774d3e4a","condition":"contingent","relevant_dimensions":["antennae","legs"],"bee_group":{"antennae":"B","wings":"X","pattern":"X","legs":"M"},"action":"avoid","summary":"good-avoid","bonus":1.6800000000000013},{"rt":569.7999999821186,"stimulus":"\n                    <p><b>Action: <em>avoid</em></b></p>\n                    <p>This is the bee that you just saw.</p>\n                    <img src=\"bees-with-color/bee-B2SM.svg\" width=\"200\">\n                    <p><br>Your bonus pay is unchanged, and remains at $0.54.</p>\n            ","response":0,"trial_type":"html-button-response","trial_index":48,"time_elapsed":958071,"internal_node_id":"0.0-4.0-1.20","subject_id":"6041499ba066050e18a7934d","study_id":"60edd13110225f80f9f3709b","session_id":"6196bf641a291376774d3e4a","condition":"contingent","relevant_dimensions":["antennae","legs"],"bee_group":{"antennae":"B","wings":"X","pattern":"X","legs":"M"},"bonus":1.6800000000000013},{"rt":2095.2000000178814,"stimulus":"bees-with-color/bee-B2DF.svg","response":0,"trial_type":"image-button-response","trial_index":49,"time_elapsed":960167,"internal_node_id":"0.0-4.0-0.21","subject_id":"6041499ba066050e18a7934d","study_id":"60edd13110225f80f9f3709b","session_id":"6196bf641a291376774d3e4a","condition":"contingent","relevant_dimensions":["antennae","legs"],"bee_group":{"antennae":"B","wings":"X","pattern":"X","legs":"M"},"action":"harvest","summary":"good-harvest","bonus":1.6800000000000013},{"rt":584.8999999761581,"stimulus":"\n                    <p><b>Action: <em>harvest</em></b></p>\n                    <p>This is the bee that you just saw.</p>\n                    <img src=\"bees-with-color/bee-B2DF.svg\" width=\"200\">\n                    <p><span class=\"greenText\"><b>Successful harvest!</b></span><br>Your pay has increased by $0.02. Your bonus pay is now $0.56.</p>\n            ","response":0,"trial_type":"html-button-response","trial_index":50,"time_elapsed":960753,"internal_node_id":"0.0-4.0-1.21","subject_id":"6041499ba066050e18a7934d","study_id":"60edd13110225f80f9f3709b","session_id":"6196bf641a291376774d3e4a","condition":"contingent","relevant_dimensions":["antennae","legs"],"bee_group":{"antennae":"B","wings":"X","pattern":"X","legs":"M"},"bonus":1.6800000000000013},{"rt":1321.4000000059605,"stimulus":"bees-with-color/bee-A2SM.svg","response":0,"trial_type":"image-button-response","trial_index":51,"time_elapsed":962076,"internal_node_id":"0.0-4.0-0.22","subject_id":"6041499ba066050e18a7934d","study_id":"60edd13110225f80f9f3709b","session_id":"6196bf641a291376774d3e4a","condition":"contingent","relevant_dimensions":["antennae","legs"],"bee_group":{"antennae":"B","wings":"X","pattern":"X","legs":"M"},"action":"harvest","summary":"good-harvest","bonus":1.6800000000000013},{"rt":535.7999999821186,"stimulus":"\n                    <p><b>Action: <em>harvest</em></b></p>\n                    <p>This is the bee that you just saw.</p>\n                    <img src=\"bees-with-color/bee-A2SM.svg\" width=\"200\">\n                    <p><span class=\"greenText\"><b>Successful harvest!</b></span><br>Your pay has increased by $0.02. Your bonus pay is now $0.58.</p>\n            ","response":0,"trial_type":"html-button-response","trial_index":52,"time_elapsed":962613,"internal_node_id":"0.0-4.0-1.22","subject_id":"6041499ba066050e18a7934d","study_id":"60edd13110225f80f9f3709b","session_id":"6196bf641a291376774d3e4a","condition":"contingent","relevant_dimensions":["antennae","legs"],"bee_group":{"antennae":"B","wings":"X","pattern":"X","legs":"M"},"bonus":1.6800000000000013},{"rt":1327,"stimulus":"bees-with-color/bee-A2DF.svg","response":0,"trial_type":"image-button-response","trial_index":53,"time_elapsed":963941,"internal_node_id":"0.0-4.0-0.23","subject_id":"6041499ba066050e18a7934d","study_id":"60edd13110225f80f9f3709b","session_id":"6196bf641a291376774d3e4a","condition":"contingent","relevant_dimensions":["antennae","legs"],"bee_group":{"antennae":"B","wings":"X","pattern":"X","legs":"M"},"action":"harvest","summary":"good-harvest","bonus":1.6800000000000013},{"rt":449,"stimulus":"\n                    <p><b>Action: <em>harvest</em></b></p>\n                    <p>This is the bee that you just saw.</p>\n                    <img src=\"bees-with-color/bee-A2DF.svg\" width=\"200\">\n                    <p><span class=\"greenText\"><b>Successful harvest!</b></span><br>Your pay has increased by $0.02. Your bonus pay is now $0.60.</p>\n            ","response":0,"trial_type":"html-button-response","trial_index":54,"time_elapsed":964391,"internal_node_id":"0.0-4.0-1.23","subject_id":"6041499ba066050e18a7934d","study_id":"60edd13110225f80f9f3709b","session_id":"6196bf641a291376774d3e4a","condition":"contingent","relevant_dimensions":["antennae","legs"],"bee_group":{"antennae":"B","wings":"X","pattern":"X","legs":"M"},"bonus":1.6800000000000013},{"rt":7344.0999999940395,"stimulus":"bees-with-color/bee-B1SF.svg","response":0,"trial_type":"image-button-response","trial_index":55,"time_elapsed":971736,"internal_node_id":"0.0-4.0-0.24","subject_id":"6041499ba066050e18a7934d","study_id":"60edd13110225f80f9f3709b","session_id":"6196bf641a291376774d3e4a","condition":"contingent","relevant_dimensions":["antennae","legs"],"bee_group":{"antennae":"B","wings":"X","pattern":"X","legs":"M"},"action":"harvest","summary":"good-harvest","bonus":1.6800000000000013},{"rt":1090.2000000178814,"stimulus":"\n                    <p><b>Action: <em>harvest</em></b></p>\n                    <p>This is the bee that you just saw.</p>\n                    <img src=\"bees-with-color/bee-B1SF.svg\" width=\"200\">\n                    <p><span class=\"greenText\"><b>Successful harvest!</b></span><br>Your pay has increased by $0.02. Your bonus pay is now $0.62.</p>\n            ","response":0,"trial_type":"html-button-response","trial_index":56,"time_elapsed":972828,"internal_node_id":"0.0-4.0-1.24","subject_id":"6041499ba066050e18a7934d","study_id":"60edd13110225f80f9f3709b","session_id":"6196bf641a291376774d3e4a","condition":"contingent","relevant_dimensions":["antennae","legs"],"bee_group":{"antennae":"B","wings":"X","pattern":"X","legs":"M"},"bonus":1.6800000000000013},{"rt":2037.5999999940395,"stimulus":"bees-with-color/bee-A1DF.svg","response":0,"trial_type":"image-button-response","trial_index":57,"time_elapsed":974867,"internal_node_id":"0.0-4.0-0.25","subject_id":"6041499ba066050e18a7934d","study_id":"60edd13110225f80f9f3709b","session_id":"6196bf641a291376774d3e4a","condition":"contingent","relevant_dimensions":["antennae","legs"],"bee_group":{"antennae":"B","wings":"X","pattern":"X","legs":"M"},"action":"harvest","summary":"good-harvest","bonus":1.6800000000000013},{"rt":656.4000000059605,"stimulus":"\n                    <p><b>Action: <em>harvest</em></b></p>\n                    <p>This is the bee that you just saw.</p>\n                    <img src=\"bees-with-color/bee-A1DF.svg\" width=\"200\">\n                    <p><span class=\"greenText\"><b>Successful harvest!</b></span><br>Your pay has increased by $0.02. Your bonus pay is now $0.64.</p>\n            ","response":0,"trial_type":"html-button-response","trial_index":58,"time_elapsed":975525,"internal_node_id":"0.0-4.0-1.25","subject_id":"6041499ba066050e18a7934d","study_id":"60edd13110225f80f9f3709b","session_id":"6196bf641a291376774d3e4a","condition":"contingent","relevant_dimensions":["antennae","legs"],"bee_group":{"antennae":"B","wings":"X","pattern":"X","legs":"M"},"bonus":1.6800000000000013},{"rt":1158.5,"stimulus":"bees-with-color/bee-A1SM.svg","response":0,"trial_type":"image-button-response","trial_index":59,"time_elapsed":976685,"internal_node_id":"0.0-4.0-0.26","subject_id":"6041499ba066050e18a7934d","study_id":"60edd13110225f80f9f3709b","session_id":"6196bf641a291376774d3e4a","condition":"contingent","relevant_dimensions":["antennae","legs"],"bee_group":{"antennae":"B","wings":"X","pattern":"X","legs":"M"},"action":"harvest","summary":"good-harvest","bonus":1.6800000000000013},{"rt":495.80000001192093,"stimulus":"\n                    <p><b>Action: <em>harvest</em></b></p>\n                    <p>This is the bee that you just saw.</p>\n                    <img src=\"bees-with-color/bee-A1SM.svg\" width=\"200\">\n                    <p><span class=\"greenText\"><b>Successful harvest!</b></span><br>Your pay has increased by $0.02. Your bonus pay is now $0.66.</p>\n            ","response":0,"trial_type":"html-button-response","trial_index":60,"time_elapsed":977182,"internal_node_id":"0.0-4.0-1.26","subject_id":"6041499ba066050e18a7934d","study_id":"60edd13110225f80f9f3709b","session_id":"6196bf641a291376774d3e4a","condition":"contingent","relevant_dimensions":["antennae","legs"],"bee_group":{"antennae":"B","wings":"X","pattern":"X","legs":"M"},"bonus":1.6800000000000013},{"rt":713.9000000059605,"stimulus":"bees-with-color/bee-A1DM.svg","response":0,"trial_type":"image-button-response","trial_index":61,"time_elapsed":977897,"internal_node_id":"0.0-4.0-0.27","subject_id":"6041499ba066050e18a7934d","study_id":"60edd13110225f80f9f3709b","session_id":"6196bf641a291376774d3e4a","condition":"contingent","relevant_dimensions":["antennae","legs"],"bee_group":{"antennae":"B","wings":"X","pattern":"X","legs":"M"},"action":"harvest","summary":"good-harvest","bonus":1.6800000000000013},{"rt":536.6000000238419,"stimulus":"\n                    <p><b>Action: <em>harvest</em></b></p>\n                    <p>This is the bee that you just saw.</p>\n                    <img src=\"bees-with-color/bee-A1DM.svg\" width=\"200\">\n                    <p><span class=\"greenText\"><b>Successful harvest!</b></span><br>Your pay has increased by $0.02. Your bonus pay is now $0.68.</p>\n            ","response":0,"trial_type":"html-button-response","trial_index":62,"time_elapsed":978435,"internal_node_id":"0.0-4.0-1.27","subject_id":"6041499ba066050e18a7934d","study_id":"60edd13110225f80f9f3709b","session_id":"6196bf641a291376774d3e4a","condition":"contingent","relevant_dimensions":["antennae","legs"],"bee_group":{"antennae":"B","wings":"X","pattern":"X","legs":"M"},"bonus":1.6800000000000013},{"rt":1922.199999988079,"stimulus":"bees-with-color/bee-B1SM.svg","response":1,"trial_type":"image-button-response","trial_index":63,"time_elapsed":980359,"internal_node_id":"0.0-4.0-0.28","subject_id":"6041499ba066050e18a7934d","study_id":"60edd13110225f80f9f3709b","session_id":"6196bf641a291376774d3e4a","condition":"contingent","relevant_dimensions":["antennae","legs"],"bee_group":{"antennae":"B","wings":"X","pattern":"X","legs":"M"},"action":"avoid","summary":"good-avoid","bonus":1.6800000000000013},{"rt":867.2999999821186,"stimulus":"\n                    <p><b>Action: <em>avoid</em></b></p>\n                    <p>This is the bee that you just saw.</p>\n                    <img src=\"bees-with-color/bee-B1SM.svg\" width=\"200\">\n                    <p><br>Your bonus pay is unchanged, and remains at $0.68.</p>\n            ","response":0,"trial_type":"html-button-response","trial_index":64,"time_elapsed":981227,"internal_node_id":"0.0-4.0-1.28","subject_id":"6041499ba066050e18a7934d","study_id":"60edd13110225f80f9f3709b","session_id":"6196bf641a291376774d3e4a","condition":"contingent","relevant_dimensions":["antennae","legs"],"bee_group":{"antennae":"B","wings":"X","pattern":"X","legs":"M"},"bonus":1.6800000000000013},{"rt":1777.2000000178814,"stimulus":"bees-with-color/bee-B2SF.svg","response":0,"trial_type":"image-button-response","trial_index":65,"time_elapsed":983006,"internal_node_id":"0.0-4.0-0.29","subject_id":"6041499ba066050e18a7934d","study_id":"60edd13110225f80f9f3709b","session_id":"6196bf641a291376774d3e4a","condition":"contingent","relevant_dimensions":["antennae","legs"],"bee_group":{"antennae":"B","wings":"X","pattern":"X","legs":"M"},"action":"harvest","summary":"good-harvest","bonus":1.6800000000000013},{"rt":808,"stimulus":"\n                    <p><b>Action: <em>harvest</em></b></p>\n                    <p>This is the bee that you just saw.</p>\n                    <img src=\"bees-with-color/bee-B2SF.svg\" width=\"200\">\n                    <p><span class=\"greenText\"><b>Successful harvest!</b></span><br>Your pay has increased by $0.02. Your bonus pay is now $0.70.</p>\n            ","response":0,"trial_type":"html-button-response","trial_index":66,"time_elapsed":983815,"internal_node_id":"0.0-4.0-1.29","subject_id":"6041499ba066050e18a7934d","study_id":"60edd13110225f80f9f3709b","session_id":"6196bf641a291376774d3e4a","condition":"contingent","relevant_dimensions":["antennae","legs"],"bee_group":{"antennae":"B","wings":"X","pattern":"X","legs":"M"},"bonus":1.6800000000000013},{"rt":3018.600000023842,"stimulus":"bees-with-color/bee-B1DM.svg","response":1,"trial_type":"image-button-response","trial_index":67,"time_elapsed":986835,"internal_node_id":"0.0-4.0-0.30","subject_id":"6041499ba066050e18a7934d","study_id":"60edd13110225f80f9f3709b","session_id":"6196bf641a291376774d3e4a","condition":"contingent","relevant_dimensions":["antennae","legs"],"bee_group":{"antennae":"B","wings":"X","pattern":"X","legs":"M"},"action":"avoid","summary":"good-avoid","bonus":1.6800000000000013},{"rt":5264.700000017881,"stimulus":"\n                    <p><b>Action: <em>avoid</em></b></p>\n                    <p>This is the bee that you just saw.</p>\n                    <img src=\"bees-with-color/bee-B1DM.svg\" width=\"200\">\n                    <p><br>Your bonus pay is unchanged, and remains at $0.70.</p>\n            ","response":0,"trial_type":"html-button-response","trial_index":68,"time_elapsed":992101,"internal_node_id":"0.0-4.0-1.30","subject_id":"6041499ba066050e18a7934d","study_id":"60edd13110225f80f9f3709b","session_id":"6196bf641a291376774d3e4a","condition":"contingent","relevant_dimensions":["antennae","legs"],"bee_group":{"antennae":"B","wings":"X","pattern":"X","legs":"M"},"bonus":1.6800000000000013},{"rt":2518.600000023842,"stimulus":"bees-with-color/bee-B1DF.svg","response":0,"trial_type":"image-button-response","trial_index":69,"time_elapsed":994621,"internal_node_id":"0.0-4.0-0.31","subject_id":"6041499ba066050e18a7934d","study_id":"60edd13110225f80f9f3709b","session_id":"6196bf641a291376774d3e4a","condition":"contingent","relevant_dimensions":["antennae","legs"],"bee_group":{"antennae":"B","wings":"X","pattern":"X","legs":"M"},"action":"harvest","summary":"good-harvest","bonus":1.6800000000000013},{"rt":973.5,"stimulus":"\n                    <p><b>Action: <em>harvest</em></b></p>\n                    <p>This is the bee that you just saw.</p>\n                    <img src=\"bees-with-color/bee-B1DF.svg\" width=\"200\">\n                    <p><span class=\"greenText\"><b>Successful harvest!</b></span><br>Your pay has increased by $0.02. Your bonus pay is now $0.72.</p>\n            ","response":0,"trial_type":"html-button-response","trial_index":70,"time_elapsed":995596,"internal_node_id":"0.0-4.0-1.31","subject_id":"6041499ba066050e18a7934d","study_id":"60edd13110225f80f9f3709b","session_id":"6196bf641a291376774d3e4a","condition":"contingent","relevant_dimensions":["antennae","legs"],"bee_group":{"antennae":"B","wings":"X","pattern":"X","legs":"M"},"bonus":1.6800000000000013},{"rt":1998.7000000178814,"stimulus":"bees-with-color/bee-A1DM.svg","response":0,"trial_type":"image-button-response","trial_index":71,"time_elapsed":997596,"internal_node_id":"0.0-4.0-0.32","subject_id":"6041499ba066050e18a7934d","study_id":"60edd13110225f80f9f3709b","session_id":"6196bf641a291376774d3e4a","condition":"contingent","relevant_dimensions":["antennae","legs"],"bee_group":{"antennae":"B","wings":"X","pattern":"X","legs":"M"},"action":"harvest","summary":"good-harvest","bonus":1.6800000000000013},{"rt":786.6999999880791,"stimulus":"\n                    <p><b>Action: <em>harvest</em></b></p>\n                    <p>This is the bee that you just saw.</p>\n                    <img src=\"bees-with-color/bee-A1DM.svg\" width=\"200\">\n                    <p><span class=\"greenText\"><b>Successful harvest!</b></span><br>Your pay has increased by $0.02. Your bonus pay is now $0.74.</p>\n            ","response":0,"trial_type":"html-button-response","trial_index":72,"time_elapsed":998384,"internal_node_id":"0.0-4.0-1.32","subject_id":"6041499ba066050e18a7934d","study_id":"60edd13110225f80f9f3709b","session_id":"6196bf641a291376774d3e4a","condition":"contingent","relevant_dimensions":["antennae","legs"],"bee_group":{"antennae":"B","wings":"X","pattern":"X","legs":"M"},"bonus":1.6800000000000013},{"rt":1305.2999999821186,"stimulus":"bees-with-color/bee-B1DM.svg","response":1,"trial_type":"image-button-response","trial_index":73,"time_elapsed":999690,"internal_node_id":"0.0-4.0-0.33","subject_id":"6041499ba066050e18a7934d","study_id":"60edd13110225f80f9f3709b","session_id":"6196bf641a291376774d3e4a","condition":"contingent","relevant_dimensions":["antennae","legs"],"bee_group":{"antennae":"B","wings":"X","pattern":"X","legs":"M"},"action":"avoid","summary":"good-avoid","bonus":1.6800000000000013},{"rt":640,"stimulus":"\n                    <p><b>Action: <em>avoid</em></b></p>\n                    <p>This is the bee that you just saw.</p>\n                    <img src=\"bees-with-color/bee-B1DM.svg\" width=\"200\">\n                    <p><br>Your bonus pay is unchanged, and remains at $0.74.</p>\n            ","response":0,"trial_type":"html-button-response","trial_index":74,"time_elapsed":1000331,"internal_node_id":"0.0-4.0-1.33","subject_id":"6041499ba066050e18a7934d","study_id":"60edd13110225f80f9f3709b","session_id":"6196bf641a291376774d3e4a","condition":"contingent","relevant_dimensions":["antennae","legs"],"bee_group":{"antennae":"B","wings":"X","pattern":"X","legs":"M"},"bonus":1.6800000000000013},{"rt":1314.9000000059605,"stimulus":"bees-with-color/bee-B2SF.svg","response":0,"trial_type":"image-button-response","trial_index":75,"time_elapsed":1001647,"internal_node_id":"0.0-4.0-0.34","subject_id":"6041499ba066050e18a7934d","study_id":"60edd13110225f80f9f3709b","session_id":"6196bf641a291376774d3e4a","condition":"contingent","relevant_dimensions":["antennae","legs"],"bee_group":{"antennae":"B","wings":"X","pattern":"X","legs":"M"},"action":"harvest","summary":"good-harvest","bonus":1.6800000000000013},{"rt":574.5,"stimulus":"\n                    <p><b>Action: <em>harvest</em></b></p>\n                    <p>This is the bee that you just saw.</p>\n                    <img src=\"bees-with-color/bee-B2SF.svg\" width=\"200\">\n                    <p><span class=\"greenText\"><b>Successful harvest!</b></span><br>Your pay has increased by $0.02. Your bonus pay is now $0.76.</p>\n            ","response":0,"trial_type":"html-button-response","trial_index":76,"time_elapsed":1002223,"internal_node_id":"0.0-4.0-1.34","subject_id":"6041499ba066050e18a7934d","study_id":"60edd13110225f80f9f3709b","session_id":"6196bf641a291376774d3e4a","condition":"contingent","relevant_dimensions":["antennae","legs"],"bee_group":{"antennae":"B","wings":"X","pattern":"X","legs":"M"},"bonus":1.6800000000000013},{"rt":1311,"stimulus":"bees-with-color/bee-B2DM.svg","response":1,"trial_type":"image-button-response","trial_index":77,"time_elapsed":1003535,"internal_node_id":"0.0-4.0-0.35","subject_id":"6041499ba066050e18a7934d","study_id":"60edd13110225f80f9f3709b","session_id":"6196bf641a291376774d3e4a","condition":"contingent","relevant_dimensions":["antennae","legs"],"bee_group":{"antennae":"B","wings":"X","pattern":"X","legs":"M"},"action":"avoid","summary":"good-avoid","bonus":1.6800000000000013},{"rt":676.2000000178814,"stimulus":"\n                    <p><b>Action: <em>avoid</em></b></p>\n                    <p>This is the bee that you just saw.</p>\n                    <img src=\"bees-with-color/bee-B2DM.svg\" width=\"200\">\n                    <p><br>Your bonus pay is unchanged, and remains at $0.76.</p>\n            ","response":0,"trial_type":"html-button-response","trial_index":78,"time_elapsed":1004212,"internal_node_id":"0.0-4.0-1.35","subject_id":"6041499ba066050e18a7934d","study_id":"60edd13110225f80f9f3709b","session_id":"6196bf641a291376774d3e4a","condition":"contingent","relevant_dimensions":["antennae","legs"],"bee_group":{"antennae":"B","wings":"X","pattern":"X","legs":"M"},"bonus":1.6800000000000013},{"rt":1738.0999999940395,"stimulus":"bees-with-color/bee-A2DM.svg","response":0,"trial_type":"image-button-response","trial_index":79,"time_elapsed":1005951,"internal_node_id":"0.0-4.0-0.36","subject_id":"6041499ba066050e18a7934d","study_id":"60edd13110225f80f9f3709b","session_id":"6196bf641a291376774d3e4a","condition":"contingent","relevant_dimensions":["antennae","legs"],"bee_group":{"antennae":"B","wings":"X","pattern":"X","legs":"M"},"action":"harvest","summary":"good-harvest","bonus":1.6800000000000013},{"rt":699.9000000059605,"stimulus":"\n                    <p><b>Action: <em>harvest</em></b></p>\n                    <p>This is the bee that you just saw.</p>\n                    <img src=\"bees-with-color/bee-A2DM.svg\" width=\"200\">\n                    <p><span class=\"greenText\"><b>Successful harvest!</b></span><br>Your pay has increased by $0.02. Your bonus pay is now $0.78.</p>\n            ","response":0,"trial_type":"html-button-response","trial_index":80,"time_elapsed":1006652,"internal_node_id":"0.0-4.0-1.36","subject_id":"6041499ba066050e18a7934d","study_id":"60edd13110225f80f9f3709b","session_id":"6196bf641a291376774d3e4a","condition":"contingent","relevant_dimensions":["antennae","legs"],"bee_group":{"antennae":"B","wings":"X","pattern":"X","legs":"M"},"bonus":1.6800000000000013},{"rt":1346.7999999821186,"stimulus":"bees-with-color/bee-B1SF.svg","response":0,"trial_type":"image-button-response","trial_index":81,"time_elapsed":1007999,"internal_node_id":"0.0-4.0-0.37","subject_id":"6041499ba066050e18a7934d","study_id":"60edd13110225f80f9f3709b","session_id":"6196bf641a291376774d3e4a","condition":"contingent","relevant_dimensions":["antennae","legs"],"bee_group":{"antennae":"B","wings":"X","pattern":"X","legs":"M"},"action":"harvest","summary":"good-harvest","bonus":1.6800000000000013},{"rt":618.0999999940395,"stimulus":"\n                    <p><b>Action: <em>harvest</em></b></p>\n                    <p>This is the bee that you just saw.</p>\n                    <img src=\"bees-with-color/bee-B1SF.svg\" width=\"200\">\n                    <p><span class=\"greenText\"><b>Successful harvest!</b></span><br>Your pay has increased by $0.02. Your bonus pay is now $0.80.</p>\n            ","response":0,"trial_type":"html-button-response","trial_index":82,"time_elapsed":1008618,"internal_node_id":"0.0-4.0-1.37","subject_id":"6041499ba066050e18a7934d","study_id":"60edd13110225f80f9f3709b","session_id":"6196bf641a291376774d3e4a","condition":"contingent","relevant_dimensions":["antennae","legs"],"bee_group":{"antennae":"B","wings":"X","pattern":"X","legs":"M"},"bonus":1.6800000000000013},{"rt":1491.199999988079,"stimulus":"bees-with-color/bee-A1DF.svg","response":0,"trial_type":"image-button-response","trial_index":83,"time_elapsed":1010111,"internal_node_id":"0.0-4.0-0.38","subject_id":"6041499ba066050e18a7934d","study_id":"60edd13110225f80f9f3709b","session_id":"6196bf641a291376774d3e4a","condition":"contingent","relevant_dimensions":["antennae","legs"],"bee_group":{"antennae":"B","wings":"X","pattern":"X","legs":"M"},"action":"harvest","summary":"good-harvest","bonus":1.6800000000000013},{"rt":482.90000000596046,"stimulus":"\n                    <p><b>Action: <em>harvest</em></b></p>\n                    <p>This is the bee that you just saw.</p>\n                    <img src=\"bees-with-color/bee-A1DF.svg\" width=\"200\">\n                    <p><span class=\"greenText\"><b>Successful harvest!</b></span><br>Your pay has increased by $0.02. Your bonus pay is now $0.82.</p>\n            ","response":0,"trial_type":"html-button-response","trial_index":84,"time_elapsed":1010595,"internal_node_id":"0.0-4.0-1.38","subject_id":"6041499ba066050e18a7934d","study_id":"60edd13110225f80f9f3709b","session_id":"6196bf641a291376774d3e4a","condition":"contingent","relevant_dimensions":["antennae","legs"],"bee_group":{"antennae":"B","wings":"X","pattern":"X","legs":"M"},"bonus":1.6800000000000013},{"rt":4086,"stimulus":"bees-with-color/bee-B2DF.svg","response":0,"trial_type":"image-button-response","trial_index":85,"time_elapsed":1014682,"internal_node_id":"0.0-4.0-0.39","subject_id":"6041499ba066050e18a7934d","study_id":"60edd13110225f80f9f3709b","session_id":"6196bf641a291376774d3e4a","condition":"contingent","relevant_dimensions":["antennae","legs"],"bee_group":{"antennae":"B","wings":"X","pattern":"X","legs":"M"},"action":"harvest","summary":"good-harvest","bonus":1.6800000000000013},{"rt":570.5999999940395,"stimulus":"\n                    <p><b>Action: <em>harvest</em></b></p>\n                    <p>This is the bee that you just saw.</p>\n                    <img src=\"bees-with-color/bee-B2DF.svg\" width=\"200\">\n                    <p><span class=\"greenText\"><b>Successful harvest!</b></span><br>Your pay has increased by $0.02. Your bonus pay is now $0.84.</p>\n            ","response":0,"trial_type":"html-button-response","trial_index":86,"time_elapsed":1015253,"internal_node_id":"0.0-4.0-1.39","subject_id":"6041499ba066050e18a7934d","study_id":"60edd13110225f80f9f3709b","session_id":"6196bf641a291376774d3e4a","condition":"contingent","relevant_dimensions":["antennae","legs"],"bee_group":{"antennae":"B","wings":"X","pattern":"X","legs":"M"},"bonus":1.6800000000000013},{"rt":1754.9000000059605,"stimulus":"bees-with-color/bee-B2SM.svg","response":1,"trial_type":"image-button-response","trial_index":87,"time_elapsed":1017010,"internal_node_id":"0.0-4.0-0.40","subject_id":"6041499ba066050e18a7934d","study_id":"60edd13110225f80f9f3709b","session_id":"6196bf641a291376774d3e4a","condition":"contingent","relevant_dimensions":["antennae","legs"],"bee_group":{"antennae":"B","wings":"X","pattern":"X","legs":"M"},"action":"avoid","summary":"good-avoid","bonus":1.6800000000000013},{"rt":879.7999999821186,"stimulus":"\n                    <p><b>Action: <em>avoid</em></b></p>\n                    <p>This is the bee that you just saw.</p>\n                    <img src=\"bees-with-color/bee-B2SM.svg\" width=\"200\">\n                    <p><br>Your bonus pay is unchanged, and remains at $0.84.</p>\n            ","response":0,"trial_type":"html-button-response","trial_index":88,"time_elapsed":1017891,"internal_node_id":"0.0-4.0-1.40","subject_id":"6041499ba066050e18a7934d","study_id":"60edd13110225f80f9f3709b","session_id":"6196bf641a291376774d3e4a","condition":"contingent","relevant_dimensions":["antennae","legs"],"bee_group":{"antennae":"B","wings":"X","pattern":"X","legs":"M"},"bonus":1.6800000000000013},{"rt":2547.0999999940395,"stimulus":"bees-with-color/bee-A1SM.svg","response":0,"trial_type":"image-button-response","trial_index":89,"time_elapsed":1020439,"internal_node_id":"0.0-4.0-0.41","subject_id":"6041499ba066050e18a7934d","study_id":"60edd13110225f80f9f3709b","session_id":"6196bf641a291376774d3e4a","condition":"contingent","relevant_dimensions":["antennae","legs"],"bee_group":{"antennae":"B","wings":"X","pattern":"X","legs":"M"},"action":"harvest","summary":"good-harvest","bonus":1.6800000000000013},{"rt":558.9000000059605,"stimulus":"\n                    <p><b>Action: <em>harvest</em></b></p>\n                    <p>This is the bee that you just saw.</p>\n                    <img src=\"bees-with-color/bee-A1SM.svg\" width=\"200\">\n                    <p><span class=\"greenText\"><b>Successful harvest!</b></span><br>Your pay has increased by $0.02. Your bonus pay is now $0.86.</p>\n            ","response":0,"trial_type":"html-button-response","trial_index":90,"time_elapsed":1020999,"internal_node_id":"0.0-4.0-1.41","subject_id":"6041499ba066050e18a7934d","study_id":"60edd13110225f80f9f3709b","session_id":"6196bf641a291376774d3e4a","condition":"contingent","relevant_dimensions":["antennae","legs"],"bee_group":{"antennae":"B","wings":"X","pattern":"X","legs":"M"},"bonus":1.6800000000000013},{"rt":743.5999999940395,"stimulus":"bees-with-color/bee-A2DF.svg","response":0,"trial_type":"image-button-response","trial_index":91,"time_elapsed":1021743,"internal_node_id":"0.0-4.0-0.42","subject_id":"6041499ba066050e18a7934d","study_id":"60edd13110225f80f9f3709b","session_id":"6196bf641a291376774d3e4a","condition":"contingent","relevant_dimensions":["antennae","legs"],"bee_group":{"antennae":"B","wings":"X","pattern":"X","legs":"M"},"action":"harvest","summary":"good-harvest","bonus":1.6800000000000013},{"rt":409.2000000178814,"stimulus":"\n                    <p><b>Action: <em>harvest</em></b></p>\n                    <p>This is the bee that you just saw.</p>\n                    <img src=\"bees-with-color/bee-A2DF.svg\" width=\"200\">\n                    <p><span class=\"greenText\"><b>Successful harvest!</b></span><br>Your pay has increased by $0.02. Your bonus pay is now $0.88.</p>\n            ","response":0,"trial_type":"html-button-response","trial_index":92,"time_elapsed":1022154,"internal_node_id":"0.0-4.0-1.42","subject_id":"6041499ba066050e18a7934d","study_id":"60edd13110225f80f9f3709b","session_id":"6196bf641a291376774d3e4a","condition":"contingent","relevant_dimensions":["antennae","legs"],"bee_group":{"antennae":"B","wings":"X","pattern":"X","legs":"M"},"bonus":1.6800000000000013},{"rt":1899.9000000059605,"stimulus":"bees-with-color/bee-B1DF.svg","response":0,"trial_type":"image-button-response","trial_index":93,"time_elapsed":1024055,"internal_node_id":"0.0-4.0-0.43","subject_id":"6041499ba066050e18a7934d","study_id":"60edd13110225f80f9f3709b","session_id":"6196bf641a291376774d3e4a","condition":"contingent","relevant_dimensions":["antennae","legs"],"bee_group":{"antennae":"B","wings":"X","pattern":"X","legs":"M"},"action":"harvest","summary":"good-harvest","bonus":1.6800000000000013},{"rt":752.1000000238419,"stimulus":"\n                    <p><b>Action: <em>harvest</em></b></p>\n                    <p>This is the bee that you just saw.</p>\n                    <img src=\"bees-with-color/bee-B1DF.svg\" width=\"200\">\n                    <p><span class=\"greenText\"><b>Successful harvest!</b></span><br>Your pay has increased by $0.02. Your bonus pay is now $0.90.</p>\n            ","response":0,"trial_type":"html-button-response","trial_index":94,"time_elapsed":1024809,"internal_node_id":"0.0-4.0-1.43","subject_id":"6041499ba066050e18a7934d","study_id":"60edd13110225f80f9f3709b","session_id":"6196bf641a291376774d3e4a","condition":"contingent","relevant_dimensions":["antennae","legs"],"bee_group":{"antennae":"B","wings":"X","pattern":"X","legs":"M"},"bonus":1.6800000000000013},{"rt":2940,"stimulus":"bees-with-color/bee-B1SM.svg","response":1,"trial_type":"image-button-response","trial_index":95,"time_elapsed":1027750,"internal_node_id":"0.0-4.0-0.44","subject_id":"6041499ba066050e18a7934d","study_id":"60edd13110225f80f9f3709b","session_id":"6196bf641a291376774d3e4a","condition":"contingent","relevant_dimensions":["antennae","legs"],"bee_group":{"antennae":"B","wings":"X","pattern":"X","legs":"M"},"action":"avoid","summary":"good-avoid","bonus":1.6800000000000013},{"rt":581.7000000178814,"stimulus":"\n                    <p><b>Action: <em>avoid</em></b></p>\n                    <p>This is the bee that you just saw.</p>\n                    <img src=\"bees-with-color/bee-B1SM.svg\" width=\"200\">\n                    <p><br>Your bonus pay is unchanged, and remains at $0.90.</p>\n            ","response":0,"trial_type":"html-button-response","trial_index":96,"time_elapsed":1028333,"internal_node_id":"0.0-4.0-1.44","subject_id":"6041499ba066050e18a7934d","study_id":"60edd13110225f80f9f3709b","session_id":"6196bf641a291376774d3e4a","condition":"contingent","relevant_dimensions":["antennae","legs"],"bee_group":{"antennae":"B","wings":"X","pattern":"X","legs":"M"},"bonus":1.6800000000000013},{"rt":1147.9000000059605,"stimulus":"bees-with-color/bee-A2SM.svg","response":0,"trial_type":"image-button-response","trial_index":97,"time_elapsed":1029482,"internal_node_id":"0.0-4.0-0.45","subject_id":"6041499ba066050e18a7934d","study_id":"60edd13110225f80f9f3709b","session_id":"6196bf641a291376774d3e4a","condition":"contingent","relevant_dimensions":["antennae","legs"],"bee_group":{"antennae":"B","wings":"X","pattern":"X","legs":"M"},"action":"harvest","summary":"good-harvest","bonus":1.6800000000000013},{"rt":628.8000000119209,"stimulus":"\n                    <p><b>Action: <em>harvest</em></b></p>\n                    <p>This is the bee that you just saw.</p>\n                    <img src=\"bees-with-color/bee-A2SM.svg\" width=\"200\">\n                    <p><span class=\"greenText\"><b>Successful harvest!</b></span><br>Your pay has increased by $0.02. Your bonus pay is now $0.92.</p>\n            ","response":0,"trial_type":"html-button-response","trial_index":98,"time_elapsed":1030113,"internal_node_id":"0.0-4.0-1.45","subject_id":"6041499ba066050e18a7934d","study_id":"60edd13110225f80f9f3709b","session_id":"6196bf641a291376774d3e4a","condition":"contingent","relevant_dimensions":["antennae","legs"],"bee_group":{"antennae":"B","wings":"X","pattern":"X","legs":"M"},"bonus":1.6800000000000013},{"rt":548.8000000119209,"stimulus":"bees-with-color/bee-A2SF.svg","response":0,"trial_type":"image-button-response","trial_index":99,"time_elapsed":1030663,"internal_node_id":"0.0-4.0-0.46","subject_id":"6041499ba066050e18a7934d","study_id":"60edd13110225f80f9f3709b","session_id":"6196bf641a291376774d3e4a","condition":"contingent","relevant_dimensions":["antennae","legs"],"bee_group":{"antennae":"B","wings":"X","pattern":"X","legs":"M"},"action":"harvest","summary":"good-harvest","bonus":1.6800000000000013},{"rt":437.5,"stimulus":"\n                    <p><b>Action: <em>harvest</em></b></p>\n                    <p>This is the bee that you just saw.</p>\n                    <img src=\"bees-with-color/bee-A2SF.svg\" width=\"200\">\n                    <p><span class=\"greenText\"><b>Successful harvest!</b></span><br>Your pay has increased by $0.02. Your bonus pay is now $0.94.</p>\n            ","response":0,"trial_type":"html-button-response","trial_index":100,"time_elapsed":1031101,"internal_node_id":"0.0-4.0-1.46","subject_id":"6041499ba066050e18a7934d","study_id":"60edd13110225f80f9f3709b","session_id":"6196bf641a291376774d3e4a","condition":"contingent","relevant_dimensions":["antennae","legs"],"bee_group":{"antennae":"B","wings":"X","pattern":"X","legs":"M"},"bonus":1.6800000000000013},{"rt":557.1999999880791,"stimulus":"bees-with-color/bee-A1SF.svg","response":0,"trial_type":"image-button-response","trial_index":101,"time_elapsed":1031660,"internal_node_id":"0.0-4.0-0.47","subject_id":"6041499ba066050e18a7934d","study_id":"60edd13110225f80f9f3709b","session_id":"6196bf641a291376774d3e4a","condition":"contingent","relevant_dimensions":["antennae","legs"],"bee_group":{"antennae":"B","wings":"X","pattern":"X","legs":"M"},"action":"harvest","summary":"good-harvest","bonus":1.6800000000000013},{"rt":458.2000000178814,"stimulus":"\n                    <p><b>Action: <em>harvest</em></b></p>\n                    <p>This is the bee that you just saw.</p>\n                    <img src=\"bees-with-color/bee-A1SF.svg\" width=\"200\">\n                    <p><span class=\"greenText\"><b>Successful harvest!</b></span><br>Your pay has increased by $0.02. Your bonus pay is now $0.96.</p>\n            ","response":0,"trial_type":"html-button-response","trial_index":102,"time_elapsed":1032119,"internal_node_id":"0.0-4.0-1.47","subject_id":"6041499ba066050e18a7934d","study_id":"60edd13110225f80f9f3709b","session_id":"6196bf641a291376774d3e4a","condition":"contingent","relevant_dimensions":["antennae","legs"],"bee_group":{"antennae":"B","wings":"X","pattern":"X","legs":"M"},"bonus":1.6800000000000013},{"rt":637.4000000059605,"stimulus":"bees-with-color/bee-A1SM.svg","response":0,"trial_type":"image-button-response","trial_index":103,"time_elapsed":1032757,"internal_node_id":"0.0-4.0-0.48","subject_id":"6041499ba066050e18a7934d","study_id":"60edd13110225f80f9f3709b","session_id":"6196bf641a291376774d3e4a","condition":"contingent","relevant_dimensions":["antennae","legs"],"bee_group":{"antennae":"B","wings":"X","pattern":"X","legs":"M"},"action":"harvest","summary":"good-harvest","bonus":1.6800000000000013},{"rt":432.59999999403954,"stimulus":"\n                    <p><b>Action: <em>harvest</em></b></p>\n                    <p>This is the bee that you just saw.</p>\n                    <img src=\"bees-with-color/bee-A1SM.svg\" width=\"200\">\n                    <p><span class=\"greenText\"><b>Successful harvest!</b></span><br>Your pay has increased by $0.02. Your bonus pay is now $0.98.</p>\n            ","response":0,"trial_type":"html-button-response","trial_index":104,"time_elapsed":1033191,"internal_node_id":"0.0-4.0-1.48","subject_id":"6041499ba066050e18a7934d","study_id":"60edd13110225f80f9f3709b","session_id":"6196bf641a291376774d3e4a","condition":"contingent","relevant_dimensions":["antennae","legs"],"bee_group":{"antennae":"B","wings":"X","pattern":"X","legs":"M"},"bonus":1.6800000000000013},{"rt":527.5,"stimulus":"bees-with-color/bee-A1SF.svg","response":0,"trial_type":"image-button-response","trial_index":105,"time_elapsed":1033720,"internal_node_id":"0.0-4.0-0.49","subject_id":"6041499ba066050e18a7934d","study_id":"60edd13110225f80f9f3709b","session_id":"6196bf641a291376774d3e4a","condition":"contingent","relevant_dimensions":["antennae","legs"],"bee_group":{"antennae":"B","wings":"X","pattern":"X","legs":"M"},"action":"harvest","summary":"good-harvest","bonus":1.6800000000000013},{"rt":437,"stimulus":"\n                    <p><b>Action: <em>harvest</em></b></p>\n                    <p>This is the bee that you just saw.</p>\n                    <img src=\"bees-with-color/bee-A1SF.svg\" width=\"200\">\n                    <p><span class=\"greenText\"><b>Successful harvest!</b></span><br>Your pay has increased by $0.02. Your bonus pay is now $1.00.</p>\n            ","response":0,"trial_type":"html-button-response","trial_index":106,"time_elapsed":1034158,"internal_node_id":"0.0-4.0-1.49","subject_id":"6041499ba066050e18a7934d","study_id":"60edd13110225f80f9f3709b","session_id":"6196bf641a291376774d3e4a","condition":"contingent","relevant_dimensions":["antennae","legs"],"bee_group":{"antennae":"B","wings":"X","pattern":"X","legs":"M"},"bonus":1.6800000000000013},{"rt":2182.0999999940395,"stimulus":"bees-with-color/bee-B2DF.svg","response":0,"trial_type":"image-button-response","trial_index":107,"time_elapsed":1036341,"internal_node_id":"0.0-4.0-0.50","subject_id":"6041499ba066050e18a7934d","study_id":"60edd13110225f80f9f3709b","session_id":"6196bf641a291376774d3e4a","condition":"contingent","relevant_dimensions":["antennae","legs"],"bee_group":{"antennae":"B","wings":"X","pattern":"X","legs":"M"},"action":"harvest","summary":"good-harvest","bonus":1.6800000000000013},{"rt":514.9000000059605,"stimulus":"\n                    <p><b>Action: <em>harvest</em></b></p>\n                    <p>This is the bee that you just saw.</p>\n                    <img src=\"bees-with-color/bee-B2DF.svg\" width=\"200\">\n                    <p><span class=\"greenText\"><b>Successful harvest!</b></span><br>Your pay has increased by $0.02. Your bonus pay is now $1.02.</p>\n            ","response":0,"trial_type":"html-button-response","trial_index":108,"time_elapsed":1036857,"internal_node_id":"0.0-4.0-1.50","subject_id":"6041499ba066050e18a7934d","study_id":"60edd13110225f80f9f3709b","session_id":"6196bf641a291376774d3e4a","condition":"contingent","relevant_dimensions":["antennae","legs"],"bee_group":{"antennae":"B","wings":"X","pattern":"X","legs":"M"},"bonus":1.6800000000000013},{"rt":1692.4000000059605,"stimulus":"bees-with-color/bee-B2DM.svg","response":1,"trial_type":"image-button-response","trial_index":109,"time_elapsed":1038550,"internal_node_id":"0.0-4.0-0.51","subject_id":"6041499ba066050e18a7934d","study_id":"60edd13110225f80f9f3709b","session_id":"6196bf641a291376774d3e4a","condition":"contingent","relevant_dimensions":["antennae","legs"],"bee_group":{"antennae":"B","wings":"X","pattern":"X","legs":"M"},"action":"avoid","summary":"good-avoid","bonus":1.6800000000000013},{"rt":623.7999999821186,"stimulus":"\n                    <p><b>Action: <em>avoid</em></b></p>\n                    <p>This is the bee that you just saw.</p>\n                    <img src=\"bees-with-color/bee-B2DM.svg\" width=\"200\">\n                    <p><br>Your bonus pay is unchanged, and remains at $1.02.</p>\n            ","response":0,"trial_type":"html-button-response","trial_index":110,"time_elapsed":1039175,"internal_node_id":"0.0-4.0-1.51","subject_id":"6041499ba066050e18a7934d","study_id":"60edd13110225f80f9f3709b","session_id":"6196bf641a291376774d3e4a","condition":"contingent","relevant_dimensions":["antennae","legs"],"bee_group":{"antennae":"B","wings":"X","pattern":"X","legs":"M"},"bonus":1.6800000000000013},{"rt":1629.4000000059605,"stimulus":"bees-with-color/bee-B1DM.svg","response":1,"trial_type":"image-button-response","trial_index":111,"time_elapsed":1040806,"internal_node_id":"0.0-4.0-0.52","subject_id":"6041499ba066050e18a7934d","study_id":"60edd13110225f80f9f3709b","session_id":"6196bf641a291376774d3e4a","condition":"contingent","relevant_dimensions":["antennae","legs"],"bee_group":{"antennae":"B","wings":"X","pattern":"X","legs":"M"},"action":"avoid","summary":"good-avoid","bonus":1.6800000000000013},{"rt":628.5,"stimulus":"\n                    <p><b>Action: <em>avoid</em></b></p>\n                    <p>This is the bee that you just saw.</p>\n                    <img src=\"bees-with-color/bee-B1DM.svg\" width=\"200\">\n                    <p><br>Your bonus pay is unchanged, and remains at $1.02.</p>\n            ","response":0,"trial_type":"html-button-response","trial_index":112,"time_elapsed":1041436,"internal_node_id":"0.0-4.0-1.52","subject_id":"6041499ba066050e18a7934d","study_id":"60edd13110225f80f9f3709b","session_id":"6196bf641a291376774d3e4a","condition":"contingent","relevant_dimensions":["antennae","legs"],"bee_group":{"antennae":"B","wings":"X","pattern":"X","legs":"M"},"bonus":1.6800000000000013},{"rt":1424.9000000059605,"stimulus":"bees-with-color/bee-A2DF.svg","response":0,"trial_type":"image-button-response","trial_index":113,"time_elapsed":1042862,"internal_node_id":"0.0-4.0-0.53","subject_id":"6041499ba066050e18a7934d","study_id":"60edd13110225f80f9f3709b","session_id":"6196bf641a291376774d3e4a","condition":"contingent","relevant_dimensions":["antennae","legs"],"bee_group":{"antennae":"B","wings":"X","pattern":"X","legs":"M"},"action":"harvest","summary":"good-harvest","bonus":1.6800000000000013},{"rt":415,"stimulus":"\n                    <p><b>Action: <em>harvest</em></b></p>\n                    <p>This is the bee that you just saw.</p>\n                    <img src=\"bees-with-color/bee-A2DF.svg\" width=\"200\">\n                    <p><span class=\"greenText\"><b>Successful harvest!</b></span><br>Your pay has increased by $0.02. Your bonus pay is now $1.04.</p>\n            ","response":0,"trial_type":"html-button-response","trial_index":114,"time_elapsed":1043278,"internal_node_id":"0.0-4.0-1.53","subject_id":"6041499ba066050e18a7934d","study_id":"60edd13110225f80f9f3709b","session_id":"6196bf641a291376774d3e4a","condition":"contingent","relevant_dimensions":["antennae","legs"],"bee_group":{"antennae":"B","wings":"X","pattern":"X","legs":"M"},"bonus":1.6800000000000013},{"rt":516.7999999821186,"stimulus":"bees-with-color/bee-A2DM.svg","response":0,"trial_type":"image-button-response","trial_index":115,"time_elapsed":1043796,"internal_node_id":"0.0-4.0-0.54","subject_id":"6041499ba066050e18a7934d","study_id":"60edd13110225f80f9f3709b","session_id":"6196bf641a291376774d3e4a","condition":"contingent","relevant_dimensions":["antennae","legs"],"bee_group":{"antennae":"B","wings":"X","pattern":"X","legs":"M"},"action":"harvest","summary":"good-harvest","bonus":1.6800000000000013},{"rt":432.59999999403954,"stimulus":"\n                    <p><b>Action: <em>harvest</em></b></p>\n                    <p>This is the bee that you just saw.</p>\n                    <img src=\"bees-with-color/bee-A2DM.svg\" width=\"200\">\n                    <p><span class=\"greenText\"><b>Successful harvest!</b></span><br>Your pay has increased by $0.02. Your bonus pay is now $1.06.</p>\n            ","response":0,"trial_type":"html-button-response","trial_index":116,"time_elapsed":1044230,"internal_node_id":"0.0-4.0-1.54","subject_id":"6041499ba066050e18a7934d","study_id":"60edd13110225f80f9f3709b","session_id":"6196bf641a291376774d3e4a","condition":"contingent","relevant_dimensions":["antennae","legs"],"bee_group":{"antennae":"B","wings":"X","pattern":"X","legs":"M"},"bonus":1.6800000000000013},{"rt":1289,"stimulus":"bees-with-color/bee-B2SF.svg","response":0,"trial_type":"image-button-response","trial_index":117,"time_elapsed":1045520,"internal_node_id":"0.0-4.0-0.55","subject_id":"6041499ba066050e18a7934d","study_id":"60edd13110225f80f9f3709b","session_id":"6196bf641a291376774d3e4a","condition":"contingent","relevant_dimensions":["antennae","legs"],"bee_group":{"antennae":"B","wings":"X","pattern":"X","legs":"M"},"action":"harvest","summary":"good-harvest","bonus":1.6800000000000013},{"rt":379,"stimulus":"\n                    <p><b>Action: <em>harvest</em></b></p>\n                    <p>This is the bee that you just saw.</p>\n                    <img src=\"bees-with-color/bee-B2SF.svg\" width=\"200\">\n                    <p><span class=\"greenText\"><b>Successful harvest!</b></span><br>Your pay has increased by $0.02. Your bonus pay is now $1.08.</p>\n            ","response":0,"trial_type":"html-button-response","trial_index":118,"time_elapsed":1045900,"internal_node_id":"0.0-4.0-1.55","subject_id":"6041499ba066050e18a7934d","study_id":"60edd13110225f80f9f3709b","session_id":"6196bf641a291376774d3e4a","condition":"contingent","relevant_dimensions":["antennae","legs"],"bee_group":{"antennae":"B","wings":"X","pattern":"X","legs":"M"},"bonus":1.6800000000000013},{"rt":1891.8999999761581,"stimulus":"bees-with-color/bee-B2SM.svg","response":1,"trial_type":"image-button-response","trial_index":119,"time_elapsed":1047793,"internal_node_id":"0.0-4.0-0.56","subject_id":"6041499ba066050e18a7934d","study_id":"60edd13110225f80f9f3709b","session_id":"6196bf641a291376774d3e4a","condition":"contingent","relevant_dimensions":["antennae","legs"],"bee_group":{"antennae":"B","wings":"X","pattern":"X","legs":"M"},"action":"avoid","summary":"good-avoid","bonus":1.6800000000000013},{"rt":944,"stimulus":"\n                    <p><b>Action: <em>avoid</em></b></p>\n                    <p>This is the bee that you just saw.</p>\n                    <img src=\"bees-with-color/bee-B2SM.svg\" width=\"200\">\n                    <p><br>Your bonus pay is unchanged, and remains at $1.08.</p>\n            ","response":0,"trial_type":"html-button-response","trial_index":120,"time_elapsed":1048738,"internal_node_id":"0.0-4.0-1.56","subject_id":"6041499ba066050e18a7934d","study_id":"60edd13110225f80f9f3709b","session_id":"6196bf641a291376774d3e4a","condition":"contingent","relevant_dimensions":["antennae","legs"],"bee_group":{"antennae":"B","wings":"X","pattern":"X","legs":"M"},"bonus":1.6800000000000013},{"rt":1458.699999988079,"stimulus":"bees-with-color/bee-B1DF.svg","response":0,"trial_type":"image-button-response","trial_index":121,"time_elapsed":1050198,"internal_node_id":"0.0-4.0-0.57","subject_id":"6041499ba066050e18a7934d","study_id":"60edd13110225f80f9f3709b","session_id":"6196bf641a291376774d3e4a","condition":"contingent","relevant_dimensions":["antennae","legs"],"bee_group":{"antennae":"B","wings":"X","pattern":"X","legs":"M"},"action":"harvest","summary":"good-harvest","bonus":1.6800000000000013},{"rt":428.7000000178814,"stimulus":"\n                    <p><b>Action: <em>harvest</em></b></p>\n                    <p>This is the bee that you just saw.</p>\n                    <img src=\"bees-with-color/bee-B1DF.svg\" width=\"200\">\n                    <p><span class=\"greenText\"><b>Successful harvest!</b></span><br>Your pay has increased by $0.02. Your bonus pay is now $1.10.</p>\n            ","response":0,"trial_type":"html-button-response","trial_index":122,"time_elapsed":1050628,"internal_node_id":"0.0-4.0-1.57","subject_id":"6041499ba066050e18a7934d","study_id":"60edd13110225f80f9f3709b","session_id":"6196bf641a291376774d3e4a","condition":"contingent","relevant_dimensions":["antennae","legs"],"bee_group":{"antennae":"B","wings":"X","pattern":"X","legs":"M"},"bonus":1.6800000000000013},{"rt":3169,"stimulus":"bees-with-color/bee-A1DF.svg","response":0,"trial_type":"image-button-response","trial_index":123,"time_elapsed":1053798,"internal_node_id":"0.0-4.0-0.58","subject_id":"6041499ba066050e18a7934d","study_id":"60edd13110225f80f9f3709b","session_id":"6196bf641a291376774d3e4a","condition":"contingent","relevant_dimensions":["antennae","legs"],"bee_group":{"antennae":"B","wings":"X","pattern":"X","legs":"M"},"action":"harvest","summary":"good-harvest","bonus":1.6800000000000013},{"rt":472.60000002384186,"stimulus":"\n                    <p><b>Action: <em>harvest</em></b></p>\n                    <p>This is the bee that you just saw.</p>\n                    <img src=\"bees-with-color/bee-A1DF.svg\" width=\"200\">\n                    <p><span class=\"greenText\"><b>Successful harvest!</b></span><br>Your pay has increased by $0.02. Your bonus pay is now $1.12.</p>\n            ","response":0,"trial_type":"html-button-response","trial_index":124,"time_elapsed":1054272,"internal_node_id":"0.0-4.0-1.58","subject_id":"6041499ba066050e18a7934d","study_id":"60edd13110225f80f9f3709b","session_id":"6196bf641a291376774d3e4a","condition":"contingent","relevant_dimensions":["antennae","legs"],"bee_group":{"antennae":"B","wings":"X","pattern":"X","legs":"M"},"bonus":1.6800000000000013},{"rt":1416.9000000059605,"stimulus":"bees-with-color/bee-A1DM.svg","response":0,"trial_type":"image-button-response","trial_index":125,"time_elapsed":1055690,"internal_node_id":"0.0-4.0-0.59","subject_id":"6041499ba066050e18a7934d","study_id":"60edd13110225f80f9f3709b","session_id":"6196bf641a291376774d3e4a","condition":"contingent","relevant_dimensions":["antennae","legs"],"bee_group":{"antennae":"B","wings":"X","pattern":"X","legs":"M"},"action":"harvest","summary":"good-harvest","bonus":1.6800000000000013},{"rt":393.7000000178814,"stimulus":"\n                    <p><b>Action: <em>harvest</em></b></p>\n                    <p>This is the bee that you just saw.</p>\n                    <img src=\"bees-with-color/bee-A1DM.svg\" width=\"200\">\n                    <p><span class=\"greenText\"><b>Successful harvest!</b></span><br>Your pay has increased by $0.02. Your bonus pay is now $1.14.</p>\n            ","response":0,"trial_type":"html-button-response","trial_index":126,"time_elapsed":1056085,"internal_node_id":"0.0-4.0-1.59","subject_id":"6041499ba066050e18a7934d","study_id":"60edd13110225f80f9f3709b","session_id":"6196bf641a291376774d3e4a","condition":"contingent","relevant_dimensions":["antennae","legs"],"bee_group":{"antennae":"B","wings":"X","pattern":"X","legs":"M"},"bonus":1.6800000000000013},{"rt":1818.7000000178814,"stimulus":"bees-with-color/bee-A2SF.svg","response":0,"trial_type":"image-button-response","trial_index":127,"time_elapsed":1057905,"internal_node_id":"0.0-4.0-0.60","subject_id":"6041499ba066050e18a7934d","study_id":"60edd13110225f80f9f3709b","session_id":"6196bf641a291376774d3e4a","condition":"contingent","relevant_dimensions":["antennae","legs"],"bee_group":{"antennae":"B","wings":"X","pattern":"X","legs":"M"},"action":"harvest","summary":"good-harvest","bonus":1.6800000000000013},{"rt":640.5,"stimulus":"\n                    <p><b>Action: <em>harvest</em></b></p>\n                    <p>This is the bee that you just saw.</p>\n                    <img src=\"bees-with-color/bee-A2SF.svg\" width=\"200\">\n                    <p><span class=\"greenText\"><b>Successful harvest!</b></span><br>Your pay has increased by $0.02. Your bonus pay is now $1.16.</p>\n            ","response":0,"trial_type":"html-button-response","trial_index":128,"time_elapsed":1058546,"internal_node_id":"0.0-4.0-1.60","subject_id":"6041499ba066050e18a7934d","study_id":"60edd13110225f80f9f3709b","session_id":"6196bf641a291376774d3e4a","condition":"contingent","relevant_dimensions":["antennae","legs"],"bee_group":{"antennae":"B","wings":"X","pattern":"X","legs":"M"},"bonus":1.6800000000000013},{"rt":1150.2000000178814,"stimulus":"bees-with-color/bee-B1SM.svg","response":1,"trial_type":"image-button-response","trial_index":129,"time_elapsed":1059698,"internal_node_id":"0.0-4.0-0.61","subject_id":"6041499ba066050e18a7934d","study_id":"60edd13110225f80f9f3709b","session_id":"6196bf641a291376774d3e4a","condition":"contingent","relevant_dimensions":["antennae","legs"],"bee_group":{"antennae":"B","wings":"X","pattern":"X","legs":"M"},"action":"avoid","summary":"good-avoid","bonus":1.6800000000000013},{"rt":758.7000000178814,"stimulus":"\n                    <p><b>Action: <em>avoid</em></b></p>\n                    <p>This is the bee that you just saw.</p>\n                    <img src=\"bees-with-color/bee-B1SM.svg\" width=\"200\">\n                    <p><br>Your bonus pay is unchanged, and remains at $1.16.</p>\n            ","response":0,"trial_type":"html-button-response","trial_index":130,"time_elapsed":1060458,"internal_node_id":"0.0-4.0-1.61","subject_id":"6041499ba066050e18a7934d","study_id":"60edd13110225f80f9f3709b","session_id":"6196bf641a291376774d3e4a","condition":"contingent","relevant_dimensions":["antennae","legs"],"bee_group":{"antennae":"B","wings":"X","pattern":"X","legs":"M"},"bonus":1.6800000000000013},{"rt":2993,"stimulus":"bees-with-color/bee-B1SF.svg","response":0,"trial_type":"image-button-response","trial_index":131,"time_elapsed":1063452,"internal_node_id":"0.0-4.0-0.62","subject_id":"6041499ba066050e18a7934d","study_id":"60edd13110225f80f9f3709b","session_id":"6196bf641a291376774d3e4a","condition":"contingent","relevant_dimensions":["antennae","legs"],"bee_group":{"antennae":"B","wings":"X","pattern":"X","legs":"M"},"action":"harvest","summary":"good-harvest","bonus":1.6800000000000013},{"rt":651.9000000059605,"stimulus":"\n                    <p><b>Action: <em>harvest</em></b></p>\n                    <p>This is the bee that you just saw.</p>\n                    <img src=\"bees-with-color/bee-B1SF.svg\" width=\"200\">\n                    <p><span class=\"greenText\"><b>Successful harvest!</b></span><br>Your pay has increased by $0.02. Your bonus pay is now $1.18.</p>\n            ","response":0,"trial_type":"html-button-response","trial_index":132,"time_elapsed":1064105,"internal_node_id":"0.0-4.0-1.62","subject_id":"6041499ba066050e18a7934d","study_id":"60edd13110225f80f9f3709b","session_id":"6196bf641a291376774d3e4a","condition":"contingent","relevant_dimensions":["antennae","legs"],"bee_group":{"antennae":"B","wings":"X","pattern":"X","legs":"M"},"bonus":1.6800000000000013},{"rt":1550.2000000178814,"stimulus":"bees-with-color/bee-A2SM.svg","response":0,"trial_type":"image-button-response","trial_index":133,"time_elapsed":1065657,"internal_node_id":"0.0-4.0-0.63","subject_id":"6041499ba066050e18a7934d","study_id":"60edd13110225f80f9f3709b","session_id":"6196bf641a291376774d3e4a","condition":"contingent","relevant_dimensions":["antennae","legs"],"bee_group":{"antennae":"B","wings":"X","pattern":"X","legs":"M"},"action":"harvest","summary":"good-harvest","bonus":1.6800000000000013},{"rt":804.8000000119209,"stimulus":"\n                    <p><b>Action: <em>harvest</em></b></p>\n                    <p>This is the bee that you just saw.</p>\n                    <img src=\"bees-with-color/bee-A2SM.svg\" width=\"200\">\n                    <p><span class=\"greenText\"><b>Successful harvest!</b></span><br>Your pay has increased by $0.02. Your bonus pay is now $1.20.</p>\n            ","response":0,"trial_type":"html-button-response","trial_index":134,"time_elapsed":1066463,"internal_node_id":"0.0-4.0-1.63","subject_id":"6041499ba066050e18a7934d","study_id":"60edd13110225f80f9f3709b","session_id":"6196bf641a291376774d3e4a","condition":"contingent","relevant_dimensions":["antennae","legs"],"bee_group":{"antennae":"B","wings":"X","pattern":"X","legs":"M"},"bonus":1.6800000000000013},{"rt":13468.800000011921,"stimulus":"You have completed the first part of this experiment.<br><br>You will now begin a shorter second part, in which you will receive no feedback.<br>The same rules regarding bonus pay apply.<br><br>Press any key to begin.","response":" ","trial_type":"html-keyboard-response","trial_index":135,"time_elapsed":1079933,"internal_node_id":"0.0-5.0","subject_id":"6041499ba066050e18a7934d","study_id":"60edd13110225f80f9f3709b","session_id":"6196bf641a291376774d3e4a","condition":"contingent","relevant_dimensions":["antennae","legs"],"bee_group":{"antennae":"B","wings":"X","pattern":"X","legs":"M"},"bonus":1.6800000000000013},{"rt":36518.29999998212,"stimulus":"bees-with-color/bee-A2DF.svg","response":0,"trial_type":"image-button-response","trial_index":136,"time_elapsed":1116461,"internal_node_id":"0.0-6.0-0.0","subject_id":"6041499ba066050e18a7934d","study_id":"60edd13110225f80f9f3709b","session_id":"6196bf641a291376774d3e4a","condition":"contingent","relevant_dimensions":["antennae","legs"],"bee_group":{"antennae":"B","wings":"X","pattern":"X","legs":"M"},"bonus":1.6800000000000013},{"rt":1779.5,"stimulus":"bees-with-color/bee-A2SF.svg","response":0,"trial_type":"image-button-response","trial_index":137,"time_elapsed":1118243,"internal_node_id":"0.0-6.0-0.1","subject_id":"6041499ba066050e18a7934d","study_id":"60edd13110225f80f9f3709b","session_id":"6196bf641a291376774d3e4a","condition":"contingent","relevant_dimensions":["antennae","legs"],"bee_group":{"antennae":"B","wings":"X","pattern":"X","legs":"M"},"bonus":1.6800000000000013},{"rt":916.6999999880791,"stimulus":"bees-with-color/bee-A1SM.svg","response":0,"trial_type":"image-button-response","trial_index":138,"time_elapsed":1119161,"internal_node_id":"0.0-6.0-0.2","subject_id":"6041499ba066050e18a7934d","study_id":"60edd13110225f80f9f3709b","session_id":"6196bf641a291376774d3e4a","condition":"contingent","relevant_dimensions":["antennae","legs"],"bee_group":{"antennae":"B","wings":"X","pattern":"X","legs":"M"},"bonus":1.6800000000000013},{"rt":997.7000000178814,"stimulus":"bees-with-color/bee-B1DF.svg","response":0,"trial_type":"image-button-response","trial_index":139,"time_elapsed":1120161,"internal_node_id":"0.0-6.0-0.3","subject_id":"6041499ba066050e18a7934d","study_id":"60edd13110225f80f9f3709b","session_id":"6196bf641a291376774d3e4a","condition":"contingent","relevant_dimensions":["antennae","legs"],"bee_group":{"antennae":"B","wings":"X","pattern":"X","legs":"M"},"bonus":1.6800000000000013},{"rt":1132,"stimulus":"bees-with-color/bee-A2SM.svg","response":0,"trial_type":"image-button-response","trial_index":140,"time_elapsed":1121294,"internal_node_id":"0.0-6.0-0.4","subject_id":"6041499ba066050e18a7934d","study_id":"60edd13110225f80f9f3709b","session_id":"6196bf641a291376774d3e4a","condition":"contingent","relevant_dimensions":["antennae","legs"],"bee_group":{"antennae":"B","wings":"X","pattern":"X","legs":"M"},"bonus":1.6800000000000013},{"rt":1577.699999988079,"stimulus":"bees-with-color/bee-B2DF.svg","response":0,"trial_type":"image-button-response","trial_index":141,"time_elapsed":1122873,"internal_node_id":"0.0-6.0-0.5","subject_id":"6041499ba066050e18a7934d","study_id":"60edd13110225f80f9f3709b","session_id":"6196bf641a291376774d3e4a","condition":"contingent","relevant_dimensions":["antennae","legs"],"bee_group":{"antennae":"B","wings":"X","pattern":"X","legs":"M"},"bonus":1.6800000000000013},{"rt":1250.7999999821186,"stimulus":"bees-with-color/bee-B1SM.svg","response":1,"trial_type":"image-button-response","trial_index":142,"time_elapsed":1124125,"internal_node_id":"0.0-6.0-0.6","subject_id":"6041499ba066050e18a7934d","study_id":"60edd13110225f80f9f3709b","session_id":"6196bf641a291376774d3e4a","condition":"contingent","relevant_dimensions":["antennae","legs"],"bee_group":{"antennae":"B","wings":"X","pattern":"X","legs":"M"},"bonus":1.6800000000000013},{"rt":1220.5999999940395,"stimulus":"bees-with-color/bee-B2DM.svg","response":1,"trial_type":"image-button-response","trial_index":143,"time_elapsed":1125347,"internal_node_id":"0.0-6.0-0.7","subject_id":"6041499ba066050e18a7934d","study_id":"60edd13110225f80f9f3709b","session_id":"6196bf641a291376774d3e4a","condition":"contingent","relevant_dimensions":["antennae","legs"],"bee_group":{"antennae":"B","wings":"X","pattern":"X","legs":"M"},"bonus":1.6800000000000013},{"rt":1237,"stimulus":"bees-with-color/bee-B1SF.svg","response":0,"trial_type":"image-button-response","trial_index":144,"time_elapsed":1126586,"internal_node_id":"0.0-6.0-0.8","subject_id":"6041499ba066050e18a7934d","study_id":"60edd13110225f80f9f3709b","session_id":"6196bf641a291376774d3e4a","condition":"contingent","relevant_dimensions":["antennae","legs"],"bee_group":{"antennae":"B","wings":"X","pattern":"X","legs":"M"},"bonus":1.6800000000000013},{"rt":3042,"stimulus":"bees-with-color/bee-A1DF.svg","response":0,"trial_type":"image-button-response","trial_index":145,"time_elapsed":1129629,"internal_node_id":"0.0-6.0-0.9","subject_id":"6041499ba066050e18a7934d","study_id":"60edd13110225f80f9f3709b","session_id":"6196bf641a291376774d3e4a","condition":"contingent","relevant_dimensions":["antennae","legs"],"bee_group":{"antennae":"B","wings":"X","pattern":"X","legs":"M"},"bonus":1.6800000000000013},{"rt":664.9000000059605,"stimulus":"bees-with-color/bee-A2DM.svg","response":0,"trial_type":"image-button-response","trial_index":146,"time_elapsed":1130297,"internal_node_id":"0.0-6.0-0.10","subject_id":"6041499ba066050e18a7934d","study_id":"60edd13110225f80f9f3709b","session_id":"6196bf641a291376774d3e4a","condition":"contingent","relevant_dimensions":["antennae","legs"],"bee_group":{"antennae":"B","wings":"X","pattern":"X","legs":"M"},"bonus":1.6800000000000013},{"rt":574.3000000119209,"stimulus":"bees-with-color/bee-A1DM.svg","response":0,"trial_type":"image-button-response","trial_index":147,"time_elapsed":1130873,"internal_node_id":"0.0-6.0-0.11","subject_id":"6041499ba066050e18a7934d","study_id":"60edd13110225f80f9f3709b","session_id":"6196bf641a291376774d3e4a","condition":"contingent","relevant_dimensions":["antennae","legs"],"bee_group":{"antennae":"B","wings":"X","pattern":"X","legs":"M"},"bonus":1.6800000000000013},{"rt":1075.5999999940395,"stimulus":"bees-with-color/bee-B2SM.svg","response":1,"trial_type":"image-button-response","trial_index":148,"time_elapsed":1131950,"internal_node_id":"0.0-6.0-0.12","subject_id":"6041499ba066050e18a7934d","study_id":"60edd13110225f80f9f3709b","session_id":"6196bf641a291376774d3e4a","condition":"contingent","relevant_dimensions":["antennae","legs"],"bee_group":{"antennae":"B","wings":"X","pattern":"X","legs":"M"},"bonus":1.6800000000000013},{"rt":915.7999999821186,"stimulus":"bees-with-color/bee-B2SF.svg","response":0,"trial_type":"image-button-response","trial_index":149,"time_elapsed":1132867,"internal_node_id":"0.0-6.0-0.13","subject_id":"6041499ba066050e18a7934d","study_id":"60edd13110225f80f9f3709b","session_id":"6196bf641a291376774d3e4a","condition":"contingent","relevant_dimensions":["antennae","legs"],"bee_group":{"antennae":"B","wings":"X","pattern":"X","legs":"M"},"bonus":1.6800000000000013},{"rt":1761.9000000059605,"stimulus":"bees-with-color/bee-B1DM.svg","response":1,"trial_type":"image-button-response","trial_index":150,"time_elapsed":1134631,"internal_node_id":"0.0-6.0-0.14","subject_id":"6041499ba066050e18a7934d","study_id":"60edd13110225f80f9f3709b","session_id":"6196bf641a291376774d3e4a","condition":"contingent","relevant_dimensions":["antennae","legs"],"bee_group":{"antennae":"B","wings":"X","pattern":"X","legs":"M"},"bonus":1.6800000000000013},{"rt":1498.5999999940395,"stimulus":"bees-with-color/bee-A1SF.svg","response":0,"trial_type":"image-button-response","trial_index":151,"time_elapsed":1136131,"internal_node_id":"0.0-6.0-0.15","subject_id":"6041499ba066050e18a7934d","study_id":"60edd13110225f80f9f3709b","session_id":"6196bf641a291376774d3e4a","condition":"contingent","relevant_dimensions":["antennae","legs"],"bee_group":{"antennae":"B","wings":"X","pattern":"X","legs":"M"},"bonus":1.6800000000000013},{"rt":1058.5,"stimulus":"bees-with-color/bee-A2SM.svg","response":0,"trial_type":"image-button-response","trial_index":152,"time_elapsed":1137191,"internal_node_id":"0.0-6.0-0.16","subject_id":"6041499ba066050e18a7934d","study_id":"60edd13110225f80f9f3709b","session_id":"6196bf641a291376774d3e4a","condition":"contingent","relevant_dimensions":["antennae","legs"],"bee_group":{"antennae":"B","wings":"X","pattern":"X","legs":"M"},"bonus":1.6800000000000013},{"rt":465.7000000178814,"stimulus":"bees-with-color/bee-A2DM.svg","response":0,"trial_type":"image-button-response","trial_index":153,"time_elapsed":1137658,"internal_node_id":"0.0-6.0-0.17","subject_id":"6041499ba066050e18a7934d","study_id":"60edd13110225f80f9f3709b","session_id":"6196bf641a291376774d3e4a","condition":"contingent","relevant_dimensions":["antennae","legs"],"bee_group":{"antennae":"B","wings":"X","pattern":"X","legs":"M"},"bonus":1.6800000000000013},{"rt":670.8000000119209,"stimulus":"bees-with-color/bee-A1SF.svg","response":0,"trial_type":"image-button-response","trial_index":154,"time_elapsed":1138330,"internal_node_id":"0.0-6.0-0.18","subject_id":"6041499ba066050e18a7934d","study_id":"60edd13110225f80f9f3709b","session_id":"6196bf641a291376774d3e4a","condition":"contingent","relevant_dimensions":["antennae","legs"],"bee_group":{"antennae":"B","wings":"X","pattern":"X","legs":"M"},"bonus":1.6800000000000013},{"rt":1613.5999999940395,"stimulus":"bees-with-color/bee-B1SF.svg","response":0,"trial_type":"image-button-response","trial_index":155,"time_elapsed":1139945,"internal_node_id":"0.0-6.0-0.19","subject_id":"6041499ba066050e18a7934d","study_id":"60edd13110225f80f9f3709b","session_id":"6196bf641a291376774d3e4a","condition":"contingent","relevant_dimensions":["antennae","legs"],"bee_group":{"antennae":"B","wings":"X","pattern":"X","legs":"M"},"bonus":1.6800000000000013},{"rt":1466,"stimulus":"bees-with-color/bee-A1SM.svg","response":0,"trial_type":"image-button-response","trial_index":156,"time_elapsed":1141412,"internal_node_id":"0.0-6.0-0.20","subject_id":"6041499ba066050e18a7934d","study_id":"60edd13110225f80f9f3709b","session_id":"6196bf641a291376774d3e4a","condition":"contingent","relevant_dimensions":["antennae","legs"],"bee_group":{"antennae":"B","wings":"X","pattern":"X","legs":"M"},"bonus":1.6800000000000013},{"rt":1358.699999988079,"stimulus":"bees-with-color/bee-B2SF.svg","response":0,"trial_type":"image-button-response","trial_index":157,"time_elapsed":1142772,"internal_node_id":"0.0-6.0-0.21","subject_id":"6041499ba066050e18a7934d","study_id":"60edd13110225f80f9f3709b","session_id":"6196bf641a291376774d3e4a","condition":"contingent","relevant_dimensions":["antennae","legs"],"bee_group":{"antennae":"B","wings":"X","pattern":"X","legs":"M"},"bonus":1.6800000000000013},{"rt":1024.6000000238419,"stimulus":"bees-with-color/bee-B1SM.svg","response":1,"trial_type":"image-button-response","trial_index":158,"time_elapsed":1143798,"internal_node_id":"0.0-6.0-0.22","subject_id":"6041499ba066050e18a7934d","study_id":"60edd13110225f80f9f3709b","session_id":"6196bf641a291376774d3e4a","condition":"contingent","relevant_dimensions":["antennae","legs"],"bee_group":{"antennae":"B","wings":"X","pattern":"X","legs":"M"},"bonus":1.6800000000000013},{"rt":929.4000000059605,"stimulus":"bees-with-color/bee-B1DM.svg","response":1,"trial_type":"image-button-response","trial_index":159,"time_elapsed":1144729,"internal_node_id":"0.0-6.0-0.23","subject_id":"6041499ba066050e18a7934d","study_id":"60edd13110225f80f9f3709b","session_id":"6196bf641a291376774d3e4a","condition":"contingent","relevant_dimensions":["antennae","legs"],"bee_group":{"antennae":"B","wings":"X","pattern":"X","legs":"M"},"bonus":1.6800000000000013},{"rt":7765.199999988079,"stimulus":"bees-with-color/bee-A2SF.svg","response":0,"trial_type":"image-button-response","trial_index":160,"time_elapsed":1152495,"internal_node_id":"0.0-6.0-0.24","subject_id":"6041499ba066050e18a7934d","study_id":"60edd13110225f80f9f3709b","session_id":"6196bf641a291376774d3e4a","condition":"contingent","relevant_dimensions":["antennae","legs"],"bee_group":{"antennae":"B","wings":"X","pattern":"X","legs":"M"},"bonus":1.6800000000000013},{"rt":494,"stimulus":"bees-with-color/bee-A1DF.svg","response":0,"trial_type":"image-button-response","trial_index":161,"time_elapsed":1152991,"internal_node_id":"0.0-6.0-0.25","subject_id":"6041499ba