[{"success":true,"trial_type":"fullscreen","trial_index":0,"time_elapsed":24005,"internal_node_id":"0.0-0.0","subject_id":"5baf6705848bbd0001d6fc8a","study_id":"60edd13110225f80f9f3709b","session_id":"6196c708ad07d1ac97e675fa","condition":"full-information","relevant_dimensions":["wings","pattern"],"bee_group":{"antennae":"X","wings":"1","pattern":"S","legs":"X"},"bonus":0.980000000000001},{"success":true,"timeout":false,"failed_images":[],"failed_audio":[],"failed_video":[],"trial_type":"preload","trial_index":1,"time_elapsed":26636,"internal_node_id":"0.0-1.0","subject_id":"5baf6705848bbd0001d6fc8a","study_id":"60edd13110225f80f9f3709b","session_id":"6196c708ad07d1ac97e675fa","condition":"full-information","relevant_dimensions":["wings","pattern"],"bee_group":{"antennae":"X","wings":"1","pattern":"S","legs":"X"},"bonus":0.980000000000001},{"rt":3027.9000000059605,"stimulus":"Welcome! Press any key to begin.","response":" ","trial_type":"html-keyboard-response","trial_index":2,"time_elapsed":29667,"internal_node_id":"0.0-2.0","subject_id":"5baf6705848bbd0001d6fc8a","study_id":"60edd13110225f80f9f3709b","session_id":"6196c708ad07d1ac97e675fa","condition":"full-information","relevant_dimensions":["wings","pattern"],"bee_group":{"antennae":"X","wings":"1","pattern":"S","legs":"X"},"bonus":0.980000000000001},{"view_history":[{"page_index":0,"viewing_time":136729.80000001192},{"page_index":1,"viewing_time":27308.5},{"page_index":2,"viewing_time":13443.89999999106},{"page_index":3,"viewing_time":19487.20000000298},{"page_index":4,"viewing_time":12734.29999999702},{"page_index":5,"viewing_time":23220.20000000298},{"page_index":6,"viewing_time":27509.90000000596},{"page_index":7,"viewing_time":17395.09999999404},{"page_index":8,"viewing_time":8456.20000000298},{"page_index":9,"viewing_time":6090.70000000298},{"page_index":10,"viewing_time":6788.79999999702},{"page_index":11,"viewing_time":11343.09999999404},{"page_index":12,"viewing_time":17425.5},{"page_index":13,"viewing_time":41308.29999999702},{"page_index":14,"viewing_time":3327}],"rt":372572,"trial_type":"instructions","trial_index":3,"time_elapsed":402242,"internal_node_id":"0.0-3.0-0.0","subject_id":"5baf6705848bbd0001d6fc8a","study_id":"60edd13110225f80f9f3709b","session_id":"6196c708ad07d1ac97e675fa","condition":"full-information","relevant_dimensions":["wings","pattern"],"bee_group":{"antennae":"X","wings":"1","pattern":"S","legs":"X"},"bonus":0.980000000000001},{"rt":91466.20000000298,"response":{"Q0":["Two or six legs","Stripes or spots on body","Single or double wings","Antennae or no antennae"]},"question_order":[0],"trial_type":"survey-multi-select","trial_index":4,"time_elapsed":493755,"internal_node_id":"0.0-3.0-1.0","subject_id":"5baf6705848bbd0001d6fc8a","study_id":"60edd13110225f80f9f3709b","session_id":"6196c708ad07d1ac97e675fa","condition":"full-information","relevant_dimensions":["wings","pattern"],"bee_group":{"antennae":"X","wings":"1","pattern":"S","legs":"X"},"correct":true,"bonus":0.980000000000001},{"rt":94914.29999999702,"response":{"Q1":"No.","Q2":"Based on the four features of the bee.","Q3":"You learn if it was friendly or dangerous, but do not alter your bonus."},"question_order":[0,1,2],"trial_type":"survey-multi-choice","trial_index":5,"time_elapsed":588677,"internal_node_id":"0.0-3.0-2.0","subject_id":"5baf6705848bbd0001d6fc8a","study_id":"60edd13110225f80f9f3709b","session_id":"6196c708ad07d1ac97e675fa","condition":"full-information","relevant_dimensions":["wings","pattern"],"bee_group":{"antennae":"X","wings":"1","pattern":"S","legs":"X"},"correct":true,"bonus":0.980000000000001},{"rt":14077.40000000596,"stimulus":"<p>Congrats, you got everything right<br>When you're ready, click the button below to continue to the experiment.</p>","response":0,"trial_type":"html-button-response","trial_index":6,"time_elapsed":602762,"internal_node_id":"0.0-3.0-3.0","subject_id":"5baf6705848bbd0001d6fc8a","study_id":"60edd13110225f80f9f3709b","session_id":"6196c708ad07d1ac97e675fa","condition":"full-information","relevant_dimensions":["wings","pattern"],"bee_group":{"antennae":"X","wings":"1","pattern":"S","legs":"X"},"bonus":0.980000000000001},{"rt":49819,"stimulus":"bees-with-color/bee-B1DF.svg","response":1,"trial_type":"image-button-response","trial_index":7,"time_elapsed":652588,"internal_node_id":"0.0-4.0-0.0","subject_id":"5baf6705848bbd0001d6fc8a","study_id":"60edd13110225f80f9f3709b","session_id":"6196c708ad07d1ac97e675fa","condition":"full-information","relevant_dimensions":["wings","pattern"],"bee_group":{"antennae":"X","wings":"1","pattern":"S","legs":"X"},"action":"avoid","summary":"bad-avoid","bonus":0.980000000000001},{"rt":28902,"stimulus":"\n                    <p><b>Action: <em>avoid</em></b></p>\n                    <p>This is the bee that you just saw.</p>\n                    <img src=\"bees-with-color/bee-B1DF.svg\" width=\"200\">\n                    <p><span class=\"redText\">Bad choice,</span> the bee was friendly.<br>Your bonus pay is unchanged, and remains at $0.54.</p>\n            ","response":0,"trial_type":"html-button-response","trial_index":8,"time_elapsed":681504,"internal_node_id":"0.0-4.0-1.0","subject_id":"5baf6705848bbd0001d6fc8a","study_id":"60edd13110225f80f9f3709b","session_id":"6196c708ad07d1ac97e675fa","condition":"full-information","relevant_dimensions":["wings","pattern"],"bee_group":{"antennae":"X","wings":"1","pattern":"S","legs":"X"},"bonus":0.980000000000001},{"rt":24366.20000000298,"stimulus":"bees-with-color/bee-A1SF.svg","response":1,"trial_type":"image-button-response","trial_index":9,"time_elapsed":705879,"internal_node_id":"0.0-4.0-0.1","subject_id":"5baf6705848bbd0001d6fc8a","study_id":"60edd13110225f80f9f3709b","session_id":"6196c708ad07d1ac97e675fa","condition":"full-information","relevant_dimensions":["wings","pattern"],"bee_group":{"antennae":"X","wings":"1","pattern":"S","legs":"X"},"action":"avoid","summary":"good-avoid","bonus":0.980000000000001},{"rt":9655,"stimulus":"\n                    <p><b>Action: <em>avoid</em></b></p>\n                    <p>This is the bee that you just saw.</p>\n                    <img src=\"bees-with-color/bee-A1SF.svg\" width=\"200\">\n                    <p><span class=\"greenText\">Good choice!</span>  This bee would have stung you.<br>Your bonus pay is unchanged, and remains at $0.54.</p>\n            ","response":0,"trial_type":"html-button-response","trial_index":10,"time_elapsed":715544,"internal_node_id":"0.0-4.0-1.1","subject_id":"5baf6705848bbd0001d6fc8a","study_id":"60edd13110225f80f9f3709b","session_id":"6196c708ad07d1ac97e675fa","condition":"full-information","relevant_dimensions":["wings","pattern"],"bee_group":{"antennae":"X","wings":"1","pattern":"S","legs":"X"},"bonus":0.980000000000001},{"rt":28583.90000000596,"stimulus":"bees-with-color/bee-A2SF.svg","response":1,"trial_type":"image-button-response","trial_index":11,"time_elapsed":744139,"internal_node_id":"0.0-4.0-0.2","subject_id":"5baf6705848bbd0001d6fc8a","study_id":"60edd13110225f80f9f3709b","session_id":"6196c708ad07d1ac97e675fa","condition":"full-information","relevant_dimensions":["wings","pattern"],"bee_group":{"antennae":"X","wings":"1","pattern":"S","legs":"X"},"action":"avoid","summary":"bad-avoid","bonus":0.980000000000001},{"rt":9525.90000000596,"stimulus":"\n                    <p><b>Action: <em>avoid</em></b></p>\n                    <p>This is the bee that you just saw.</p>\n                    <img src=\"bees-with-color/bee-A2SF.svg\" width=\"200\">\n                    <p><span class=\"redText\">Bad choice,</span> the bee was friendly.<br>Your bonus pay is unchanged, and remains at $0.54.</p>\n            ","response":0,"trial_type":"html-button-response","trial_index":12,"time_elapsed":753673,"internal_node_id":"0.0-4.0-1.2","subject_id":"5baf6705848bbd0001d6fc8a","study_id":"60edd13110225f80f9f3709b","session_id":"6196c708ad07d1ac97e675fa","condition":"full-information","relevant_dimensions":["wings","pattern"],"bee_group":{"antennae":"X","wings":"1","pattern":"S","legs":"X"},"bonus":0.980000000000001},{"rt":31101.20000000298,"stimulus":"bees-with-color/bee-A2DM.svg","response":1,"trial_type":"image-button-response","trial_index":13,"time_elapsed":784782,"internal_node_id":"0.0-4.0-0.3","subject_id":"5baf6705848bbd0001d6fc8a","study_id":"60edd13110225f80f9f3709b","session_id":"6196c708ad07d1ac97e675fa","condition":"full-information","relevant_dimensions":["wings","pattern"],"bee_group":{"antennae":"X","wings":"1","pattern":"S","legs":"X"},"action":"avoid","summary":"bad-avoid","bonus":0.980000000000001},{"rt":8105.5999999940395,"stimulus":"\n                    <p><b>Action: <em>avoid</em></b></p>\n                    <p>This is the bee that you just saw.</p>\n                    <img src=\"bees-with-color/bee-A2DM.svg\" width=\"200\">\n                    <p><span class=\"redText\">Bad choice,</span> the bee was friendly.<br>Your bonus pay is unchanged, and remains at $0.54.</p>\n            ","response":0,"trial_type":"html-button-response","trial_index":14,"time_elapsed":792896,"internal_node_id":"0.0-4.0-1.3","subject_id":"5baf6705848bbd0001d6fc8a","study_id":"60edd13110225f80f9f3709b","session_id":"6196c708ad07d1ac97e675fa","condition":"full-information","relevant_dimensions":["wings","pattern"],"bee_group":{"antennae":"X","wings":"1","pattern":"S","legs":"X"},"bonus":0.980000000000001},{"rt":39856.5,"stimulus":"bees-with-color/bee-B2DM.svg","response":1,"trial_type":"image-button-response","trial_index":15,"time_elapsed":832762,"internal_node_id":"0.0-4.0-0.4","subject_id":"5baf6705848bbd0001d6fc8a","study_id":"60edd13110225f80f9f3709b","session_id":"6196c708ad07d1ac97e675fa","condition":"full-information","relevant_dimensions":["wings","pattern"],"bee_group":{"antennae":"X","wings":"1","pattern":"S","legs":"X"},"action":"avoid","summary":"bad-avoid","bonus":0.980000000000001},{"rt":8394.70000000298,"stimulus":"\n                    <p><b>Action: <em>avoid</em></b></p>\n                    <p>This is the bee that you just saw.</p>\n                    <img src=\"bees-with-color/bee-B2DM.svg\" width=\"200\">\n                    <p><span class=\"redText\">Bad choice,</span> the bee was friendly.<br>Your bonus pay is unchanged, and remains at $0.54.</p>\n            ","response":0,"trial_type":"html-button-response","trial_index":16,"time_elapsed":841163,"internal_node_id":"0.0-4.0-1.4","subject_id":"5baf6705848bbd0001d6fc8a","study_id":"60edd13110225f80f9f3709b","session_id":"6196c708ad07d1ac97e675fa","condition":"full-information","relevant_dimensions":["wings","pattern"],"bee_group":{"antennae":"X","wings":"1","pattern":"S","legs":"X"},"bonus":0.980000000000001},{"rt":10694.699999988079,"stimulus":"bees-with-color/bee-A1DM.svg","response":1,"trial_type":"image-button-response","trial_index":17,"time_elapsed":851867,"internal_node_id":"0.0-4.0-0.5","subject_id":"5baf6705848bbd0001d6fc8a","study_id":"60edd13110225f80f9f3709b","session_id":"6196c708ad07d1ac97e675fa","condition":"full-information","relevant_dimensions":["wings","pattern"],"bee_group":{"antennae":"X","wings":"1","pattern":"S","legs":"X"},"action":"avoid","summary":"bad-avoid","bonus":0.980000000000001},{"rt":2490.2999999970198,"stimulus":"\n                    <p><b>Action: <em>avoid</em></b></p>\n                    <p>This is the bee that you just saw.</p>\n                    <img src=\"bees-with-color/bee-A1DM.svg\" width=\"200\">\n                    <p><span class=\"redText\">Bad choice,</span> the bee was friendly.<br>Your bonus pay is unchanged, and remains at $0.54.</p>\n            ","response":0,"trial_type":"html-button-response","trial_index":18,"time_elapsed":854365,"internal_node_id":"0.0-4.0-1.5","subject_id":"5baf6705848bbd0001d6fc8a","study_id":"60edd13110225f80f9f3709b","session_id":"6196c708ad07d1ac97e675fa","condition":"full-information","relevant_dimensions":["wings","pattern"],"bee_group":{"antennae":"X","wings":"1","pattern":"S","legs":"X"},"bonus":0.980000000000001},{"rt":7668.9000000059605,"stimulus":"bees-with-color/bee-B1SM.svg","response":0,"trial_type":"image-button-response","trial_index":19,"time_elapsed":862043,"internal_node_id":"0.0-4.0-0.6","subject_id":"5baf6705848bbd0001d6fc8a","study_id":"60edd13110225f80f9f3709b","session_id":"6196c708ad07d1ac97e675fa","condition":"full-information","relevant_dimensions":["wings","pattern"],"bee_group":{"antennae":"X","wings":"1","pattern":"S","legs":"X"},"action":"harvest","summary":"bad-harvest","bonus":0.980000000000001},{"rt":17196.29999999702,"stimulus":"\n                    <p><b>Action: <em>harvest</em></b></p>\n                    <p>This is the bee that you just saw.</p>\n                    <img src=\"bees-with-color/bee-B1SM.svg\" width=\"200\">\n                    <p><span class=\"redText\">Bad choice, the bee was angry.</span><br><b>You have been stung!</b><br>Your pay has been decreased by $0.10. Your bonus pay is now $0.44.</p>\n            ","response":0,"trial_type":"html-button-response","trial_index":20,"time_elapsed":879244,"internal_node_id":"0.0-4.0-1.6","subject_id":"5baf6705848bbd0001d6fc8a","study_id":"60edd13110225f80f9f3709b","session_id":"6196c708ad07d1ac97e675fa","condition":"full-information","relevant_dimensions":["wings","pattern"],"bee_group":{"antennae":"X","wings":"1","pattern":"S","legs":"X"},"bonus":0.980000000000001},{"rt":9708.40000000596,"stimulus":"bees-with-color/bee-A2DF.svg","response":1,"trial_type":"image-button-response","trial_index":21,"time_elapsed":888962,"internal_node_id":"0.0-4.0-0.7","subject_id":"5baf6705848bbd0001d6fc8a","study_id":"60edd13110225f80f9f3709b","session_id":"6196c708ad07d1ac97e675fa","condition":"full-information","relevant_dimensions":["wings","pattern"],"bee_group":{"antennae":"X","wings":"1","pattern":"S","legs":"X"},"action":"avoid","summary":"bad-avoid","bonus":0.980000000000001},{"rt":2491.7999999970198,"stimulus":"\n                    <p><b>Action: <em>avoid</em></b></p>\n                    <p>This is the bee that you just saw.</p>\n                    <img src=\"bees-with-color/bee-A2DF.svg\" width=\"200\">\n                    <p><span class=\"redText\">Bad choice,</span> the bee was friendly.<br>Your bonus pay is unchanged, and remains at $0.44.</p>\n            ","response":0,"trial_type":"html-button-response","trial_index":22,"time_elapsed":891460,"internal_node_id":"0.0-4.0-1.7","subject_id":"5baf6705848bbd0001d6fc8a","study_id":"60edd13110225f80f9f3709b","session_id":"6196c708ad07d1ac97e675fa","condition":"full-information","relevant_dimensions":["wings","pattern"],"bee_group":{"antennae":"X","wings":"1","pattern":"S","legs":"X"},"bonus":0.980000000000001},{"rt":8041.399999991059,"stimulus":"bees-with-color/bee-B2DF.svg","response":1,"trial_type":"image-button-response","trial_index":23,"time_elapsed":899510,"internal_node_id":"0.0-4.0-0.8","subject_id":"5baf6705848bbd0001d6fc8a","study_id":"60edd13110225f80f9f3709b","session_id":"6196c708ad07d1ac97e675fa","condition":"full-information","relevant_dimensions":["wings","pattern"],"bee_group":{"antennae":"X","wings":"1","pattern":"S","legs":"X"},"action":"avoid","summary":"bad-avoid","bonus":0.980000000000001},{"rt":2028.8999999910593,"stimulus":"\n                    <p><b>Action: <em>avoid</em></b></p>\n                    <p>This is the bee that you just saw.</p>\n                    <img src=\"bees-with-color/bee-B2DF.svg\" width=\"200\">\n                    <p><span class=\"redText\">Bad choice,</span> the bee was friendly.<br>Your bonus pay is unchanged, and remains at $0.44.</p>\n            ","response":0,"trial_type":"html-button-response","trial_index":24,"time_elapsed":901543,"internal_node_id":"0.0-4.0-1.8","subject_id":"5baf6705848bbd0001d6fc8a","study_id":"60edd13110225f80f9f3709b","session_id":"6196c708ad07d1ac97e675fa","condition":"full-information","relevant_dimensions":["wings","pattern"],"bee_group":{"antennae":"X","wings":"1","pattern":"S","legs":"X"},"bonus":0.980000000000001},{"rt":17125.5,"stimulus":"bees-with-color/bee-B2SM.svg","response":1,"trial_type":"image-button-response","trial_index":25,"time_elapsed":918675,"internal_node_id":"0.0-4.0-0.9","subject_id":"5baf6705848bbd0001d6fc8a","study_id":"60edd13110225f80f9f3709b","session_id":"6196c708ad07d1ac97e675fa","condition":"full-information","relevant_dimensions":["wings","pattern"],"bee_group":{"antennae":"X","wings":"1","pattern":"S","legs":"X"},"action":"avoid","summary":"bad-avoid","bonus":0.980000000000001},{"rt":1639.8999999910593,"stimulus":"\n                    <p><b>Action: <em>avoid</em></b></p>\n                    <p>This is the bee that you just saw.</p>\n                    <img src=\"bees-with-color/bee-B2SM.svg\" width=\"200\">\n                    <p><span class=\"redText\">Bad choice,</span> the bee was friendly.<br>Your bonus pay is unchanged, and remains at $0.44.</p>\n            ","response":0,"trial_type":"html-button-response","trial_index":26,"time_elapsed":920324,"internal_node_id":"0.0-4.0-1.9","subject_id":"5baf6705848bbd0001d6fc8a","study_id":"60edd13110225f80f9f3709b","session_id":"6196c708ad07d1ac97e675fa","condition":"full-information","relevant_dimensions":["wings","pattern"],"bee_group":{"antennae":"X","wings":"1","pattern":"S","legs":"X"},"bonus":0.980000000000001},{"rt":12959.5,"stimulus":"bees-with-color/bee-A2SM.svg","response":1,"trial_type":"image-button-response","trial_index":27,"time_elapsed":933290,"internal_node_id":"0.0-4.0-0.10","subject_id":"5baf6705848bbd0001d6fc8a","study_id":"60edd13110225f80f9f3709b","session_id":"6196c708ad07d1ac97e675fa","condition":"full-information","relevant_dimensions":["wings","pattern"],"bee_group":{"antennae":"X","wings":"1","pattern":"S","legs":"X"},"action":"avoid","summary":"bad-avoid","bonus":0.980000000000001},{"rt":1639.199999988079,"stimulus":"\n                    <p><b>Action: <em>avoid</em></b></p>\n                    <p>This is the bee that you just saw.</p>\n                    <img src=\"bees-with-color/bee-A2SM.svg\" width=\"200\">\n                    <p><span class=\"redText\">Bad choice,</span> the bee was friendly.<br>Your bonus pay is unchanged, and remains at $0.44.</p>\n            ","response":0,"trial_type":"html-button-response","trial_index":28,"time_elapsed":934935,"internal_node_id":"0.0-4.0-1.10","subject_id":"5baf6705848bbd0001d6fc8a","study_id":"60edd13110225f80f9f3709b","session_id":"6196c708ad07d1ac97e675fa","condition":"full-information","relevant_dimensions":["wings","pattern"],"bee_group":{"antennae":"X","wings":"1","pattern":"S","legs":"X"},"bonus":0.980000000000001},{"rt":8367.70000000298,"stimulus":"bees-with-color/bee-B2SF.svg","response":1,"trial_type":"image-button-response","trial_index":29,"time_elapsed":943308,"internal_node_id":"0.0-4.0-0.11","subject_id":"5baf6705848bbd0001d6fc8a","study_id":"60edd13110225f80f9f3709b","session_id":"6196c708ad07d1ac97e675fa","condition":"full-information","relevant_dimensions":["wings","pattern"],"bee_group":{"antennae":"X","wings":"1","pattern":"S","legs":"X"},"action":"avoid","summary":"bad-avoid","bonus":0.980000000000001},{"rt":2141.3999999910593,"stimulus":"\n                    <p><b>Action: <em>avoid</em></b></p>\n                    <p>This is the bee that you just saw.</p>\n                    <img src=\"bees-with-color/bee-B2SF.svg\" width=\"200\">\n                    <p><span class=\"redText\">Bad choice,</span> the bee was friendly.<br>Your bonus pay is unchanged, and remains at $0.44.</p>\n            ","response":0,"trial_type":"html-button-response","trial_index":30,"time_elapsed":945455,"internal_node_id":"0.0-4.0-1.11","subject_id":"5baf6705848bbd0001d6fc8a","study_id":"60edd13110225f80f9f3709b","session_id":"6196c708ad07d1ac97e675fa","condition":"full-information","relevant_dimensions":["wings","pattern"],"bee_group":{"antennae":"X","wings":"1","pattern":"S","legs":"X"},"bonus":0.980000000000001},{"rt":2773.1000000089407,"stimulus":"bees-with-color/bee-A1SM.svg","response":1,"trial_type":"image-button-response","trial_index":31,"time_elapsed":948234,"internal_node_id":"0.0-4.0-0.12","subject_id":"5baf6705848bbd0001d6fc8a","study_id":"60edd13110225f80f9f3709b","session_id":"6196c708ad07d1ac97e675fa","condition":"full-information","relevant_dimensions":["wings","pattern"],"bee_group":{"antennae":"X","wings":"1","pattern":"S","legs":"X"},"action":"avoid","summary":"good-avoid","bonus":0.980000000000001},{"rt":4257.9000000059605,"stimulus":"\n                    <p><b>Action: <em>avoid</em></b></p>\n                    <p>This is the bee that you just saw.</p>\n                    <img src=\"bees-with-color/bee-A1SM.svg\" width=\"200\">\n                    <p><span class=\"greenText\">Good choice!</span>  This bee would have stung you.<br>Your bonus pay is unchanged, and remains at $0.44.</p>\n            ","response":0,"trial_type":"html-button-response","trial_index":32,"time_elapsed":952497,"internal_node_id":"0.0-4.0-1.12","subject_id":"5baf6705848bbd0001d6fc8a","study_id":"60edd13110225f80f9f3709b","session_id":"6196c708ad07d1ac97e675fa","condition":"full-information","relevant_dimensions":["wings","pattern"],"bee_group":{"antennae":"X","wings":"1","pattern":"S","legs":"X"},"bonus":0.980000000000001},{"rt":15013.89999999106,"stimulus":"bees-with-color/bee-A1DF.svg","response":1,"trial_type":"image-button-response","trial_index":33,"time_elapsed":967518,"internal_node_id":"0.0-4.0-0.13","subject_id":"5baf6705848bbd0001d6fc8a","study_id":"60edd13110225f80f9f3709b","session_id":"6196c708ad07d1ac97e675fa","condition":"full-information","relevant_dimensions":["wings","pattern"],"bee_group":{"antennae":"X","wings":"1","pattern":"S","legs":"X"},"action":"avoid","summary":"bad-avoid","bonus":0.980000000000001},{"rt":1926.7999999970198,"stimulus":"\n                    <p><b>Action: <em>avoid</em></b></p>\n                    <p>This is the bee that you just saw.</p>\n                    <img src=\"bees-with-color/bee-A1DF.svg\" width=\"200\">\n                    <p><span class=\"redText\">Bad choice,</span> the bee was friendly.<br>Your bonus pay is unchanged, and remains at $0.44.</p>\n            ","response":0,"trial_type":"html-button-response","trial_index":34,"time_elapsed":969452,"internal_node_id":"0.0-4.0-1.13","subject_id":"5baf6705848bbd0001d6fc8a","study_id":"60edd13110225f80f9f3709b","session_id":"6196c708ad07d1ac97e675fa","condition":"full-information","relevant_dimensions":["wings","pattern"],"bee_group":{"antennae":"X","wings":"1","pattern":"S","legs":"X"},"bonus":0.980000000000001},{"rt":9042.79999999702,"stimulus":"bees-with-color/bee-B1DM.svg","response":0,"trial_type":"image-button-response","trial_index":35,"time_elapsed":978502,"internal_node_id":"0.0-4.0-0.14","subject_id":"5baf6705848bbd0001d6fc8a","study_id":"60edd13110225f80f9f3709b","session_id":"6196c708ad07d1ac97e675fa","condition":"full-information","relevant_dimensions":["wings","pattern"],"bee_group":{"antennae":"X","wings":"1","pattern":"S","legs":"X"},"action":"harvest","summary":"good-harvest","bonus":0.980000000000001},{"rt":2131.8999999910593,"stimulus":"\n                    <p><b>Action: <em>harvest</em></b></p>\n                    <p>This is the bee that you just saw.</p>\n                    <img src=\"bees-with-color/bee-B1DM.svg\" width=\"200\">\n                    <p><span class=\"greenText\"><b>Successful harvest!</b></span><br>Your pay has increased by $0.02. Your bonus pay is now $0.46.</p>\n            ","response":0,"trial_type":"html-button-response","trial_index":36,"time_elapsed":980641,"internal_node_id":"0.0-4.0-1.14","subject_id":"5baf6705848bbd0001d6fc8a","study_id":"60edd13110225f80f9f3709b","session_id":"6196c708ad07d1ac97e675fa","condition":"full-information","relevant_dimensions":["wings","pattern"],"bee_group":{"antennae":"X","wings":"1","pattern":"S","legs":"X"},"bonus":0.980000000000001},{"rt":5731.9000000059605,"stimulus":"bees-with-color/bee-B1SF.svg","response":0,"trial_type":"image-button-response","trial_index":37,"time_elapsed":986378,"internal_node_id":"0.0-4.0-0.15","subject_id":"5baf6705848bbd0001d6fc8a","study_id":"60edd13110225f80f9f3709b","session_id":"6196c708ad07d1ac97e675fa","condition":"full-information","relevant_dimensions":["wings","pattern"],"bee_group":{"antennae":"X","wings":"1","pattern":"S","legs":"X"},"action":"harvest","summary":"bad-harvest","bonus":0.980000000000001},{"rt":2274,"stimulus":"\n                    <p><b>Action: <em>harvest</em></b></p>\n                    <p>This is the bee that you just saw.</p>\n                    <img src=\"bees-with-color/bee-B1SF.svg\" width=\"200\">\n                    <p><span class=\"redText\">Bad choice, the bee was angry.</span><br><b>You have been stung!</b><br>Your pay has been decreased by $0.10. Your bonus pay is now $0.36.</p>\n            ","response":0,"trial_type":"html-button-response","trial_index":38,"time_elapsed":988659,"internal_node_id":"0.0-4.0-1.15","subject_id":"5baf6705848bbd0001d6fc8a","study_id":"60edd13110225f80f9f3709b","session_id":"6196c708ad07d1ac97e675fa","condition":"full-information","relevant_dimensions":["wings","pattern"],"bee_group":{"antennae":"X","wings":"1","pattern":"S","legs":"X"},"bonus":0.980000000000001},{"rt":1443.2999999970198,"stimulus":"bees-with-color/bee-B1DF.svg","response":0,"trial_type":"image-button-response","trial_index":39,"time_elapsed":990109,"internal_node_id":"0.0-4.0-0.16","subject_id":"5baf6705848bbd0001d6fc8a","study_id":"60edd13110225f80f9f3709b","session_id":"6196c708ad07d1ac97e675fa","condition":"full-information","relevant_dimensions":["wings","pattern"],"bee_group":{"antennae":"X","wings":"1","pattern":"S","legs":"X"},"action":"harvest","summary":"good-harvest","bonus":0.980000000000001},{"rt":1663.7999999970198,"stimulus":"\n                    <p><b>Action: <em>harvest</em></b></p>\n                    <p>This is the bee that you just saw.</p>\n                    <img src=\"bees-with-color/bee-B1DF.svg\" width=\"200\">\n                    <p><span class=\"greenText\"><b>Successful harvest!</b></span><br>Your pay has increased by $0.02. Your bonus pay is now $0.38.</p>\n            ","response":0,"trial_type":"html-button-response","trial_index":40,"time_elapsed":991779,"internal_node_id":"0.0-4.0-1.16","subject_id":"5baf6705848bbd0001d6fc8a","study_id":"60edd13110225f80f9f3709b","session_id":"6196c708ad07d1ac97e675fa","condition":"full-information","relevant_dimensions":["wings","pattern"],"bee_group":{"antennae":"X","wings":"1","pattern":"S","legs":"X"},"bonus":0.980000000000001},{"rt":4808.5,"stimulus":"bees-with-color/bee-A2DM.svg","response":0,"trial_type":"image-button-response","trial_index":41,"time_elapsed":996593,"internal_node_id":"0.0-4.0-0.17","subject_id":"5baf6705848bbd0001d6fc8a","study_id":"60edd13110225f80f9f3709b","session_id":"6196c708ad07d1ac97e675fa","condition":"full-information","relevant_dimensions":["wings","pattern"],"bee_group":{"antennae":"X","wings":"1","pattern":"S","legs":"X"},"action":"harvest","summary":"good-harvest","bonus":0.980000000000001},{"rt":1569.4000000059605,"stimulus":"\n                    <p><b>Action: <em>harvest</em></b></p>\n                    <p>This is the bee that you just saw.</p>\n                    <img src=\"bees-with-color/bee-A2DM.svg\" width=\"200\">\n                    <p><span class=\"greenText\"><b>Successful harvest!</b></span><br>Your pay has increased by $0.02. Your bonus pay is now $0.40.</p>\n            ","response":0,"trial_type":"html-button-response","trial_index":42,"time_elapsed":998168,"internal_node_id":"0.0-4.0-1.17","subject_id":"5baf6705848bbd0001d6fc8a","study_id":"60edd13110225f80f9f3709b","session_id":"6196c708ad07d1ac97e675fa","condition":"full-information","relevant_dimensions":["wings","pattern"],"bee_group":{"antennae":"X","wings":"1","pattern":"S","legs":"X"},"bonus":0.980000000000001},{"rt":2603,"stimulus":"bees-with-color/bee-A1SM.svg","response":0,"trial_type":"image-button-response","trial_index":43,"time_elapsed":1000780,"internal_node_id":"0.0-4.0-0.18","subject_id":"5baf6705848bbd0001d6fc8a","study_id":"60edd13110225f80f9f3709b","session_id":"6196c708ad07d1ac97e675fa","condition":"full-information","relevant_dimensions":["wings","pattern"],"bee_group":{"antennae":"X","wings":"1","pattern":"S","legs":"X"},"action":"harvest","summary":"bad-harvest","bonus":0.980000000000001},{"rt":2030.2999999970198,"stimulus":"\n                    <p><b>Action: <em>harvest</em></b></p>\n                    <p>This is the bee that you just saw.</p>\n                    <img src=\"bees-with-color/bee-A1SM.svg\" width=\"200\">\n                    <p><span class=\"redText\">Bad choice, the bee was angry.</span><br><b>You have been stung!</b><br>Your pay has been decreased by $0.10. Your bonus pay is now $0.30.</p>\n            ","response":0,"trial_type":"html-button-response","trial_index":44,"time_elapsed":1002817,"internal_node_id":"0.0-4.0-1.18","subject_id":"5baf6705848bbd0001d6fc8a","study_id":"60edd13110225f80f9f3709b","session_id":"6196c708ad07d1ac97e675fa","condition":"full-information","relevant_dimensions":["wings","pattern"],"bee_group":{"antennae":"X","wings":"1","pattern":"S","legs":"X"},"bonus":0.980000000000001},{"rt":3672.4000000059605,"stimulus":"bees-with-color/bee-B2SM.svg","response":0,"trial_type":"image-button-response","trial_index":45,"time_elapsed":1006496,"internal_node_id":"0.0-4.0-0.19","subject_id":"5baf6705848bbd0001d6fc8a","study_id":"60edd13110225f80f9f3709b","session_id":"6196c708ad07d1ac97e675fa","condition":"full-information","relevant_dimensions":["wings","pattern"],"bee_group":{"antennae":"X","wings":"1","pattern":"S","legs":"X"},"action":"harvest","summary":"good-harvest","bonus":0.980000000000001},{"rt":1599.9000000059605,"stimulus":"\n                    <p><b>Action: <em>harvest</em></b></p>\n                    <p>This is the bee that you just saw.</p>\n                    <img src=\"bees-with-color/bee-B2SM.svg\" width=\"200\">\n                    <p><span class=\"greenText\"><b>Successful harvest!</b></span><br>Your pay has increased by $0.02. Your bonus pay is now $0.32.</p>\n            ","response":0,"trial_type":"html-button-response","trial_index":46,"time_elapsed":1008102,"internal_node_id":"0.0-4.0-1.19","subject_id":"5baf6705848bbd0001d6fc8a","study_id":"60edd13110225f80f9f3709b","session_id":"6196c708ad07d1ac97e675fa","condition":"full-information","relevant_dimensions":["wings","pattern"],"bee_group":{"antennae":"X","wings":"1","pattern":"S","legs":"X"},"bonus":0.980000000000001},{"rt":3746.7000000029802,"stimulus":"bees-with-color/bee-B1SF.svg","response":0,"trial_type":"image-button-response","trial_index":47,"time_elapsed":1011856,"internal_node_id":"0.0-4.0-0.20","subject_id":"5baf6705848bbd0001d6fc8a","study_id":"60edd13110225f80f9f3709b","session_id":"6196c708ad07d1ac97e675fa","condition":"full-information","relevant_dimensions":["wings","pattern"],"bee_group":{"antennae":"X","wings":"1","pattern":"S","legs":"X"},"action":"harvest","summary":"bad-harvest","bonus":0.980000000000001},{"rt":32676.59999999404,"stimulus":"\n                    <p><b>Action: <em>harvest</em></b></p>\n                    <p>This is the bee that you just saw.</p>\n                    <img src=\"bees-with-color/bee-B1SF.svg\" width=\"200\">\n                    <p><span class=\"redText\">Bad choice, the bee was angry.</span><br><b>You have been stung!</b><br>Your pay has been decreased by $0.10. Your bonus pay is now $0.22.</p>\n            ","response":0,"trial_type":"html-button-response","trial_index":48,"time_elapsed":1044539,"internal_node_id":"0.0-4.0-1.20","subject_id":"5baf6705848bbd0001d6fc8a","study_id":"60edd13110225f80f9f3709b","session_id":"6196c708ad07d1ac97e675fa","condition":"full-information","relevant_dimensions":["wings","pattern"],"bee_group":{"antennae":"X","wings":"1","pattern":"S","legs":"X"},"bonus":0.980000000000001},{"rt":5356,"stimulus":"bees-with-color/bee-A2SM.svg","response":0,"trial_type":"image-button-response","trial_index":49,"time_elapsed":1049901,"internal_node_id":"0.0-4.0-0.21","subject_id":"5baf6705848bbd0001d6fc8a","study_id":"60edd13110225f80f9f3709b","session_id":"6196c708ad07d1ac97e675fa","condition":"full-information","relevant_dimensions":["wings","pattern"],"bee_group":{"antennae":"X","wings":"1","pattern":"S","legs":"X"},"action":"harvest","summary":"good-harvest","bonus":0.980000000000001},{"rt":1776.699999988079,"stimulus":"\n                    <p><b>Action: <em>harvest</em></b></p>\n                    <p>This is the bee that you just saw.</p>\n                    <img src=\"bees-with-color/bee-A2SM.svg\" width=\"200\">\n                    <p><span class=\"greenText\"><b>Successful harvest!</b></span><br>Your pay has increased by $0.02. Your bonus pay is now $0.24.</p>\n            ","response":0,"trial_type":"html-button-response","trial_index":50,"time_elapsed":1051684,"internal_node_id":"0.0-4.0-1.21","subject_id":"5baf6705848bbd0001d6fc8a","study_id":"60edd13110225f80f9f3709b","session_id":"6196c708ad07d1ac97e675fa","condition":"full-information","relevant_dimensions":["wings","pattern"],"bee_group":{"antennae":"X","wings":"1","pattern":"S","legs":"X"},"bonus":0.980000000000001},{"rt":3379.0999999940395,"stimulus":"bees-with-color/bee-B2DM.svg","response":0,"trial_type":"image-button-response","trial_index":51,"time_elapsed":1055069,"internal_node_id":"0.0-4.0-0.22","subject_id":"5baf6705848bbd0001d6fc8a","study_id":"60edd13110225f80f9f3709b","session_id":"6196c708ad07d1ac97e675fa","condition":"full-information","relevant_dimensions":["wings","pattern"],"bee_group":{"antennae":"X","wings":"1","pattern":"S","legs":"X"},"action":"harvest","summary":"good-harvest","bonus":0.980000000000001},{"rt":2076.1000000089407,"stimulus":"\n                    <p><b>Action: <em>harvest</em></b></p>\n                    <p>This is the bee that you just saw.</p>\n                    <img src=\"bees-with-color/bee-B2DM.svg\" width=\"200\">\n                    <p><span class=\"greenText\"><b>Successful harvest!</b></span><br>Your pay has increased by $0.02. Your bonus pay is now $0.26.</p>\n            ","response":0,"trial_type":"html-button-response","trial_index":52,"time_elapsed":1057153,"internal_node_id":"0.0-4.0-1.22","subject_id":"5baf6705848bbd0001d6fc8a","study_id":"60edd13110225f80f9f3709b","session_id":"6196c708ad07d1ac97e675fa","condition":"full-information","relevant_dimensions":["wings","pattern"],"bee_group":{"antennae":"X","wings":"1","pattern":"S","legs":"X"},"bonus":0.980000000000001},{"rt":2321.2999999970198,"stimulus":"bees-with-color/bee-B2DF.svg","response":1,"trial_type":"image-button-response","trial_index":53,"time_elapsed":1059481,"internal_node_id":"0.0-4.0-0.23","subject_id":"5baf6705848bbd0001d6fc8a","study_id":"60edd13110225f80f9f3709b","session_id":"6196c708ad07d1ac97e675fa","condition":"full-information","relevant_dimensions":["wings","pattern"],"bee_group":{"antennae":"X","wings":"1","pattern":"S","legs":"X"},"action":"avoid","summary":"bad-avoid","bonus":0.980000000000001},{"rt":4429.5999999940395,"stimulus":"\n                    <p><b>Action: <em>avoid</em></b></p>\n                    <p>This is the bee that you just saw.</p>\n                    <img src=\"bees-with-color/bee-B2DF.svg\" width=\"200\">\n                    <p><span class=\"redText\">Bad choice,</span> the bee was friendly.<br>Your bonus pay is unchanged, and remains at $0.26.</p>\n            ","response":0,"trial_type":"html-button-response","trial_index":54,"time_elapsed":1063918,"internal_node_id":"0.0-4.0-1.23","subject_id":"5baf6705848bbd0001d6fc8a","study_id":"60edd13110225f80f9f3709b","session_id":"6196c708ad07d1ac97e675fa","condition":"full-information","relevant_dimensions":["wings","pattern"],"bee_group":{"antennae":"X","wings":"1","pattern":"S","legs":"X"},"bonus":0.980000000000001},{"rt":8447.20000000298,"stimulus":"bees-with-color/bee-A1DM.svg","response":0,"trial_type":"image-button-response","trial_index":55,"time_elapsed":1072374,"internal_node_id":"0.0-4.0-0.24","subject_id":"5baf6705848bbd0001d6fc8a","study_id":"60edd13110225f80f9f3709b","session_id":"6196c708ad07d1ac97e675fa","condition":"full-information","relevant_dimensions":["wings","pattern"],"bee_group":{"antennae":"X","wings":"1","pattern":"S","legs":"X"},"action":"harvest","summary":"good-harvest","bonus":0.980000000000001},{"rt":2048.2999999970198,"stimulus":"\n                    <p><b>Action: <em>harvest</em></b></p>\n                    <p>This is the bee that you just saw.</p>\n                    <img src=\"bees-with-color/bee-A1DM.svg\" width=\"200\">\n                    <p><span class=\"greenText\"><b>Successful harvest!</b></span><br>Your pay has increased by $0.02. Your bonus pay is now $0.28.</p>\n            ","response":0,"trial_type":"html-button-response","trial_index":56,"time_elapsed":1074427,"internal_node_id":"0.0-4.0-1.24","subject_id":"5baf6705848bbd0001d6fc8a","study_id":"60edd13110225f80f9f3709b","session_id":"6196c708ad07d1ac97e675fa","condition":"full-information","relevant_dimensions":["wings","pattern"],"bee_group":{"antennae":"X","wings":"1","pattern":"S","legs":"X"},"bonus":0.980000000000001},{"rt":9015.29999999702,"stimulus":"bees-with-color/bee-A1DF.svg","response":1,"trial_type":"image-button-response","trial_index":57,"time_elapsed":1083450,"internal_node_id":"0.0-4.0-0.25","subject_id":"5baf6705848bbd0001d6fc8a","study_id":"60edd13110225f80f9f3709b","session_id":"6196c708ad07d1ac97e675fa","condition":"full-information","relevant_dimensions":["wings","pattern"],"bee_group":{"antennae":"X","wings":"1","pattern":"S","legs":"X"},"action":"avoid","summary":"bad-avoid","bonus":0.980000000000001},{"rt":2176.2000000029802,"stimulus":"\n                    <p><b>Action: <em>avoid</em></b></p>\n                    <p>This is the bee that you just saw.</p>\n                    <img src=\"bees-with-color/bee-A1DF.svg\" width=\"200\">\n                    <p><span class=\"redText\">Bad choice,</span> the bee was friendly.<br>Your bonus pay is unchanged, and remains at $0.28.</p>\n            ","response":0,"trial_type":"html-button-response","trial_index":58,"time_elapsed":1085632,"internal_node_id":"0.0-4.0-1.25","subject_id":"5baf6705848bbd0001d6fc8a","study_id":"60edd13110225f80f9f3709b","session_id":"6196c708ad07d1ac97e675fa","condition":"full-information","relevant_dimensions":["wings","pattern"],"bee_group":{"antennae":"X","wings":"1","pattern":"S","legs":"X"},"bonus":0.980000000000001},{"rt":6440.20000000298,"stimulus":"bees-with-color/bee-A2DF.svg","response":1,"trial_type":"image-button-response","trial_index":59,"time_elapsed":1092076,"internal_node_id":"0.0-4.0-0.26","subject_id":"5baf6705848bbd0001d6fc8a","study_id":"60edd13110225f80f9f3709b","session_id":"6196c708ad07d1ac97e675fa","condition":"full-information","relevant_dimensions":["wings","pattern"],"bee_group":{"antennae":"X","wings":"1","pattern":"S","legs":"X"},"action":"avoid","summary":"bad-avoid","bonus":0.980000000000001},{"rt":1618,"stimulus":"\n                    <p><b>Action: <em>avoid</em></b></p>\n                    <p>This is the bee that you just saw.</p>\n                    <img src=\"bees-with-color/bee-A2DF.svg\" width=\"200\">\n                    <p><span class=\"redText\">Bad choice,</span> the bee was friendly.<br>Your bonus pay is unchanged, and remains at $0.28.</p>\n            ","response":0,"trial_type":"html-button-response","trial_index":60,"time_elapsed":1093699,"internal_node_id":"0.0-4.0-1.26","subject_id":"5baf6705848bbd0001d6fc8a","study_id":"60edd13110225f80f9f3709b","session_id":"6196c708ad07d1ac97e675fa","condition":"full-information","relevant_dimensions":["wings","pattern"],"bee_group":{"antennae":"X","wings":"1","pattern":"S","legs":"X"},"bonus":0.980000000000001},{"rt":5684.5,"stimulus":"bees-with-color/bee-B1DM.svg","response":0,"trial_type":"image-button-response","trial_index":61,"time_elapsed":1099388,"internal_node_id":"0.0-4.0-0.27","subject_id":"5baf6705848bbd0001d6fc8a","study_id":"60edd13110225f80f9f3709b","session_id":"6196c708ad07d1ac97e675fa","condition":"full-information","relevant_dimensions":["wings","pattern"],"bee_group":{"antennae":"X","wings":"1","pattern":"S","legs":"X"},"action":"harvest","summary":"good-harvest","bonus":0.980000000000001},{"rt":2113.300000011921,"stimulus":"\n                    <p><b>Action: <em>harvest</em></b></p>\n                    <p>This is the bee that you just saw.</p>\n                    <img src=\"bees-with-color/bee-B1DM.svg\" width=\"200\">\n                    <p><span class=\"greenText\"><b>Successful harvest!</b></span><br>Your pay has increased by $0.02. Your bonus pay is now $0.30.</p>\n            ","response":0,"trial_type":"html-button-response","trial_index":62,"time_elapsed":1101509,"internal_node_id":"0.0-4.0-1.27","subject_id":"5baf6705848bbd0001d6fc8a","study_id":"60edd13110225f80f9f3709b","session_id":"6196c708ad07d1ac97e675fa","condition":"full-information","relevant_dimensions":["wings","pattern"],"bee_group":{"antennae":"X","wings":"1","pattern":"S","legs":"X"},"bonus":0.980000000000001},{"rt":4730.899999991059,"stimulus":"bees-with-color/bee-A1SF.svg","response":1,"trial_type":"image-button-response","trial_index":63,"time_elapsed":1106245,"internal_node_id":"0.0-4.0-0.28","subject_id":"5baf6705848bbd0001d6fc8a","study_id":"60edd13110225f80f9f3709b","session_id":"6196c708ad07d1ac97e675fa","condition":"full-information","relevant_dimensions":["wings","pattern"],"bee_group":{"antennae":"X","wings":"1","pattern":"S","legs":"X"},"action":"avoid","summary":"good-avoid","bonus":0.980000000000001},{"rt":2272.5999999940395,"stimulus":"\n                    <p><b>Action: <em>avoid</em></b></p>\n                    <p>This is the bee that you just saw.</p>\n                    <img src=\"bees-with-color/bee-A1SF.svg\" width=\"200\">\n                    <p><span class=\"greenText\">Good choice!</span>  This bee would have stung you.<br>Your bonus pay is unchanged, and remains at $0.30.</p>\n            ","response":0,"trial_type":"html-button-response","trial_index":64,"time_elapsed":1108525,"internal_node_id":"0.0-4.0-1.28","subject_id":"5baf6705848bbd0001d6fc8a","study_id":"60edd13110225f80f9f3709b","session_id":"6196c708ad07d1ac97e675fa","condition":"full-information","relevant_dimensions":["wings","pattern"],"bee_group":{"antennae":"X","wings":"1","pattern":"S","legs":"X"},"bonus":0.980000000000001},{"rt":17184.59999999404,"stimulus":"bees-with-color/bee-A2SF.svg","response":0,"trial_type":"image-button-response","trial_index":65,"time_elapsed":1125717,"internal_node_id":"0.0-4.0-0.29","subject_id":"5baf6705848bbd0001d6fc8a","study_id":"60edd13110225f80f9f3709b","session_id":"6196c708ad07d1ac97e675fa","condition":"full-information","relevant_dimensions":["wings","pattern"],"bee_group":{"antennae":"X","wings":"1","pattern":"S","legs":"X"},"action":"harvest","summary":"good-harvest","bonus":0.980000000000001},{"rt":1616.8999999910593,"stimulus":"\n                    <p><b>Action: <em>harvest</em></b></p>\n                    <p>This is the bee that you just saw.</p>\n                    <img src=\"bees-with-color/bee-A2SF.svg\" width=\"200\">\n                    <p><span class=\"greenText\"><b>Successful harvest!</b></span><br>Your pay has increased by $0.02. Your bonus pay is now $0.32.</p>\n            ","response":0,"trial_type":"html-button-response","trial_index":66,"time_elapsed":1127340,"internal_node_id":"0.0-4.0-1.29","subject_id":"5baf6705848bbd0001d6fc8a","study_id":"60edd13110225f80f9f3709b","session_id":"6196c708ad07d1ac97e675fa","condition":"full-information","relevant_dimensions":["wings","pattern"],"bee_group":{"antennae":"X","wings":"1","pattern":"S","legs":"X"},"bonus":0.980000000000001},{"rt":15830.699999988079,"stimulus":"bees-with-color/bee-B2SF.svg","response":0,"trial_type":"image-button-response","trial_index":67,"time_elapsed":1143179,"internal_node_id":"0.0-4.0-0.30","subject_id":"5baf6705848bbd0001d6fc8a","study_id":"60edd13110225f80f9f3709b","session_id":"6196c708ad07d1ac97e675fa","condition":"full-information","relevant_dimensions":["wings","pattern"],"bee_group":{"antennae":"X","wings":"1","pattern":"S","legs":"X"},"action":"harvest","summary":"good-harvest","bonus":0.980000000000001},{"rt":1952.8999999910593,"stimulus":"\n                    <p><b>Action: <em>harvest</em></b></p>\n                    <p>This is the bee that you just saw.</p>\n                    <img src=\"bees-with-color/bee-B2SF.svg\" width=\"200\">\n                    <p><span class=\"greenText\"><b>Successful harvest!</b></span><br>Your pay has increased by $0.02. Your bonus pay is now $0.34.</p>\n            ","response":0,"trial_type":"html-button-response","trial_index":68,"time_elapsed":1145136,"internal_node_id":"0.0-4.0-1.30","subject_id":"5baf6705848bbd0001d6fc8a","study_id":"60edd13110225f80f9f3709b","session_id":"6196c708ad07d1ac97e675fa","condition":"full-information","relevant_dimensions":["wings","pattern"],"bee_group":{"antennae":"X","wings":"1","pattern":"S","legs":"X"},"bonus":0.980000000000001},{"rt":4849.4000000059605,"stimulus":"bees-with-color/bee-B1SM.svg","response":0,"trial_type":"image-button-response","trial_index":69,"time_elapsed":1149990,"internal_node_id":"0.0-4.0-0.31","subject_id":"5baf6705848bbd0001d6fc8a","study_id":"60edd13110225f80f9f3709b","session_id":"6196c708ad07d1ac97e675fa","condition":"full-information","relevant_dimensions":["wings","pattern"],"bee_group":{"antennae":"X","wings":"1","pattern":"S","legs":"X"},"action":"harvest","summary":"bad-harvest","bonus":0.980000000000001},{"rt":28580,"stimulus":"\n                    <p><b>Action: <em>harvest</em></b></p>\n                    <p>This is the bee that you just saw.</p>\n                    <img src=\"bees-with-color/bee-B1SM.svg\" width=\"200\">\n                    <p><span class=\"redText\">Bad choice, the bee was angry.</span><br><b>You have been stung!</b><br>Your pay has been decreased by $0.10. Your bonus pay is now $0.24.</p>\n            ","response":0,"trial_type":"html-button-response","trial_index":70,"time_elapsed":1178576,"internal_node_id":"0.0-4.0-1.31","subject_id":"5baf6705848bbd0001d6fc8a","study_id":"60edd13110225f80f9f3709b","session_id":"6196c708ad07d1ac97e675fa","condition":"full-information","relevant_dimensions":["wings","pattern"],"bee_group":{"antennae":"X","wings":"1","pattern":"S","legs":"X"},"bonus":0.980000000000001},{"rt":4749.29999999702,"stimulus":"bees-with-color/bee-B1SM.svg","response":1,"trial_type":"image-button-response","trial_index":71,"time_elapsed":1183335,"internal_node_id":"0.0-4.0-0.32","subject_id":"5baf6705848bbd0001d6fc8a","study_id":"60edd13110225f80f9f3709b","session_id":"6196c708ad07d1ac97e675fa","condition":"full-information","relevant_dimensions":["wings","pattern"],"bee_group":{"antennae":"X","wings":"1","pattern":"S","legs":"X"},"action":"avoid","summary":"good-avoid","bonus":0.980000000000001},{"rt":2224.4000000059605,"stimulus":"\n                    <p><b>Action: <em>avoid</em></b></p>\n                    <p>This is the bee that you just saw.</p>\n                    <img src=\"bees-with-color/bee-B1SM.svg\" width=\"200\">\n                    <p><span class=\"greenText\">Good choice!</span>  This bee would have stung you.<br>Your bonus pay is unchanged, and remains at $0.24.</p>\n            ","response":0,"trial_type":"html-button-response","trial_index":72,"time_elapsed":1185563,"internal_node_id":"0.0-4.0-1.32","subject_id":"5baf6705848bbd0001d6fc8a","study_id":"60edd13110225f80f9f3709b","session_id":"6196c708ad07d1ac97e675fa","condition":"full-information","relevant_dimensions":["wings","pattern"],"bee_group":{"antennae":"X","wings":"1","pattern":"S","legs":"X"},"bonus":0.980000000000001},{"rt":5567.5,"stimulus":"bees-with-color/bee-A1DF.svg","response":0,"trial_type":"image-button-response","trial_index":73,"time_elapsed":1191138,"internal_node_id":"0.0-4.0-0.33","subject_id":"5baf6705848bbd0001d6fc8a","study_id":"60edd13110225f80f9f3709b","session_id":"6196c708ad07d1ac97e675fa","condition":"full-information","relevant_dimensions":["wings","pattern"],"bee_group":{"antennae":"X","wings":"1","pattern":"S","legs":"X"},"action":"harvest","summary":"good-harvest","bonus":0.980000000000001},{"rt":1428.0999999940395,"stimulus":"\n                    <p><b>Action: <em>harvest</em></b></p>\n                    <p>This is the bee that you just saw.</p>\n                    <img src=\"bees-with-color/bee-A1DF.svg\" width=\"200\">\n                    <p><span class=\"greenText\"><b>Successful harvest!</b></span><br>Your pay has increased by $0.02. Your bonus pay is now $0.26.</p>\n            ","response":0,"trial_type":"html-button-response","trial_index":74,"time_elapsed":1192571,"internal_node_id":"0.0-4.0-1.33","subject_id":"5baf6705848bbd0001d6fc8a","study_id":"60edd13110225f80f9f3709b","session_id":"6196c708ad07d1ac97e675fa","condition":"full-information","relevant_dimensions":["wings","pattern"],"bee_group":{"antennae":"X","wings":"1","pattern":"S","legs":"X"},"bonus":0.980000000000001},{"rt":7076.0999999940395,"stimulus":"bees-with-color/bee-B1DF.svg","response":0,"trial_type":"image-button-response","trial_index":75,"time_elapsed":1199652,"internal_node_id":"0.0-4.0-0.34","subject_id":"5baf6705848bbd0001d6fc8a","study_id":"60edd13110225f80f9f3709b","session_id":"6196c708ad07d1ac97e675fa","condition":"full-information","relevant_dimensions":["wings","pattern"],"bee_group":{"antennae":"X","wings":"1","pattern":"S","legs":"X"},"action":"harvest","summary":"good-harvest","bonus":0.980000000000001},{"rt":1738,"stimulus":"\n                    <p><b>Action: <em>harvest</em></b></p>\n                    <p>This is the bee that you just saw.</p>\n                    <img src=\"bees-with-color/bee-B1DF.svg\" width=\"200\">\n                    <p><span class=\"greenText\"><b>Successful harvest!</b></span><br>Your pay has increased by $0.02. Your bonus pay is now $0.28.</p>\n            ","response":0,"trial_type":"html-button-response","trial_index":76,"time_elapsed":1201398,"internal_node_id":"0.0-4.0-1.34","subject_id":"5baf6705848bbd0001d6fc8a","study_id":"60edd13110225f80f9f3709b","session_id":"6196c708ad07d1ac97e675fa","condition":"full-information","relevant_dimensions":["wings","pattern"],"bee_group":{"antennae":"X","wings":"1","pattern":"S","legs":"X"},"bonus":0.980000000000001},{"rt":3787.2999999970198,"stimulus":"bees-with-color/bee-B1DM.svg","response":0,"trial_type":"image-button-response","trial_index":77,"time_elapsed":1205193,"internal_node_id":"0.0-4.0-0.35","subject_id":"5baf6705848bbd0001d6fc8a","study_id":"60edd13110225f80f9f3709b","session_id":"6196c708ad07d1ac97e675fa","condition":"full-information","relevant_dimensions":["wings","pattern"],"bee_group":{"antennae":"X","wings":"1","pattern":"S","legs":"X"},"action":"harvest","summary":"good-harvest","bonus":0.980000000000001},{"rt":1453.300000011921,"stimulus":"\n                    <p><b>Action: <em>harvest</em></b></p>\n                    <p>This is the bee that you just saw.</p>\n                    <img src=\"bees-with-color/bee-B1DM.svg\" width=\"200\">\n                    <p><span class=\"greenText\"><b>Successful harvest!</b></span><br>Your pay has increased by $0.02. Your bonus pay is now $0.30.</p>\n            ","response":0,"trial_type":"html-button-response","trial_index":78,"time_elapsed":1206651,"internal_node_id":"0.0-4.0-1.35","subject_id":"5baf6705848bbd0001d6fc8a","study_id":"60edd13110225f80f9f3709b","session_id":"6196c708ad07d1ac97e675fa","condition":"full-information","relevant_dimensions":["wings","pattern"],"bee_group":{"antennae":"X","wings":"1","pattern":"S","legs":"X"},"bonus":0.980000000000001},{"rt":1749.0999999940395,"stimulus":"bees-with-color/bee-A1DM.svg","response":0,"trial_type":"image-button-response","trial_index":79,"time_elapsed":1208407,"internal_node_id":"0.0-4.0-0.36","subject_id":"5baf6705848bbd0001d6fc8a","study_id":"60edd13110225f80f9f3709b","session_id":"6196c708ad07d1ac97e675fa","condition":"full-information","relevant_dimensions":["wings","pattern"],"bee_group":{"antennae":"X","wings":"1","pattern":"S","legs":"X"},"action":"harvest","summary":"good-harvest","bonus":0.980000000000001},{"rt":1413.7000000029802,"stimulus":"\n                    <p><b>Action: <em>harvest</em></b></p>\n                    <p>This is the bee that you just saw.</p>\n                    <img src=\"bees-with-color/bee-A1DM.svg\" width=\"200\">\n                    <p><span class=\"greenText\"><b>Successful harvest!</b></span><br>Your pay has increased by $0.02. Your bonus pay is now $0.32.</p>\n            ","response":0,"trial_type":"html-button-response","trial_index":80,"time_elapsed":1209829,"internal_node_id":"0.0-4.0-1.36","subject_id":"5baf6705848bbd0001d6fc8a","study_id":"60edd13110225f80f9f3709b","session_id":"6196c708ad07d1ac97e675fa","condition":"full-information","relevant_dimensions":["wings","pattern"],"bee_group":{"antennae":"X","wings":"1","pattern":"S","legs":"X"},"bonus":0.980000000000001},{"rt":7208,"stimulus":"bees-with-color/bee-B2SF.svg","response":0,"trial_type":"image-button-response","trial_index":81,"time_elapsed":1217044,"internal_node_id":"0.0-4.0-0.37","subject_id":"5baf6705848bbd0001d6fc8a","study_id":"60edd13110225f80f9f3709b","session_id":"6196c708ad07d1ac97e675fa","condition":"full-information","relevant_dimensions":["wings","pattern"],"bee_group":{"antennae":"X","wings":"1","pattern":"S","legs":"X"},"action":"harvest","summary":"good-harvest","bonus":0.980000000000001},{"rt":1848.1000000089407,"stimulus":"\n                    <p><b>Action: <em>harvest</em></b></p>\n                    <p>This is the bee that you just saw.</p>\n                    <img src=\"bees-with-color/bee-B2SF.svg\" width=\"200\">\n                    <p><span class=\"greenText\"><b>Successful harvest!</b></span><br>Your pay has increased by $0.02. Your bonus pay is now $0.34.</p>\n            ","response":0,"trial_type":"html-button-response","trial_index":82,"time_elapsed":1218900,"internal_node_id":"0.0-4.0-1.37","subject_id":"5baf6705848bbd0001d6fc8a","study_id":"60edd13110225f80f9f3709b","session_id":"6196c708ad07d1ac97e675fa","condition":"full-information","relevant_dimensions":["wings","pattern"],"bee_group":{"antennae":"X","wings":"1","pattern":"S","legs":"X"},"bonus":0.980000000000001},{"rt":6554.29999999702,"stimulus":"bees-with-color/bee-B2SM.svg","response":0,"trial_type":"image-button-response","trial_index":83,"time_elapsed":1225463,"internal_node_id":"0.0-4.0-0.38","subject_id":"5baf6705848bbd0001d6fc8a","study_id":"60edd13110225f80f9f3709b","session_id":"6196c708ad07d1ac97e675fa","condition":"full-information","relevant_dimensions":["wings","pattern"],"bee_group":{"antennae":"X","wings":"1","pattern":"S","legs":"X"},"action":"harvest","summary":"good-harvest","bonus":0.980000000000001},{"rt":1541.5999999940395,"stimulus":"\n                    <p><b>Action: <em>harvest</em></b></p>\n                    <p>This is the bee that you just saw.</p>\n                    <img src=\"bees-with-color/bee-B2SM.svg\" width=\"200\">\n                    <p><span class=\"greenText\"><b>Successful harvest!</b></span><br>Your pay has increased by $0.02. Your bonus pay is now $0.36.</p>\n            ","response":0,"trial_type":"html-button-response","trial_index":84,"time_elapsed":1227010,"internal_node_id":"0.0-4.0-1.38","subject_id":"5baf6705848bbd0001d6fc8a","study_id":"60edd13110225f80f9f3709b","session_id":"6196c708ad07d1ac97e675fa","condition":"full-information","relevant_dimensions":["wings","pattern"],"bee_group":{"antennae":"X","wings":"1","pattern":"S","legs":"X"},"bonus":0.980000000000001},{"rt":5771,"stimulus":"bees-with-color/bee-A1SF.svg","response":1,"trial_type":"image-button-response","trial_index":85,"time_elapsed":1232786,"internal_node_id":"0.0-4.0-0.39","subject_id":"5baf6705848bbd0001d6fc8a","study_id":"60edd13110225f80f9f3709b","session_id":"6196c708ad07d1ac97e675fa","condition":"full-information","relevant_dimensions":["wings","pattern"],"bee_group":{"antennae":"X","wings":"1","pattern":"S","legs":"X"},"action":"avoid","summary":"good-avoid","bonus":0.980000000000001},{"rt":1758.4000000059605,"stimulus":"\n                    <p><b>Action: <em>avoid</em></b></p>\n                    <p>This is the bee that you just saw.</p>\n                    <img src=\"bees-with-color/bee-A1SF.svg\" width=\"200\">\n                    <p><span class=\"greenText\">Good choice!</span>  This bee would have stung you.<br>Your bonus pay is unchanged, and remains at $0.36.</p>\n            ","response":0,"trial_type":"html-button-response","trial_index":86,"time_elapsed":1234552,"internal_node_id":"0.0-4.0-1.39","subject_id":"5baf6705848bbd0001d6fc8a","study_id":"60edd13110225f80f9f3709b","session_id":"6196c708ad07d1ac97e675fa","condition":"full-information","relevant_dimensions":["wings","pattern"],"bee_group":{"antennae":"X","wings":"1","pattern":"S","legs":"X"},"bonus":0.980000000000001},{"rt":3434.2999999970198,"stimulus":"bees-with-color/bee-B2DM.svg","response":0,"trial_type":"image-button-response","trial_index":87,"time_elapsed":1237994,"internal_node_id":"0.0-4.0-0.40","subject_id":"5baf6705848bbd0001d6fc8a","study_id":"60edd13110225f80f9f3709b","session_id":"6196c708ad07d1ac97e675fa","condition":"full-information","relevant_dimensions":["wings","pattern"],"bee_group":{"antennae":"X","wings":"1","pattern":"S","legs":"X"},"action":"harvest","summary":"good-harvest","bonus":0.980000000000001},{"rt":1579.3999999910593,"stimulus":"\n                    <p><b>Action: <em>harvest</em></b></p>\n                    <p>This is the bee that you just saw.</p>\n                    <img src=\"bees-with-color/bee-B2DM.svg\" width=\"200\">\n                    <p><span class=\"greenText\"><b>Successful harvest!</b></span><br>Your pay has increased by $0.02. Your bonus pay is now $0.38.</p>\n            ","response":0,"trial_type":"html-button-response","trial_index":88,"time_elapsed":1239577,"internal_node_id":"0.0-4.0-1.40","subject_id":"5baf6705848bbd0001d6fc8a","study_id":"60edd13110225f80f9f3709b","session_id":"6196c708ad07d1ac97e675fa","condition":"full-information","relevant_dimensions":["wings","pattern"],"bee_group":{"antennae":"X","wings":"1","pattern":"S","legs":"X"},"bonus":0.980000000000001},{"rt":5652.20000000298,"stimulus":"bees-with-color/bee-A2SF.svg","response":0,"trial_type":"image-button-response","trial_index":89,"time_elapsed":1245233,"internal_node_id":"0.0-4.0-0.41","subject_id":"5baf6705848bbd0001d6fc8a","study_id":"60edd13110225f80f9f3709b","session_id":"6196c708ad07d1ac97e675fa","condition":"full-information","relevant_dimensions":["wings","pattern"],"bee_group":{"antennae":"X","wings":"1","pattern":"S","legs":"X"},"action":"harvest","summary":"good-harvest","bonus":0.980000000000001},{"rt":1557.5,"stimulus":"\n                    <p><b>Action: <em>harvest</em></b></p>\n                    <p>This is the bee that you just saw.</p>\n                    <img src=\"bees-with-color/bee-A2SF.svg\" width=\"200\">\n                    <p><span class=\"greenText\"><b>Successful harvest!</b></span><br>Your pay has increased by $0.02. Your bonus pay is now $0.40.</p>\n            ","response":0,"trial_type":"html-button-response","trial_index":90,"time_elapsed":1246796,"internal_node_id":"0.0-4.0-1.41","subject_id":"5baf6705848bbd0001d6fc8a","study_id":"60edd13110225f80f9f3709b","session_id":"6196c708ad07d1ac97e675fa","condition":"full-information","relevant_dimensions":["wings","pattern"],"bee_group":{"antennae":"X","wings":"1","pattern":"S","legs":"X"},"bonus":0.980000000000001},{"rt":1860.5999999940395,"stimulus":"bees-with-color/bee-A2DF.svg","response":0,"trial_type":"image-button-response","trial_index":91,"time_elapsed":1248665,"internal_node_id":"0.0-4.0-0.42","subject_id":"5baf6705848bbd0001d6fc8a","study_id":"60edd13110225f80f9f3709b","session_id":"6196c708ad07d1ac97e675fa","condition":"full-information","relevant_dimensions":["wings","pattern"],"bee_group":{"antennae":"X","wings":"1","pattern":"S","legs":"X"},"action":"harvest","summary":"good-harvest","bonus":0.980000000000001},{"rt":2190.0999999940395,"stimulus":"\n                    <p><b>Action: <em>harvest</em></b></p>\n                    <p>This is the bee that you just saw.</p>\n                    <img src=\"bees-with-color/bee-A2DF.svg\" width=\"200\">\n                    <p><span class=\"greenText\"><b>Successful harvest!</b></span><br>Your pay has increased by $0.02. Your bonus pay is now $0.42.</p>\n            ","response":0,"trial_type":"html-button-response","trial_index":92,"time_elapsed":1250861,"internal_node_id":"0.0-4.0-1.42","subject_id":"5baf6705848bbd0001d6fc8a","study_id":"60edd13110225f80f9f3709b","session_id":"6196c708ad07d1ac97e675fa","condition":"full-information","relevant_dimensions":["wings","pattern"],"bee_group":{"antennae":"X","wings":"1","pattern":"S","legs":"X"},"bonus":0.980000000000001},{"rt":2114.9000000059605,"stimulus":"bees-with-color/bee-B2DF.svg","response":0,"trial_type":"image-button-response","trial_index":93,"time_elapsed":1252980,"internal_node_id":"0.0-4.0-0.43","subject_id":"5baf6705848bbd0001d6fc8a","study_id":"60edd13110225f80f9f3709b","session_id":"6196c708ad07d1ac97e675fa","condition":"full-information","relevant_dimensions":["wings","pattern"],"bee_group":{"antennae":"X","wings":"1","pattern":"S","legs":"X"},"action":"harvest","summary":"good-harvest","bonus":0.980000000000001},{"rt":1258.7999999970198,"stimulus":"\n                    <p><b>Action: <em>harvest</em></b></p>\n                    <p>This is the bee that you just saw.</p>\n                    <img src=\"bees-with-color/bee-B2DF.svg\" width=\"200\">\n                    <p><span class=\"greenText\"><b>Successful harvest!</b></span><br>Your pay has increased by $0.02. Your bonus pay is now $0.44.</p>\n            ","response":0,"trial_type":"html-button-response","trial_index":94,"time_elapsed":1254245,"internal_node_id":"0.0-4.0-1.43","subject_id":"5baf6705848bbd0001d6fc8a","study_id":"60edd13110225f80f9f3709b","session_id":"6196c708ad07d1ac97e675fa","condition":"full-information","relevant_dimensions":["wings","pattern"],"bee_group":{"antennae":"X","wings":"1","pattern":"S","legs":"X"},"bonus":0.980000000000001},{"rt":9316.29999999702,"stimulus":"bees-with-color/bee-A2SM.svg","response":0,"trial_type":"image-button-response","trial_index":95,"time_elapsed":1263568,"internal_node_id":"0.0-4.0-0.44","subject_id":"5baf6705848bbd0001d6fc8a","study_id":"60edd13110225f80f9f3709b","session_id":"6196c708ad07d1ac97e675fa","condition":"full-information","relevant_dimensions":["wings","pattern"],"bee_group":{"antennae":"X","wings":"1","pattern":"S","legs":"X"},"action":"harvest","summary":"good-harvest","bonus":0.980000000000001},{"rt":1653.2000000029802,"stimulus":"\n                    <p><b>Action: <em>harvest</em></b></p>\n                    <p>This is the bee that you just saw.</p>\n                    <img src=\"bees-with-color/bee-A2SM.svg\" width=\"200\">\n                    <p><span class=\"greenText\"><b>Successful harvest!</b></span><br>Your pay has increased by $0.02. Your bonus pay is now $0.46.</p>\n            ","response":0,"trial_type":"html-button-response","trial_index":96,"time_elapsed":1265226,"internal_node_id":"0.0-4.0-1.44","subject_id":"5baf6705848bbd0001d6fc8a","study_id":"60edd13110225f80f9f3709b","session_id":"6196c708ad07d1ac97e675fa","condition":"full-information","relevant_dimensions":["wings","pattern"],"bee_group":{"antennae":"X","wings":"1","pattern":"S","legs":"X"},"bonus":0.980000000000001},{"rt":16408.59999999404,"stimulus":"bees-with-color/bee-A1SM.svg","response":1,"trial_type":"image-button-response","trial_index":97,"time_elapsed":1281641,"internal_node_id":"0.0-4.0-0.45","subject_id":"5baf6705848bbd0001d6fc8a","study_id":"60edd13110225f80f9f3709b","session_id":"6196c708ad07d1ac97e675fa","condition":"full-information","relevant_dimensions":["wings","pattern"],"bee_group":{"antennae":"X","wings":"1","pattern":"S","legs":"X"},"action":"avoid","summary":"good-avoid","bonus":0.980000000000001},{"rt":19052.30000001192,"stimulus":"\n                    <p><b>Action: <em>avoid</em></b></p>\n                    <p>This is the bee that you just saw.</p>\n                    <img src=\"bees-with-color/bee-A1SM.svg\" width=\"200\">\n                    <p><span class=\"greenText\">Good choice!</span>  This bee would have stung you.<br>Your bonus pay is unchanged, and remains at $0.46.</p>\n            ","response":0,"trial_type":"html-button-response","trial_index":98,"time_elapsed":1300697,"internal_node_id":"0.0-4.0-1.45","subject_id":"5baf6705848bbd0001d6fc8a","study_id":"60edd13110225f80f9f3709b","session_id":"6196c708ad07d1ac97e675fa","condition":"full-information","relevant_dimensions":["wings","pattern"],"bee_group":{"antennae":"X","wings":"1","pattern":"S","legs":"X"},"bonus":0.980000000000001},{"rt":7063,"stimulus":"bees-with-color/bee-B1SF.svg","response":0,"trial_type":"image-button-response","trial_index":99,"time_elapsed":1307768,"internal_node_id":"0.0-4.0-0.46","subject_id":"5baf6705848bbd0001d6fc8a","study_id":"60edd13110225f80f9f3709b","session_id":"6196c708ad07d1ac97e675fa","condition":"full-information","relevant_dimensions":["wings","pattern"],"bee_group":{"antennae":"X","wings":"1","pattern":"S","legs":"X"},"action":"harvest","summary":"bad-harvest","bonus":0.980000000000001},{"rt":11540.5,"stimulus":"\n                    <p><b>Action: <em>harvest</em></b></p>\n                    <p>This is the bee that you just saw.</p>\n                    <img src=\"bees-with-color/bee-B1SF.svg\" width=\"200\">\n                    <p><span class=\"redText\">Bad choice, the bee was angry.</span><br><b>You have been stung!</b><br>Your pay has been decreased by $0.10. Your bonus pay is now $0.36.</p>\n            ","response":0,"trial_type":"html-button-response","trial_index":100,"time_elapsed":1319318,"internal_node_id":"0.0-4.0-1.46","subject_id":"5baf6705848bbd0001d6fc8a","study_id":"60edd13110225f80f9f3709b","session_id":"6196c708ad07d1ac97e675fa","condition":"full-information","relevant_dimensions":["wings","pattern"],"bee_group":{"antennae":"X","wings":"1","pattern":"S","legs":"X"},"bonus":0.980000000000001},{"rt":7354.199999988079,"stimulus":"bees-with-color/bee-A2DM.svg","response":0,"trial_type":"image-button-response","trial_index":101,"time_elapsed":1326677,"internal_node_id":"0.0-4.0-0.47","subject_id":"5baf6705848bbd0001d6fc8a","study_id":"60edd13110225f80f9f3709b","session_id":"6196c708ad07d1ac97e675fa","condition":"full-information","relevant_dimensions":["wings","pattern"],"bee_group":{"antennae":"X","wings":"1","pattern":"S","legs":"X"},"action":"harvest","summary":"good-harvest","bonus":0.980000000000001},{"rt":1460.2000000029802,"stimulus":"\n                    <p><b>Action: <em>harvest</em></b></p>\n                    <p>This is the bee that you just saw.</p>\n                    <img src=\"bees-with-color/bee-A2DM.svg\" width=\"200\">\n                    <p><span class=\"greenText\"><b>Successful harvest!</b></span><br>Your pay has increased by $0.02. Your bonus pay is now $0.38.</p>\n            ","response":0,"trial_type":"html-button-response","trial_index":102,"time_elapsed":1328142,"internal_node_id":"0.0-4.0-1.47","subject_id":"5baf6705848bbd0001d6fc8a","study_id":"60edd13110225f80f9f3709b","session_id":"6196c708ad07d1ac97e675fa","condition":"full-information","relevant_dimensions":["wings","pattern"],"bee_group":{"antennae":"X","wings":"1","pattern":"S","legs":"X"},"bonus":0.980000000000001},{"rt":1861.2999999970198,"stimulus":"bees-with-color/bee-A1DF.svg","response":0,"trial_type":"image-button-response","trial_index":103,"time_elapsed":1330010,"internal_node_id":"0.0-4.0-0.48","subject_id":"5baf6705848bbd0001d6fc8a","study_id":"60edd13110225f80f9f3709b","session_id":"6196c708ad07d1ac97e675fa","condition":"full-information","relevant_dimensions":["wings","pattern"],"bee_group":{"antennae":"X","wings":"1","pattern":"S","legs":"X"},"action":"harvest","summary":"good-harvest","bonus":0.980000000000001},{"rt":1242.7000000029802,"stimulus":"\n                    <p><b>Action: <em>harvest</em></b></p>\n                    <p>This is the bee that you just saw.</p>\n                    <img src=\"bees-with-color/bee-A1DF.svg\" width=\"200\">\n                    <p><span class=\"greenText\"><b>Successful harvest!</b></span><br>Your pay has increased by $0.02. Your bonus pay is now $0.40.</p>\n            ","response":0,"trial_type":"html-button-response","trial_index":104,"time_elapsed":1331258,"internal_node_id":"0.0-4.0-1.48","subject_id":"5baf6705848bbd0001d6fc8a","study_id":"60edd13110225f80f9f3709b","session_id":"6196c708ad07d1ac97e675fa","condition":"full-information","relevant_dimensions":["wings","pattern"],"bee_group":{"antennae":"X","wings":"1","pattern":"S","legs":"X"},"bonus":0.980000000000001},{"rt":992.2999999970198,"stimulus":"bees-with-color/bee-A1DM.svg","response":0,"trial_type":"image-button-response","trial_index":105,"time_elapsed":1332254,"internal_node_id":"0.0-4.0-0.49","subject_id":"5baf6705848bbd0001d6fc8a","study_id":"60edd13110225f80f9f3709b","session_id":"6196c708ad07d1ac97e675fa","condition":"full-information","relevant_dimensions":["wings","pattern"],"bee_group":{"antennae":"X","wings":"1","pattern":"S","legs":"X"},"action":"harvest","summary":"good-harvest","bonus":0.980000000000001},{"rt":1209.2999999970198,"stimulus":"\n                    <p><b>Action: <em>harvest</em></b></p>\n                    <p>This is the bee that you just saw.</p>\n                    <img src=\"bees-with-color/bee-A1DM.svg\" width=\"200\">\n                    <p><span class=\"greenText\"><b>Successful harvest!</b></span><br>Your pay has increased by $0.02. Your bonus pay is now $0.42.</p>\n            ","response":0,"trial_type":"html-button-response","trial_index":106,"time_elapsed":1333468,"internal_node_id":"0.0-4.0-1.49","subject_id":"5baf6705848bbd0001d6fc8a","study_id":"60edd13110225f80f9f3709b","session_id":"6196c708ad07d1ac97e675fa","condition":"full-information","relevant_dimensions":["wings","pattern"],"bee_group":{"antennae":"X","wings":"1","pattern":"S","legs":"X"},"bonus":0.980000000000001},{"rt":4766.5999999940395,"stimulus":"bees-with-color/bee-A1SF.svg","response":1,"trial_type":"image-button-response","trial_index":107,"time_elapsed":1338240,"internal_node_id":"0.0-4.0-0.50","subject_id":"5baf6705848bbd0001d6fc8a","study_id":"60edd13110225f80f9f3709b","session_id":"6196c708ad07d1ac97e675fa","condition":"full-information","relevant_dimensions":["wings","pattern"],"bee_group":{"antennae":"X","wings":"1","pattern":"S","legs":"X"},"action":"avoid","summary":"good-avoid","bonus":0.980000000000001},{"rt":2373,"stimulus":"\n                    <p><b>Action: <em>avoid</em></b></p>\n                    <p>This is the bee that you just saw.</p>\n                    <img src=\"bees-with-color/bee-A1SF.svg\" width=\"200\">\n                    <p><span class=\"greenText\">Good choice!</span>  This bee would have stung you.<br>Your bonus pay is unchanged, and remains at $0.42.</p>\n            ","response":0,"trial_type":"html-button-response","trial_index":108,"time_elapsed":1340618,"internal_node_id":"0.0-4.0-1.50","subject_id":"5baf6705848bbd0001d6fc8a","study_id":"60edd13110225f80f9f3709b","session_id":"6196c708ad07d1ac97e675fa","condition":"full-information","relevant_dimensions":["wings","pattern"],"bee_group":{"antennae":"X","wings":"1","pattern":"S","legs":"X"},"bonus":0.980000000000001},{"rt":1708.7000000029802,"stimulus":"bees-with-color/bee-B2DF.svg","response":0,"trial_type":"image-button-response","trial_index":109,"time_elapsed":1342334,"internal_node_id":"0.0-4.0-0.51","subject_id":"5baf6705848bbd0001d6fc8a","study_id":"60edd13110225f80f9f3709b","session_id":"6196c708ad07d1ac97e675fa","condition":"full-information","relevant_dimensions":["wings","pattern"],"bee_group":{"antennae":"X","wings":"1","pattern":"S","legs":"X"},"action":"harvest","summary":"good-harvest","bonus":0.980000000000001},{"rt":1734.5,"stimulus":"\n                    <p><b>Action: <em>harvest</em></b></p>\n                    <p>This is the bee that you just saw.</p>\n                    <img src=\"bees-with-color/bee-B2DF.svg\" width=\"200\">\n                    <p><span class=\"greenText\"><b>Successful harvest!</b></span><br>Your pay has increased by $0.02. Your bonus pay is now $0.44.</p>\n            ","response":0,"trial_type":"html-button-response","trial_index":110,"time_elapsed":1344075,"internal_node_id":"0.0-4.0-1.51","subject_id":"5baf6705848bbd0001d6fc8a","study_id":"60edd13110225f80f9f3709b","session_id":"6196c708ad07d1ac97e675fa","condition":"full-information","relevant_dimensions":["wings","pattern"],"bee_group":{"antennae":"X","wings":"1","pattern":"S","legs":"X"},"bonus":0.980000000000001},{"rt":8423.800000011921,"stimulus":"bees-with-color/bee-B1SM.svg","response":1,"trial_type":"image-button-response","trial_index":111,"time_elapsed":1352507,"internal_node_id":"0.0-4.0-0.52","subject_id":"5baf6705848bbd0001d6fc8a","study_id":"60edd13110225f80f9f3709b","session_id":"6196c708ad07d1ac97e675fa","condition":"full-information","relevant_dimensions":["wings","pattern"],"bee_group":{"antennae":"X","wings":"1","pattern":"S","legs":"X"},"action":"avoid","summary":"good-avoid","bonus":0.980000000000001},{"rt":1537,"stimulus":"\n                    <p><b>Action: <em>avoid</em></b></p>\n                    <p>This is the bee that you just saw.</p>\n                    <img src=\"bees-with-color/bee-B1SM.svg\" width=\"200\">\n                    <p><span class=\"greenText\">Good choice!</span>  This bee would have stung you.<br>Your bonus pay is unchanged, and remains at $0.44.</p>\n            ","response":0,"trial_type":"html-button-response","trial_index":112,"time_elapsed":1354050,"internal_node_id":"0.0-4.0-1.52","subject_id":"5baf6705848bbd0001d6fc8a","study_id":"60edd13110225f80f9f3709b","session_id":"6196c708ad07d1ac97e675fa","condition":"full-information","relevant_dimensions":["wings","pattern"],"bee_group":{"antennae":"X","wings":"1","pattern":"S","legs":"X"},"bonus":0.980000000000001},{"rt":1812,"stimulus":"bees-with-color/bee-B1DF.svg","response":0,"trial_type":"image-button-response","trial_index":113,"time_elapsed":1355871,"internal_node_id":"0.0-4.0-0.53","subject_id":"5baf6705848bbd0001d6fc8a","study_id":"60edd13110225f80f9f3709b","session_id":"6196c708ad07d1ac97e675fa","condition":"full-information","relevant_dimensions":["wings","pattern"],"bee_group":{"antennae":"X","wings":"1","pattern":"S","legs":"X"},"action":"harvest","summary":"good-harvest","bonus":0.980000000000001},{"rt":1132.7000000029802,"stimulus":"\n                    <p><b>Action: <em>harvest</em></b></p>\n                    <p>This is the bee that you just saw.</p>\n                    <img src=\"bees-with-color/bee-B1DF.svg\" width=\"200\">\n                    <p><span class=\"greenText\"><b>Successful harvest!</b></span><br>Your pay has increased by $0.02. Your bonus pay is now $0.46.</p>\n            ","response":0,"trial_type":"html-button-response","trial_index":114,"time_elapsed":1357009,"internal_node_id":"0.0-4.0-1.53","subject_id":"5baf6705848bbd0001d6fc8a","study_id":"60edd13110225f80f9f3709b","session_id":"6196c708ad07d1ac97e675fa","condition":"full-information","relevant_dimensions":["wings","pattern"],"bee_group":{"antennae":"X","wings":"1","pattern":"S","legs":"X"},"bonus":0.980000000000001},{"rt":9840.59999999404,"stimulus":"bees-with-color/bee-A2SM.svg","response":1,"trial_type":"image-button-response","trial_index":115,"time_elapsed":1366855,"internal_node_id":"0.0-4.0-0.54","subject_id":"5baf6705848bbd0001d6fc8a","study_id":"60edd13110225f80f9f3709b","session_id":"6196c708ad07d1ac97e675fa","condition":"full-information","relevant_dimensions":["wings","pattern"],"bee_group":{"antennae":"X","wings":"1","pattern":"S","legs":"X"},"action":"avoid","summary":"bad-avoid","bonus":0.980000000000001},{"rt":28958.79999999702,"stimulus":"\n                    <p><b>Action: <em>avoid</em></b></p>\n                    <p>This is the bee that you just saw.</p>\n                    <img src=\"bees-with-color/bee-A2SM.svg\" width=\"200\">\n                    <p><span class=\"redText\">Bad choice,</span> the bee was friendly.<br>Your bonus pay is unchanged, and remains at $0.46.</p>\n            ","response":0,"trial_type":"html-button-response","trial_index":116,"time_elapsed":1395820,"internal_node_id":"0.0-4.0-1.54","subject_id":"5baf6705848bbd0001d6fc8a","study_id":"60edd13110225f80f9f3709b","session_id":"6196c708ad07d1ac97e675fa","condition":"full-information","relevant_dimensions":["wings","pattern"],"bee_group":{"antennae":"X","wings":"1","pattern":"S","legs":"X"},"bonus":0.980000000000001},{"rt":1542.5999999940395,"stimulus":"bees-with-color/bee-A2DF.svg","response":0,"trial_type":"image-button-response","trial_index":117,"time_elapsed":1397369,"internal_node_id":"0.0-4.0-0.55","subject_id":"5baf6705848bbd0001d6fc8a","study_id":"60edd13110225f80f9f3709b","session_id":"6196c708ad07d1ac97e675fa","condition":"full-information","relevant_dimensions":["wings","pattern"],"bee_group":{"antennae":"X","wings":"1","pattern":"S","legs":"X"},"action":"harvest","summary":"good-harvest","bonus":0.980000000000001},{"rt":1268,"stimulus":"\n                    <p><b>Action: <em>harvest</em></b></p>\n                    <p>This is the bee that you just saw.</p>\n                    <img src=\"bees-with-color/bee-A2DF.svg\" width=\"200\">\n                    <p><span class=\"greenText\"><b>Successful harvest!</b></span><br>Your pay has increased by $0.02. Your bonus pay is now $0.48.</p>\n            ","response":0,"trial_type":"html-button-response","trial_index":118,"time_elapsed":1398645,"internal_node_id":"0.0-4.0-1.55","subject_id":"5baf6705848bbd0001d6fc8a","study_id":"60edd13110225f80f9f3709b","session_id":"6196c708ad07d1ac97e675fa","condition":"full-information","relevant_dimensions":["wings","pattern"],"bee_group":{"antennae":"X","wings":"1","pattern":"S","legs":"X"},"bonus":0.980000000000001},{"rt":1063.8999999910593,"stimulus":"bees-with-color/bee-B1DM.svg","response":0,"trial_type":"image-button-response","trial_index":119,"time_elapsed":1399718,"internal_node_id":"0.0-4.0-0.56","subject_id":"5baf6705848bbd0001d6fc8a","study_id":"60edd13110225f80f9f3709b","session_id":"6196c708ad07d1ac97e675fa","condition":"full-information","relevant_dimensions":["wings","pattern"],"bee_group":{"antennae":"X","wings":"1","pattern":"S","legs":"X"},"action":"harvest","summary":"good-harvest","bonus":0.980000000000001},{"rt":1376.3999999910593,"stimulus":"\n                    <p><b>Action: <em>harvest</em></b></p>\n                    <p>This is the bee that you just saw.</p>\n                    <img src=\"bees-with-color/bee-B1DM.svg\" width=\"200\">\n                    <p><span class=\"greenText\"><b>Successful harvest!</b></span><br>Your pay has increased by $0.02. Your bonus pay is now $0.50.</p>\n            ","response":0,"trial_type":"html-button-response","trial_index":120,"time_elapsed":1401102,"internal_node_id":"0.0-4.0-1.56","subject_id":"5baf6705848bbd0001d6fc8a","study_id":"60edd13110225f80f9f3709b","session_id":"6196c708ad07d1ac97e675fa","condition":"full-information","relevant_dimensions":["wings","pattern"],"bee_group":{"antennae":"X","wings":"1","pattern":"S","legs":"X"},"bonus":0.980000000000001},{"rt":2005.300000011921,"stimulus":"bees-with-color/bee-B1SF.svg","response":1,"trial_type":"image-button-response","trial_index":121,"time_elapsed":1403112,"internal_node_id":"0.0-4.0-0.57","subject_id":"5baf6705848bbd0001d6fc8a","study_id":"60edd13110225f80f9f3709b","session_id":"6196c708ad07d1ac97e675fa","condition":"full-information","relevant_dimensions":["wings","pattern"],"bee_group":{"antennae":"X","wings":"1","pattern":"S","legs":"X"},"action":"avoid","summary":"good-avoid","bonus":0.980000000000001},{"rt":1583.5,"stimulus":"\n                    <p><b>Action: <em>avoid</em></b></p>\n                    <p>This is the bee that you just saw.</p>\n                    <img src=\"bees-with-color/bee-B1SF.svg\" width=\"200\">\n                    <p><span class=\"greenText\">Good choice!</span>  This bee would have stung you.<br>Your bonus pay is unchanged, and remains at $0.50.</p>\n            ","response":0,"trial_type":"html-button-response","trial_index":122,"time_elapsed":1404701,"internal_node_id":"0.0-4.0-1.57","subject_id":"5baf6705848bbd0001d6fc8a","study_id":"60edd13110225f80f9f3709b","session_id":"6196c708ad07d1ac97e675fa","condition":"full-information","relevant_dimensions":["wings","pattern"],"bee_group":{"antennae":"X","wings":"1","pattern":"S","legs":"X"},"bonus":0.980000000000001},{"rt":2270.4000000059605,"stimulus":"bees-with-color/bee-B2SF.svg","response":0,"trial_type":"image-button-response","trial_index":123,"time_elapsed":1406977,"internal_node_id":"0.0-4.0-0.58","subject_id":"5baf6705848bbd0001d6fc8a","study_id":"60edd13110225f80f9f3709b","session_id":"6196c708ad07d1ac97e675fa","condition":"full-information","relevant_dimensions":["wings","pattern"],"bee_group":{"antennae":"X","wings":"1","pattern":"S","legs":"X"},"action":"harvest","summary":"good-harvest","bonus":0.980000000000001},{"rt":1211.9000000059605,"stimulus":"\n                    <p><b>Action: <em>harvest</em></b></p>\n                    <p>This is the bee that you just saw.</p>\n                    <img src=\"bees-with-color/bee-B2SF.svg\" width=\"200\">\n                    <p><span class=\"greenText\"><b>Successful harvest!</b></span><br>Your pay has increased by $0.02. Your bonus pay is now $0.52.</p>\n            ","response":0,"trial_type":"html-button-response","trial_index":124,"time_elapsed":1408194,"internal_node_id":"0.0-4.0-1.58","subject_id":"5baf6705848bbd0001d6fc8a","study_id":"60edd13110225f80f9f3709b","session_id":"6196c708ad07d1ac97e675fa","condition":"full-information","relevant_dimensions":["wings","pattern"],"bee_group":{"antennae":"X","wings":"1","pattern":"S","legs":"X"},"bonus":0.980000000000001},{"rt":3533.1000000089407,"stimulus":"bees-with-color/bee-B2SM.svg","response":0,"trial_type":"image-button-response","trial_index":125,"time_elapsed":1411733,"internal_node_id":"0.0-4.0-0.59","subject_id":"5baf6705848bbd0001d6fc8a","study_id":"60edd13110225f80f9f3709b","session_id":"6196c708ad07d1ac97e675fa","condition":"full-information","relevant_dimensions":["wings","pattern"],"bee_group":{"antennae":"X","wings":"1","pattern":"S","legs":"X"},"action":"harvest","summary":"good-harvest","bonus":0.980000000000001},{"rt":1496.6000000089407,"stimulus":"\n                    <p><b>Action: <em>harvest</em></b></p>\n                    <p>This is the bee that you just saw.</p>\n                    <img src=\"bees-with-color/bee-B2SM.svg\" width=\"200\">\n                    <p><span class=\"greenText\"><b>Successful harvest!</b></span><br>Your pay has increased by $0.02. Your bonus pay is now $0.54.</p>\n            ","response":0,"trial_type":"html-button-response","trial_index":126,"time_elapsed":1413236,"internal_node_id":"0.0-4.0-1.59","subject_id":"5baf6705848bbd0001d6fc8a","study_id":"60edd13110225f80f9f3709b","session_id":"6196c708ad07d1ac97e675fa","condition":"full-information","relevant_dimensions":["wings","pattern"],"bee_group":{"antennae":"X","wings":"1","pattern":"S","legs":"X"},"bonus":0.980000000000001},{"rt":1565.2000000029802,"stimulus":"bees-with-color/bee-B2DM.svg","response":0,"trial_type":"image-button-response","trial_index":127,"time_elapsed":1414805,"internal_node_id":"0.0-4.0-0.60","subject_id":"5baf6705848bbd0001d6fc8a","study_id":"60edd13110225f80f9f3709b","session_id":"6196c708ad07d1ac97e675fa","condition":"full-information","relevant_dimensions":["wings","pattern"],"bee_group":{"antennae":"X","wings":"1","pattern":"S","legs":"X"},"action":"harvest","summary":"good-harvest","bonus":0.980000000000001},{"rt":1133.5999999940395,"stimulus":"\n                    <p><b>Action: <em>harvest</em></b></p>\n                    <p>This is the bee that you just saw.</p>\n                    <img src=\"bees-with-color/bee-B2DM.svg\" width=\"200\">\n                    <p><span class=\"greenText\"><b>Successful harvest!</b></span><br>Your pay has increased by $0.02. Your bonus pay is now $0.56.</p>\n            ","response":0,"trial_type":"html-button-response","trial_index":128,"time_elapsed":1415943,"internal_node_id":"0.0-4.0-1.60","subject_id":"5baf6705848bbd0001d6fc8a","study_id":"60edd13110225f80f9f3709b","session_id":"6196c708ad07d1ac97e675fa","condition":"full-information","relevant_dimensions":["wings","pattern"],"bee_group":{"antennae":"X","wings":"1","pattern":"S","legs":"X"},"bonus":0.980000000000001},{"rt":1240.5,"stimulus":"bees-with-color/bee-A2DM.svg","response":0,"trial_type":"image-button-response","trial_index":129,"time_elapsed":1417191,"internal_node_id":"0.0-4.0-0.61","subject_id":"5baf6705848bbd0001d6fc8a","study_id":"60edd13110225f80f9f3709b","session_id":"6196c708ad07d1ac97e675fa","condition":"full-information","relevant_dimensions":["wings","pattern"],"bee_group":{"antennae":"X","wings":"1","pattern":"S","legs":"X"},"action":"harvest","summary":"good-harvest","bonus":0.980000000000001},{"rt":1603.3999999910593,"stimulus":"\n                    <p><b>Action: <em>harvest</em></b></p>\n                    <p>This is the bee that you just saw.</p>\n                    <img src=\"bees-with-color/bee-A2DM.svg\" width=\"200\">\n                    <p><span class=\"greenText\"><b>Successful harvest!</b></span><br>Your pay has increased by $0.02. Your bonus pay is now $0.58.</p>\n            ","response":0,"trial_type":"html-button-response","trial_index":130,"time_elapsed":1418799,"internal_node_id":"0.0-4.0-1.61","subject_id":"5baf6705848bbd0001d6fc8a","study_id":"60edd13110225f80f9f3709b","session_id":"6196c708ad07d1ac97e675fa","condition":"full-information","relevant_dimensions":["wings","pattern"],"bee_group":{"antennae":"X","wings":"1","pattern":"S","legs":"X"},"bonus":0.980000000000001},{"rt":3334.4000000059605,"stimulus":"bees-with-color/bee-A2SF.svg","response":0,"trial_type":"image-button-response","trial_index":131,"time_elapsed":1422139,"internal_node_id":"0.0-4.0-0.62","subject_id":"5baf6705848bbd0001d6fc8a","study_id":"60edd13110225f80f9f3709b","session_id":"6196c708ad07d1ac97e675fa","condition":"full-information","relevant_dimensions":["wings","pattern"],"bee_group":{"antennae":"X","wings":"1","pattern":"S","legs":"X"},"action":"harvest","summary":"good-harvest","bonus":0.980000000000001},{"rt":1255.0999999940395,"stimulus":"\n                    <p><b>Action: <em>harvest</em></b></p>\n                    <p>This is the bee that you just saw.</p>\n                    <img src=\"bees-with-color/bee-A2SF.svg\" width=\"200\">\n                    <p><span class=\"greenText\"><b>Successful harvest!</b></span><br>Your pay has increased by $0.02. Your bonus pay is now $0.60.</p>\n            ","response":0,"trial_type":"html-button-response","trial_index":132,"time_elapsed":1423401,"internal_node_id":"0.0-4.0-1.62","subject_id":"5baf6705848bbd0001d6fc8a","study_id":"60edd13110225f80f9f3709b","session_id":"6196c708ad07d1ac97e675fa","condition":"full-information","relevant_dimensions":["wings","pattern"],"bee_group":{"antennae":"X","wings":"1","pattern":"S","legs":"X"},"bonus":0.980000000000001},{"rt":10712.89999999106,"stimulus":"bees-with-color/bee-A1SM.svg","response":1,"trial_type":"image-button-response","trial_index":133,"time_elapsed":1434123,"internal_node_id":"0.0-4.0-0.63","subject_id":"5baf6705848bbd0001d6fc8a","study_id":"60edd13110225f80f9f3709b","session_id":"6196c708ad07d1ac97e675fa","condition":"full-information","relevant_dimensions":["wings","pattern"],"bee_group":{"antennae":"X","wings":"1","pattern":"S","legs":"X"},"action":"avoid","summary":"good-avoid","bonus":0.980000000000001},{"rt":1665.2000000029802,"stimulus":"\n                    <p><b>Action: <em>avoid</em></b></p>\n                    <p>This is the bee that you just saw.</p>\n                    <img src=\"bees-with-color/bee-A1SM.svg\" width=\"200\">\n                    <p><span class=\"greenText\">Good choice!</span>  This bee would have stung you.<br>Your bonus pay is unchanged, and remains at $0.60.</p>\n            ","response":0,"trial_type":"html-button-response","trial_index":134,"time_elapsed":1435794,"internal_node_id":"0.0-4.0-1.63","subject_id":"5baf6705848bbd0001d6fc8a","study_id":"60edd13110225f80f9f3709b","session_id":"6196c708ad07d1ac97e675fa","condition":"full-information","relevant_dimensions":["wings","pattern"],"bee_group":{"antennae":"X","wings":"1","pattern":"S","legs":"X"},"bonus":0.980000000000001},{"rt":7305.20000000298,"stimulus":"You have completed the first part of this experiment.<br><br>You will now begin a shorter second part, in which you will receive no feedback.<br>The same rules regarding bonus pay apply.<br><br>Press any key to begin.","response":" ","trial_type":"html-keyboard-response","trial_index":135,"time_elapsed":1443108,"internal_node_id":"0.0-5.0","subject_id":"5baf6705848bbd0001d6fc8a","study_id":"60edd13110225f80f9f3709b","session_id":"6196c708ad07d1ac97e675fa","condition":"full-information","relevant_dimensions":["wings","pattern"],"bee_group":{"antennae":"X","wings":"1","pattern":"S","legs":"X"},"bonus":0.980000000000001},{"rt":8609.90000000596,"stimulus":"bees-with-color/bee-A2SF.svg","response":0,"trial_type":"image-button-response","trial_index":136,"time_elapsed":1451755,"internal_node_id":"0.0-6.0-0.0","subject_id":"5baf6705848bbd0001d6fc8a","study_id":"60edd13110225f80f9f3709b","session_id":"6196c708ad07d1ac97e675fa","condition":"full-information","relevant_dimensions":["wings","pattern"],"bee_group":{"antennae":"X","wings":"1","pattern":"S","legs":"X"},"bonus":0.980000000000001},{"rt":1452.5999999940395,"stimulus":"bees-with-color/bee-B1DM.svg","response":0,"trial_type":"image-button-response","trial_index":137,"time_elapsed":1453218,"internal_node_id":"0.0-6.0-0.1","subject_id":"5baf6705848bbd0001d6fc8a","study_id":"60edd13110225f80f9f3709b","session_id":"6196c708ad07d1ac97e675fa","condition":"full-information","relevant_dimensions":["wings","pattern"],"bee_group":{"antennae":"X","wings":"1","pattern":"S","legs":"X"},"bonus":0.980000000000001},{"rt":2558.5,"stimulus":"bees-with-color/bee-B2SF.svg","response":1,"trial_type":"image-button-response","trial_index":138,"time_elapsed":1455784,"internal_node_id":"0.0-6.0-0.2","subject_id":"5baf6705848bbd0001d6fc8a","study_id":"60edd13110225f80f9f3709b","session_id":"6196c708ad07d1ac97e675fa","condition":"full-information","relevant_dimensions":["wings","pattern"],"bee_group":{"antennae":"X","wings":"1","pattern":"S","legs":"X"},"bonus":0.980000000000001},{"rt":1269.7000000029802,"stimulus":"bees-with-color/bee-A1DF.svg","response":0,"trial_type":"image-button-response","trial_index":139,"time_elapsed":1457063,"internal_node_id":"0.0-6.0-0.3","subject_id":"5baf6705848bbd0001d6fc8a","study_id":"60edd13110225f80f9f3709b","session_id":"6196c708ad07d1ac97e675fa","condition":"full-information","relevant_dimensions":["wings","pattern"],"bee_group":{"antennae":"X","wings":"1","pattern":"S","legs":"X"},"bonus":0.980000000000001},{"rt":2017,"stimulus":"bees-with-color/bee-B1SF.svg","response":1,"trial_type":"image-button-response","trial_index":140,"time_elapsed":1459088,"internal_node_id":"0.0-6.0-0.4","subject_id":"5baf6705848bbd0001d6fc8a","study_id":"60edd13110225f80f9f3709b","session_id":"6196c708ad07d1ac97e675fa","condition":"full-information","relevant_dimensions":["wings","pattern"],"bee_group":{"antennae":"X","wings":"1","pattern":"S","legs":"X"},"bonus":0.980000000000001},{"rt":1726.7000000029802,"stimulus":"bees-with-color/bee-B2DM.svg","response":0,"trial_type":"image-button-response","trial_index":141,"time_elapsed":1460820,"internal_node_id":"0.0-6.0-0.5","subject_id":"5baf6705848bbd0001d6fc8a","study_id":"60edd13110225f80f9f3709b","session_id":"6196c708ad07d1ac97e675fa","condition":"full-information","relevant_dimensions":["wings","pattern"],"bee_group":{"antennae":"X","wings":"1","pattern":"S","legs":"X"},"bonus":0.980000000000001},{"rt":6555.20000000298,"stimulus":"bees-with-color/bee-A1SF.svg","response":1,"trial_type":"image-button-response","trial_index":142,"time_elapsed":1467384,"internal_node_id":"0.0-6.0-0.6","subject_id":"5baf6705848bbd0001d6fc8a","study_id":"60edd13110225f80f9f3709b","session_id":"6196c708ad07d1ac97e675fa","condition":"full-information","relevant_dimensions":["wings","pattern"],"bee_group":{"antennae":"X","wings":"1","pattern":"S","legs":"X"},"bonus":0.980000000000001},{"rt":3934.800000011921,"stimulus":"bees-with-color/bee-B2SM.svg","response":0,"trial_type":"image-button-response","trial_index":143,"time_elapsed":1471326,"internal_node_id":"0.0-6.0-0.7","subject_id":"5baf6705848bbd0001d6fc8a","study_id":"60edd13110225f80f9f3709b","session_id":"6196c708ad07d1ac97e675fa","condition":"full-information","relevant_dimensions":["wings","pattern"],"bee_group":{"antennae":"X","wings":"1","pattern":"S","legs":"X"},"bonus":0.980000000000001},{"rt":1245.9000000059605,"stimulus":"bees-with-color/bee-A1DM.svg","response":0,"trial_type":"image-button-response","trial_index":144,"time_elapsed":1472579,"internal_node_id":"0.0-6.0-0.8","subject_id":"5baf6705848bbd0001d6fc8a","study_id":"60edd13110225f80f9f3709b","session_id":"6196c708ad07d1ac97e675fa","condition":"full-information","relevant_dimensions":["wings","pattern"],"bee_group":{"antennae":"X","wings":"1","pattern":"S","legs":"X"},"bonus":0.980000000000001},{"rt":5234.5,"stimulus":"bees-with-color/bee-B1SM.svg","response":1,"trial_type":"image-button-response","trial_index":145,"time_elapsed":1477821,"internal_node_id":"0.0-6.0-0.9","subject_id":"5baf6705848bbd0001d6fc8a","study_id":"60edd13110225f80f9f3709b","session_id":"6196c708ad07d1ac97e675fa","condition":"full-information","relevant_dimensions":["wings","pattern"],"bee_group":{"antennae":"X","wings":"1","pattern":"S","legs":"X"},"bonus":0.980000000000001},{"rt":2357.7999999970198,"stimulus":"bees-with-color/bee-A2DF.svg","response":0,"trial_type":"image-button-response","trial_index":146,"time_elapsed":1480188,"internal_node_id":"0.0-6.0-0.10","subject_id":"5baf6705848bbd0001d6fc8a","study_id":"60edd13110225f80f9f3709b","session_id":"6196c708ad07d1ac97e675fa","condition":"full-information","relevant_dimensions":["wings","pattern"],"bee_group":{"antennae":"X","wings":"1","pattern":"S","legs":"X"},"bonus":0.980000000000001},{"rt":722.6999999880791,"stimulus":"bees-with-color/bee-A2DM.svg","response":0,"trial_type":"image-button-response","trial_index":147,"time_elapsed":1480921,"internal_node_id":"0.0-6.0-0.11","subject_id":"5baf6705848bbd0001d6fc8a","study_id":"60edd13110225f80f9f3709b","session_id":"6196c708ad07d1ac97e675fa","condition":"full-information","relevant_dimensions":["wings","pattern"],"bee_group":{"antennae":"X","wings":"1","pattern":"S","legs":"X"},"bonus":0.980000000000001},{"rt":774.2000000029802,"stimulus":"bees-with-color/bee-B1DF.svg","response":0,"trial_type":"image-button-response","trial_index":148,"time_elapsed":1481704,"internal_node_id":"0.0-6.0-0.12","subject_id":"5baf6705848bbd0001d6fc8a","study_id":"60edd13110225f80f9f3709b","session_id":"6196c708ad07d1ac97e675fa","condition":"full-information","relevant_dimensions":["wings","pattern"],"bee_group":{"antennae":"X","wings":"1","pattern":"S","legs":"X"},"bonus":0.980000000000001},{"rt":8540.29999999702,"stimulus":"bees-with-color/bee-A2SM.svg","response":0,"trial_type":"image-button-response","trial_index":149,"time_elapsed":1490253,"internal_node_id":"0.0-6.0-0.13","subject_id":"5baf6705848bbd0001d6fc8a","study_id":"60edd13110225f80f9f3709b","session_id":"6196c708ad07d1ac97e675fa","condition":"full-information","relevant_dimensions":["wings","pattern"],"bee_group":{"antennae":"X","wings":"1","pattern":"S","legs":"X"},"bonus":0.980000000000001},{"rt":1132.7999999970198,"stimulus":"bees-with-color/bee-B2DF.svg","response":0,"trial_type":"image-button-response","trial_index":150,"time_elapsed":1491392,"internal_node_id":"0.0-6.0-0.14","subject_id":"5baf6705848bbd0001d6fc8a","study_id":"60edd13110225f80f9f3709b","session_id":"6196c708ad07d1ac97e675fa","condition":"full-information","relevant_dimensions":["wings","pattern"],"bee_group":{"antennae":"X","wings":"1","pattern":"S","legs":"X"},"bonus":0.980000000000001},{"rt":7977.79999999702,"stimulus":"bees-with-color/bee-A1SM.svg","response":1,"trial_type":"image-button-response","trial_index":151,"time_elapsed":1499380,"internal_node_id":"0.0-6.0-0.15","subject_id":"5baf6705848bbd0001d6fc8a","study_id":"60edd13110225f80f9f3709b","session_id":"6196c708ad07d1ac97e675fa","condition":"full-information","relevant_dimensions":["wings","pattern"],"bee_group":{"antennae":"X","wings":"1","pattern":"S","legs":"X"},"bonus":0.980000000000001},{"rt":5021.9000000059605,"stimulus":"bees-with-color/bee-B2DF.svg","response":0,"trial_type":"image-button-response","trial_index":152,"time_elapsed":1504414,"internal_node_id":"0.0-6.0-0.16","subject_id":"5baf6705848bbd0001d6fc8a","study_id":"60edd13110225f80f9f3709b","session_id":"6196c708ad07d1ac97e675fa","condition":"full-information","relevant_dimensions":["wings","pattern"],"bee_group":{"antennae":"X","wings":"1","pattern":"S","legs":"X"},"bonus":0.980000000000001},{"rt":2028.5,"stimulus":"bees-with-color/bee-B2SF.svg","response":1,"trial_type":"image-button-response","trial_index":153,"time_elapsed":1506454,"internal_node_id":"0.0-6.0-0.17","subject_id":"5baf6705848bbd0001d6fc8a","study_id":"60edd13110225f80f9f3709b","session_id":"6196c708ad07d1ac97e675fa","condition":"full-information","relevant_dimensions":["wings","pattern"],"bee_group":{"antennae":"X","wings":"1","pattern":"S","legs":"X"},"bonus":0.980000000000001},{"rt":1776.9000000059605,"stimulus":"bees-with-color/bee-B2SM.svg","response":1,"trial_type":"image-button-response","trial_index":154,"time_elapsed":1508237,"internal_node_id":"0.0-6.0-0.18","subject_id":"5baf6705848bbd0001d6fc8a","study_id":"60edd13110225f80f9f3709b","session_id":"6196c708ad07d1ac97e675fa","condition":"full-information","relevant_dimensions":["wings","pattern"],"bee_group":{"antennae":"X","wings":"1","pattern":"S","legs":"X"},"bonus":0.980000000000001},{"rt":5214.899999991059,"stimulus":"bees-with-color/bee-A2SF.svg","response":1,"trial_type":"image-button-response","trial_index":155,"time_elapsed":1513457,"internal_node_id":"0.0-6.0-0.19","subject_id":"5baf6705848bbd0001d6fc8a","study_id":"60edd13110225f80f9f3709b","session_id":"6196c708ad07d1ac97e675fa","condition":"full-information","relevant_dimensions":["wings","pattern"],"bee_group":{"antennae":"X","wings":"1","pattern":"S","legs":"X"},"bonus":0.980000000000001},{"rt":1460,"stimulus":"bees-with-color/bee-B1SF.svg","response":1,"trial_type":"image-button-response","trial_index":156,"time_elapsed":1514925,"internal_node_id":"0.0-6.0-0.20","subject_id":"5baf6705848bbd0001d6fc8a","study_id":"60edd13110225f80f9f3709b","session_id":"6196c708ad07d1ac97e675fa","condition":"full-information","relevant_dimensions":["wings","pattern"],"bee_group":{"antennae":"X","wings":"1","pattern":"S","legs":"X"},"bonus":0.980000000000001},{"rt":1535.3999999910593,"stimulus":"bees-with-color/bee-B1SM.svg","response":1,"trial_type":"image-button-response","trial_index":157,"time_elapsed":1516470,"internal_node_id":"0.0-6.0-0.21","subject_id":"5baf6705848bbd0001d6fc8a","study_id":"60edd13110225f80f9f3709b","session_id":"6196c708ad07d1ac97e675fa","c