[{"success":true,"trial_type":"fullscreen","trial_index":0,"time_elapsed":5602,"internal_node_id":"0.0-0.0","subject_id":"6132a3c6574a754ce227ad1a","study_id":"60edd13110225f80f9f3709b","session_id":"6196c4a000db091a6a5d36b2","condition":"contingent","relevant_dimensions":["antennae","pattern"],"bee_group":{"antennae":"B","wings":"X","pattern":"S","legs":"X"},"bonus":0.8800000000000004},{"success":true,"timeout":false,"failed_images":[],"failed_audio":[],"failed_video":[],"trial_type":"preload","trial_index":1,"time_elapsed":5662,"internal_node_id":"0.0-1.0","subject_id":"6132a3c6574a754ce227ad1a","study_id":"60edd13110225f80f9f3709b","session_id":"6196c4a000db091a6a5d36b2","condition":"contingent","relevant_dimensions":["antennae","pattern"],"bee_group":{"antennae":"B","wings":"X","pattern":"S","legs":"X"},"bonus":0.8800000000000004},{"rt":2519.800000011921,"stimulus":"Welcome! Press any key to begin.","response":" ","trial_type":"html-keyboard-response","trial_index":2,"time_elapsed":8183,"internal_node_id":"0.0-2.0","subject_id":"6132a3c6574a754ce227ad1a","study_id":"60edd13110225f80f9f3709b","session_id":"6196c4a000db091a6a5d36b2","condition":"contingent","relevant_dimensions":["antennae","pattern"],"bee_group":{"antennae":"B","wings":"X","pattern":"S","legs":"X"},"bonus":0.8800000000000004},{"view_history":[{"page_index":0,"viewing_time":1284.5},{"page_index":1,"viewing_time":1848.6000000238419},{"page_index":2,"viewing_time":2147.300000011921},{"page_index":3,"viewing_time":1376.5},{"page_index":4,"viewing_time":2076.7999999523163},{"page_index":5,"viewing_time":9975.600000023842},{"page_index":6,"viewing_time":4150.300000011921},{"page_index":7,"viewing_time":1766.8999999761581},{"page_index":8,"viewing_time":1295.4000000357628},{"page_index":7,"viewing_time":1581.5},{"page_index":8,"viewing_time":1644.199999988079},{"page_index":9,"viewing_time":2783.599999964237},{"page_index":10,"viewing_time":2106.5},{"page_index":11,"viewing_time":1335.5},{"page_index":12,"viewing_time":1224.4000000357628},{"page_index":13,"viewing_time":1446.699999988079},{"page_index":14,"viewing_time":903.6999999880791}],"rt":38948.40000003576,"trial_type":"instructions","trial_index":3,"time_elapsed":47132,"internal_node_id":"0.0-3.0-0.0","subject_id":"6132a3c6574a754ce227ad1a","study_id":"60edd13110225f80f9f3709b","session_id":"6196c4a000db091a6a5d36b2","condition":"contingent","relevant_dimensions":["antennae","pattern"],"bee_group":{"antennae":"B","wings":"X","pattern":"S","legs":"X"},"bonus":0.8800000000000004},{"rt":10110.899999976158,"response":{"Q0":["Two or six legs","Stripes or spots on body","Single or double wings","Antennae or no antennae"]},"question_order":[0],"trial_type":"survey-multi-select","trial_index":4,"time_elapsed":57251,"internal_node_id":"0.0-3.0-1.0","subject_id":"6132a3c6574a754ce227ad1a","study_id":"60edd13110225f80f9f3709b","session_id":"6196c4a000db091a6a5d36b2","condition":"contingent","relevant_dimensions":["antennae","pattern"],"bee_group":{"antennae":"B","wings":"X","pattern":"S","legs":"X"},"correct":true,"bonus":0.8800000000000004},{"rt":45222,"response":{"Q1":"No.","Q2":"Based on the four features of the bee.","Q3":"You learn if it was friendly or dangerous and alter your bonus."},"question_order":[0,1,2],"trial_type":"survey-multi-choice","trial_index":5,"time_elapsed":102468,"internal_node_id":"0.0-3.0-2.0","subject_id":"6132a3c6574a754ce227ad1a","study_id":"60edd13110225f80f9f3709b","session_id":"6196c4a000db091a6a5d36b2","condition":"contingent","relevant_dimensions":["antennae","pattern"],"bee_group":{"antennae":"B","wings":"X","pattern":"S","legs":"X"},"correct":false,"bonus":0.8800000000000004},{"rt":5289.600000023842,"stimulus":"<p>You did not answer all comprehension questions correctly.<br>Press <b>continue</b> to review the instructions again.</p>","response":0,"trial_type":"html-button-response","trial_index":6,"time_elapsed":107759,"internal_node_id":"0.0-3.0-3.0","subject_id":"6132a3c6574a754ce227ad1a","study_id":"60edd13110225f80f9f3709b","session_id":"6196c4a000db091a6a5d36b2","condition":"contingent","relevant_dimensions":["antennae","pattern"],"bee_group":{"antennae":"B","wings":"X","pattern":"S","legs":"X"},"bonus":0.8800000000000004},{"view_history":[{"page_index":0,"viewing_time":1776},{"page_index":1,"viewing_time":15075.800000011921},{"page_index":2,"viewing_time":5775.600000023842},{"page_index":3,"viewing_time":11037.300000011921},{"page_index":4,"viewing_time":11844.099999964237},{"page_index":5,"viewing_time":10159.699999988079},{"page_index":6,"viewing_time":9789.100000023842},{"page_index":7,"viewing_time":1119.5},{"page_index":8,"viewing_time":174.80000001192093},{"page_index":9,"viewing_time":174.5},{"page_index":10,"viewing_time":2681.099999964237},{"page_index":9,"viewing_time":2619.2000000476837},{"page_index":10,"viewing_time":616.3999999761581},{"page_index":11,"viewing_time":6707.100000023842},{"page_index":12,"viewing_time":6820.5},{"page_index":13,"viewing_time":1284},{"page_index":14,"viewing_time":739.7999999523163}],"rt":88394.70000004768,"trial_type":"instructions","trial_index":7,"time_elapsed":196156,"internal_node_id":"0.0-3.0-4.0-0.0","subject_id":"6132a3c6574a754ce227ad1a","study_id":"60edd13110225f80f9f3709b","session_id":"6196c4a000db091a6a5d36b2","condition":"contingent","relevant_dimensions":["antennae","pattern"],"bee_group":{"antennae":"B","wings":"X","pattern":"S","legs":"X"},"bonus":0.8800000000000004},{"rt":10430.299999952316,"response":{"Q0":["Two or six legs","Stripes or spots on body","Single or double wings","Antennae or no antennae"]},"question_order":[0],"trial_type":"survey-multi-select","trial_index":8,"time_elapsed":206591,"internal_node_id":"0.0-3.0-4.0-1.0","subject_id":"6132a3c6574a754ce227ad1a","study_id":"60edd13110225f80f9f3709b","session_id":"6196c4a000db091a6a5d36b2","condition":"contingent","relevant_dimensions":["antennae","pattern"],"bee_group":{"antennae":"B","wings":"X","pattern":"S","legs":"X"},"correct":true,"bonus":0.8800000000000004},{"rt":25325.600000023842,"response":{"Q1":"No.","Q2":"Based on the four features of the bee.","Q3":"You do not learn if it was friendly or dangerous, and do not alter your bonus."},"question_order":[0,1,2],"trial_type":"survey-multi-choice","trial_index":9,"time_elapsed":231918,"internal_node_id":"0.0-3.0-4.0-2.0","subject_id":"6132a3c6574a754ce227ad1a","study_id":"60edd13110225f80f9f3709b","session_id":"6196c4a000db091a6a5d36b2","condition":"contingent","relevant_dimensions":["antennae","pattern"],"bee_group":{"antennae":"B","wings":"X","pattern":"S","legs":"X"},"correct":true,"bonus":0.8800000000000004},{"rt":2628.699999988079,"stimulus":"<p>Congrats, you got everything right<br>When you're ready, click the button below to continue to the experiment.</p>","response":0,"trial_type":"html-button-response","trial_index":10,"time_elapsed":234547,"internal_node_id":"0.0-3.0-4.0-3.0","subject_id":"6132a3c6574a754ce227ad1a","study_id":"60edd13110225f80f9f3709b","session_id":"6196c4a000db091a6a5d36b2","condition":"contingent","relevant_dimensions":["antennae","pattern"],"bee_group":{"antennae":"B","wings":"X","pattern":"S","legs":"X"},"bonus":0.8800000000000004},{"rt":5841.5,"stimulus":"bees-with-color/bee-B1SM.svg","response":1,"trial_type":"image-button-response","trial_index":11,"time_elapsed":240388,"internal_node_id":"0.0-4.0-0.0","subject_id":"6132a3c6574a754ce227ad1a","study_id":"60edd13110225f80f9f3709b","session_id":"6196c4a000db091a6a5d36b2","condition":"contingent","relevant_dimensions":["antennae","pattern"],"bee_group":{"antennae":"B","wings":"X","pattern":"S","legs":"X"},"action":"avoid","summary":"good-avoid","bonus":0.8800000000000004},{"rt":6425.800000011921,"stimulus":"\n                    <p><b>Action: <em>avoid</em></b></p>\n                    <p>This is the bee that you just saw.</p>\n                    <img src=\"bees-with-color/bee-B1SM.svg\" width=\"200\">\n                    <p><br>Your bonus pay is unchanged, and remains at $0.54.</p>\n            ","response":0,"trial_type":"html-button-response","trial_index":12,"time_elapsed":246816,"internal_node_id":"0.0-4.0-1.0","subject_id":"6132a3c6574a754ce227ad1a","study_id":"60edd13110225f80f9f3709b","session_id":"6196c4a000db091a6a5d36b2","condition":"contingent","relevant_dimensions":["antennae","pattern"],"bee_group":{"antennae":"B","wings":"X","pattern":"S","legs":"X"},"bonus":0.8800000000000004},{"rt":6047.399999976158,"stimulus":"bees-with-color/bee-B2DM.svg","response":0,"trial_type":"image-button-response","trial_index":13,"time_elapsed":252866,"internal_node_id":"0.0-4.0-0.1","subject_id":"6132a3c6574a754ce227ad1a","study_id":"60edd13110225f80f9f3709b","session_id":"6196c4a000db091a6a5d36b2","condition":"contingent","relevant_dimensions":["antennae","pattern"],"bee_group":{"antennae":"B","wings":"X","pattern":"S","legs":"X"},"action":"harvest","summary":"good-harvest","bonus":0.8800000000000004},{"rt":5862.899999976158,"stimulus":"\n                    <p><b>Action: <em>harvest</em></b></p>\n                    <p>This is the bee that you just saw.</p>\n                    <img src=\"bees-with-color/bee-B2DM.svg\" width=\"200\">\n                    <p><span class=\"greenText\"><b>Successful harvest!</b></span><br>Your pay has increased by $0.02. Your bonus pay is now $0.56.</p>\n            ","response":0,"trial_type":"html-button-response","trial_index":14,"time_elapsed":258730,"internal_node_id":"0.0-4.0-1.1","subject_id":"6132a3c6574a754ce227ad1a","study_id":"60edd13110225f80f9f3709b","session_id":"6196c4a000db091a6a5d36b2","condition":"contingent","relevant_dimensions":["antennae","pattern"],"bee_group":{"antennae":"B","wings":"X","pattern":"S","legs":"X"},"bonus":0.8800000000000004},{"rt":2143.600000023842,"stimulus":"bees-with-color/bee-A1DF.svg","response":0,"trial_type":"image-button-response","trial_index":15,"time_elapsed":260876,"internal_node_id":"0.0-4.0-0.2","subject_id":"6132a3c6574a754ce227ad1a","study_id":"60edd13110225f80f9f3709b","session_id":"6196c4a000db091a6a5d36b2","condition":"contingent","relevant_dimensions":["antennae","pattern"],"bee_group":{"antennae":"B","wings":"X","pattern":"S","legs":"X"},"action":"harvest","summary":"good-harvest","bonus":0.8800000000000004},{"rt":2863.199999988079,"stimulus":"\n                    <p><b>Action: <em>harvest</em></b></p>\n                    <p>This is the bee that you just saw.</p>\n                    <img src=\"bees-with-color/bee-A1DF.svg\" width=\"200\">\n                    <p><span class=\"greenText\"><b>Successful harvest!</b></span><br>Your pay has increased by $0.02. Your bonus pay is now $0.58.</p>\n            ","response":0,"trial_type":"html-button-response","trial_index":16,"time_elapsed":263742,"internal_node_id":"0.0-4.0-1.2","subject_id":"6132a3c6574a754ce227ad1a","study_id":"60edd13110225f80f9f3709b","session_id":"6196c4a000db091a6a5d36b2","condition":"contingent","relevant_dimensions":["antennae","pattern"],"bee_group":{"antennae":"B","wings":"X","pattern":"S","legs":"X"},"bonus":0.8800000000000004},{"rt":1518.1000000238419,"stimulus":"bees-with-color/bee-A2SF.svg","response":1,"trial_type":"image-button-response","trial_index":17,"time_elapsed":265262,"internal_node_id":"0.0-4.0-0.3","subject_id":"6132a3c6574a754ce227ad1a","study_id":"60edd13110225f80f9f3709b","session_id":"6196c4a000db091a6a5d36b2","condition":"contingent","relevant_dimensions":["antennae","pattern"],"bee_group":{"antennae":"B","wings":"X","pattern":"S","legs":"X"},"action":"avoid","summary":"bad-avoid","bonus":0.8800000000000004},{"rt":2719.800000011921,"stimulus":"\n                    <p><b>Action: <em>avoid</em></b></p>\n                    <p>This is the bee that you just saw.</p>\n                    <img src=\"bees-with-color/bee-A2SF.svg\" width=\"200\">\n                    <p><br>Your bonus pay is unchanged, and remains at $0.58.</p>\n            ","response":0,"trial_type":"html-button-response","trial_index":18,"time_elapsed":267983,"internal_node_id":"0.0-4.0-1.3","subject_id":"6132a3c6574a754ce227ad1a","study_id":"60edd13110225f80f9f3709b","session_id":"6196c4a000db091a6a5d36b2","condition":"contingent","relevant_dimensions":["antennae","pattern"],"bee_group":{"antennae":"B","wings":"X","pattern":"S","legs":"X"},"bonus":0.8800000000000004},{"rt":3007.5,"stimulus":"bees-with-color/bee-B2DF.svg","response":1,"trial_type":"image-button-response","trial_index":19,"time_elapsed":270993,"internal_node_id":"0.0-4.0-0.4","subject_id":"6132a3c6574a754ce227ad1a","study_id":"60edd13110225f80f9f3709b","session_id":"6196c4a000db091a6a5d36b2","condition":"contingent","relevant_dimensions":["antennae","pattern"],"bee_group":{"antennae":"B","wings":"X","pattern":"S","legs":"X"},"action":"avoid","summary":"bad-avoid","bonus":0.8800000000000004},{"rt":1445.9000000357628,"stimulus":"\n                    <p><b>Action: <em>avoid</em></b></p>\n                    <p>This is the bee that you just saw.</p>\n                    <img src=\"bees-with-color/bee-B2DF.svg\" width=\"200\">\n                    <p><br>Your bonus pay is unchanged, and remains at $0.58.</p>\n            ","response":0,"trial_type":"html-button-response","trial_index":20,"time_elapsed":272440,"internal_node_id":"0.0-4.0-1.4","subject_id":"6132a3c6574a754ce227ad1a","study_id":"60edd13110225f80f9f3709b","session_id":"6196c4a000db091a6a5d36b2","condition":"contingent","relevant_dimensions":["antennae","pattern"],"bee_group":{"antennae":"B","wings":"X","pattern":"S","legs":"X"},"bonus":0.8800000000000004},{"rt":3870.899999976158,"stimulus":"bees-with-color/bee-B1DF.svg","response":1,"trial_type":"image-button-response","trial_index":21,"time_elapsed":276312,"internal_node_id":"0.0-4.0-0.5","subject_id":"6132a3c6574a754ce227ad1a","study_id":"60edd13110225f80f9f3709b","session_id":"6196c4a000db091a6a5d36b2","condition":"contingent","relevant_dimensions":["antennae","pattern"],"bee_group":{"antennae":"B","wings":"X","pattern":"S","legs":"X"},"action":"avoid","summary":"bad-avoid","bonus":0.8800000000000004},{"rt":1262,"stimulus":"\n                    <p><b>Action: <em>avoid</em></b></p>\n                    <p>This is the bee that you just saw.</p>\n                    <img src=\"bees-with-color/bee-B1DF.svg\" width=\"200\">\n                    <p><br>Your bonus pay is unchanged, and remains at $0.58.</p>\n            ","response":0,"trial_type":"html-button-response","trial_index":22,"time_elapsed":277575,"internal_node_id":"0.0-4.0-1.5","subject_id":"6132a3c6574a754ce227ad1a","study_id":"60edd13110225f80f9f3709b","session_id":"6196c4a000db091a6a5d36b2","condition":"contingent","relevant_dimensions":["antennae","pattern"],"bee_group":{"antennae":"B","wings":"X","pattern":"S","legs":"X"},"bonus":0.8800000000000004},{"rt":6561.199999988079,"stimulus":"bees-with-color/bee-B2SF.svg","response":1,"trial_type":"image-button-response","trial_index":23,"time_elapsed":284138,"internal_node_id":"0.0-4.0-0.6","subject_id":"6132a3c6574a754ce227ad1a","study_id":"60edd13110225f80f9f3709b","session_id":"6196c4a000db091a6a5d36b2","condition":"contingent","relevant_dimensions":["antennae","pattern"],"bee_group":{"antennae":"B","wings":"X","pattern":"S","legs":"X"},"action":"avoid","summary":"good-avoid","bonus":0.8800000000000004},{"rt":912.8000000119209,"stimulus":"\n                    <p><b>Action: <em>avoid</em></b></p>\n                    <p>This is the bee that you just saw.</p>\n                    <img src=\"bees-with-color/bee-B2SF.svg\" width=\"200\">\n                    <p><br>Your bonus pay is unchanged, and remains at $0.58.</p>\n            ","response":0,"trial_type":"html-button-response","trial_index":24,"time_elapsed":285053,"internal_node_id":"0.0-4.0-1.6","subject_id":"6132a3c6574a754ce227ad1a","study_id":"60edd13110225f80f9f3709b","session_id":"6196c4a000db091a6a5d36b2","condition":"contingent","relevant_dimensions":["antennae","pattern"],"bee_group":{"antennae":"B","wings":"X","pattern":"S","legs":"X"},"bonus":0.8800000000000004},{"rt":2124.599999964237,"stimulus":"bees-with-color/bee-A1SM.svg","response":1,"trial_type":"image-button-response","trial_index":25,"time_elapsed":287179,"internal_node_id":"0.0-4.0-0.7","subject_id":"6132a3c6574a754ce227ad1a","study_id":"60edd13110225f80f9f3709b","session_id":"6196c4a000db091a6a5d36b2","condition":"contingent","relevant_dimensions":["antennae","pattern"],"bee_group":{"antennae":"B","wings":"X","pattern":"S","legs":"X"},"action":"avoid","summary":"bad-avoid","bonus":0.8800000000000004},{"rt":1662.6000000238419,"stimulus":"\n                    <p><b>Action: <em>avoid</em></b></p>\n                    <p>This is the bee that you just saw.</p>\n                    <img src=\"bees-with-color/bee-A1SM.svg\" width=\"200\">\n                    <p><br>Your bonus pay is unchanged, and remains at $0.58.</p>\n            ","response":0,"trial_type":"html-button-response","trial_index":26,"time_elapsed":288843,"internal_node_id":"0.0-4.0-1.7","subject_id":"6132a3c6574a754ce227ad1a","study_id":"60edd13110225f80f9f3709b","session_id":"6196c4a000db091a6a5d36b2","condition":"contingent","relevant_dimensions":["antennae","pattern"],"bee_group":{"antennae":"B","wings":"X","pattern":"S","legs":"X"},"bonus":0.8800000000000004},{"rt":3254.5,"stimulus":"bees-with-color/bee-B1SF.svg","response":0,"trial_type":"image-button-response","trial_index":27,"time_elapsed":292099,"internal_node_id":"0.0-4.0-0.8","subject_id":"6132a3c6574a754ce227ad1a","study_id":"60edd13110225f80f9f3709b","session_id":"6196c4a000db091a6a5d36b2","condition":"contingent","relevant_dimensions":["antennae","pattern"],"bee_group":{"antennae":"B","wings":"X","pattern":"S","legs":"X"},"action":"harvest","summary":"bad-harvest","bonus":0.8800000000000004},{"rt":2977.5,"stimulus":"\n                    <p><b>Action: <em>harvest</em></b></p>\n                    <p>This is the bee that you just saw.</p>\n                    <img src=\"bees-with-color/bee-B1SF.svg\" width=\"200\">\n                    <p><span class=\"redText\">Bad choice, the bee was angry.</span><br><b>You have been stung!</b><br>Your pay has been decreased by $0.10. Your bonus pay is now $0.48.</p>\n            ","response":0,"trial_type":"html-button-response","trial_index":28,"time_elapsed":295078,"internal_node_id":"0.0-4.0-1.8","subject_id":"6132a3c6574a754ce227ad1a","study_id":"60edd13110225f80f9f3709b","session_id":"6196c4a000db091a6a5d36b2","condition":"contingent","relevant_dimensions":["antennae","pattern"],"bee_group":{"antennae":"B","wings":"X","pattern":"S","legs":"X"},"bonus":0.8800000000000004},{"rt":2545.5,"stimulus":"bees-with-color/bee-A1SF.svg","response":0,"trial_type":"image-button-response","trial_index":29,"time_elapsed":297626,"internal_node_id":"0.0-4.0-0.9","subject_id":"6132a3c6574a754ce227ad1a","study_id":"60edd13110225f80f9f3709b","session_id":"6196c4a000db091a6a5d36b2","condition":"contingent","relevant_dimensions":["antennae","pattern"],"bee_group":{"antennae":"B","wings":"X","pattern":"S","legs":"X"},"action":"harvest","summary":"good-harvest","bonus":0.8800000000000004},{"rt":1354.0999999642372,"stimulus":"\n                    <p><b>Action: <em>harvest</em></b></p>\n                    <p>This is the bee that you just saw.</p>\n                    <img src=\"bees-with-color/bee-A1SF.svg\" width=\"200\">\n                    <p><span class=\"greenText\"><b>Successful harvest!</b></span><br>Your pay has increased by $0.02. Your bonus pay is now $0.50.</p>\n            ","response":0,"trial_type":"html-button-response","trial_index":30,"time_elapsed":298981,"internal_node_id":"0.0-4.0-1.9","subject_id":"6132a3c6574a754ce227ad1a","study_id":"60edd13110225f80f9f3709b","session_id":"6196c4a000db091a6a5d36b2","condition":"contingent","relevant_dimensions":["antennae","pattern"],"bee_group":{"antennae":"B","wings":"X","pattern":"S","legs":"X"},"bonus":0.8800000000000004},{"rt":1416.1000000238419,"stimulus":"bees-with-color/bee-A1DM.svg","response":1,"trial_type":"image-button-response","trial_index":31,"time_elapsed":300404,"internal_node_id":"0.0-4.0-0.10","subject_id":"6132a3c6574a754ce227ad1a","study_id":"60edd13110225f80f9f3709b","session_id":"6196c4a000db091a6a5d36b2","condition":"contingent","relevant_dimensions":["antennae","pattern"],"bee_group":{"antennae":"B","wings":"X","pattern":"S","legs":"X"},"action":"avoid","summary":"bad-avoid","bonus":0.8800000000000004},{"rt":1179.5999999642372,"stimulus":"\n                    <p><b>Action: <em>avoid</em></b></p>\n                    <p>This is the bee that you just saw.</p>\n                    <img src=\"bees-with-color/bee-A1DM.svg\" width=\"200\">\n                    <p><br>Your bonus pay is unchanged, and remains at $0.50.</p>\n            ","response":0,"trial_type":"html-button-response","trial_index":32,"time_elapsed":301585,"internal_node_id":"0.0-4.0-1.10","subject_id":"6132a3c6574a754ce227ad1a","study_id":"60edd13110225f80f9f3709b","session_id":"6196c4a000db091a6a5d36b2","condition":"contingent","relevant_dimensions":["antennae","pattern"],"bee_group":{"antennae":"B","wings":"X","pattern":"S","legs":"X"},"bonus":0.8800000000000004},{"rt":1323.6000000238419,"stimulus":"bees-with-color/bee-B1DM.svg","response":1,"trial_type":"image-button-response","trial_index":33,"time_elapsed":302911,"internal_node_id":"0.0-4.0-0.11","subject_id":"6132a3c6574a754ce227ad1a","study_id":"60edd13110225f80f9f3709b","session_id":"6196c4a000db091a6a5d36b2","condition":"contingent","relevant_dimensions":["antennae","pattern"],"bee_group":{"antennae":"B","wings":"X","pattern":"S","legs":"X"},"action":"avoid","summary":"bad-avoid","bonus":0.8800000000000004},{"rt":891.8000000119209,"stimulus":"\n                    <p><b>Action: <em>avoid</em></b></p>\n                    <p>This is the bee that you just saw.</p>\n                    <img src=\"bees-with-color/bee-B1DM.svg\" width=\"200\">\n                    <p><br>Your bonus pay is unchanged, and remains at $0.50.</p>\n            ","response":0,"trial_type":"html-button-response","trial_index":34,"time_elapsed":303804,"internal_node_id":"0.0-4.0-1.11","subject_id":"6132a3c6574a754ce227ad1a","study_id":"60edd13110225f80f9f3709b","session_id":"6196c4a000db091a6a5d36b2","condition":"contingent","relevant_dimensions":["antennae","pattern"],"bee_group":{"antennae":"B","wings":"X","pattern":"S","legs":"X"},"bonus":0.8800000000000004},{"rt":1436.5,"stimulus":"bees-with-color/bee-A2DM.svg","response":1,"trial_type":"image-button-response","trial_index":35,"time_elapsed":305242,"internal_node_id":"0.0-4.0-0.12","subject_id":"6132a3c6574a754ce227ad1a","study_id":"60edd13110225f80f9f3709b","session_id":"6196c4a000db091a6a5d36b2","condition":"contingent","relevant_dimensions":["antennae","pattern"],"bee_group":{"antennae":"B","wings":"X","pattern":"S","legs":"X"},"action":"avoid","summary":"bad-avoid","bonus":0.8800000000000004},{"rt":1077.6000000238419,"stimulus":"\n                    <p><b>Action: <em>avoid</em></b></p>\n                    <p>This is the bee that you just saw.</p>\n                    <img src=\"bees-with-color/bee-A2DM.svg\" width=\"200\">\n                    <p><br>Your bonus pay is unchanged, and remains at $0.50.</p>\n            ","response":0,"trial_type":"html-button-response","trial_index":36,"time_elapsed":306321,"internal_node_id":"0.0-4.0-1.12","subject_id":"6132a3c6574a754ce227ad1a","study_id":"60edd13110225f80f9f3709b","session_id":"6196c4a000db091a6a5d36b2","condition":"contingent","relevant_dimensions":["antennae","pattern"],"bee_group":{"antennae":"B","wings":"X","pattern":"S","legs":"X"},"bonus":0.8800000000000004},{"rt":1674.1000000238419,"stimulus":"bees-with-color/bee-A2SM.svg","response":1,"trial_type":"image-button-response","trial_index":37,"time_elapsed":307996,"internal_node_id":"0.0-4.0-0.13","subject_id":"6132a3c6574a754ce227ad1a","study_id":"60edd13110225f80f9f3709b","session_id":"6196c4a000db091a6a5d36b2","condition":"contingent","relevant_dimensions":["antennae","pattern"],"bee_group":{"antennae":"B","wings":"X","pattern":"S","legs":"X"},"action":"avoid","summary":"bad-avoid","bonus":0.8800000000000004},{"rt":1343.8999999761581,"stimulus":"\n                    <p><b>Action: <em>avoid</em></b></p>\n                    <p>This is the bee that you just saw.</p>\n                    <img src=\"bees-with-color/bee-A2SM.svg\" width=\"200\">\n                    <p><br>Your bonus pay is unchanged, and remains at $0.50.</p>\n            ","response":0,"trial_type":"html-button-response","trial_index":38,"time_elapsed":309341,"internal_node_id":"0.0-4.0-1.13","subject_id":"6132a3c6574a754ce227ad1a","study_id":"60edd13110225f80f9f3709b","session_id":"6196c4a000db091a6a5d36b2","condition":"contingent","relevant_dimensions":["antennae","pattern"],"bee_group":{"antennae":"B","wings":"X","pattern":"S","legs":"X"},"bonus":0.8800000000000004},{"rt":1374.8999999761581,"stimulus":"bees-with-color/bee-B2SM.svg","response":1,"trial_type":"image-button-response","trial_index":39,"time_elapsed":310717,"internal_node_id":"0.0-4.0-0.14","subject_id":"6132a3c6574a754ce227ad1a","study_id":"60edd13110225f80f9f3709b","session_id":"6196c4a000db091a6a5d36b2","condition":"contingent","relevant_dimensions":["antennae","pattern"],"bee_group":{"antennae":"B","wings":"X","pattern":"S","legs":"X"},"action":"avoid","summary":"good-avoid","bonus":0.8800000000000004},{"rt":902.1999999880791,"stimulus":"\n                    <p><b>Action: <em>avoid</em></b></p>\n                    <p>This is the bee that you just saw.</p>\n                    <img src=\"bees-with-color/bee-B2SM.svg\" width=\"200\">\n                    <p><br>Your bonus pay is unchanged, and remains at $0.50.</p>\n            ","response":0,"trial_type":"html-button-response","trial_index":40,"time_elapsed":311620,"internal_node_id":"0.0-4.0-1.14","subject_id":"6132a3c6574a754ce227ad1a","study_id":"60edd13110225f80f9f3709b","session_id":"6196c4a000db091a6a5d36b2","condition":"contingent","relevant_dimensions":["antennae","pattern"],"bee_group":{"antennae":"B","wings":"X","pattern":"S","legs":"X"},"bonus":0.8800000000000004},{"rt":2002.5,"stimulus":"bees-with-color/bee-A2DF.svg","response":0,"trial_type":"image-button-response","trial_index":41,"time_elapsed":313624,"internal_node_id":"0.0-4.0-0.15","subject_id":"6132a3c6574a754ce227ad1a","study_id":"60edd13110225f80f9f3709b","session_id":"6196c4a000db091a6a5d36b2","condition":"contingent","relevant_dimensions":["antennae","pattern"],"bee_group":{"antennae":"B","wings":"X","pattern":"S","legs":"X"},"action":"harvest","summary":"good-harvest","bonus":0.8800000000000004},{"rt":1200.300000011921,"stimulus":"\n                    <p><b>Action: <em>harvest</em></b></p>\n                    <p>This is the bee that you just saw.</p>\n                    <img src=\"bees-with-color/bee-A2DF.svg\" width=\"200\">\n                    <p><span class=\"greenText\"><b>Successful harvest!</b></span><br>Your pay has increased by $0.02. Your bonus pay is now $0.52.</p>\n            ","response":0,"trial_type":"html-button-response","trial_index":42,"time_elapsed":314825,"internal_node_id":"0.0-4.0-1.15","subject_id":"6132a3c6574a754ce227ad1a","study_id":"60edd13110225f80f9f3709b","session_id":"6196c4a000db091a6a5d36b2","condition":"contingent","relevant_dimensions":["antennae","pattern"],"bee_group":{"antennae":"B","wings":"X","pattern":"S","legs":"X"},"bonus":0.8800000000000004},{"rt":1570.300000011921,"stimulus":"bees-with-color/bee-A1SM.svg","response":1,"trial_type":"image-button-response","trial_index":43,"time_elapsed":316397,"internal_node_id":"0.0-4.0-0.16","subject_id":"6132a3c6574a754ce227ad1a","study_id":"60edd13110225f80f9f3709b","session_id":"6196c4a000db091a6a5d36b2","condition":"contingent","relevant_dimensions":["antennae","pattern"],"bee_group":{"antennae":"B","wings":"X","pattern":"S","legs":"X"},"action":"avoid","summary":"bad-avoid","bonus":0.8800000000000004},{"rt":1283,"stimulus":"\n                    <p><b>Action: <em>avoid</em></b></p>\n                    <p>This is the bee that you just saw.</p>\n                    <img src=\"bees-with-color/bee-A1SM.svg\" width=\"200\">\n                    <p><br>Your bonus pay is unchanged, and remains at $0.52.</p>\n            ","response":0,"trial_type":"html-button-response","trial_index":44,"time_elapsed":317681,"internal_node_id":"0.0-4.0-1.16","subject_id":"6132a3c6574a754ce227ad1a","study_id":"60edd13110225f80f9f3709b","session_id":"6196c4a000db091a6a5d36b2","condition":"contingent","relevant_dimensions":["antennae","pattern"],"bee_group":{"antennae":"B","wings":"X","pattern":"S","legs":"X"},"bonus":0.8800000000000004},{"rt":1148.3999999761581,"stimulus":"bees-with-color/bee-B2SM.svg","response":1,"trial_type":"image-button-response","trial_index":45,"time_elapsed":318831,"internal_node_id":"0.0-4.0-0.17","subject_id":"6132a3c6574a754ce227ad1a","study_id":"60edd13110225f80f9f3709b","session_id":"6196c4a000db091a6a5d36b2","condition":"contingent","relevant_dimensions":["antennae","pattern"],"bee_group":{"antennae":"B","wings":"X","pattern":"S","legs":"X"},"action":"avoid","summary":"good-avoid","bonus":0.8800000000000004},{"rt":779.4000000357628,"stimulus":"\n                    <p><b>Action: <em>avoid</em></b></p>\n                    <p>This is the bee that you just saw.</p>\n                    <img src=\"bees-with-color/bee-B2SM.svg\" width=\"200\">\n                    <p><br>Your bonus pay is unchanged, and remains at $0.52.</p>\n            ","response":0,"trial_type":"html-button-response","trial_index":46,"time_elapsed":319612,"internal_node_id":"0.0-4.0-1.17","subject_id":"6132a3c6574a754ce227ad1a","study_id":"60edd13110225f80f9f3709b","session_id":"6196c4a000db091a6a5d36b2","condition":"contingent","relevant_dimensions":["antennae","pattern"],"bee_group":{"antennae":"B","wings":"X","pattern":"S","legs":"X"},"bonus":0.8800000000000004},{"rt":1488.699999988079,"stimulus":"bees-with-color/bee-A1DM.svg","response":1,"trial_type":"image-button-response","trial_index":47,"time_elapsed":321102,"internal_node_id":"0.0-4.0-0.18","subject_id":"6132a3c6574a754ce227ad1a","study_id":"60edd13110225f80f9f3709b","session_id":"6196c4a000db091a6a5d36b2","condition":"contingent","relevant_dimensions":["antennae","pattern"],"bee_group":{"antennae":"B","wings":"X","pattern":"S","legs":"X"},"action":"avoid","summary":"bad-avoid","bonus":0.8800000000000004},{"rt":1220.7000000476837,"stimulus":"\n                    <p><b>Action: <em>avoid</em></b></p>\n                    <p>This is the bee that you just saw.</p>\n                    <img src=\"bees-with-color/bee-A1DM.svg\" width=\"200\">\n                    <p><br>Your bonus pay is unchanged, and remains at $0.52.</p>\n            ","response":0,"trial_type":"html-button-response","trial_index":48,"time_elapsed":322324,"internal_node_id":"0.0-4.0-1.18","subject_id":"6132a3c6574a754ce227ad1a","study_id":"60edd13110225f80f9f3709b","session_id":"6196c4a000db091a6a5d36b2","condition":"contingent","relevant_dimensions":["antennae","pattern"],"bee_group":{"antennae":"B","wings":"X","pattern":"S","legs":"X"},"bonus":0.8800000000000004},{"rt":1067,"stimulus":"bees-with-color/bee-B2DF.svg","response":1,"trial_type":"image-button-response","trial_index":49,"time_elapsed":323392,"internal_node_id":"0.0-4.0-0.19","subject_id":"6132a3c6574a754ce227ad1a","study_id":"60edd13110225f80f9f3709b","session_id":"6196c4a000db091a6a5d36b2","condition":"contingent","relevant_dimensions":["antennae","pattern"],"bee_group":{"antennae":"B","wings":"X","pattern":"S","legs":"X"},"action":"avoid","summary":"bad-avoid","bonus":0.8800000000000004},{"rt":840.8000000119209,"stimulus":"\n                    <p><b>Action: <em>avoid</em></b></p>\n                    <p>This is the bee that you just saw.</p>\n                    <img src=\"bees-with-color/bee-B2DF.svg\" width=\"200\">\n                    <p><br>Your bonus pay is unchanged, and remains at $0.52.</p>\n            ","response":0,"trial_type":"html-button-response","trial_index":50,"time_elapsed":324234,"internal_node_id":"0.0-4.0-1.19","subject_id":"6132a3c6574a754ce227ad1a","study_id":"60edd13110225f80f9f3709b","session_id":"6196c4a000db091a6a5d36b2","condition":"contingent","relevant_dimensions":["antennae","pattern"],"bee_group":{"antennae":"B","wings":"X","pattern":"S","legs":"X"},"bonus":0.8800000000000004},{"rt":1118,"stimulus":"bees-with-color/bee-B1DM.svg","response":1,"trial_type":"image-button-response","trial_index":51,"time_elapsed":325354,"internal_node_id":"0.0-4.0-0.20","subject_id":"6132a3c6574a754ce227ad1a","study_id":"60edd13110225f80f9f3709b","session_id":"6196c4a000db091a6a5d36b2","condition":"contingent","relevant_dimensions":["antennae","pattern"],"bee_group":{"antennae":"B","wings":"X","pattern":"S","legs":"X"},"action":"avoid","summary":"bad-avoid","bonus":0.8800000000000004},{"rt":840.9000000357628,"stimulus":"\n                    <p><b>Action: <em>avoid</em></b></p>\n                    <p>This is the bee that you just saw.</p>\n                    <img src=\"bees-with-color/bee-B1DM.svg\" width=\"200\">\n                    <p><br>Your bonus pay is unchanged, and remains at $0.52.</p>\n            ","response":0,"trial_type":"html-button-response","trial_index":52,"time_elapsed":326196,"internal_node_id":"0.0-4.0-1.20","subject_id":"6132a3c6574a754ce227ad1a","study_id":"60edd13110225f80f9f3709b","session_id":"6196c4a000db091a6a5d36b2","condition":"contingent","relevant_dimensions":["antennae","pattern"],"bee_group":{"antennae":"B","wings":"X","pattern":"S","legs":"X"},"bonus":0.8800000000000004},{"rt":1704,"stimulus":"bees-with-color/bee-A1DF.svg","response":0,"trial_type":"image-button-response","trial_index":53,"time_elapsed":327901,"internal_node_id":"0.0-4.0-0.21","subject_id":"6132a3c6574a754ce227ad1a","study_id":"60edd13110225f80f9f3709b","session_id":"6196c4a000db091a6a5d36b2","condition":"contingent","relevant_dimensions":["antennae","pattern"],"bee_group":{"antennae":"B","wings":"X","pattern":"S","legs":"X"},"action":"harvest","summary":"good-harvest","bonus":0.8800000000000004},{"rt":1200.1000000238419,"stimulus":"\n                    <p><b>Action: <em>harvest</em></b></p>\n                    <p>This is the bee that you just saw.</p>\n                    <img src=\"bees-with-color/bee-A1DF.svg\" width=\"200\">\n                    <p><span class=\"greenText\"><b>Successful harvest!</b></span><br>Your pay has increased by $0.02. Your bonus pay is now $0.54.</p>\n            ","response":0,"trial_type":"html-button-response","trial_index":54,"time_elapsed":329103,"internal_node_id":"0.0-4.0-1.21","subject_id":"6132a3c6574a754ce227ad1a","study_id":"60edd13110225f80f9f3709b","session_id":"6196c4a000db091a6a5d36b2","condition":"contingent","relevant_dimensions":["antennae","pattern"],"bee_group":{"antennae":"B","wings":"X","pattern":"S","legs":"X"},"bonus":0.8800000000000004},{"rt":2638.5,"stimulus":"bees-with-color/bee-B1SF.svg","response":1,"trial_type":"image-button-response","trial_index":55,"time_elapsed":331742,"internal_node_id":"0.0-4.0-0.22","subject_id":"6132a3c6574a754ce227ad1a","study_id":"60edd13110225f80f9f3709b","session_id":"6196c4a000db091a6a5d36b2","condition":"contingent","relevant_dimensions":["antennae","pattern"],"bee_group":{"antennae":"B","wings":"X","pattern":"S","legs":"X"},"action":"avoid","summary":"good-avoid","bonus":0.8800000000000004},{"rt":953.6999999880791,"stimulus":"\n                    <p><b>Action: <em>avoid</em></b></p>\n                    <p>This is the bee that you just saw.</p>\n                    <img src=\"bees-with-color/bee-B1SF.svg\" width=\"200\">\n                    <p><br>Your bonus pay is unchanged, and remains at $0.54.</p>\n            ","response":0,"trial_type":"html-button-response","trial_index":56,"time_elapsed":332697,"internal_node_id":"0.0-4.0-1.22","subject_id":"6132a3c6574a754ce227ad1a","study_id":"60edd13110225f80f9f3709b","session_id":"6196c4a000db091a6a5d36b2","condition":"contingent","relevant_dimensions":["antennae","pattern"],"bee_group":{"antennae":"B","wings":"X","pattern":"S","legs":"X"},"bonus":0.8800000000000004},{"rt":2381.7999999523163,"stimulus":"bees-with-color/bee-A2DF.svg","response":0,"trial_type":"image-button-response","trial_index":57,"time_elapsed":335080,"internal_node_id":"0.0-4.0-0.23","subject_id":"6132a3c6574a754ce227ad1a","study_id":"60edd13110225f80f9f3709b","session_id":"6196c4a000db091a6a5d36b2","condition":"contingent","relevant_dimensions":["antennae","pattern"],"bee_group":{"antennae":"B","wings":"X","pattern":"S","legs":"X"},"action":"harvest","summary":"good-harvest","bonus":0.8800000000000004},{"rt":1066.800000011921,"stimulus":"\n                    <p><b>Action: <em>harvest</em></b></p>\n                    <p>This is the bee that you just saw.</p>\n                    <img src=\"bees-with-color/bee-A2DF.svg\" width=\"200\">\n                    <p><span class=\"greenText\"><b>Successful harvest!</b></span><br>Your pay has increased by $0.02. Your bonus pay is now $0.56.</p>\n            ","response":0,"trial_type":"html-button-response","trial_index":58,"time_elapsed":336148,"internal_node_id":"0.0-4.0-1.23","subject_id":"6132a3c6574a754ce227ad1a","study_id":"60edd13110225f80f9f3709b","session_id":"6196c4a000db091a6a5d36b2","condition":"contingent","relevant_dimensions":["antennae","pattern"],"bee_group":{"antennae":"B","wings":"X","pattern":"S","legs":"X"},"bonus":0.8800000000000004},{"rt":3634.300000011921,"stimulus":"bees-with-color/bee-A2SF.svg","response":1,"trial_type":"image-button-response","trial_index":59,"time_elapsed":339784,"internal_node_id":"0.0-4.0-0.24","subject_id":"6132a3c6574a754ce227ad1a","study_id":"60edd13110225f80f9f3709b","session_id":"6196c4a000db091a6a5d36b2","condition":"contingent","relevant_dimensions":["antennae","pattern"],"bee_group":{"antennae":"B","wings":"X","pattern":"S","legs":"X"},"action":"avoid","summary":"bad-avoid","bonus":0.8800000000000004},{"rt":1251.2999999523163,"stimulus":"\n                    <p><b>Action: <em>avoid</em></b></p>\n                    <p>This is the bee that you just saw.</p>\n                    <img src=\"bees-with-color/bee-A2SF.svg\" width=\"200\">\n                    <p><br>Your bonus pay is unchanged, and remains at $0.56.</p>\n            ","response":0,"trial_type":"html-button-response","trial_index":60,"time_elapsed":341037,"internal_node_id":"0.0-4.0-1.24","subject_id":"6132a3c6574a754ce227ad1a","study_id":"60edd13110225f80f9f3709b","session_id":"6196c4a000db091a6a5d36b2","condition":"contingent","relevant_dimensions":["antennae","pattern"],"bee_group":{"antennae":"B","wings":"X","pattern":"S","legs":"X"},"bonus":0.8800000000000004},{"rt":2053,"stimulus":"bees-with-color/bee-A1SF.svg","response":0,"trial_type":"image-button-response","trial_index":61,"time_elapsed":343091,"internal_node_id":"0.0-4.0-0.25","subject_id":"6132a3c6574a754ce227ad1a","study_id":"60edd13110225f80f9f3709b","session_id":"6196c4a000db091a6a5d36b2","condition":"contingent","relevant_dimensions":["antennae","pattern"],"bee_group":{"antennae":"B","wings":"X","pattern":"S","legs":"X"},"action":"harvest","summary":"good-harvest","bonus":0.8800000000000004},{"rt":1323.3999999761581,"stimulus":"\n                    <p><b>Action: <em>harvest</em></b></p>\n                    <p>This is the bee that you just saw.</p>\n                    <img src=\"bees-with-color/bee-A1SF.svg\" width=\"200\">\n                    <p><span class=\"greenText\"><b>Successful harvest!</b></span><br>Your pay has increased by $0.02. Your bonus pay is now $0.58.</p>\n            ","response":0,"trial_type":"html-button-response","trial_index":62,"time_elapsed":344416,"internal_node_id":"0.0-4.0-1.25","subject_id":"6132a3c6574a754ce227ad1a","study_id":"60edd13110225f80f9f3709b","session_id":"6196c4a000db091a6a5d36b2","condition":"contingent","relevant_dimensions":["antennae","pattern"],"bee_group":{"antennae":"B","wings":"X","pattern":"S","legs":"X"},"bonus":0.8800000000000004},{"rt":2258.2999999523163,"stimulus":"bees-with-color/bee-A2DM.svg","response":1,"trial_type":"image-button-response","trial_index":63,"time_elapsed":346676,"internal_node_id":"0.0-4.0-0.26","subject_id":"6132a3c6574a754ce227ad1a","study_id":"60edd13110225f80f9f3709b","session_id":"6196c4a000db091a6a5d36b2","condition":"contingent","relevant_dimensions":["antennae","pattern"],"bee_group":{"antennae":"B","wings":"X","pattern":"S","legs":"X"},"action":"avoid","summary":"bad-avoid","bonus":0.8800000000000004},{"rt":1107.8999999761581,"stimulus":"\n                    <p><b>Action: <em>avoid</em></b></p>\n                    <p>This is the bee that you just saw.</p>\n                    <img src=\"bees-with-color/bee-A2DM.svg\" width=\"200\">\n                    <p><br>Your bonus pay is unchanged, and remains at $0.58.</p>\n            ","response":0,"trial_type":"html-button-response","trial_index":64,"time_elapsed":347785,"internal_node_id":"0.0-4.0-1.26","subject_id":"6132a3c6574a754ce227ad1a","study_id":"60edd13110225f80f9f3709b","session_id":"6196c4a000db091a6a5d36b2","condition":"contingent","relevant_dimensions":["antennae","pattern"],"bee_group":{"antennae":"B","wings":"X","pattern":"S","legs":"X"},"bonus":0.8800000000000004},{"rt":2154.7999999523163,"stimulus":"bees-with-color/bee-A2SM.svg","response":1,"trial_type":"image-button-response","trial_index":65,"time_elapsed":349941,"internal_node_id":"0.0-4.0-0.27","subject_id":"6132a3c6574a754ce227ad1a","study_id":"60edd13110225f80f9f3709b","session_id":"6196c4a000db091a6a5d36b2","condition":"contingent","relevant_dimensions":["antennae","pattern"],"bee_group":{"antennae":"B","wings":"X","pattern":"S","legs":"X"},"action":"avoid","summary":"bad-avoid","bonus":0.8800000000000004},{"rt":922.8999999761581,"stimulus":"\n                    <p><b>Action: <em>avoid</em></b></p>\n                    <p>This is the bee that you just saw.</p>\n                    <img src=\"bees-with-color/bee-A2SM.svg\" width=\"200\">\n                    <p><br>Your bonus pay is unchanged, and remains at $0.58.</p>\n            ","response":0,"trial_type":"html-button-response","trial_index":66,"time_elapsed":350865,"internal_node_id":"0.0-4.0-1.27","subject_id":"6132a3c6574a754ce227ad1a","study_id":"60edd13110225f80f9f3709b","session_id":"6196c4a000db091a6a5d36b2","condition":"contingent","relevant_dimensions":["antennae","pattern"],"bee_group":{"antennae":"B","wings":"X","pattern":"S","legs":"X"},"bonus":0.8800000000000004},{"rt":1200.5,"stimulus":"bees-with-color/bee-B2SF.svg","response":1,"trial_type":"image-button-response","trial_index":67,"time_elapsed":352067,"internal_node_id":"0.0-4.0-0.28","subject_id":"6132a3c6574a754ce227ad1a","study_id":"60edd13110225f80f9f3709b","session_id":"6196c4a000db091a6a5d36b2","condition":"contingent","relevant_dimensions":["antennae","pattern"],"bee_group":{"antennae":"B","wings":"X","pattern":"S","legs":"X"},"action":"avoid","summary":"good-avoid","bonus":0.8800000000000004},{"rt":870.9000000357628,"stimulus":"\n                    <p><b>Action: <em>avoid</em></b></p>\n                    <p>This is the bee that you just saw.</p>\n                    <img src=\"bees-with-color/bee-B2SF.svg\" width=\"200\">\n                    <p><br>Your bonus pay is unchanged, and remains at $0.58.</p>\n            ","response":0,"trial_type":"html-button-response","trial_index":68,"time_elapsed":352939,"internal_node_id":"0.0-4.0-1.28","subject_id":"6132a3c6574a754ce227ad1a","study_id":"60edd13110225f80f9f3709b","session_id":"6196c4a000db091a6a5d36b2","condition":"contingent","relevant_dimensions":["antennae","pattern"],"bee_group":{"antennae":"B","wings":"X","pattern":"S","legs":"X"},"bonus":0.8800000000000004},{"rt":1776,"stimulus":"bees-with-color/bee-B1SM.svg","response":1,"trial_type":"image-button-response","trial_index":69,"time_elapsed":354717,"internal_node_id":"0.0-4.0-0.29","subject_id":"6132a3c6574a754ce227ad1a","study_id":"60edd13110225f80f9f3709b","session_id":"6196c4a000db091a6a5d36b2","condition":"contingent","relevant_dimensions":["antennae","pattern"],"bee_group":{"antennae":"B","wings":"X","pattern":"S","legs":"X"},"action":"avoid","summary":"good-avoid","bonus":0.8800000000000004},{"rt":1067,"stimulus":"\n                    <p><b>Action: <em>avoid</em></b></p>\n                    <p>This is the bee that you just saw.</p>\n                    <img src=\"bees-with-color/bee-B1SM.svg\" width=\"200\">\n                    <p><br>Your bonus pay is unchanged, and remains at $0.58.</p>\n            ","response":0,"trial_type":"html-button-response","trial_index":70,"time_elapsed":355785,"internal_node_id":"0.0-4.0-1.29","subject_id":"6132a3c6574a754ce227ad1a","study_id":"60edd13110225f80f9f3709b","session_id":"6196c4a000db091a6a5d36b2","condition":"contingent","relevant_dimensions":["antennae","pattern"],"bee_group":{"antennae":"B","wings":"X","pattern":"S","legs":"X"},"bonus":0.8800000000000004},{"rt":1087.199999988079,"stimulus":"bees-with-color/bee-B2DM.svg","response":1,"trial_type":"image-button-response","trial_index":71,"time_elapsed":356874,"internal_node_id":"0.0-4.0-0.30","subject_id":"6132a3c6574a754ce227ad1a","study_id":"60edd13110225f80f9f3709b","session_id":"6196c4a000db091a6a5d36b2","condition":"contingent","relevant_dimensions":["antennae","pattern"],"bee_group":{"antennae":"B","wings":"X","pattern":"S","legs":"X"},"action":"avoid","summary":"bad-avoid","bonus":0.8800000000000004},{"rt":943,"stimulus":"\n                    <p><b>Action: <em>avoid</em></b></p>\n                    <p>This is the bee that you just saw.</p>\n                    <img src=\"bees-with-color/bee-B2DM.svg\" width=\"200\">\n                    <p><br>Your bonus pay is unchanged, and remains at $0.58.</p>\n            ","response":0,"trial_type":"html-button-response","trial_index":72,"time_elapsed":357818,"internal_node_id":"0.0-4.0-1.30","subject_id":"6132a3c6574a754ce227ad1a","study_id":"60edd13110225f80f9f3709b","session_id":"6196c4a000db091a6a5d36b2","condition":"contingent","relevant_dimensions":["antennae","pattern"],"bee_group":{"antennae":"B","wings":"X","pattern":"S","legs":"X"},"bonus":0.8800000000000004},{"rt":1067.5,"stimulus":"bees-with-color/bee-B1DF.svg","response":1,"trial_type":"image-button-response","trial_index":73,"time_elapsed":358887,"internal_node_id":"0.0-4.0-0.31","subject_id":"6132a3c6574a754ce227ad1a","study_id":"60edd13110225f80f9f3709b","session_id":"6196c4a000db091a6a5d36b2","condition":"contingent","relevant_dimensions":["antennae","pattern"],"bee_group":{"antennae":"B","wings":"X","pattern":"S","legs":"X"},"action":"avoid","summary":"bad-avoid","bonus":0.8800000000000004},{"rt":871.5,"stimulus":"\n                    <p><b>Action: <em>avoid</em></b></p>\n                    <p>This is the bee that you just saw.</p>\n                    <img src=\"bees-with-color/bee-B1DF.svg\" width=\"200\">\n                    <p><br>Your bonus pay is unchanged, and remains at $0.58.</p>\n            ","response":0,"trial_type":"html-button-response","trial_index":74,"time_elapsed":359753,"internal_node_id":"0.0-4.0-1.31","subject_id":"6132a3c6574a754ce227ad1a","study_id":"60edd13110225f80f9f3709b","session_id":"6196c4a000db091a6a5d36b2","condition":"contingent","relevant_dimensions":["antennae","pattern"],"bee_group":{"antennae":"B","wings":"X","pattern":"S","legs":"X"},"bonus":0.8800000000000004},{"rt":1569.5,"stimulus":"bees-with-color/bee-A1SM.svg","response":1,"trial_type":"image-button-response","trial_index":75,"time_elapsed":361324,"internal_node_id":"0.0-4.0-0.32","subject_id":"6132a3c6574a754ce227ad1a","study_id":"60edd13110225f80f9f3709b","session_id":"6196c4a000db091a6a5d36b2","condition":"contingent","relevant_dimensions":["antennae","pattern"],"bee_group":{"antennae":"B","wings":"X","pattern":"S","legs":"X"},"action":"avoid","summary":"bad-avoid","bonus":0.8800000000000004},{"rt":1015.8000000119209,"stimulus":"\n                    <p><b>Action: <em>avoid</em></b></p>\n                    <p>This is the bee that you just saw.</p>\n                    <img src=\"bees-with-color/bee-A1SM.svg\" width=\"200\">\n                    <p><br>Your bonus pay is unchanged, and remains at $0.58.</p>\n            ","response":0,"trial_type":"html-button-response","trial_index":76,"time_elapsed":362340,"internal_node_id":"0.0-4.0-1.32","subject_id":"6132a3c6574a754ce227ad1a","study_id":"60edd13110225f80f9f3709b","session_id":"6196c4a000db091a6a5d36b2","condition":"contingent","relevant_dimensions":["antennae","pattern"],"bee_group":{"antennae":"B","wings":"X","pattern":"S","legs":"X"},"bonus":0.8800000000000004},{"rt":944.1999999880791,"stimulus":"bees-with-color/bee-B1DF.svg","response":1,"trial_type":"image-button-response","trial_index":77,"time_elapsed":363286,"internal_node_id":"0.0-4.0-0.33","subject_id":"6132a3c6574a754ce227ad1a","study_id":"60edd13110225f80f9f3709b","session_id":"6196c4a000db091a6a5d36b2","condition":"contingent","relevant_dimensions":["antennae","pattern"],"bee_group":{"antennae":"B","wings":"X","pattern":"S","legs":"X"},"action":"avoid","summary":"bad-avoid","bonus":0.8800000000000004},{"rt":1333.5,"stimulus":"\n                    <p><b>Action: <em>avoid</em></b></p>\n                    <p>This is the bee that you just saw.</p>\n                    <img src=\"bees-with-color/bee-B1DF.svg\" width=\"200\">\n                    <p><br>Your bonus pay is unchanged, and remains at $0.58.</p>\n            ","response":0,"trial_type":"html-button-response","trial_index":78,"time_elapsed":364620,"internal_node_id":"0.0-4.0-1.33","subject_id":"6132a3c6574a754ce227ad1a","study_id":"60edd13110225f80f9f3709b","session_id":"6196c4a000db091a6a5d36b2","condition":"contingent","relevant_dimensions":["antennae","pattern"],"bee_group":{"antennae":"B","wings":"X","pattern":"S","legs":"X"},"bonus":0.8800000000000004},{"rt":1652.699999988079,"stimulus":"bees-with-color/bee-A1DF.svg","response":0,"trial_type":"image-button-response","trial_index":79,"time_elapsed":366274,"internal_node_id":"0.0-4.0-0.34","subject_id":"6132a3c6574a754ce227ad1a","study_id":"60edd13110225f80f9f3709b","session_id":"6196c4a000db091a6a5d36b2","condition":"contingent","relevant_dimensions":["antennae","pattern"],"bee_group":{"antennae":"B","wings":"X","pattern":"S","legs":"X"},"action":"harvest","summary":"good-harvest","bonus":0.8800000000000004},{"rt":1221.199999988079,"stimulus":"\n                    <p><b>Action: <em>harvest</em></b></p>\n                    <p>This is the bee that you just saw.</p>\n                    <img src=\"bees-with-color/bee-A1DF.svg\" width=\"200\">\n                    <p><span class=\"greenText\"><b>Successful harvest!</b></span><br>Your pay has increased by $0.02. Your bonus pay is now $0.60.</p>\n            ","response":0,"trial_type":"html-button-response","trial_index":80,"time_elapsed":367496,"internal_node_id":"0.0-4.0-1.34","subject_id":"6132a3c6574a754ce227ad1a","study_id":"60edd13110225f80f9f3709b","session_id":"6196c4a000db091a6a5d36b2","condition":"contingent","relevant_dimensions":["antennae","pattern"],"bee_group":{"antennae":"B","wings":"X","pattern":"S","legs":"X"},"bonus":0.8800000000000004},{"rt":1385.4000000357628,"stimulus":"bees-with-color/bee-B1DM.svg","response":1,"trial_type":"image-button-response","trial_index":81,"time_elapsed":368883,"internal_node_id":"0.0-4.0-0.35","subject_id":"6132a3c6574a754ce227ad1a","study_id":"60edd13110225f80f9f3709b","session_id":"6196c4a000db091a6a5d36b2","condition":"contingent","relevant_dimensions":["antennae","pattern"],"bee_group":{"antennae":"B","wings":"X","pattern":"S","legs":"X"},"action":"avoid","summary":"bad-avoid","bonus":0.8800000000000004},{"rt":1107.699999988079,"stimulus":"\n                    <p><b>Action: <em>avoid</em></b></p>\n                    <p>This is the bee that you just saw.</p>\n                    <img src=\"bees-with-color/bee-B1DM.svg\" width=\"200\">\n                    <p><br>Your bonus pay is unchanged, and remains at $0.60.</p>\n            ","response":0,"trial_type":"html-button-response","trial_index":82,"time_elapsed":369992,"internal_node_id":"0.0-4.0-1.35","subject_id":"6132a3c6574a754ce227ad1a","study_id":"60edd13110225f80f9f3709b","session_id":"6196c4a000db091a6a5d36b2","condition":"contingent","relevant_dimensions":["antennae","pattern"],"bee_group":{"antennae":"B","wings":"X","pattern":"S","legs":"X"},"bonus":0.8800000000000004},{"rt":3049.300000011921,"stimulus":"bees-with-color/bee-B2SM.svg","response":1,"trial_type":"image-button-response","trial_index":83,"time_elapsed":373042,"internal_node_id":"0.0-4.0-0.36","subject_id":"6132a3c6574a754ce227ad1a","study_id":"60edd13110225f80f9f3709b","session_id":"6196c4a000db091a6a5d36b2","condition":"contingent","relevant_dimensions":["antennae","pattern"],"bee_group":{"antennae":"B","wings":"X","pattern":"S","legs":"X"},"action":"avoid","summary":"good-avoid","bonus":0.8800000000000004},{"rt":1652.3999999761581,"stimulus":"\n                    <p><b>Action: <em>avoid</em></b></p>\n                    <p>This is the bee that you just saw.</p>\n                    <img src=\"bees-with-color/bee-B2SM.svg\" width=\"200\">\n                    <p><br>Your bonus pay is unchanged, and remains at $0.60.</p>\n            ","response":0,"trial_type":"html-button-response","trial_index":84,"time_elapsed":374696,"internal_node_id":"0.0-4.0-1.36","subject_id":"6132a3c6574a754ce227ad1a","study_id":"60edd13110225f80f9f3709b","session_id":"6196c4a000db091a6a5d36b2","condition":"contingent","relevant_dimensions":["antennae","pattern"],"bee_group":{"antennae":"B","wings":"X","pattern":"S","legs":"X"},"bonus":0.8800000000000004},{"rt":2432.800000011921,"stimulus":"bees-with-color/bee-A2SF.svg","response":0,"trial_type":"image-button-response","trial_index":85,"time_elapsed":377130,"internal_node_id":"0.0-4.0-0.37","subject_id":"6132a3c6574a754ce227ad1a","study_id":"60edd13110225f80f9f3709b","session_id":"6196c4a000db091a6a5d36b2","condition":"contingent","relevant_dimensions":["antennae","pattern"],"bee_group":{"antennae":"B","wings":"X","pattern":"S","legs":"X"},"action":"harvest","summary":"good-harvest","bonus":0.8800000000000004},{"rt":1613.699999988079,"stimulus":"\n                    <p><b>Action: <em>harvest</em></b></p>\n                    <p>This is the bee that you just saw.</p>\n                    <img src=\"bees-with-color/bee-A2SF.svg\" width=\"200\">\n                    <p><span class=\"greenText\"><b>Successful harvest!</b></span><br>Your pay has increased by $0.02. Your bonus pay is now $0.62.</p>\n            ","response":0,"trial_type":"html-button-response","trial_index":86,"time_elapsed":378745,"internal_node_id":"0.0-4.0-1.37","subject_id":"6132a3c6574a754ce227ad1a","study_id":"60edd13110225f80f9f3709b","session_id":"6196c4a000db091a6a5d36b2","condition":"contingent","relevant_dimensions":["antennae","pattern"],"bee_group":{"antennae":"B","wings":"X","pattern":"S","legs":"X"},"bonus":0.8800000000000004},{"rt":4247.800000011921,"stimulus":"bees-with-color/bee-A1DM.svg","response":1,"trial_type":"image-button-response","trial_index":87,"time_elapsed":382994,"internal_node_id":"0.0-4.0-0.38","subject_id":"6132a3c6574a754ce227ad1a","study_id":"60edd13110225f80f9f3709b","session_id":"6196c4a000db091a6a5d36b2","condition":"contingent","relevant_dimensions":["antennae","pattern"],"bee_group":{"antennae":"B","wings":"X","pattern":"S","legs":"X"},"action":"avoid","summary":"bad-avoid","bonus":0.8800000000000004},{"rt":15971.800000011921,"stimulus":"\n                    <p><b>Action: <em>avoid</em></b></p>\n                    <p>This is the bee that you just saw.</p>\n                    <img src=\"bees-with-color/bee-A1DM.svg\" width=\"200\">\n                    <p><br>Your bonus pay is unchanged, and remains at $0.62.</p>\n            ","response":0,"trial_type":"html-button-response","trial_index":88,"time_elapsed":398968,"internal_node_id":"0.0-4.0-1.38","subject_id":"6132a3c6574a754ce227ad1a","study_id":"60edd13110225f80f9f3709b","session_id":"6196c4a000db091a6a5d36b2","condition":"contingent","relevant_dimensions":["antennae","pattern"],"bee_group":{"antennae":"B","wings":"X","pattern":"S","legs":"X"},"bonus":0.8800000000000004},{"rt":12206.900000035763,"stimulus":"bees-with-color/bee-B1SF.svg","response":1,"trial_type":"image-button-response","trial_index":89,"time_elapsed":411177,"internal_node_id":"0.0-4.0-0.39","subject_id":"6132a3c6574a754ce227ad1a","study_id":"60edd13110225f80f9f3709b","session_id":"6196c4a000db091a6a5d36b2","condition":"contingent","relevant_dimensions":["antennae","pattern"],"bee_group":{"antennae":"B","wings":"X","pattern":"S","legs":"X"},"action":"avoid","summary":"good-avoid","bonus":0.8800000000000004},{"rt":1231.6000000238419,"stimulus":"\n                    <p><b>Action: <em>avoid</em></b></p>\n                    <p>This is the bee that you just saw.</p>\n                    <img src=\"bees-with-color/bee-B1SF.svg\" width=\"200\">\n                    <p><br>Your bonus pay is unchanged, and remains at $0.62.</p>\n            ","response":0,"trial_type":"html-button-response","trial_index":90,"time_elapsed":412409,"internal_node_id":"0.0-4.0-1.39","subject_id":"6132a3c6574a754ce227ad1a","study_id":"60edd13110225f80f9f3709b","session_id":"6196c4a000db091a6a5d36b2","condition":"contingent","relevant_dimensions":["antennae","pattern"],"bee_group":{"antennae":"B","wings":"X","pattern":"S","legs":"X"},"bonus":0.8800000000000004},{"rt":2155.600000023842,"stimulus":"bees-with-color/bee-A1SF.svg","response":0,"trial_type":"image-button-response","trial_index":91,"time_elapsed":414567,"internal_node_id":"0.0-4.0-0.40","subject_id":"6132a3c6574a754ce227ad1a","study_id":"60edd13110225f80f9f3709b","session_id":"6196c4a000db091a6a5d36b2","condition":"contingent","relevant_dimensions":["antennae","pattern"],"bee_group":{"antennae":"B","wings":"X","pattern":"S","legs":"X"},"action":"harvest","summary":"good-harvest","bonus":0.8800000000000004},{"rt":1293.0999999642372,"stimulus":"\n                    <p><b>Action: <em>harvest</em></b></p>\n                    <p>This is the bee that you just saw.</p>\n                    <img src=\"bees-with-color/bee-A1SF.svg\" width=\"200\">\n                    <p><span class=\"greenText\"><b>Successful harvest!</b></span><br>Your pay has increased by $0.02. Your bonus pay is now $0.64.</p>\n            ","response":0,"trial_type":"html-button-response","trial_index":92,"time_elapsed":415861,"internal_node_id":"0.0-4.0-1.40","subject_id":"6132a3c6574a754ce227ad1a","study_id":"60edd13110225f80f9f3709b","session_id":"6196c4a000db091a6a5d36b2","condition":"contingent","relevant_dimensions":["antennae","pattern"],"bee_group":{"antennae":"B","wings":"X","pattern":"S","legs":"X"},"bonus":0.8800000000000004},{"rt":3933.5,"stimulus":"bees-with-color/bee-A2DF.svg","response":1,"trial_type":"image-button-response","trial_index":93,"time_elapsed":419808,"internal_node_id":"0.0-4.0-0.41","subject_id":"6132a3c6574a754ce227ad1a","study_id":"60edd13110225f80f9f3709b","session_id":"6196c4a000db091a6a5d36b2","condition":"contingent","relevant_dimensions":["antennae","pattern"],"bee_group":{"antennae":"B","wings":"X","pattern":"S","legs":"X"},"action":"avoid","summary":"bad-avoid","bonus":0.8800000000000004},{"rt":1240.800000011921,"stimulus":"\n                    <p><b>Action: <em>avoid</em></b></p>\n                    <p>This is the bee that you just saw.</p>\n                    <img src=\"bees-with-color/bee-A2DF.svg\" width=\"200\">\n                    <p><br>Your bonus pay is unchanged, and remains at $0.64.</p>\n            ","response":0,"trial_type":"html-button-response","trial_index":94,"time_elapsed":421050,"internal_node_id":"0.0-4.0-1.41","subject_id":"6132a3c6574a754ce227ad1a","study_id":"60edd13110225f80f9f3709b","session_id":"6196c4a000db091a6a5d36b2","condition":"contingent","relevant_dimensions":["antennae","pattern"],"bee_group":{"antennae":"B","wings":"X","pattern":"S","legs":"X"},"bonus":0.8800000000000004},{"rt":1704.300000011921,"stimulus":"bees-with-color/bee-A2DM.svg","response":1,"trial_type":"image-button-response","trial_index":95,"time_elapsed":422756,"internal_node_id":"0.0-4.0-0.42","subject_id":"6132a3c6574a754ce227ad1a","study_id":"60edd13110225f80f9f3709b","session_id":"6196c4a000db091a6a5d36b2","condition":"contingent","relevant_dimensions":["antennae","pattern"],"bee_group":{"antennae":"B","wings":"X","pattern":"S","legs":"X"},"action":"avoid","summary":"bad-avoid","bonus":0.8800000000000004},{"rt":1672.9000000357628,"stimulus":"\n                    <p><b>Action: <em>avoid</em></b></p>\n                    <p>This is the bee that you just saw.</p>\n                    <img src=\"bees-with-color/bee-A2DM.svg\" width=\"200\">\n                    <p><br>Your bonus pay is unchanged, and remains at $0.64.</p>\n            ","response":0,"trial_type":"html-button-response","trial_index":96,"time_elapsed":424430,"internal_node_id":"0.0-4.0-1.42","subject_id":"6132a3c6574a754ce227ad1a","study_id":"60edd13110225f80f9f3709b","session_id":"6196c4a000db091a6a5d36b2","condition":"contingent","relevant_dimensions":["antennae","pattern"],"bee_group":{"antennae":"B","wings":"X","pattern":"S","legs":"X"},"bonus":0.8800000000000004},{"rt":1591.0999999642372,"stimulus":"bees-with-color/bee-B2DF.svg","response":1,"trial_type":"image-button-response","trial_index":97,"time_elapsed":426022,"internal_node_id":"0.0-4.0-0.43","subject_id":"6132a3c6574a754ce227ad1a","study_id":"60edd13110225f80f9f3709b","session_id":"6196c4a000db091a6a5d36b2","condition":"contingent","relevant_dimensions":["antennae","pattern"],"bee_group":{"antennae":"B","wings":"X","pattern":"S","legs":"X"},"action":"avoid","summary":"bad-avoid","bonus":0.8800000000000004},{"rt":1077,"stimulus":"\n                    <p><b>Action: <em>avoid</em></b></p>\n                    <p>This is the bee that you just saw.</p>\n                    <img src=\"bees-with-color/bee-B2DF.svg\" width=\"200\">\n                    <p><br>Your bonus pay is unchanged, and remains at $0.64.</p>\n            ","response":0,"trial_type":"html-button-response","trial_index":98,"time_elapsed":427101,"internal_node_id":"0.0-4.0-1.43","subject_id":"6132a3c6574a754ce227ad1a","study_id":"60edd13110225f80f9f3709b","session_id":"6196c4a000db091a6a5d36b2","condition":"contingent","relevant_dimensions":["antennae","pattern"],"bee_group":{"antennae":"B","wings":"X","pattern":"S","legs":"X"},"bonus":0.8800000000000004},{"rt":1416.3999999761581,"stimulus":"bees-with-color/bee-B2DM.svg","response":1,"trial_type":"image-button-response","trial_index":99,"time_elapsed":428519,"internal_node_id":"0.0-4.0-0.44","subject_id":"6132a3c6574a754ce227ad1a","study_id":"60edd13110225f80f9f3709b","session_id":"6196c4a000db091a6a5d36b2","condition":"contingent","relevant_dimensions":["antennae","pattern"],"bee_group":{"antennae":"B","wings":"X","pattern":"S","legs":"X"},"action":"avoid","summary":"bad-avoid","bonus":0.8800000000000004},{"rt":1066,"stimulus":"\n                    <p><b>Action: <em>avoid</em></b></p>\n                    <p>This is the bee that you just saw.</p>\n                    <img src=\"bees-with-color/bee-B2DM.svg\" width=\"200\">\n                    <p><br>Your bonus pay is unchanged, and remains at $0.64.</p>\n            ","response":0,"trial_type":"html-button-response","trial_index":100,"time_elapsed":429586,"internal_node_id":"0.0-4.0-1.44","subject_id":"6132a3c6574a754ce227ad1a","study_id":"60edd13110225f80f9f3709b","session_id":"6196c4a000db091a6a5d36b2","condition":"contingent","relevant_dimensions":["antennae","pattern"],"bee_group":{"antennae":"B","wings":"X","pattern":"S","legs":"X"},"bonus":0.8800000000000004},{"rt":1396.300000011921,"stimulus":"bees-with-color/bee-B1SM.svg","response":1,"trial_type":"image-button-response","trial_index":101,"time_elapsed":430984,"internal_node_id":"0.0-4.0-0.45","subject_id":"6132a3c6574a754ce227ad1a","study_id":"60edd13110225f80f9f3709b","session_id":"6196c4a000db091a6a5d36b2","condition":"contingent","relevant_dimensions":["antennae","pattern"],"bee_group":{"antennae":"B","wings":"X","pattern":"S","legs":"X"},"action":"avoid","summary":"good-avoid","bonus":0.8800000000000004},{"rt":873,"stimulus":"\n                    <p><b>Action: <em>avoid</em></b></p>\n                    <p>This is the bee that you just saw.</p>\n                    <img src=\"bees-with-color/bee-B1SM.svg\" width=\"200\">\n                    <p><br>Your bonus pay is unchanged, and remains at $0.64.</p>\n            ","response":0,"trial_type":"html-button-response","trial_index":102,"time_elapsed":431859,"internal_node_id":"0.0-4.0-1.45","subject_id":"6132a3c6574a754ce227ad1a","study_id":"60edd13110225f80f9f3709b","session_id":"6196c4a000db091a6a5d36b2","condition":"contingent","relevant_dimensions":["antennae","pattern"],"bee_group":{"antennae":"B","wings":"X","pattern":"S","legs":"X"},"bonus":0.8800000000000004},{"rt":1403.4000000357628,"stimulus":"bees-with-color/bee-A2SM.svg","response":1,"trial_type":"image-button-response","trial_index":103,"time_elapsed":433264,"internal_node_id":"0.0-4.0-0.46","subject_id":"6132a3c6574a754ce227ad1a","study_id":"60edd13110225f80f9f3709b","session_id":"6196c4a000db091a6a5d36b2","condition":"contingent","relevant_dimensions":["antennae","pattern"],"bee_group":{"antennae":"B","wings":"X","pattern":"S","legs":"X"},"action":"avoid","summary":"bad-avoid","bonus":0.8800000000000004},{"rt":1087.8999999761581,"stimulus":"\n                    <p><b>Action: <em>avoid</em></b></p>\n                    <p>This is the bee that you just saw.</p>\n                    <img src=\"bees-with-color/bee-A2SM.svg\" width=\"200\">\n                    <p><br>Your bonus pay is unchanged, and remains at $0.64.</p>\n            ","response":0,"trial_type":"html-button-response","trial_index":104,"time_elapsed":434353,"internal_node_id":"0.0-4.0-1.46","subject_id":"6132a3c6574a754ce227ad1a","study_id":"60edd13110225f80f9f3709b","session_id":"6196c4a000db091a6a5d36b2","condition":"contingent","relevant_dimensions":["antennae","pattern"],"bee_group":{"antennae":"B","wings":"X","pattern":"S","legs":"X"},"bonus":0.8800000000000004},{"rt":1621.800000011921,"stimulus":"bees-with-color/bee-B2SF.svg","response":1,"trial_type":"image-button-response","trial_index":105,"time_elapsed":435976,"internal_node_id":"0.0-4.0-0.47","subject_id":"6132a3c6574a754ce227ad1a","study_id":"60edd13110225f80f9f3709b","session_id":"6196c4a000db091a6a5d36b2","condition":"contingent","relevant_dimensions":["antennae","pattern"],"bee_group":{"antennae":"B","wings":"X","pattern":"S","legs":"X"},"action":"avoid","summary":"good-avoid","bonus":0.8800000000000004},{"rt":7664.699999988079,"stimulus":"\n                    <p><b>Action: <em>avoid</em></b></p>\n                    <p>This is the bee that you just saw.</p>\n                    <img src=\"bees-with-color/bee-B2SF.svg\" width=\"200\">\n                    <p><br>Your bonus pay is unchanged, and remains at $0.64.</p>\n            ","response":0,"trial_type":"html-button-response","trial_index":106,"time_elapsed":443642,"internal_node_id":"0.0-4.0-1.47","subject_id":"6132a3c6574a754ce227ad1a","study_id":"60edd13110225f80f9f3709b","session_id":"6196c4a000db091a6a5d36b2","condition":"contingent","relevant_dimensions":["antennae","pattern"],"bee_group":{"antennae":"B","wings":"X","pattern":"S","legs":"X"},"bonus":0.8800000000000004},{"rt":1385.3999999761581,"stimulus":"bees-with-color/bee-A2DM.svg","response":1,"trial_type":"image-button-response","trial_index":107,"time_elapsed":445029,"internal_node_id":"0.0-4.0-0.48","subject_id":"6132a3c6574a754ce227ad1a","study_id":"60edd13110225f80f9f3709b","session_id":"6196c4a000db091a6a5d36b2","condition":"contingent","relevant_dimensions":["antennae","pattern"],"bee_group":{"antennae":"B","wings":"X","pattern":"S","legs":"X"},"action":"avoid","summary":"bad-avoid","bonus":0.8800000000000004},{"rt":1251.7999999523163,"stimulus":"\n                    <p><b>Action: <em>avoid</em></b></p>\n                    <p>This is the bee that you just saw.</p>\n                    <img src=\"bees-with-color/bee-A2DM.svg\" width=\"200\">\n                    <p><br>Your bonus pay is unchanged, and remains at $0.64.</p>\n            ","response":0,"trial_type":"html-button-response","trial_index":108,"time_elapsed":446282,"internal_node_id":"0.0-4.0-1.48","subject_id":"6132a3c6574a754ce227ad1a","study_id":"60edd13110225f80f9f3709b","session_id":"6196c4a000db091a6a5d36b2","condition":"contingent","relevant_dimensions":["antennae","pattern"],"bee_group":{"antennae":"B","wings":"X","pattern":"S","legs":"X"},"bonus":0.8800000000000004},{"rt":1365.1000000238419,"stimulus":"bees-with-color/bee-B2SM.svg","response":1,"trial_type":"image-button-response","trial_index":109,"time_elapsed":447648,"internal_node_id":"0.0-4.0-0.49","subject_id":"6132a3c6574a754ce227ad1a","study_id":"60edd13110225f80f9f3709b","session_id":"6196c4a000db091a6a5d36b2","condition":"contingent","relevant_dimensions":["antennae","pattern"],"bee_group":{"antennae":"B","wings":"X","pattern":"S","legs":"X"},"action":"avoid","summary":"good-avoid","bonus":0.8800000000000004},{"rt":1189.8999999761581,"stimulus":"\n                    <p><b>Action: <em>avoid</em></b></p>\n                    <p>This is the bee that you just saw.</p>\n                    <img src=\"bees-with-color/bee-B2SM.svg\" width=\"200\">\n                    <p><br>Your bonus pay is unchanged, and remains at $0.64.</p>\n            ","response":0,"trial_type":"html-button-response","trial_index":110,"time_elapsed":448839,"internal_node_id":"0.0-4.0-1.49","subject_id":"6132a3c6574a754ce227ad1a","study_id":"60edd13110225f80f9f3709b","session_id":"6196c4a000db091a6a5d36b2","condition":"contingent","relevant_dimensions":["antennae","pattern"],"bee_group":{"antennae":"B","wings":"X","pattern":"S","legs":"X"},"bonus":0.8800000000000004},{"rt":4323.300000011921,"stimulus":"bees-with-color/bee-B1SF.svg","response":1,"trial_type":"image-button-response","trial_index":111,"time_elapsed":453164,"internal_node_id":"0.0-4.0-0.50","subject_id":"6132a3c6574a754ce227ad1a","study_id":"60edd13110225f80f9f3709b","session_id":"6196c4a000db091a6a5d36b2","condition":"contingent","relevant_dimensions":["antennae","pattern"],"bee_group":{"antennae":"B","wings":"X","pattern":"S","legs":"X"},"action":"avoid","summary":"good-avoid","bonus":0.8800000000000004},{"rt":1159,"stimulus":"\n                    <p><b>Action: <em>avoid</em></b></p>\n                    <p>This is the bee that you just saw.</p>\n                    <img src=\"bees-with-color/bee-B1SF.svg\" width=\"200\">\n                    <p><br>Your bonus pay is unchanged, and remains at $0.64.</p>\n            ","response":0,"trial_type":"html-button-response","trial_index":112,"time_elapsed":454324,"internal_node_id":"0.0-4.0-1.50","subject_id":"6132a3c6574a754ce227ad1a","study_id":"60edd13110225f80f9f3709b","session_id":"6196c4a000db091a6a5d36b2","condition":"contingent","relevant_dimensions":["antennae","pattern"],"bee_group":{"antennae":"B","wings":"X","pattern":"S","legs":"X"},"bonus":0.8800000000000004},{"rt":2001.5999999642372,"stimulus":"bees-with-color/bee-A2DF.svg","response":0,"trial_type":"image-button-response","trial_index":113,"time_elapsed":456327,"internal_node_id":"0.0-4.0-0.51","subject_id":"6132a3c6574a754ce227ad1a","study_id":"60edd13110225f80f9f3709b","session_id":"6196c4a000db091a6a5d36b2","condition":"contingent","relevant_dimensions":["antennae","pattern"],"bee_group":{"antennae":"B","wings":"X","pattern":"S","legs":"X"},"action":"harvest","summary":"good-harvest","bonus":0.8800000000000004},{"rt":1353.5999999642372,"stimulus":"\n                    <p><b>Action: <em>harvest</em></b></p>\n                    <p>This is the bee that you just saw.</p>\n                    <img src=\"bees-with-color/bee-A2DF.svg\" width=\"200\">\n                    <p><span class=\"greenText\"><b>Successful harvest!</b></span><br>Your pay has increased by $0.02. Your bonus pay is now $0.66.</p>\n            ","response":0,"trial_type":"html-button-response","trial_index":114,"time_elapsed":457682,"internal_node_id":"0.0-4.0-1.51","subject_id":"6132a3c6574a754ce227ad1a","study_id":"60edd13110225f80f9f3709b","session_id":"6196c4a000db091a6a5d36b2","condition":"contingent","relevant_dimensions":["antennae","pattern"],"bee_group":{"antennae":"B","wings":"X","pattern":"S","legs":"X"},"bonus":0.8800000000000004},{"rt":1458.300000011921,"stimulus":"bees-with-color/bee-B2DF.svg","response":1,"trial_type":"image-button-response","trial_index":115,"time_elapsed":459142,"internal_node_id":"0.0-4.0-0.52","subject_id":"6132a3c6574a754ce227ad1a","study_id":"60edd13110225f80f9f3709b","session_id":"6196c4a000db091a6a5d36b2","condition":"contingent","relevant_dimensions":["antennae","pattern"],"bee_group":{"antennae":"B","wings":"X","pattern":"S","legs":"X"},"action":"avoid","summary":"bad-avoid","bonus":0.8800000000000004},{"rt":2227.100000023842,"stimulus":"\n                    <p><b>Action: <em>avoid</em></b></p>\n                    <p>This is the bee that you just saw.</p>\n                    <img src=\"bees-with-color/bee-B2DF.svg\" width=\"200\">\n                    <p><br>Your bonus pay is unchanged, and remains at $0.66.</p>\n            ","response":0,"trial_type":"html-button-response","trial_index":116,"time_elapsed":461370,"internal_node_id":"0.0-4.0-1.52","subject_id":"6132a3c6574a754ce227ad1a","study_id":"60edd13110225f80f9f3709b","session_id":"6196c4a000db091a6a5d36b2","condition":"contingent","relevant_dimensions":["antennae","pattern"],"bee_group":{"antennae":"B","wings":"X","pattern":"S","legs":"X"},"bonus":0.8800000000000004},{"rt":1333.699999988079,"stimulus":"bees-with-color/bee-B1DM.svg","response":1,"trial_type":"image-button-response","trial_index":117,"time_elapsed":462705,"internal_node_id":"0.0-4.0-0.53","subject_id":"6132a3c6574a754ce227ad1a","study_id":"60edd13110225f80f9f3709b","session_id":"6196c4a000db091a6a5d36b2","condition":"contingent","relevant_dimensions":["antennae","pattern"],"bee_group":{"antennae":"B","wings":"X","pattern":"S","legs":"X"},"action":"avoid","summary":"bad-avoid","bonus":0.8800000000000004},{"rt":831.1999999880791,"stimulus":"\n                    <p><b>Action: <em>avoid</em></b></p>\n                    <p>This is the bee that you just saw.</p>\n                    <img src=\"bees-with-color/bee-B1DM.svg\" width=\"200\">\n                    <p><br>Your bonus pay is unchanged, and remains at $0.66.</p>\n            ","response":0,"trial_type":"html-button-response","trial_index":118,"time_elapsed":463538,"internal_node_id":"0.0-4.0-1.53","subject_id":"6132a3c6574a754ce227ad1a","study_id":"60edd13110225f80f9f3709b","session_id":"6196c4a000db091a6a5d36b2","condition":"contingent","relevant_dimensions":["antennae","pattern"],"bee_group":{"antennae":"B","wings":"X","pattern":"S","legs":"X"},"bonus":0.8800000000000004},{"rt":1488.1000000238419,"stimulus":"bees-with-color/bee-A1DM.svg","response":1,"trial_type":"image-button-response","trial_index":119,"time_elapsed":465027,"internal_node_id":"0.0-4.0-0.54","subject_id":"6132a3c6574a754ce227ad1a","study_id":"60edd13110225f80f9f3709b","session_id":"6196c4a000db091a6a5d36b2","condition":"contingent","relevant_dimensions":["antennae","pattern"],"bee_group":{"antennae":"B","wings":"X","pattern":"S","legs":"X"},"action":"avoid","summary":"bad-avoid","bonus":0.8800000000000004},{"rt":1056.199999988079,"stimulus":"\n                    <p><b>Action: <em>avoid</em></b></p>\n                    <p>This is the bee that you just saw.</p>\n                    <img src=\"bees-with-color/bee-A1DM.svg\" width=\"200\">\n                    <p><br>Your bonus pay is unchanged, and remains at $0.66.</p>\n            ","response":0,"trial_type":"html-button-response","trial_index":120,"time_elapsed":466085,"internal_node_id":"0.0-4.0-1.54","subject_id":"6132a3c6574a754ce227ad1a","study_id":"60edd13110225f80f9f3709b","session_id":"6196c4a000db091a6a5d36b2","condition":"contingent","relevant_dimensions":["antennae","pattern"],"bee_group":{"antennae":"B","wings":"X","pattern":"S","legs":"X"},"bonus":0.8800000000000004},{"rt":1169.300000011921,"stimulus":"bees-with-color/bee-B1DF.svg","response":1,"trial_type":"image-button-response","trial_index":121,"time_elapsed":467256,"internal_node_id":"0.0-4.0-0.55","subject_id":"6132a3c6574a754ce227ad1a","study_id":"60edd13110225f80f9f3709b","session_id":"6196c4a000db091a6a5d36b2","condition":"contingent","relevant_dimensions":["antennae","pattern"],"bee_group":{"antennae":"B","wings":"X","pattern":"S","legs":"X"},"action":"avoid","summary":"bad-avoid","bonus":0.8800000000000004},{"rt":963.8000000119209,"stimulus":"\n                    <p><b>Action: <em>avoid</em></b></p>\n                    <p>This is the bee that you just saw.</p>\n                    <img src=\"bees-with-color/bee-B1DF.svg\" width=\"200\">\n                    <p><br>Your bonus pay is unchanged, and remains at $0.66.</p>\n            ","response":0,"trial_type":"html-button-response","trial_index":122,"time_elapsed":468221,"internal_node_id":"0.0-4.0-1.55","subject_id":"6132a3c6574a754ce227ad1a","study_id":"60edd13110225f80f9f3709b","session_id":"6196c4a000db091a6a5d36b2","condition":"contingent","relevant_dimensions":["antennae","pattern"],"bee_group":{"antennae":"B","wings":"X","pattern":"S","legs":"X"},"bonus":0.8800000000000004},{"rt":1950,"stimulus":"bees-with-color/bee-A1SM.svg","response":1,"trial_type":"image-button-response","trial_index":123,"time_elapsed":470172,"internal_node_id":"0.0-4.0-0.56","subject_id":"6132a3c6574a754ce227ad1a","study_id":"60edd13110225f80f9f3709b","session_id":"6196c4a000db091a6a5d36b2","condition":"contingent","relevant_dimensions":["antennae","pattern"],"bee_group":{"antennae":"B","wings":"X","pattern":"S","legs":"X"},"action":"avoid","summary":"bad-avoid","bonus":0.8800000000000004},{"rt":840.4000000357628,"stimulus":"\n                    <p><b>Action: <em>avoid</em></b></p>\n                    <p>This is the bee that you just saw.</p>\n                    <img src=\"bees-with-color/bee-A1SM.svg\" width=\"200\">\n                    <p><br>Your bonus pay is unchanged, and remains at $0.66.</p>\n            ","response":0,"trial_type":"html-button-response","trial_index":124,"time_elapsed":471014,"internal_node_id":"0.0-4.0-1.56","subject_id":"6132a3c6574a754ce227ad1a","study_id":"60edd13110225f80f9f3709b","session_id":"6196c4a000db091a6a5d36b2","condition":"contingent","relevant_dimensions":["antennae","pattern"],"bee_group":{"antennae":"B","wings":"X","pattern":"S","legs":"X"},"bonus":0.8800000000000004},{"rt":1323.699999988079,"stimulus":"bees-with-color/bee-B2DM.svg","response":1,"trial_type":"image-button-response","trial_index":125,"time_elapsed":472339,"internal_node_id":"0.0-4.0-0.57","subject_id":"6132a3c6574a754ce227ad1a","study_id":"60edd13110225f80f9f3709b","session_id":"6196c4a000db091a6a5d36b2","condition":"contingent","relevant_dimensions":["antennae","pattern"],"bee_group":{"antennae":"B","wings":"X","pattern":"S","legs":"X"},"action":"avoid","summary":"bad-avoid","bonus":0.8800000000000004},{"rt":707.7000000476837,"stimulus":"\n                    <p><b>Action: <em>avoid</em></b></p>\n                    <p>This is the bee that you just saw.</p>\n                    <img src=\"bees-with-color/bee-B2DM.svg\" width=\"200\">\n                    <p><br>Your bonus pay is unchanged, and remains at $0.66.</p>\n            ","response":0,"trial_type":"html-button-response","trial_index":126,"time_elapsed":473048,"internal_node_id":"0.0-4.0-1.57","subject_id":"6132a3c6574a754ce227ad1a","study_id":"60edd13110225f80f9f3709b","session_id":"6196c4a000db091a6a5d36b2","condition":"contingent","relevant_dimensions":["antennae","pattern"],"bee_group":{"antennae":"B","wings":"X","pattern":"S","legs":"X"},"bonus":0.8800000000000004},{"rt":1713.800000011921,"stimulus":"bees-with-color/bee-A2SF.svg","response":0,"trial_type":"image-button-response","trial_index":127,"time_elapsed":474763,"internal_node_id":"0.0-4.0-0.58","subject_id":"6132a3c6574a754ce227ad1a","study_id":"60edd13110225f80f9f3709b","session_id":"6196c4a000db091a6a5d36b2","condition":"contingent","relevant_dimensions":["antennae","pattern"],"bee_group":{"antennae":"B","wings":"X","pattern":"S","legs":"X"},"action":"harvest","summary":"good-harvest","bonus":0.8800000000000004},{"rt":1683.3999999761581,"stimulus":"\n                    <p><b>Action: <em>harvest</em></b></p>\n                    <p>This is the bee that you just saw.</p>\n                    <img src=\"bees-with-color/bee-A2SF.svg\" width=\"200\">\n                    <p><span class=\"greenText\"><b>Successful harvest!</b></span><br>Your pay has increased by $0.02. Your bonus pay is now $0.68.</p>\n            ","response":0,"trial_type":"html-button-response","trial_index":128,"time_elapsed":476447,"internal_node_id":"0.0-4.0-1.58","subject_id":"6132a3c6574a754ce227ad1a","study_id":"60edd13110225f80f9f3709b","session_id":"6196c4a000db091a6a5d36b2","condition":"contingent","relevant_dimensions":["antennae","pattern"],"bee_group":{"antennae":"B","wings":"X","pattern":"S","legs":"X"},"bonus":0.8800000000000004},{"rt":1559.6000000238419,"stimulus":"bees-with-color/bee-A2SM.svg","response":1,"trial_type":"image-button-response","trial_index":129,"time_elapsed":478008,"internal_node_id":"0.0-4.0-0.59","subject_id":"6132a3c6574a754ce227ad1a","study_id":"60edd13110225f80f9f3709b","session_id":"6196c4a000db091a6a5d36b2","condition":"contingent","relevant_dimensions":["antennae","pattern"],"bee_group":{"antennae":"B","wings":"X","pattern":"S","legs":"X"},"action":"avoid","summary":"bad-avoid","bonus":0.8800000000000004},{"rt":1160.5,"stimulus":"\n                    <p><b>Action: <em>avoid</em></b></p>\n                    <p>This is the bee that you just saw.</p>\n                    <img src=\"bees-with-color/bee-A2SM.svg\" width=\"200\">\n                    <p><br>Your bonus pay is unchanged, and remains at $0.68.</p>\n            ","response":0,"trial_type":"html-button-response","trial_index":130,"time_elapsed":479170,"internal_node_id":"0.0-4.0-1.59","subject_id":"6132a3c6574a754ce227ad1a","study_id":"60edd13110225f80f9f3709b","session_id":"6196c4a000db091a6a5d36b2","condition":"contingent","relevant_dimensions":["antennae","pattern"],"bee_group":{"antennae":"B","wings":"X","pattern":"S","legs":"X"},"bonus":0.8800000000000004},{"rt":4927.5,"stimulus":"bees-with-color/bee-A1DF.svg","response":0,"trial_type":"image-button-response","trial_index":131,"time_elapsed":484100,"internal_node_id":"0.0-4.0-0.60","subject_id":"6132a3c6574a754ce227ad1a","study_id":"60edd13110225f80f9f3709b","session_id":"6196c4a000db091a6a5d36b2","condition":"contingent","relevant_dimensions":["antennae","pattern"],"bee_group":{"antennae":"B","wings":"X","pattern":"S","legs":"X"},"action":"harvest","summary":"good-harvest","bonus":0.8800000000000004},{"rt":995.2000000476837,"stimulus":"\n                    <p><b>Action: <em>harvest</em></b></p>\n                    <p>This is the bee that you just saw.</p>\n                    <img src=\"bees-with-color/bee-A1DF.svg\" width=\"200\">\n                    <p><span class=\"greenText\"><b>Successful harvest!</b></span><br>Your pay has increased by $0.02. Your bonus pay is now $0.70.</p>\n            ","response":0,"trial_type":"html-button-response","trial_index":132,"time_elapsed":485096,"internal_node_id":"0.0-4.0-1.60","subject_id":"6132a3c6574a754ce227ad1a","study_id":"60edd13110225f80f9f3709b","session_id":"6196c4a000db091a6a5d36b2","condition":"contingent","relevant_dimensions":["antennae","pattern"],"bee_group":{"antennae":"B","wings":"X","pattern":"S","legs":"X"},"bonus":0.8800000000000004},{"rt":1457.2999999523163,"stimulus":"bees-with-color/bee-B1SM.svg","response":1,"trial_type":"image-button-response","trial_index":133,"time_elapsed":486555,"internal_node_id":"0.0-4.0-0.61","subject_id":"6132a3c6574a754ce227ad1a","study_id":"60edd13110225f80f9f3709b","session_id":"6196c4a000db091a6a5d36b2","condition":"contingent","relevant_dimensions":["antennae","pattern"],"bee_group":{"antennae":"B","wings":"X","pattern":"S","legs":"X"},"action":"avoid","summary":"good-avoid","bonus":0.8800000000000004},{"rt":850.5999999642372,"stimulus":"\n                    <p><b>Action: <em>avoid</em></b></p>\n                    <p>This is the bee that you just saw.</p>\n                    <img src=\"bees-with-color/bee-B1SM.svg\" width=\"200\">\n                    <p><br>Your bonus pay is unchanged, and remains at $0.70.</p>\n            ","response":0,"trial_type":"html-button-response","trial_index":134,"time_elapsed":487407,"internal_node_id":"0.0-4.0-1.61","subject_id":"6132a3c6574a754ce227ad1a","study_id":"60edd13110225f80f9f3709b","session_id":"6196c4a000db091a6a5d36b2","condition":"contingent","relevant_dimensions":["antennae","pattern"],"bee_group":{"antennae":"B","wings":"X","pattern":"S","legs":"X"},"bonus":0.8800000000000004},{"rt":2104.5,"stimulus":"bees-with-color/bee-B2SF.svg","response":1,"trial_type":"image-button-response","trial_index":135,"time_elapsed":489513,"internal_node_id":"0.0-4.0-0.62","subject_id":"6132a3c6574a754ce227ad1a","study_id":"60edd13110225f80f9f3709b","session_id":"6196c4a000db091a6a5d36b2","condition":"contingent","relevant_dimensions":["antennae","pattern"],"bee_group":{"antennae":"B","wings":"X","pattern":"S","legs":"X"},"action":"avoid","summary":"good-avoid","bonus":0.8800000000000004},{"rt":840.5,"stimulus":"\n                    <p><b>Action: <em>avoid</em></b></p>\n                    <p>This is the bee that you just saw.</p>\n                    <img src=\"bees-with-color/bee-B2SF.svg\" width=\"200\">\n                    <p><br>Your bonus pay is unchanged, and remains at $0.70.</p>\n            ","response":0,"trial_type":"html-button-response","trial_index":136,"time_elapsed":490355,"internal_node_id":"0.0-4.0-1.62","subject_id":"6132a3c6574a754ce227ad1a","study_id":"60edd13110225f80f9f3709b","session_id":"6196c4a000db091a6a5d36b2","condition":"contingent","relevant_dimensions":["antennae","pattern"],"bee_group":{"antennae":"B","wings":"X","pattern":"S","legs":"X"},"bonus":0.8800000000000004},{"rt":2237.199999988079,"stimulus":"bees-with-color/bee-A1SF.svg","response":0,"trial_type":"image-button-response","trial_index":137,"time_elapsed":492593,"internal_node_id":"0.0-4.0-0.63","subject_id":"6132a3c6574a754ce227ad1a","study_id":"60edd13110225f80f9f3709b","session_id":"6196c4a000db091a6a5d36b2","condition":"contingent","relevant_dimensions":["antennae","pattern"],"bee_group":{"antennae":"B","wings":"X","pattern":"S","legs":"X"},"action":"harvest","summary":"good-harvest","bonus":0.8800000000000004},{"rt":737.8000000119209,"stimulus":"\n                    <p><b>Action: <em>harvest</em></b></p>\n                    <p>This is the bee that you just saw.</p>\n                    <img src=\"bees-with-color/bee-A1SF.svg\" width=\"200\">\n                    <p><span class=\"greenText\"><b>Successful harvest!</b></span><br>Your pay has increased by $0.02. Your bonus pay is now $0.72.</p>\n            ","response":0,"trial_type":"html-button-response","trial_index":138,"time_elapsed":493333,"internal_node_id":"0.0-4.0-1.63","subject_id":"6132a3c6574a754ce227ad1a","study_id":"60edd13110225f80f9f3709b","session_id":"6196c4a000db091a6a5d36b2","condition":"contingent","relevant_dimensions":["antennae","pattern"],"bee_group":{"antennae":"B","wings":"X","pattern":"S","legs":"X"},"bonus":0.8800000000000004},{"rt":8106.099999964237,"stimulus":"You have completed the first part of this experiment.<br><br>You will now begin a shorter second part, in which you will receive no feedback.<br>The same rules regarding bonus pay apply.<br><br>Press any key to begin.","response":" ","trial_type":"html-keyboard-response","trial_index":139,"time_elapsed":501442,"internal_node_id":"0.0-5.0","subject_id":"6132a3c6574a754ce227ad1a","study_id":"60edd13110225f80f9f3709b","session_id":"6196c4a000db091a6a5d36b2","condition":"contingent","relevant_dimensions":["antennae","pattern"],"bee_group":{"antennae":"B","wings":"X","pattern":"S","legs":"X"},"bonus":0.8800000000000004},{"rt":3788.899999976158,"stimulus":"bees-with-color/bee-B2SF.svg","response":1,"trial_type":"image-button-response","trial_index":140,"time_elapsed":505241,"internal_node_id":"0.0-6.0-0.0","subject_id":"6132a3c6574a754ce227ad1a","study_id":"60edd13110225f80f9f3709b","session_id":"6196c4a000db091a6a5d36b2","condition":"contingent","relevant_dimensions":["antennae","pattern"],"bee_group":{"antennae":"B","wings":"X","pattern":"S","legs":"X"},"bonus":0.8800000000000004},{"rt":3469.399999976158,"stimulus":"bees-with-color/bee-A2DF.svg","response":0,"trial_type":"image-button-response","trial_index":141,"time_elapsed":508712,"internal_node_id":"0.0-6.0-0.1","subject_id":"6132a3c6574a754ce227ad1a","study_id":"60edd13110225f80f9f3709b","session_id":"6196c4a000db091a6a5d36b2","condition":"contingent","relevant_dimensions":["antennae","pattern"],"bee_group":{"antennae":"B","wings":"X","pattern":"S","legs":"X"},"bonus":0.8800000000000004},{"rt":2473.600000023842,"stimulus":"bees-with-color/bee-A1DF.svg","response":0,"trial_type":"image-button-response","trial_index":142,"time_elapsed":511187,"internal_node_id":"0.0-6.0-0.2","subject_id":"6132a3c6574a754ce227ad1a","study_id":"60edd13110225f80f9f3709b","session_id":"6196c4a000db091a6a5d36b2","condition":"contingent","relevant_dimensions":["antennae","pattern"],"bee_group":{"antennae":"B","wings":"X","pattern":"S","legs":"X"},"bonus":0.8800000000000004},{"rt":1322.8999999761581,"stimulus":"bees-with-color/bee-A2DM.svg","response":1,"trial_type":"image-button-response","trial_index":143,"time_elapsed":512512,"internal_node_id":"0.0-6.0-0.3","subject_id":"6132a3c6574a754ce227ad1a","study_id":"60edd13110225f80f9f3709b","session_id":"6196c4a000db091a6a5d36b2","condition":"contingent","relevant_dimensions":["antennae","pattern"],"bee_group":{"antennae":"B","wings":"X","pattern":"S","legs":"X"},"bonus":0.8800000000000004},{"rt":1251.8999999761581,"stimulus":"bees-with-color/bee-A2SM.svg","response":1,"trial_type":"image-button-response","trial_index":144,"time_elapsed":513765,"internal_node_id":"0.0-6.0-0.4","subject_id":"6132a3c6574a754ce227ad1a","study_id":"60edd13110225f80f9f3709b","session_id":"6196c4a000db091a6a5d36b2","condition":"contingent","relevant_dimensions":["antennae","pattern"],"bee_group":{"antennae":"B","wings":"X","pattern":"S","legs":"X"},"bonus":0.8800000000000004},{"rt":881.5,"stimulus":"bees-with-color/bee-B2DM.svg","response":1,"trial_type":"image-button-response","trial_index":145,"time_elapsed":514649,"internal_node_id":"0.0-6.0-0.5","subject_id":"6132a3c6574a754ce227ad1a","study_id":"60edd13110225f80f9f3709b","session_id":"6196c4a000db091a6a5d36b2","condition":"contingent","relevant_dimensions":["antennae","pattern"],"bee_group":{"antennae":"B","wings":"X","pattern":"S","legs":"X"},"bonus":0.8800000000000004},{"rt":911.6000000238419,"stimulus":"bees-with-color/bee-A1SM.svg","response":1,"trial_type":"image-button-response","trial_index":146,"time_elapsed":515562,"internal_node_id":"0.0-6.0-0.6","subject_id":"6132a3c6574a754ce227ad1a","study_id":"60edd13110225f80f9f3709b","session_id":"6196c4a000db091a6a5d36b2","condition":"contingent","relevant_dimensions":["antennae","pattern"],"bee_group":{"antennae":"B","wings":"X","pattern":"S","legs":"X"},"bonus":0.8800000000000004},{"rt":821.1000000238419,"stimulus":"bees-with-color/bee-B1SM.svg","response":1,"trial_type":"image-button-response","trial_index":147,"time_elapsed":516385,"internal_node_id":"0.0-6.0-0.7","subject_id":"6132a3c6574a754ce227ad1a","study_id":"60edd13110225f80f9f3709b","session_id":"6196c4a000db091a6a5d36b2","condition":"contingent","relevant_dimensions":["antennae","pattern"],"bee_group":{"antennae":"B","wings":"X","pattern":"S","legs":"X"},"bonus":0.8800000000000004},{"rt":1035,"stimulus":"bees-with-color/bee-A1DM.svg","response":1,"trial_type":"image-button-response","trial_index":148,"time_elapsed":517421,"internal_node_id":"0.0-6.0-0.8","subject_id":"6132a3c6574a754ce227ad1a","study_id":"60edd13110225f80f9f3709b","session_id":"6196c4a000db091a6a5d36b2","condition":"contingent","relevant_dimensions":["antennae","pattern"],"bee_group":{"antennae":"B","wings":"X","pattern":"S","legs":"X"},"bonus":0.8800000000000004},{"rt":2032.1000000238419,"stimulus":"bees-with-color/bee-A1SF.svg","response":0,"trial_type":"image-button-response","trial_index":149,"time_elapsed":519455,"internal_node_id":"0.0-6.0-0.9","subject_id":"6132a3c6574a754ce227ad1a","study_id":"60edd13110225f80f9f3709b","session_id":"6196c4a000db091a6a5d36b2","condition":"contingent","relevant_dimensions":["antennae","pattern"],"bee_group":{"antennae":"B","wings":"X","pattern":"S","legs":"X"},"bonus":0.8800000000000004},{"rt":1138.4000000357628,"stimulus":"bees-with-color/bee-B2DF.svg","response":1,"trial_type":"image-button-response","trial_index":150,"time_elapsed":520595,"internal_node_id":"0.0-6.0-0.10","subject_id":"6132a3c6574a754ce227ad1a","study_id":"60edd13110225f80f9f3709b","session_id":"6196c4a000db091a6a5d36b2","condition":"contingent","relevant_dimensions":["antennae","pattern"],"bee_group":{"antennae":"B","wings":"X","pattern":"S","legs":"X"},"bonus":0.8800000000000004},{"rt":5185.599999964237,"stimulus":"bees-with-color/bee-B1SF.svg","response":1,"trial_type":"image-button-response","trial_index":151,"time_elapsed":525782,"internal_node_id":"0.0-6.0-0.11","subject_id":"6132a3c6574a754ce227ad1a","study_id":"60edd13110225f80f9f3709b","session_id":"6196c4a000db091a6a5d36b2","condition":"contingent","relevant_dimensions":["antennae","pattern"],"bee_group":{"antennae":"B","wings":"X","pattern":"S","legs":"X"},"bonus":0.8800000000000004},{"rt":768,"stimulus":"bees-with-color/bee-B1DF.svg","response":1,"trial_type":"image-button-response","trial_index":152,"time_elapsed":526552,"internal_node_id":"0.0-6.0-0.12","subject_id":"6132a3c6574a754ce227ad1a","study_id":"60edd13110225f80f9f3709b","session_id":"6196c4a000db091a6a5d36b2","condition":"contingent","relevant_dimensions":["antennae","pattern"],"bee_group":{"antennae":"B","wings":"X","pattern":"S","legs":"X"},"bonus":0.8800000000000004},{"rt":1764.300000011921,"stimulus":"bees-with-color/bee-A2SF.svg","response":0,"trial_type":"image-button-response","trial_index":153,"time_elapsed":528318,"internal_node_id":"0.0-6.0-0.13","subject_id":"6132a3c6574a754ce227ad1a","study_id":"60edd13110225f80f9f3709b","session_id":"6196c4a000db091a6a5d36b2","condition":"contingent","relevant_dimensions":["antennae","pattern"],"bee_group":{"antennae":"B","wings":"X","pattern":"S","legs":"X"},"bonus":0.8800000000000004},{"rt":1035.7999999523163,"stimulus":"bees-with-color/bee-B2SM.svg","response":1,"trial_type":"image-button-response","trial_index":154,"time_elapsed":529356,"internal_node_id":"0.0-6.0-0.14","subject_id":"6132a3c6574a754ce227ad1a","study_id":"60edd13110225f80f9f3709b","session_id":"6196c4a000db091a6a5d36b2","condition":"contingent","relevant_dimensions":["antennae","pattern"],"bee_group":{"antennae":"B","wings":"X","pattern":"S","legs":"X"},"bonus":0.8800000000000004},{"rt":1097,"stimulus":"bees-with-color/bee-B1DM.svg","response":1,"trial_type":"image-button-response","trial_index":155,"time_elapsed":530455,"internal_node_id":"0.0-6.0-0.15","subject_id":"6132a3c6574a754ce227ad1a","study_id":"60edd13110225f80f9f3709b","session_id":"6196c4a000db091a6a5d36b2","condition":"contingent","relevant_dimensions":["antennae","pattern"],"bee_group":{"antennae":"B","wings":"X","pattern":"S","legs":"X"},"bonus":0.8800000000000004},{"rt":1077.1000000238419,"stimulus":"bees-with-color/bee-A1DM.svg","response":1,"trial_type":"image-button-response","trial_index":156,"time_elapsed":531533,"internal_node_id":"0.0-6.0-0.16","subject_id":"6132a3c6574a754ce227ad1a","study_id":"60edd13110225f80f9f3709b","session_id":"6196c4a000db091a6a5d36b2","condition":"contingent","relevant_dimensions":["antennae","pattern"],"bee_group":{"antennae":"B","wings":"X","pattern":"S","legs":"X"},"bonus":0.8800000000000004},{"rt":707.1000000238419,"stimulus":"bees-with-color/bee-B1DF.svg","response":1,"trial_type":"image-button-response","trial_index":157,"time_elapsed":532242,"internal_node_id":"0.0-6.0-0.17","subject_id":"6132a3c6574a754ce227ad1a","study_id":"60edd13110225f80f9f3709b","session_id":"6196c4a000db091a6a5d36b2","condition":"contingent","relevant_dimensions":["antennae","pattern"],"bee_group":{"antennae":"B","wings":"X","pattern":"S","legs":"X"},"bonus":0.8800000000000004},{"rt":1549.5,"stimulus":"bees-with-color/bee-A1SF.svg","response":0,"trial_type":"image-button-response","trial_index":158,"time_elapsed":533793,"internal_node_id":"0.0-6.0-0.18","subject_id":"6132a3c6574a754ce227ad1a","study_id":"60edd13110225f80f9f3709b","session_id":"6196c4a000db091a6a5d36b2","condition":"contingent","relevant_dimensions":["antennae","pattern"],"bee_group":{"antennae":"B","wings":"X","pattern":"S","legs":"X"},"bonus":0.8800000000000004},{"rt":1189.300000011921,"stimulus":"bees-with-color/bee-A2SM.svg","response":1,"trial_type":"image-button-response","trial_index":159,"time_elapsed":534984,"internal_node_id":"0.0-6.0-0.19","subject_id":"6132a3c6574a754ce227ad1a","study_id":"60edd13110225f80f9f3709b","session_id":"6196c4a000db091a6a5d36b2","condition":"contingent","relevant_dimensions":["antennae","pattern"],"bee_group":{"antennae":"B","wings":"X","pattern":"S","legs":"X"},"bonus":0.8800000000000004},{"rt":2689.800000011921,"stimulus":"bees-with-color/bee-A2SF.svg","response":0,"trial_type":"image-button-response","trial_index":160,"time_elapsed":537675,"internal_node_id":"0.0-6.0-0.20","subject_id":"6132a3c6574a754ce227ad1a","study_id":"60edd13110225f80f9f3709b","session_id":"6196c4a000db091a6a5d36b2","condition":"contingent","relevant_dimensions":["antennae","pattern"],"bee_group":{"antennae":"B","wings":"X","pattern":"S","legs":"X"},"bonus":0.8800000000000004},{"rt":1076.5,"stimulus":"bees-with-color/bee-A2DM.svg","response":1,"trial_type":"image-button-response","trial_index":161,"time_elapsed":538753,"internal_node_id":"0.0-6.0-0.21","subject_id":"6132a3c6574a754ce227ad1a","study_id":"60edd13110225f80f9f3709b","session_id":"6196c4a000db091a6a5d36b2","condition":"contingent","relevant_dimensions":["antennae","pattern"],"bee_group":{"antennae":"B","wings":"X","pattern":"S","legs":"X"},"bonus":0.8800000000000004},{"rt":862.8000000119209,"stimulus":"bees-with-color/bee-B2SF.svg","response":1,"trial_type":"image-button-response","trial_index":162,"time_elapsed":539609,"internal_node_id":"0.0-6.0-0.22","subject_id":"6132a3c6574a754ce227ad1a","study_id":"60edd13110225f80f9f3709b","session_id":"6196c4a000db091a6a5d36b2","condition":"contingent","relevant_dimensions":["antennae","pattern"],"bee_group":{"antennae":"B","wings":"X","pattern":"S","legs":"X"},"bonus":0.8800000000000004},{"rt":726.8999999761581,"stimulus":"bees-with-color/bee-B1SM.svg","response":1,"trial_type":"image-button-response","trial_index":163,"time_elapsed":540337,"internal_node_id":"0.0-6.0-0.23","subject_id":"6132a3c6574a754ce227ad1a","study_id":"60edd13110225f80f9f3709b","session_id":"6196c4a000db091a6a5d36b2","condition":"contingent","relevant_dimensions":["antennae","pattern"],"bee_group":{"antennae":"B","wings":"X","pattern":"S","legs":"X"},"bonus":0.8800000000000004},{"rt":676.3000000119209,"stimulus":"bees-with-color/bee-B2DM.svg","response":1,"trial_type":"image-button-respo