[{"success":true,"trial_type":"fullscreen","trial_index":0,"time_elapsed":6408,"internal_node_id":"0.0-0.0","subject_id":"6122ae9b67e54054793dcc3e","study_id":"60edd13110225f80f9f3709b","session_id":"6196c4a36d32cc75560f0cb0","condition":"full-information","relevant_dimensions":["antennae","pattern"],"bee_group":{"antennae":"B","wings":"X","pattern":"S","legs":"X"},"bonus":1.1000000000000005},{"success":true,"timeout":false,"failed_images":[],"failed_audio":[],"failed_video":[],"trial_type":"preload","trial_index":1,"time_elapsed":8718,"internal_node_id":"0.0-1.0","subject_id":"6122ae9b67e54054793dcc3e","study_id":"60edd13110225f80f9f3709b","session_id":"6196c4a36d32cc75560f0cb0","condition":"full-information","relevant_dimensions":["antennae","pattern"],"bee_group":{"antennae":"B","wings":"X","pattern":"S","legs":"X"},"bonus":1.1000000000000005},{"rt":2912,"stimulus":"Welcome! Press any key to begin.","response":"enter","trial_type":"html-keyboard-response","trial_index":2,"time_elapsed":11630,"internal_node_id":"0.0-2.0","subject_id":"6122ae9b67e54054793dcc3e","study_id":"60edd13110225f80f9f3709b","session_id":"6196c4a36d32cc75560f0cb0","condition":"full-information","relevant_dimensions":["antennae","pattern"],"bee_group":{"antennae":"B","wings":"X","pattern":"S","legs":"X"},"bonus":1.1000000000000005},{"view_history":[{"page_index":0,"viewing_time":3336},{"page_index":1,"viewing_time":11459},{"page_index":2,"viewing_time":11140},{"page_index":3,"viewing_time":19019},{"page_index":4,"viewing_time":7107},{"page_index":5,"viewing_time":76525},{"page_index":6,"viewing_time":9917},{"page_index":7,"viewing_time":36080},{"page_index":8,"viewing_time":3543},{"page_index":9,"viewing_time":37743},{"page_index":10,"viewing_time":7898},{"page_index":11,"viewing_time":6594},{"page_index":12,"viewing_time":14170},{"page_index":13,"viewing_time":1217},{"page_index":14,"viewing_time":1935}],"rt":247683,"trial_type":"instructions","trial_index":3,"time_elapsed":259316,"internal_node_id":"0.0-3.0-0.0","subject_id":"6122ae9b67e54054793dcc3e","study_id":"60edd13110225f80f9f3709b","session_id":"6196c4a36d32cc75560f0cb0","condition":"full-information","relevant_dimensions":["antennae","pattern"],"bee_group":{"antennae":"B","wings":"X","pattern":"S","legs":"X"},"bonus":1.1000000000000005},{"rt":11470,"response":{"Q0":["Two or six legs","Stripes or spots on body","Single or double wings","Antennae or no antennae"]},"question_order":[0],"trial_type":"survey-multi-select","trial_index":4,"time_elapsed":270791,"internal_node_id":"0.0-3.0-1.0","subject_id":"6122ae9b67e54054793dcc3e","study_id":"60edd13110225f80f9f3709b","session_id":"6196c4a36d32cc75560f0cb0","condition":"full-information","relevant_dimensions":["antennae","pattern"],"bee_group":{"antennae":"B","wings":"X","pattern":"S","legs":"X"},"correct":true,"bonus":1.1000000000000005},{"rt":15503,"response":{"Q1":"No.","Q2":"Based on the four features of the bee.","Q3":"You learn if it was friendly or dangerous, but do not alter your bonus."},"question_order":[0,1,2],"trial_type":"survey-multi-choice","trial_index":5,"time_elapsed":286296,"internal_node_id":"0.0-3.0-2.0","subject_id":"6122ae9b67e54054793dcc3e","study_id":"60edd13110225f80f9f3709b","session_id":"6196c4a36d32cc75560f0cb0","condition":"full-information","relevant_dimensions":["antennae","pattern"],"bee_group":{"antennae":"B","wings":"X","pattern":"S","legs":"X"},"correct":true,"bonus":1.1000000000000005},{"rt":108711,"stimulus":"<p>Congrats, you got everything right<br>When you're ready, click the button below to continue to the experiment.</p>","response":0,"trial_type":"html-button-response","trial_index":6,"time_elapsed":395010,"internal_node_id":"0.0-3.0-3.0","subject_id":"6122ae9b67e54054793dcc3e","study_id":"60edd13110225f80f9f3709b","session_id":"6196c4a36d32cc75560f0cb0","condition":"full-information","relevant_dimensions":["antennae","pattern"],"bee_group":{"antennae":"B","wings":"X","pattern":"S","legs":"X"},"bonus":1.1000000000000005},{"rt":26355,"stimulus":"bees-with-color/bee-B2DM.svg","response":1,"trial_type":"image-button-response","trial_index":7,"time_elapsed":421368,"internal_node_id":"0.0-4.0-0.0","subject_id":"6122ae9b67e54054793dcc3e","study_id":"60edd13110225f80f9f3709b","session_id":"6196c4a36d32cc75560f0cb0","condition":"full-information","relevant_dimensions":["antennae","pattern"],"bee_group":{"antennae":"B","wings":"X","pattern":"S","legs":"X"},"action":"avoid","summary":"bad-avoid","bonus":1.1000000000000005},{"rt":21348,"stimulus":"\n                    <p><b>Action: <em>avoid</em></b></p>\n                    <p>This is the bee that you just saw.</p>\n                    <img src=\"bees-with-color/bee-B2DM.svg\" width=\"200\">\n                    <p><span class=\"redText\">Bad choice,</span> the bee was friendly.<br>Your bonus pay is unchanged, and remains at $0.54.</p>\n            ","response":0,"trial_type":"html-button-response","trial_index":8,"time_elapsed":442736,"internal_node_id":"0.0-4.0-1.0","subject_id":"6122ae9b67e54054793dcc3e","study_id":"60edd13110225f80f9f3709b","session_id":"6196c4a36d32cc75560f0cb0","condition":"full-information","relevant_dimensions":["antennae","pattern"],"bee_group":{"antennae":"B","wings":"X","pattern":"S","legs":"X"},"bonus":1.1000000000000005},{"rt":4893,"stimulus":"bees-with-color/bee-B2SM.svg","response":0,"trial_type":"image-button-response","trial_index":9,"time_elapsed":447630,"internal_node_id":"0.0-4.0-0.1","subject_id":"6122ae9b67e54054793dcc3e","study_id":"60edd13110225f80f9f3709b","session_id":"6196c4a36d32cc75560f0cb0","condition":"full-information","relevant_dimensions":["antennae","pattern"],"bee_group":{"antennae":"B","wings":"X","pattern":"S","legs":"X"},"action":"harvest","summary":"bad-harvest","bonus":1.1000000000000005},{"rt":21096,"stimulus":"\n                    <p><b>Action: <em>harvest</em></b></p>\n                    <p>This is the bee that you just saw.</p>\n                    <img src=\"bees-with-color/bee-B2SM.svg\" width=\"200\">\n                    <p><span class=\"redText\">Bad choice, the bee was angry.</span><br><b>You have been stung!</b><br>Your pay has been decreased by $0.10. Your bonus pay is now $0.44.</p>\n            ","response":0,"trial_type":"html-button-response","trial_index":10,"time_elapsed":468729,"internal_node_id":"0.0-4.0-1.1","subject_id":"6122ae9b67e54054793dcc3e","study_id":"60edd13110225f80f9f3709b","session_id":"6196c4a36d32cc75560f0cb0","condition":"full-information","relevant_dimensions":["antennae","pattern"],"bee_group":{"antennae":"B","wings":"X","pattern":"S","legs":"X"},"bonus":1.1000000000000005},{"rt":4127,"stimulus":"bees-with-color/bee-A2DF.svg","response":1,"trial_type":"image-button-response","trial_index":11,"time_elapsed":472858,"internal_node_id":"0.0-4.0-0.2","subject_id":"6122ae9b67e54054793dcc3e","study_id":"60edd13110225f80f9f3709b","session_id":"6196c4a36d32cc75560f0cb0","condition":"full-information","relevant_dimensions":["antennae","pattern"],"bee_group":{"antennae":"B","wings":"X","pattern":"S","legs":"X"},"action":"avoid","summary":"bad-avoid","bonus":1.1000000000000005},{"rt":15443,"stimulus":"\n                    <p><b>Action: <em>avoid</em></b></p>\n                    <p>This is the bee that you just saw.</p>\n                    <img src=\"bees-with-color/bee-A2DF.svg\" width=\"200\">\n                    <p><span class=\"redText\">Bad choice,</span> the bee was friendly.<br>Your bonus pay is unchanged, and remains at $0.44.</p>\n            ","response":0,"trial_type":"html-button-response","trial_index":12,"time_elapsed":488302,"internal_node_id":"0.0-4.0-1.2","subject_id":"6122ae9b67e54054793dcc3e","study_id":"60edd13110225f80f9f3709b","session_id":"6196c4a36d32cc75560f0cb0","condition":"full-information","relevant_dimensions":["antennae","pattern"],"bee_group":{"antennae":"B","wings":"X","pattern":"S","legs":"X"},"bonus":1.1000000000000005},{"rt":9637,"stimulus":"bees-with-color/bee-A2SM.svg","response":1,"trial_type":"image-button-response","trial_index":13,"time_elapsed":497942,"internal_node_id":"0.0-4.0-0.3","subject_id":"6122ae9b67e54054793dcc3e","study_id":"60edd13110225f80f9f3709b","session_id":"6196c4a36d32cc75560f0cb0","condition":"full-information","relevant_dimensions":["antennae","pattern"],"bee_group":{"antennae":"B","wings":"X","pattern":"S","legs":"X"},"action":"avoid","summary":"bad-avoid","bonus":1.1000000000000005},{"rt":87815,"stimulus":"\n                    <p><b>Action: <em>avoid</em></b></p>\n                    <p>This is the bee that you just saw.</p>\n                    <img src=\"bees-with-color/bee-A2SM.svg\" width=\"200\">\n                    <p><span class=\"redText\">Bad choice,</span> the bee was friendly.<br>Your bonus pay is unchanged, and remains at $0.44.</p>\n            ","response":0,"trial_type":"html-button-response","trial_index":14,"time_elapsed":585759,"internal_node_id":"0.0-4.0-1.3","subject_id":"6122ae9b67e54054793dcc3e","study_id":"60edd13110225f80f9f3709b","session_id":"6196c4a36d32cc75560f0cb0","condition":"full-information","relevant_dimensions":["antennae","pattern"],"bee_group":{"antennae":"B","wings":"X","pattern":"S","legs":"X"},"bonus":1.1000000000000005},{"rt":2625,"stimulus":"bees-with-color/bee-B1SF.svg","response":1,"trial_type":"image-button-response","trial_index":15,"time_elapsed":588386,"internal_node_id":"0.0-4.0-0.4","subject_id":"6122ae9b67e54054793dcc3e","study_id":"60edd13110225f80f9f3709b","session_id":"6196c4a36d32cc75560f0cb0","condition":"full-information","relevant_dimensions":["antennae","pattern"],"bee_group":{"antennae":"B","wings":"X","pattern":"S","legs":"X"},"action":"avoid","summary":"good-avoid","bonus":1.1000000000000005},{"rt":19352,"stimulus":"\n                    <p><b>Action: <em>avoid</em></b></p>\n                    <p>This is the bee that you just saw.</p>\n                    <img src=\"bees-with-color/bee-B1SF.svg\" width=\"200\">\n                    <p><span class=\"greenText\">Good choice!</span>  This bee would have stung you.<br>Your bonus pay is unchanged, and remains at $0.44.</p>\n            ","response":0,"trial_type":"html-button-response","trial_index":16,"time_elapsed":607740,"internal_node_id":"0.0-4.0-1.4","subject_id":"6122ae9b67e54054793dcc3e","study_id":"60edd13110225f80f9f3709b","session_id":"6196c4a36d32cc75560f0cb0","condition":"full-information","relevant_dimensions":["antennae","pattern"],"bee_group":{"antennae":"B","wings":"X","pattern":"S","legs":"X"},"bonus":1.1000000000000005},{"rt":3018,"stimulus":"bees-with-color/bee-B1DM.svg","response":1,"trial_type":"image-button-response","trial_index":17,"time_elapsed":610758,"internal_node_id":"0.0-4.0-0.5","subject_id":"6122ae9b67e54054793dcc3e","study_id":"60edd13110225f80f9f3709b","session_id":"6196c4a36d32cc75560f0cb0","condition":"full-information","relevant_dimensions":["antennae","pattern"],"bee_group":{"antennae":"B","wings":"X","pattern":"S","legs":"X"},"action":"avoid","summary":"bad-avoid","bonus":1.1000000000000005},{"rt":18070,"stimulus":"\n                    <p><b>Action: <em>avoid</em></b></p>\n                    <p>This is the bee that you just saw.</p>\n                    <img src=\"bees-with-color/bee-B1DM.svg\" width=\"200\">\n                    <p><span class=\"redText\">Bad choice,</span> the bee was friendly.<br>Your bonus pay is unchanged, and remains at $0.44.</p>\n            ","response":0,"trial_type":"html-button-response","trial_index":18,"time_elapsed":628831,"internal_node_id":"0.0-4.0-1.5","subject_id":"6122ae9b67e54054793dcc3e","study_id":"60edd13110225f80f9f3709b","session_id":"6196c4a36d32cc75560f0cb0","condition":"full-information","relevant_dimensions":["antennae","pattern"],"bee_group":{"antennae":"B","wings":"X","pattern":"S","legs":"X"},"bonus":1.1000000000000005},{"rt":17077,"stimulus":"bees-with-color/bee-A2DM.svg","response":0,"trial_type":"image-button-response","trial_index":19,"time_elapsed":645910,"internal_node_id":"0.0-4.0-0.6","subject_id":"6122ae9b67e54054793dcc3e","study_id":"60edd13110225f80f9f3709b","session_id":"6196c4a36d32cc75560f0cb0","condition":"full-information","relevant_dimensions":["antennae","pattern"],"bee_group":{"antennae":"B","wings":"X","pattern":"S","legs":"X"},"action":"harvest","summary":"good-harvest","bonus":1.1000000000000005},{"rt":9630,"stimulus":"\n                    <p><b>Action: <em>harvest</em></b></p>\n                    <p>This is the bee that you just saw.</p>\n                    <img src=\"bees-with-color/bee-A2DM.svg\" width=\"200\">\n                    <p><span class=\"greenText\"><b>Successful harvest!</b></span><br>Your pay has increased by $0.02. Your bonus pay is now $0.46.</p>\n            ","response":0,"trial_type":"html-button-response","trial_index":20,"time_elapsed":655543,"internal_node_id":"0.0-4.0-1.6","subject_id":"6122ae9b67e54054793dcc3e","study_id":"60edd13110225f80f9f3709b","session_id":"6196c4a36d32cc75560f0cb0","condition":"full-information","relevant_dimensions":["antennae","pattern"],"bee_group":{"antennae":"B","wings":"X","pattern":"S","legs":"X"},"bonus":1.1000000000000005},{"rt":12923,"stimulus":"bees-with-color/bee-A2SF.svg","response":1,"trial_type":"image-button-response","trial_index":21,"time_elapsed":668467,"internal_node_id":"0.0-4.0-0.7","subject_id":"6122ae9b67e54054793dcc3e","study_id":"60edd13110225f80f9f3709b","session_id":"6196c4a36d32cc75560f0cb0","condition":"full-information","relevant_dimensions":["antennae","pattern"],"bee_group":{"antennae":"B","wings":"X","pattern":"S","legs":"X"},"action":"avoid","summary":"bad-avoid","bonus":1.1000000000000005},{"rt":9921,"stimulus":"\n                    <p><b>Action: <em>avoid</em></b></p>\n                    <p>This is the bee that you just saw.</p>\n                    <img src=\"bees-with-color/bee-A2SF.svg\" width=\"200\">\n                    <p><span class=\"redText\">Bad choice,</span> the bee was friendly.<br>Your bonus pay is unchanged, and remains at $0.46.</p>\n            ","response":0,"trial_type":"html-button-response","trial_index":22,"time_elapsed":678390,"internal_node_id":"0.0-4.0-1.7","subject_id":"6122ae9b67e54054793dcc3e","study_id":"60edd13110225f80f9f3709b","session_id":"6196c4a36d32cc75560f0cb0","condition":"full-information","relevant_dimensions":["antennae","pattern"],"bee_group":{"antennae":"B","wings":"X","pattern":"S","legs":"X"},"bonus":1.1000000000000005},{"rt":13330,"stimulus":"bees-with-color/bee-B1DF.svg","response":1,"trial_type":"image-button-response","trial_index":23,"time_elapsed":691723,"internal_node_id":"0.0-4.0-0.8","subject_id":"6122ae9b67e54054793dcc3e","study_id":"60edd13110225f80f9f3709b","session_id":"6196c4a36d32cc75560f0cb0","condition":"full-information","relevant_dimensions":["antennae","pattern"],"bee_group":{"antennae":"B","wings":"X","pattern":"S","legs":"X"},"action":"avoid","summary":"bad-avoid","bonus":1.1000000000000005},{"rt":11647,"stimulus":"\n                    <p><b>Action: <em>avoid</em></b></p>\n                    <p>This is the bee that you just saw.</p>\n                    <img src=\"bees-with-color/bee-B1DF.svg\" width=\"200\">\n                    <p><span class=\"redText\">Bad choice,</span> the bee was friendly.<br>Your bonus pay is unchanged, and remains at $0.46.</p>\n            ","response":0,"trial_type":"html-button-response","trial_index":24,"time_elapsed":703373,"internal_node_id":"0.0-4.0-1.8","subject_id":"6122ae9b67e54054793dcc3e","study_id":"60edd13110225f80f9f3709b","session_id":"6196c4a36d32cc75560f0cb0","condition":"full-information","relevant_dimensions":["antennae","pattern"],"bee_group":{"antennae":"B","wings":"X","pattern":"S","legs":"X"},"bonus":1.1000000000000005},{"rt":12842,"stimulus":"bees-with-color/bee-B2SF.svg","response":1,"trial_type":"image-button-response","trial_index":25,"time_elapsed":716217,"internal_node_id":"0.0-4.0-0.9","subject_id":"6122ae9b67e54054793dcc3e","study_id":"60edd13110225f80f9f3709b","session_id":"6196c4a36d32cc75560f0cb0","condition":"full-information","relevant_dimensions":["antennae","pattern"],"bee_group":{"antennae":"B","wings":"X","pattern":"S","legs":"X"},"action":"avoid","summary":"good-avoid","bonus":1.1000000000000005},{"rt":1645,"stimulus":"\n                    <p><b>Action: <em>avoid</em></b></p>\n                    <p>This is the bee that you just saw.</p>\n                    <img src=\"bees-with-color/bee-B2SF.svg\" width=\"200\">\n                    <p><span class=\"greenText\">Good choice!</span>  This bee would have stung you.<br>Your bonus pay is unchanged, and remains at $0.46.</p>\n            ","response":0,"trial_type":"html-button-response","trial_index":26,"time_elapsed":717864,"internal_node_id":"0.0-4.0-1.9","subject_id":"6122ae9b67e54054793dcc3e","study_id":"60edd13110225f80f9f3709b","session_id":"6196c4a36d32cc75560f0cb0","condition":"full-information","relevant_dimensions":["antennae","pattern"],"bee_group":{"antennae":"B","wings":"X","pattern":"S","legs":"X"},"bonus":1.1000000000000005},{"rt":12501,"stimulus":"bees-with-color/bee-A1SM.svg","response":1,"trial_type":"image-button-response","trial_index":27,"time_elapsed":730366,"internal_node_id":"0.0-4.0-0.10","subject_id":"6122ae9b67e54054793dcc3e","study_id":"60edd13110225f80f9f3709b","session_id":"6196c4a36d32cc75560f0cb0","condition":"full-information","relevant_dimensions":["antennae","pattern"],"bee_group":{"antennae":"B","wings":"X","pattern":"S","legs":"X"},"action":"avoid","summary":"bad-avoid","bonus":1.1000000000000005},{"rt":17022,"stimulus":"\n                    <p><b>Action: <em>avoid</em></b></p>\n                    <p>This is the bee that you just saw.</p>\n                    <img src=\"bees-with-color/bee-A1SM.svg\" width=\"200\">\n                    <p><span class=\"redText\">Bad choice,</span> the bee was friendly.<br>Your bonus pay is unchanged, and remains at $0.46.</p>\n            ","response":0,"trial_type":"html-button-response","trial_index":28,"time_elapsed":747390,"internal_node_id":"0.0-4.0-1.10","subject_id":"6122ae9b67e54054793dcc3e","study_id":"60edd13110225f80f9f3709b","session_id":"6196c4a36d32cc75560f0cb0","condition":"full-information","relevant_dimensions":["antennae","pattern"],"bee_group":{"antennae":"B","wings":"X","pattern":"S","legs":"X"},"bonus":1.1000000000000005},{"rt":25221,"stimulus":"bees-with-color/bee-B1SM.svg","response":1,"trial_type":"image-button-response","trial_index":29,"time_elapsed":772614,"internal_node_id":"0.0-4.0-0.11","subject_id":"6122ae9b67e54054793dcc3e","study_id":"60edd13110225f80f9f3709b","session_id":"6196c4a36d32cc75560f0cb0","condition":"full-information","relevant_dimensions":["antennae","pattern"],"bee_group":{"antennae":"B","wings":"X","pattern":"S","legs":"X"},"action":"avoid","summary":"good-avoid","bonus":1.1000000000000005},{"rt":24632,"stimulus":"\n                    <p><b>Action: <em>avoid</em></b></p>\n                    <p>This is the bee that you just saw.</p>\n                    <img src=\"bees-with-color/bee-B1SM.svg\" width=\"200\">\n                    <p><span class=\"greenText\">Good choice!</span>  This bee would have stung you.<br>Your bonus pay is unchanged, and remains at $0.46.</p>\n            ","response":0,"trial_type":"html-button-response","trial_index":30,"time_elapsed":797247,"internal_node_id":"0.0-4.0-1.11","subject_id":"6122ae9b67e54054793dcc3e","study_id":"60edd13110225f80f9f3709b","session_id":"6196c4a36d32cc75560f0cb0","condition":"full-information","relevant_dimensions":["antennae","pattern"],"bee_group":{"antennae":"B","wings":"X","pattern":"S","legs":"X"},"bonus":1.1000000000000005},{"rt":17288,"stimulus":"bees-with-color/bee-A1SF.svg","response":1,"trial_type":"image-button-response","trial_index":31,"time_elapsed":814538,"internal_node_id":"0.0-4.0-0.12","subject_id":"6122ae9b67e54054793dcc3e","study_id":"60edd13110225f80f9f3709b","session_id":"6196c4a36d32cc75560f0cb0","condition":"full-information","relevant_dimensions":["antennae","pattern"],"bee_group":{"antennae":"B","wings":"X","pattern":"S","legs":"X"},"action":"avoid","summary":"bad-avoid","bonus":1.1000000000000005},{"rt":12089,"stimulus":"\n                    <p><b>Action: <em>avoid</em></b></p>\n                    <p>This is the bee that you just saw.</p>\n                    <img src=\"bees-with-color/bee-A1SF.svg\" width=\"200\">\n                    <p><span class=\"redText\">Bad choice,</span> the bee was friendly.<br>Your bonus pay is unchanged, and remains at $0.46.</p>\n            ","response":0,"trial_type":"html-button-response","trial_index":32,"time_elapsed":826629,"internal_node_id":"0.0-4.0-1.12","subject_id":"6122ae9b67e54054793dcc3e","study_id":"60edd13110225f80f9f3709b","session_id":"6196c4a36d32cc75560f0cb0","condition":"full-information","relevant_dimensions":["antennae","pattern"],"bee_group":{"antennae":"B","wings":"X","pattern":"S","legs":"X"},"bonus":1.1000000000000005},{"rt":21909,"stimulus":"bees-with-color/bee-A1DM.svg","response":0,"trial_type":"image-button-response","trial_index":33,"time_elapsed":848542,"internal_node_id":"0.0-4.0-0.13","subject_id":"6122ae9b67e54054793dcc3e","study_id":"60edd13110225f80f9f3709b","session_id":"6196c4a36d32cc75560f0cb0","condition":"full-information","relevant_dimensions":["antennae","pattern"],"bee_group":{"antennae":"B","wings":"X","pattern":"S","legs":"X"},"action":"harvest","summary":"good-harvest","bonus":1.1000000000000005},{"rt":910,"stimulus":"\n                    <p><b>Action: <em>harvest</em></b></p>\n                    <p>This is the bee that you just saw.</p>\n                    <img src=\"bees-with-color/bee-A1DM.svg\" width=\"200\">\n                    <p><span class=\"greenText\"><b>Successful harvest!</b></span><br>Your pay has increased by $0.02. Your bonus pay is now $0.48.</p>\n            ","response":0,"trial_type":"html-button-response","trial_index":34,"time_elapsed":849454,"internal_node_id":"0.0-4.0-1.13","subject_id":"6122ae9b67e54054793dcc3e","study_id":"60edd13110225f80f9f3709b","session_id":"6196c4a36d32cc75560f0cb0","condition":"full-information","relevant_dimensions":["antennae","pattern"],"bee_group":{"antennae":"B","wings":"X","pattern":"S","legs":"X"},"bonus":1.1000000000000005},{"rt":18296,"stimulus":"bees-with-color/bee-B2DF.svg","response":1,"trial_type":"image-button-response","trial_index":35,"time_elapsed":867750,"internal_node_id":"0.0-4.0-0.14","subject_id":"6122ae9b67e54054793dcc3e","study_id":"60edd13110225f80f9f3709b","session_id":"6196c4a36d32cc75560f0cb0","condition":"full-information","relevant_dimensions":["antennae","pattern"],"bee_group":{"antennae":"B","wings":"X","pattern":"S","legs":"X"},"action":"avoid","summary":"bad-avoid","bonus":1.1000000000000005},{"rt":21848,"stimulus":"\n                    <p><b>Action: <em>avoid</em></b></p>\n                    <p>This is the bee that you just saw.</p>\n                    <img src=\"bees-with-color/bee-B2DF.svg\" width=\"200\">\n                    <p><span class=\"redText\">Bad choice,</span> the bee was friendly.<br>Your bonus pay is unchanged, and remains at $0.48.</p>\n            ","response":0,"trial_type":"html-button-response","trial_index":36,"time_elapsed":889600,"internal_node_id":"0.0-4.0-1.14","subject_id":"6122ae9b67e54054793dcc3e","study_id":"60edd13110225f80f9f3709b","session_id":"6196c4a36d32cc75560f0cb0","condition":"full-information","relevant_dimensions":["antennae","pattern"],"bee_group":{"antennae":"B","wings":"X","pattern":"S","legs":"X"},"bonus":1.1000000000000005},{"rt":16935,"stimulus":"bees-with-color/bee-A1DF.svg","response":1,"trial_type":"image-button-response","trial_index":37,"time_elapsed":906537,"internal_node_id":"0.0-4.0-0.15","subject_id":"6122ae9b67e54054793dcc3e","study_id":"60edd13110225f80f9f3709b","session_id":"6196c4a36d32cc75560f0cb0","condition":"full-information","relevant_dimensions":["antennae","pattern"],"bee_group":{"antennae":"B","wings":"X","pattern":"S","legs":"X"},"action":"avoid","summary":"bad-avoid","bonus":1.1000000000000005},{"rt":13911,"stimulus":"\n                    <p><b>Action: <em>avoid</em></b></p>\n                    <p>This is the bee that you just saw.</p>\n                    <img src=\"bees-with-color/bee-A1DF.svg\" width=\"200\">\n                    <p><span class=\"redText\">Bad choice,</span> the bee was friendly.<br>Your bonus pay is unchanged, and remains at $0.48.</p>\n            ","response":0,"trial_type":"html-button-response","trial_index":38,"time_elapsed":920450,"internal_node_id":"0.0-4.0-1.15","subject_id":"6122ae9b67e54054793dcc3e","study_id":"60edd13110225f80f9f3709b","session_id":"6196c4a36d32cc75560f0cb0","condition":"full-information","relevant_dimensions":["antennae","pattern"],"bee_group":{"antennae":"B","wings":"X","pattern":"S","legs":"X"},"bonus":1.1000000000000005},{"rt":16288,"stimulus":"bees-with-color/bee-A2DM.svg","response":0,"trial_type":"image-button-response","trial_index":39,"time_elapsed":936740,"internal_node_id":"0.0-4.0-0.16","subject_id":"6122ae9b67e54054793dcc3e","study_id":"60edd13110225f80f9f3709b","session_id":"6196c4a36d32cc75560f0cb0","condition":"full-information","relevant_dimensions":["antennae","pattern"],"bee_group":{"antennae":"B","wings":"X","pattern":"S","legs":"X"},"action":"harvest","summary":"good-harvest","bonus":1.1000000000000005},{"rt":909,"stimulus":"\n                    <p><b>Action: <em>harvest</em></b></p>\n                    <p>This is the bee that you just saw.</p>\n                    <img src=\"bees-with-color/bee-A2DM.svg\" width=\"200\">\n                    <p><span class=\"greenText\"><b>Successful harvest!</b></span><br>Your pay has increased by $0.02. Your bonus pay is now $0.50.</p>\n            ","response":0,"trial_type":"html-button-response","trial_index":40,"time_elapsed":937652,"internal_node_id":"0.0-4.0-1.16","subject_id":"6122ae9b67e54054793dcc3e","study_id":"60edd13110225f80f9f3709b","session_id":"6196c4a36d32cc75560f0cb0","condition":"full-information","relevant_dimensions":["antennae","pattern"],"bee_group":{"antennae":"B","wings":"X","pattern":"S","legs":"X"},"bonus":1.1000000000000005},{"rt":20358,"stimulus":"bees-with-color/bee-B1SM.svg","response":1,"trial_type":"image-button-response","trial_index":41,"time_elapsed":958016,"internal_node_id":"0.0-4.0-0.17","subject_id":"6122ae9b67e54054793dcc3e","study_id":"60edd13110225f80f9f3709b","session_id":"6196c4a36d32cc75560f0cb0","condition":"full-information","relevant_dimensions":["antennae","pattern"],"bee_group":{"antennae":"B","wings":"X","pattern":"S","legs":"X"},"action":"avoid","summary":"good-avoid","bonus":1.1000000000000005},{"rt":1641,"stimulus":"\n                    <p><b>Action: <em>avoid</em></b></p>\n                    <p>This is the bee that you just saw.</p>\n                    <img src=\"bees-with-color/bee-B1SM.svg\" width=\"200\">\n                    <p><span class=\"greenText\">Good choice!</span>  This bee would have stung you.<br>Your bonus pay is unchanged, and remains at $0.50.</p>\n            ","response":0,"trial_type":"html-button-response","trial_index":42,"time_elapsed":959660,"internal_node_id":"0.0-4.0-1.17","subject_id":"6122ae9b67e54054793dcc3e","study_id":"60edd13110225f80f9f3709b","session_id":"6196c4a36d32cc75560f0cb0","condition":"full-information","relevant_dimensions":["antennae","pattern"],"bee_group":{"antennae":"B","wings":"X","pattern":"S","legs":"X"},"bonus":1.1000000000000005},{"rt":29394,"stimulus":"bees-with-color/bee-B2SF.svg","response":1,"trial_type":"image-button-response","trial_index":43,"time_elapsed":989058,"internal_node_id":"0.0-4.0-0.18","subject_id":"6122ae9b67e54054793dcc3e","study_id":"60edd13110225f80f9f3709b","session_id":"6196c4a36d32cc75560f0cb0","condition":"full-information","relevant_dimensions":["antennae","pattern"],"bee_group":{"antennae":"B","wings":"X","pattern":"S","legs":"X"},"action":"avoid","summary":"good-avoid","bonus":1.1000000000000005},{"rt":7974,"stimulus":"\n                    <p><b>Action: <em>avoid</em></b></p>\n                    <p>This is the bee that you just saw.</p>\n                    <img src=\"bees-with-color/bee-B2SF.svg\" width=\"200\">\n                    <p><span class=\"greenText\">Good choice!</span>  This bee would have stung you.<br>Your bonus pay is unchanged, and remains at $0.50.</p>\n            ","response":0,"trial_type":"html-button-response","trial_index":44,"time_elapsed":997033,"internal_node_id":"0.0-4.0-1.18","subject_id":"6122ae9b67e54054793dcc3e","study_id":"60edd13110225f80f9f3709b","session_id":"6196c4a36d32cc75560f0cb0","condition":"full-information","relevant_dimensions":["antennae","pattern"],"bee_group":{"antennae":"B","wings":"X","pattern":"S","legs":"X"},"bonus":1.1000000000000005},{"rt":15048,"stimulus":"bees-with-color/bee-B2DF.svg","response":0,"trial_type":"image-button-response","trial_index":45,"time_elapsed":1012083,"internal_node_id":"0.0-4.0-0.19","subject_id":"6122ae9b67e54054793dcc3e","study_id":"60edd13110225f80f9f3709b","session_id":"6196c4a36d32cc75560f0cb0","condition":"full-information","relevant_dimensions":["antennae","pattern"],"bee_group":{"antennae":"B","wings":"X","pattern":"S","legs":"X"},"action":"harvest","summary":"good-harvest","bonus":1.1000000000000005},{"rt":1092,"stimulus":"\n                    <p><b>Action: <em>harvest</em></b></p>\n                    <p>This is the bee that you just saw.</p>\n                    <img src=\"bees-with-color/bee-B2DF.svg\" width=\"200\">\n                    <p><span class=\"greenText\"><b>Successful harvest!</b></span><br>Your pay has increased by $0.02. Your bonus pay is now $0.52.</p>\n            ","response":0,"trial_type":"html-button-response","trial_index":46,"time_elapsed":1013178,"internal_node_id":"0.0-4.0-1.19","subject_id":"6122ae9b67e54054793dcc3e","study_id":"60edd13110225f80f9f3709b","session_id":"6196c4a36d32cc75560f0cb0","condition":"full-information","relevant_dimensions":["antennae","pattern"],"bee_group":{"antennae":"B","wings":"X","pattern":"S","legs":"X"},"bonus":1.1000000000000005},{"rt":12178,"stimulus":"bees-with-color/bee-A2SF.svg","response":0,"trial_type":"image-button-response","trial_index":47,"time_elapsed":1025356,"internal_node_id":"0.0-4.0-0.20","subject_id":"6122ae9b67e54054793dcc3e","study_id":"60edd13110225f80f9f3709b","session_id":"6196c4a36d32cc75560f0cb0","condition":"full-information","relevant_dimensions":["antennae","pattern"],"bee_group":{"antennae":"B","wings":"X","pattern":"S","legs":"X"},"action":"harvest","summary":"good-harvest","bonus":1.1000000000000005},{"rt":921,"stimulus":"\n                    <p><b>Action: <em>harvest</em></b></p>\n                    <p>This is the bee that you just saw.</p>\n                    <img src=\"bees-with-color/bee-A2SF.svg\" width=\"200\">\n                    <p><span class=\"greenText\"><b>Successful harvest!</b></span><br>Your pay has increased by $0.02. Your bonus pay is now $0.54.</p>\n            ","response":0,"trial_type":"html-button-response","trial_index":48,"time_elapsed":1026279,"internal_node_id":"0.0-4.0-1.20","subject_id":"6122ae9b67e54054793dcc3e","study_id":"60edd13110225f80f9f3709b","session_id":"6196c4a36d32cc75560f0cb0","condition":"full-information","relevant_dimensions":["antennae","pattern"],"bee_group":{"antennae":"B","wings":"X","pattern":"S","legs":"X"},"bonus":1.1000000000000005},{"rt":11977,"stimulus":"bees-with-color/bee-A1DF.svg","response":0,"trial_type":"image-button-response","trial_index":49,"time_elapsed":1038258,"internal_node_id":"0.0-4.0-0.21","subject_id":"6122ae9b67e54054793dcc3e","study_id":"60edd13110225f80f9f3709b","session_id":"6196c4a36d32cc75560f0cb0","condition":"full-information","relevant_dimensions":["antennae","pattern"],"bee_group":{"antennae":"B","wings":"X","pattern":"S","legs":"X"},"action":"harvest","summary":"good-harvest","bonus":1.1000000000000005},{"rt":714,"stimulus":"\n                    <p><b>Action: <em>harvest</em></b></p>\n                    <p>This is the bee that you just saw.</p>\n                    <img src=\"bees-with-color/bee-A1DF.svg\" width=\"200\">\n                    <p><span class=\"greenText\"><b>Successful harvest!</b></span><br>Your pay has increased by $0.02. Your bonus pay is now $0.56.</p>\n            ","response":0,"trial_type":"html-button-response","trial_index":50,"time_elapsed":1038973,"internal_node_id":"0.0-4.0-1.21","subject_id":"6122ae9b67e54054793dcc3e","study_id":"60edd13110225f80f9f3709b","session_id":"6196c4a36d32cc75560f0cb0","condition":"full-information","relevant_dimensions":["antennae","pattern"],"bee_group":{"antennae":"B","wings":"X","pattern":"S","legs":"X"},"bonus":1.1000000000000005},{"rt":18463,"stimulus":"bees-with-color/bee-A1SM.svg","response":0,"trial_type":"image-button-response","trial_index":51,"time_elapsed":1057437,"internal_node_id":"0.0-4.0-0.22","subject_id":"6122ae9b67e54054793dcc3e","study_id":"60edd13110225f80f9f3709b","session_id":"6196c4a36d32cc75560f0cb0","condition":"full-information","relevant_dimensions":["antennae","pattern"],"bee_group":{"antennae":"B","wings":"X","pattern":"S","legs":"X"},"action":"harvest","summary":"good-harvest","bonus":1.1000000000000005},{"rt":1994,"stimulus":"\n                    <p><b>Action: <em>harvest</em></b></p>\n                    <p>This is the bee that you just saw.</p>\n                    <img src=\"bees-with-color/bee-A1SM.svg\" width=\"200\">\n                    <p><span class=\"greenText\"><b>Successful harvest!</b></span><br>Your pay has increased by $0.02. Your bonus pay is now $0.58.</p>\n            ","response":0,"trial_type":"html-button-response","trial_index":52,"time_elapsed":1059433,"internal_node_id":"0.0-4.0-1.22","subject_id":"6122ae9b67e54054793dcc3e","study_id":"60edd13110225f80f9f3709b","session_id":"6196c4a36d32cc75560f0cb0","condition":"full-information","relevant_dimensions":["antennae","pattern"],"bee_group":{"antennae":"B","wings":"X","pattern":"S","legs":"X"},"bonus":1.1000000000000005},{"rt":32705,"stimulus":"bees-with-color/bee-A1DM.svg","response":1,"trial_type":"image-button-response","trial_index":53,"time_elapsed":1092139,"internal_node_id":"0.0-4.0-0.23","subject_id":"6122ae9b67e54054793dcc3e","study_id":"60edd13110225f80f9f3709b","session_id":"6196c4a36d32cc75560f0cb0","condition":"full-information","relevant_dimensions":["antennae","pattern"],"bee_group":{"antennae":"B","wings":"X","pattern":"S","legs":"X"},"action":"avoid","summary":"bad-avoid","bonus":1.1000000000000005},{"rt":10656,"stimulus":"\n                    <p><b>Action: <em>avoid</em></b></p>\n                    <p>This is the bee that you just saw.</p>\n                    <img src=\"bees-with-color/bee-A1DM.svg\" width=\"200\">\n                    <p><span class=\"redText\">Bad choice,</span> the bee was friendly.<br>Your bonus pay is unchanged, and remains at $0.58.</p>\n            ","response":0,"trial_type":"html-button-response","trial_index":54,"time_elapsed":1102797,"internal_node_id":"0.0-4.0-1.23","subject_id":"6122ae9b67e54054793dcc3e","study_id":"60edd13110225f80f9f3709b","session_id":"6196c4a36d32cc75560f0cb0","condition":"full-information","relevant_dimensions":["antennae","pattern"],"bee_group":{"antennae":"B","wings":"X","pattern":"S","legs":"X"},"bonus":1.1000000000000005},{"rt":12126,"stimulus":"bees-with-color/bee-B1SF.svg","response":1,"trial_type":"image-button-response","trial_index":55,"time_elapsed":1114925,"internal_node_id":"0.0-4.0-0.24","subject_id":"6122ae9b67e54054793dcc3e","study_id":"60edd13110225f80f9f3709b","session_id":"6196c4a36d32cc75560f0cb0","condition":"full-information","relevant_dimensions":["antennae","pattern"],"bee_group":{"antennae":"B","wings":"X","pattern":"S","legs":"X"},"action":"avoid","summary":"good-avoid","bonus":1.1000000000000005},{"rt":908,"stimulus":"\n                    <p><b>Action: <em>avoid</em></b></p>\n                    <p>This is the bee that you just saw.</p>\n                    <img src=\"bees-with-color/bee-B1SF.svg\" width=\"200\">\n                    <p><span class=\"greenText\">Good choice!</span>  This bee would have stung you.<br>Your bonus pay is unchanged, and remains at $0.58.</p>\n            ","response":0,"trial_type":"html-button-response","trial_index":56,"time_elapsed":1115835,"internal_node_id":"0.0-4.0-1.24","subject_id":"6122ae9b67e54054793dcc3e","study_id":"60edd13110225f80f9f3709b","session_id":"6196c4a36d32cc75560f0cb0","condition":"full-information","relevant_dimensions":["antennae","pattern"],"bee_group":{"antennae":"B","wings":"X","pattern":"S","legs":"X"},"bonus":1.1000000000000005},{"rt":6750,"stimulus":"bees-with-color/bee-A1SF.svg","response":0,"trial_type":"image-button-response","trial_index":57,"time_elapsed":1122587,"internal_node_id":"0.0-4.0-0.25","subject_id":"6122ae9b67e54054793dcc3e","study_id":"60edd13110225f80f9f3709b","session_id":"6196c4a36d32cc75560f0cb0","condition":"full-information","relevant_dimensions":["antennae","pattern"],"bee_group":{"antennae":"B","wings":"X","pattern":"S","legs":"X"},"action":"harvest","summary":"good-harvest","bonus":1.1000000000000005},{"rt":845,"stimulus":"\n                    <p><b>Action: <em>harvest</em></b></p>\n                    <p>This is the bee that you just saw.</p>\n                    <img src=\"bees-with-color/bee-A1SF.svg\" width=\"200\">\n                    <p><span class=\"greenText\"><b>Successful harvest!</b></span><br>Your pay has increased by $0.02. Your bonus pay is now $0.60.</p>\n            ","response":0,"trial_type":"html-button-response","trial_index":58,"time_elapsed":1123434,"internal_node_id":"0.0-4.0-1.25","subject_id":"6122ae9b67e54054793dcc3e","study_id":"60edd13110225f80f9f3709b","session_id":"6196c4a36d32cc75560f0cb0","condition":"full-information","relevant_dimensions":["antennae","pattern"],"bee_group":{"antennae":"B","wings":"X","pattern":"S","legs":"X"},"bonus":1.1000000000000005},{"rt":7147,"stimulus":"bees-with-color/bee-A2DF.svg","response":0,"trial_type":"image-button-response","trial_index":59,"time_elapsed":1130582,"internal_node_id":"0.0-4.0-0.26","subject_id":"6122ae9b67e54054793dcc3e","study_id":"60edd13110225f80f9f3709b","session_id":"6196c4a36d32cc75560f0cb0","condition":"full-information","relevant_dimensions":["antennae","pattern"],"bee_group":{"antennae":"B","wings":"X","pattern":"S","legs":"X"},"action":"harvest","summary":"good-harvest","bonus":1.1000000000000005},{"rt":581,"stimulus":"\n                    <p><b>Action: <em>harvest</em></b></p>\n                    <p>This is the bee that you just saw.</p>\n                    <img src=\"bees-with-color/bee-A2DF.svg\" width=\"200\">\n                    <p><span class=\"greenText\"><b>Successful harvest!</b></span><br>Your pay has increased by $0.02. Your bonus pay is now $0.62.</p>\n            ","response":0,"trial_type":"html-button-response","trial_index":60,"time_elapsed":1131166,"internal_node_id":"0.0-4.0-1.26","subject_id":"6122ae9b67e54054793dcc3e","study_id":"60edd13110225f80f9f3709b","session_id":"6196c4a36d32cc75560f0cb0","condition":"full-information","relevant_dimensions":["antennae","pattern"],"bee_group":{"antennae":"B","wings":"X","pattern":"S","legs":"X"},"bonus":1.1000000000000005},{"rt":9321,"stimulus":"bees-with-color/bee-B1DF.svg","response":0,"trial_type":"image-button-response","trial_index":61,"time_elapsed":1140489,"internal_node_id":"0.0-4.0-0.27","subject_id":"6122ae9b67e54054793dcc3e","study_id":"60edd13110225f80f9f3709b","session_id":"6196c4a36d32cc75560f0cb0","condition":"full-information","relevant_dimensions":["antennae","pattern"],"bee_group":{"antennae":"B","wings":"X","pattern":"S","legs":"X"},"action":"harvest","summary":"good-harvest","bonus":1.1000000000000005},{"rt":1064,"stimulus":"\n                    <p><b>Action: <em>harvest</em></b></p>\n                    <p>This is the bee that you just saw.</p>\n                    <img src=\"bees-with-color/bee-B1DF.svg\" width=\"200\">\n                    <p><span class=\"greenText\"><b>Successful harvest!</b></span><br>Your pay has increased by $0.02. Your bonus pay is now $0.64.</p>\n            ","response":0,"trial_type":"html-button-response","trial_index":62,"time_elapsed":1141556,"internal_node_id":"0.0-4.0-1.27","subject_id":"6122ae9b67e54054793dcc3e","study_id":"60edd13110225f80f9f3709b","session_id":"6196c4a36d32cc75560f0cb0","condition":"full-information","relevant_dimensions":["antennae","pattern"],"bee_group":{"antennae":"B","wings":"X","pattern":"S","legs":"X"},"bonus":1.1000000000000005},{"rt":16873,"stimulus":"bees-with-color/bee-B2DM.svg","response":0,"trial_type":"image-button-response","trial_index":63,"time_elapsed":1158431,"internal_node_id":"0.0-4.0-0.28","subject_id":"6122ae9b67e54054793dcc3e","study_id":"60edd13110225f80f9f3709b","session_id":"6196c4a36d32cc75560f0cb0","condition":"full-information","relevant_dimensions":["antennae","pattern"],"bee_group":{"antennae":"B","wings":"X","pattern":"S","legs":"X"},"action":"harvest","summary":"good-harvest","bonus":1.1000000000000005},{"rt":12192,"stimulus":"\n                    <p><b>Action: <em>harvest</em></b></p>\n                    <p>This is the bee that you just saw.</p>\n                    <img src=\"bees-with-color/bee-B2DM.svg\" width=\"200\">\n                    <p><span class=\"greenText\"><b>Successful harvest!</b></span><br>Your pay has increased by $0.02. Your bonus pay is now $0.66.</p>\n            ","response":0,"trial_type":"html-button-response","trial_index":64,"time_elapsed":1170625,"internal_node_id":"0.0-4.0-1.28","subject_id":"6122ae9b67e54054793dcc3e","study_id":"60edd13110225f80f9f3709b","session_id":"6196c4a36d32cc75560f0cb0","condition":"full-information","relevant_dimensions":["antennae","pattern"],"bee_group":{"antennae":"B","wings":"X","pattern":"S","legs":"X"},"bonus":1.1000000000000005},{"rt":12037,"stimulus":"bees-with-color/bee-B2SM.svg","response":1,"trial_type":"image-button-response","trial_index":65,"time_elapsed":1182665,"internal_node_id":"0.0-4.0-0.29","subject_id":"6122ae9b67e54054793dcc3e","study_id":"60edd13110225f80f9f3709b","session_id":"6196c4a36d32cc75560f0cb0","condition":"full-information","relevant_dimensions":["antennae","pattern"],"bee_group":{"antennae":"B","wings":"X","pattern":"S","legs":"X"},"action":"avoid","summary":"good-avoid","bonus":1.1000000000000005},{"rt":2301,"stimulus":"\n                    <p><b>Action: <em>avoid</em></b></p>\n                    <p>This is the bee that you just saw.</p>\n                    <img src=\"bees-with-color/bee-B2SM.svg\" width=\"200\">\n                    <p><span class=\"greenText\">Good choice!</span>  This bee would have stung you.<br>Your bonus pay is unchanged, and remains at $0.66.</p>\n            ","response":0,"trial_type":"html-button-response","trial_index":66,"time_elapsed":1184967,"internal_node_id":"0.0-4.0-1.29","subject_id":"6122ae9b67e54054793dcc3e","study_id":"60edd13110225f80f9f3709b","session_id":"6196c4a36d32cc75560f0cb0","condition":"full-information","relevant_dimensions":["antennae","pattern"],"bee_group":{"antennae":"B","wings":"X","pattern":"S","legs":"X"},"bonus":1.1000000000000005},{"rt":13187,"stimulus":"bees-with-color/bee-A2SM.svg","response":0,"trial_type":"image-button-response","trial_index":67,"time_elapsed":1198155,"internal_node_id":"0.0-4.0-0.30","subject_id":"6122ae9b67e54054793dcc3e","study_id":"60edd13110225f80f9f3709b","session_id":"6196c4a36d32cc75560f0cb0","condition":"full-information","relevant_dimensions":["antennae","pattern"],"bee_group":{"antennae":"B","wings":"X","pattern":"S","legs":"X"},"action":"harvest","summary":"good-harvest","bonus":1.1000000000000005},{"rt":934,"stimulus":"\n                    <p><b>Action: <em>harvest</em></b></p>\n                    <p>This is the bee that you just saw.</p>\n                    <img src=\"bees-with-color/bee-A2SM.svg\" width=\"200\">\n                    <p><span class=\"greenText\"><b>Successful harvest!</b></span><br>Your pay has increased by $0.02. Your bonus pay is now $0.68.</p>\n            ","response":0,"trial_type":"html-button-response","trial_index":68,"time_elapsed":1199092,"internal_node_id":"0.0-4.0-1.30","subject_id":"6122ae9b67e54054793dcc3e","study_id":"60edd13110225f80f9f3709b","session_id":"6196c4a36d32cc75560f0cb0","condition":"full-information","relevant_dimensions":["antennae","pattern"],"bee_group":{"antennae":"B","wings":"X","pattern":"S","legs":"X"},"bonus":1.1000000000000005},{"rt":9692,"stimulus":"bees-with-color/bee-B1DM.svg","response":0,"trial_type":"image-button-response","trial_index":69,"time_elapsed":1208786,"internal_node_id":"0.0-4.0-0.31","subject_id":"6122ae9b67e54054793dcc3e","study_id":"60edd13110225f80f9f3709b","session_id":"6196c4a36d32cc75560f0cb0","condition":"full-information","relevant_dimensions":["antennae","pattern"],"bee_group":{"antennae":"B","wings":"X","pattern":"S","legs":"X"},"action":"harvest","summary":"good-harvest","bonus":1.1000000000000005},{"rt":623,"stimulus":"\n                    <p><b>Action: <em>harvest</em></b></p>\n                    <p>This is the bee that you just saw.</p>\n                    <img src=\"bees-with-color/bee-B1DM.svg\" width=\"200\">\n                    <p><span class=\"greenText\"><b>Successful harvest!</b></span><br>Your pay has increased by $0.02. Your bonus pay is now $0.70.</p>\n            ","response":0,"trial_type":"html-button-response","trial_index":70,"time_elapsed":1209411,"internal_node_id":"0.0-4.0-1.31","subject_id":"6122ae9b67e54054793dcc3e","study_id":"60edd13110225f80f9f3709b","session_id":"6196c4a36d32cc75560f0cb0","condition":"full-information","relevant_dimensions":["antennae","pattern"],"bee_group":{"antennae":"B","wings":"X","pattern":"S","legs":"X"},"bonus":1.1000000000000005},{"rt":8000,"stimulus":"bees-with-color/bee-B2DM.svg","response":0,"trial_type":"image-button-response","trial_index":71,"time_elapsed":1217413,"internal_node_id":"0.0-4.0-0.32","subject_id":"6122ae9b67e54054793dcc3e","study_id":"60edd13110225f80f9f3709b","session_id":"6196c4a36d32cc75560f0cb0","condition":"full-information","relevant_dimensions":["antennae","pattern"],"bee_group":{"antennae":"B","wings":"X","pattern":"S","legs":"X"},"action":"harvest","summary":"good-harvest","bonus":1.1000000000000005},{"rt":12801,"stimulus":"\n                    <p><b>Action: <em>harvest</em></b></p>\n                    <p>This is the bee that you just saw.</p>\n                    <img src=\"bees-with-color/bee-B2DM.svg\" width=\"200\">\n                    <p><span class=\"greenText\"><b>Successful harvest!</b></span><br>Your pay has increased by $0.02. Your bonus pay is now $0.72.</p>\n            ","response":0,"trial_type":"html-button-response","trial_index":72,"time_elapsed":1230217,"internal_node_id":"0.0-4.0-1.32","subject_id":"6122ae9b67e54054793dcc3e","study_id":"60edd13110225f80f9f3709b","session_id":"6196c4a36d32cc75560f0cb0","condition":"full-information","relevant_dimensions":["antennae","pattern"],"bee_group":{"antennae":"B","wings":"X","pattern":"S","legs":"X"},"bonus":1.1000000000000005},{"rt":16520,"stimulus":"bees-with-color/bee-A2DM.svg","response":0,"trial_type":"image-button-response","trial_index":73,"time_elapsed":1246739,"internal_node_id":"0.0-4.0-0.33","subject_id":"6122ae9b67e54054793dcc3e","study_id":"60edd13110225f80f9f3709b","session_id":"6196c4a36d32cc75560f0cb0","condition":"full-information","relevant_dimensions":["antennae","pattern"],"bee_group":{"antennae":"B","wings":"X","pattern":"S","legs":"X"},"action":"harvest","summary":"good-harvest","bonus":1.1000000000000005},{"rt":585,"stimulus":"\n                    <p><b>Action: <em>harvest</em></b></p>\n                    <p>This is the bee that you just saw.</p>\n                    <img src=\"bees-with-color/bee-A2DM.svg\" width=\"200\">\n                    <p><span class=\"greenText\"><b>Successful harvest!</b></span><br>Your pay has increased by $0.02. Your bonus pay is now $0.74.</p>\n            ","response":0,"trial_type":"html-button-response","trial_index":74,"time_elapsed":1247325,"internal_node_id":"0.0-4.0-1.33","subject_id":"6122ae9b67e54054793dcc3e","study_id":"60edd13110225f80f9f3709b","session_id":"6196c4a36d32cc75560f0cb0","condition":"full-information","relevant_dimensions":["antennae","pattern"],"bee_group":{"antennae":"B","wings":"X","pattern":"S","legs":"X"},"bonus":1.1000000000000005},{"rt":7965,"stimulus":"bees-with-color/bee-A1DF.svg","response":0,"trial_type":"image-button-response","trial_index":75,"time_elapsed":1255291,"internal_node_id":"0.0-4.0-0.34","subject_id":"6122ae9b67e54054793dcc3e","study_id":"60edd13110225f80f9f3709b","session_id":"6196c4a36d32cc75560f0cb0","condition":"full-information","relevant_dimensions":["antennae","pattern"],"bee_group":{"antennae":"B","wings":"X","pattern":"S","legs":"X"},"action":"harvest","summary":"good-harvest","bonus":1.1000000000000005},{"rt":607,"stimulus":"\n                    <p><b>Action: <em>harvest</em></b></p>\n                    <p>This is the bee that you just saw.</p>\n                    <img src=\"bees-with-color/bee-A1DF.svg\" width=\"200\">\n                    <p><span class=\"greenText\"><b>Successful harvest!</b></span><br>Your pay has increased by $0.02. Your bonus pay is now $0.76.</p>\n            ","response":0,"trial_type":"html-button-response","trial_index":76,"time_elapsed":1255898,"internal_node_id":"0.0-4.0-1.34","subject_id":"6122ae9b67e54054793dcc3e","study_id":"60edd13110225f80f9f3709b","session_id":"6196c4a36d32cc75560f0cb0","condition":"full-information","relevant_dimensions":["antennae","pattern"],"bee_group":{"antennae":"B","wings":"X","pattern":"S","legs":"X"},"bonus":1.1000000000000005},{"rt":7810,"stimulus":"bees-with-color/bee-B2SF.svg","response":1,"trial_type":"image-button-response","trial_index":77,"time_elapsed":1263710,"internal_node_id":"0.0-4.0-0.35","subject_id":"6122ae9b67e54054793dcc3e","study_id":"60edd13110225f80f9f3709b","session_id":"6196c4a36d32cc75560f0cb0","condition":"full-information","relevant_dimensions":["antennae","pattern"],"bee_group":{"antennae":"B","wings":"X","pattern":"S","legs":"X"},"action":"avoid","summary":"good-avoid","bonus":1.1000000000000005},{"rt":811,"stimulus":"\n                    <p><b>Action: <em>avoid</em></b></p>\n                    <p>This is the bee that you just saw.</p>\n                    <img src=\"bees-with-color/bee-B2SF.svg\" width=\"200\">\n                    <p><span class=\"greenText\">Good choice!</span>  This bee would have stung you.<br>Your bonus pay is unchanged, and remains at $0.76.</p>\n            ","response":0,"trial_type":"html-button-response","trial_index":78,"time_elapsed":1264523,"internal_node_id":"0.0-4.0-1.35","subject_id":"6122ae9b67e54054793dcc3e","study_id":"60edd13110225f80f9f3709b","session_id":"6196c4a36d32cc75560f0cb0","condition":"full-information","relevant_dimensions":["antennae","pattern"],"bee_group":{"antennae":"B","wings":"X","pattern":"S","legs":"X"},"bonus":1.1000000000000005},{"rt":12979,"stimulus":"bees-with-color/bee-B1DM.svg","response":0,"trial_type":"image-button-response","trial_index":79,"time_elapsed":1277505,"internal_node_id":"0.0-4.0-0.36","subject_id":"6122ae9b67e54054793dcc3e","study_id":"60edd13110225f80f9f3709b","session_id":"6196c4a36d32cc75560f0cb0","condition":"full-information","relevant_dimensions":["antennae","pattern"],"bee_group":{"antennae":"B","wings":"X","pattern":"S","legs":"X"},"action":"harvest","summary":"good-harvest","bonus":1.1000000000000005},{"rt":748,"stimulus":"\n                    <p><b>Action: <em>harvest</em></b></p>\n                    <p>This is the bee that you just saw.</p>\n                    <img src=\"bees-with-color/bee-B1DM.svg\" width=\"200\">\n                    <p><span class=\"greenText\"><b>Successful harvest!</b></span><br>Your pay has increased by $0.02. Your bonus pay is now $0.78.</p>\n            ","response":0,"trial_type":"html-button-response","trial_index":80,"time_elapsed":1278255,"internal_node_id":"0.0-4.0-1.36","subject_id":"6122ae9b67e54054793dcc3e","study_id":"60edd13110225f80f9f3709b","session_id":"6196c4a36d32cc75560f0cb0","condition":"full-information","relevant_dimensions":["antennae","pattern"],"bee_group":{"antennae":"B","wings":"X","pattern":"S","legs":"X"},"bonus":1.1000000000000005},{"rt":51032,"stimulus":"bees-with-color/bee-A2DF.svg","response":0,"trial_type":"image-button-response","trial_index":81,"time_elapsed":1329288,"internal_node_id":"0.0-4.0-0.37","subject_id":"6122ae9b67e54054793dcc3e","study_id":"60edd13110225f80f9f3709b","session_id":"6196c4a36d32cc75560f0cb0","condition":"full-information","relevant_dimensions":["antennae","pattern"],"bee_group":{"antennae":"B","wings":"X","pattern":"S","legs":"X"},"action":"harvest","summary":"good-harvest","bonus":1.1000000000000005},{"rt":4241,"stimulus":"\n                    <p><b>Action: <em>harvest</em></b></p>\n                    <p>This is the bee that you just saw.</p>\n                    <img src=\"bees-with-color/bee-A2DF.svg\" width=\"200\">\n                    <p><span class=\"greenText\"><b>Successful harvest!</b></span><br>Your pay has increased by $0.02. Your bonus pay is now $0.80.</p>\n            ","response":0,"trial_type":"html-button-response","trial_index":82,"time_elapsed":1333532,"internal_node_id":"0.0-4.0-1.37","subject_id":"6122ae9b67e54054793dcc3e","study_id":"60edd13110225f80f9f3709b","session_id":"6196c4a36d32cc75560f0cb0","condition":"full-information","relevant_dimensions":["antennae","pattern"],"bee_group":{"antennae":"B","wings":"X","pattern":"S","legs":"X"},"bonus":1.1000000000000005},{"rt":2875,"stimulus":"bees-with-color/bee-A1DM.svg","response":0,"trial_type":"image-button-response","trial_index":83,"time_elapsed":1336410,"internal_node_id":"0.0-4.0-0.38","subject_id":"6122ae9b67e54054793dcc3e","study_id":"60edd13110225f80f9f3709b","session_id":"6196c4a36d32cc75560f0cb0","condition":"full-information","relevant_dimensions":["antennae","pattern"],"bee_group":{"antennae":"B","wings":"X","pattern":"S","legs":"X"},"action":"harvest","summary":"good-harvest","bonus":1.1000000000000005},{"rt":971,"stimulus":"\n                    <p><b>Action: <em>harvest</em></b></p>\n                    <p>This is the bee that you just saw.</p>\n                    <img src=\"bees-with-color/bee-A1DM.svg\" width=\"200\">\n                    <p><span class=\"greenText\"><b>Successful harvest!</b></span><br>Your pay has increased by $0.02. Your bonus pay is now $0.82.</p>\n            ","response":0,"trial_type":"html-button-response","trial_index":84,"time_elapsed":1337382,"internal_node_id":"0.0-4.0-1.38","subject_id":"6122ae9b67e54054793dcc3e","study_id":"60edd13110225f80f9f3709b","session_id":"6196c4a36d32cc75560f0cb0","condition":"full-information","relevant_dimensions":["antennae","pattern"],"bee_group":{"antennae":"B","wings":"X","pattern":"S","legs":"X"},"bonus":1.1000000000000005},{"rt":8663,"stimulus":"bees-with-color/bee-B1SM.svg","response":1,"trial_type":"image-button-response","trial_index":85,"time_elapsed":1346046,"internal_node_id":"0.0-4.0-0.39","subject_id":"6122ae9b67e54054793dcc3e","study_id":"60edd13110225f80f9f3709b","session_id":"6196c4a36d32cc75560f0cb0","condition":"full-information","relevant_dimensions":["antennae","pattern"],"bee_group":{"antennae":"B","wings":"X","pattern":"S","legs":"X"},"action":"avoid","summary":"good-avoid","bonus":1.1000000000000005},{"rt":878,"stimulus":"\n                    <p><b>Action: <em>avoid</em></b></p>\n                    <p>This is the bee that you just saw.</p>\n                    <img src=\"bees-with-color/bee-B1SM.svg\" width=\"200\">\n                    <p><span class=\"greenText\">Good choice!</span>  This bee would have stung you.<br>Your bonus pay is unchanged, and remains at $0.82.</p>\n            ","response":0,"trial_type":"html-button-response","trial_index":86,"time_elapsed":1346926,"internal_node_id":"0.0-4.0-1.39","subject_id":"6122ae9b67e54054793dcc3e","study_id":"60edd13110225f80f9f3709b","session_id":"6196c4a36d32cc75560f0cb0","condition":"full-information","relevant_dimensions":["antennae","pattern"],"bee_group":{"antennae":"B","wings":"X","pattern":"S","legs":"X"},"bonus":1.1000000000000005},{"rt":6469,"stimulus":"bees-with-color/bee-B2SM.svg","response":1,"trial_type":"image-button-response","trial_index":87,"time_elapsed":1353396,"internal_node_id":"0.0-4.0-0.40","subject_id":"6122ae9b67e54054793dcc3e","study_id":"60edd13110225f80f9f3709b","session_id":"6196c4a36d32cc75560f0cb0","condition":"full-information","relevant_dimensions":["antennae","pattern"],"bee_group":{"antennae":"B","wings":"X","pattern":"S","legs":"X"},"action":"avoid","summary":"good-avoid","bonus":1.1000000000000005},{"rt":965,"stimulus":"\n                    <p><b>Action: <em>avoid</em></b></p>\n                    <p>This is the bee that you just saw.</p>\n                    <img src=\"bees-with-color/bee-B2SM.svg\" width=\"200\">\n                    <p><span class=\"greenText\">Good choice!</span>  This bee would have stung you.<br>Your bonus pay is unchanged, and remains at $0.82.</p>\n            ","response":0,"trial_type":"html-button-response","trial_index":88,"time_elapsed":1354363,"internal_node_id":"0.0-4.0-1.40","subject_id":"6122ae9b67e54054793dcc3e","study_id":"60edd13110225f80f9f3709b","session_id":"6196c4a36d32cc75560f0cb0","condition":"full-information","relevant_dimensions":["antennae","pattern"],"bee_group":{"antennae":"B","wings":"X","pattern":"S","legs":"X"},"bonus":1.1000000000000005},{"rt":22771,"stimulus":"bees-with-color/bee-B1SF.svg","response":1,"trial_type":"image-button-response","trial_index":89,"time_elapsed":1377134,"internal_node_id":"0.0-4.0-0.41","subject_id":"6122ae9b67e54054793dcc3e","study_id":"60edd13110225f80f9f3709b","session_id":"6196c4a36d32cc75560f0cb0","condition":"full-information","relevant_dimensions":["antennae","pattern"],"bee_group":{"antennae":"B","wings":"X","pattern":"S","legs":"X"},"action":"avoid","summary":"good-avoid","bonus":1.1000000000000005},{"rt":1020,"stimulus":"\n                    <p><b>Action: <em>avoid</em></b></p>\n                    <p>This is the bee that you just saw.</p>\n                    <img src=\"bees-with-color/bee-B1SF.svg\" width=\"200\">\n                    <p><span class=\"greenText\">Good choice!</span>  This bee would have stung you.<br>Your bonus pay is unchanged, and remains at $0.82.</p>\n            ","response":0,"trial_type":"html-button-response","trial_index":90,"time_elapsed":1378156,"internal_node_id":"0.0-4.0-1.41","subject_id":"6122ae9b67e54054793dcc3e","study_id":"60edd13110225f80f9f3709b","session_id":"6196c4a36d32cc75560f0cb0","condition":"full-information","relevant_dimensions":["antennae","pattern"],"bee_group":{"antennae":"B","wings":"X","pattern":"S","legs":"X"},"bonus":1.1000000000000005},{"rt":11244,"stimulus":"bees-with-color/bee-A1SF.svg","response":0,"trial_type":"image-button-response","trial_index":91,"time_elapsed":1389403,"internal_node_id":"0.0-4.0-0.42","subject_id":"6122ae9b67e54054793dcc3e","study_id":"60edd13110225f80f9f3709b","session_id":"6196c4a36d32cc75560f0cb0","condition":"full-information","relevant_dimensions":["antennae","pattern"],"bee_group":{"antennae":"B","wings":"X","pattern":"S","legs":"X"},"action":"harvest","summary":"good-harvest","bonus":1.1000000000000005},{"rt":577,"stimulus":"\n                    <p><b>Action: <em>harvest</em></b></p>\n                    <p>This is the bee that you just saw.</p>\n                    <img src=\"bees-with-color/bee-A1SF.svg\" width=\"200\">\n                    <p><span class=\"greenText\"><b>Successful harvest!</b></span><br>Your pay has increased by $0.02. Your bonus pay is now $0.84.</p>\n            ","response":0,"trial_type":"html-button-response","trial_index":92,"time_elapsed":1389983,"internal_node_id":"0.0-4.0-1.42","subject_id":"6122ae9b67e54054793dcc3e","study_id":"60edd13110225f80f9f3709b","session_id":"6196c4a36d32cc75560f0cb0","condition":"full-information","relevant_dimensions":["antennae","pattern"],"bee_group":{"antennae":"B","wings":"X","pattern":"S","legs":"X"},"bonus":1.1000000000000005},{"rt":9335,"stimulus":"bees-with-color/bee-A1SM.svg","response":0,"trial_type":"image-button-response","trial_index":93,"time_elapsed":1399320,"internal_node_id":"0.0-4.0-0.43","subject_id":"6122ae9b67e54054793dcc3e","study_id":"60edd13110225f80f9f3709b","session_id":"6196c4a36d32cc75560f0cb0","condition":"full-information","relevant_dimensions":["antennae","pattern"],"bee_group":{"antennae":"B","wings":"X","pattern":"S","legs":"X"},"action":"harvest","summary":"good-harvest","bonus":1.1000000000000005},{"rt":939,"stimulus":"\n                    <p><b>Action: <em>harvest</em></b></p>\n                    <p>This is the bee that you just saw.</p>\n                    <img src=\"bees-with-color/bee-A1SM.svg\" width=\"200\">\n                    <p><span class=\"greenText\"><b>Successful harvest!</b></span><br>Your pay has increased by $0.02. Your bonus pay is now $0.86.</p>\n            ","response":0,"trial_type":"html-button-response","trial_index":94,"time_elapsed":1400260,"internal_node_id":"0.0-4.0-1.43","subject_id":"6122ae9b67e54054793dcc3e","study_id":"60edd13110225f80f9f3709b","session_id":"6196c4a36d32cc75560f0cb0","condition":"full-information","relevant_dimensions":["antennae","pattern"],"bee_group":{"antennae":"B","wings":"X","pattern":"S","legs":"X"},"bonus":1.1000000000000005},{"rt":12842,"stimulus":"bees-with-color/bee-A2SM.svg","response":0,"trial_type":"image-button-response","trial_index":95,"time_elapsed":1413104,"internal_node_id":"0.0-4.0-0.44","subject_id":"6122ae9b67e54054793dcc3e","study_id":"60edd13110225f80f9f3709b","session_id":"6196c4a36d32cc75560f0cb0","condition":"full-information","relevant_dimensions":["antennae","pattern"],"bee_group":{"antennae":"B","wings":"X","pattern":"S","legs":"X"},"action":"harvest","summary":"good-harvest","bonus":1.1000000000000005},{"rt":539,"stimulus":"\n                    <p><b>Action: <em>harvest</em></b></p>\n                    <p>This is the bee that you just saw.</p>\n                    <img src=\"bees-with-color/bee-A2SM.svg\" width=\"200\">\n                    <p><span class=\"greenText\"><b>Successful harvest!</b></span><br>Your pay has increased by $0.02. Your bonus pay is now $0.88.</p>\n            ","response":0,"trial_type":"html-button-response","trial_index":96,"time_elapsed":1413646,"internal_node_id":"0.0-4.0-1.44","subject_id":"6122ae9b67e54054793dcc3e","study_id":"60edd13110225f80f9f3709b","session_id":"6196c4a36d32cc75560f0cb0","condition":"full-information","relevant_dimensions":["antennae","pattern"],"bee_group":{"antennae":"B","wings":"X","pattern":"S","legs":"X"},"bonus":1.1000000000000005},{"rt":10021,"stimulus":"bees-with-color/bee-B1DF.svg","response":0,"trial_type":"image-button-response","trial_index":97,"time_elapsed":1423669,"internal_node_id":"0.0-4.0-0.45","subject_id":"6122ae9b67e54054793dcc3e","study_id":"60edd13110225f80f9f3709b","session_id":"6196c4a36d32cc75560f0cb0","condition":"full-information","relevant_dimensions":["antennae","pattern"],"bee_group":{"antennae":"B","wings":"X","pattern":"S","legs":"X"},"action":"harvest","summary":"good-harvest","bonus":1.1000000000000005},{"rt":616,"stimulus":"\n                    <p><b>Action: <em>harvest</em></b></p>\n                    <p>This is the bee that you just saw.</p>\n                    <img src=\"bees-with-color/bee-B1DF.svg\" width=\"200\">\n                    <p><span class=\"greenText\"><b>Successful harvest!</b></span><br>Your pay has increased by $0.02. Your bonus pay is now $0.90.</p>\n            ","response":0,"trial_type":"html-button-response","trial_index":98,"time_elapsed":1424287,"internal_node_id":"0.0-4.0-1.45","subject_id":"6122ae9b67e54054793dcc3e","study_id":"60edd13110225f80f9f3709b","session_id":"6196c4a36d32cc75560f0cb0","condition":"full-information","relevant_dimensions":["antennae","pattern"],"bee_group":{"antennae":"B","wings":"X","pattern":"S","legs":"X"},"bonus":1.1000000000000005},{"rt":11406,"stimulus":"bees-with-color/bee-A2SF.svg","response":0,"trial_type":"image-button-response","trial_index":99,"time_elapsed":1435694,"internal_node_id":"0.0-4.0-0.46","subject_id":"6122ae9b67e54054793dcc3e","study_id":"60edd13110225f80f9f3709b","session_id":"6196c4a36d32cc75560f0cb0","condition":"full-information","relevant_dimensions":["antennae","pattern"],"bee_group":{"antennae":"B","wings":"X","pattern":"S","legs":"X"},"action":"harvest","summary":"good-harvest","bonus":1.1000000000000005},{"rt":626,"stimulus":"\n                    <p><b>Action: <em>harvest</em></b></p>\n                    <p>This is the bee that you just saw.</p>\n                    <img src=\"bees-with-color/bee-A2SF.svg\" width=\"200\">\n                    <p><span class=\"greenText\"><b>Successful harvest!</b></span><br>Your pay has increased by $0.02. Your bonus pay is now $0.92.</p>\n            ","response":0,"trial_type":"html-button-response","trial_index":100,"time_elapsed":1436321,"internal_node_id":"0.0-4.0-1.46","subject_id":"6122ae9b67e54054793dcc3e","study_id":"60edd13110225f80f9f3709b","session_id":"6196c4a36d32cc75560f0cb0","condition":"full-information","relevant_dimensions":["antennae","pattern"],"bee_group":{"antennae":"B","wings":"X","pattern":"S","legs":"X"},"bonus":1.1000000000000005},{"rt":5449,"stimulus":"bees-with-color/bee-B2DF.svg","response":0,"trial_type":"image-button-response","trial_index":101,"time_elapsed":1441770,"internal_node_id":"0.0-4.0-0.47","subject_id":"6122ae9b67e54054793dcc3e","study_id":"60edd13110225f80f9f3709b","session_id":"6196c4a36d32cc75560f0cb0","condition":"full-information","relevant_dimensions":["antennae","pattern"],"bee_group":{"antennae":"B","wings":"X","pattern":"S","legs":"X"},"action":"harvest","summary":"good-harvest","bonus":1.1000000000000005},{"rt":702,"stimulus":"\n                    <p><b>Action: <em>harvest</em></b></p>\n                    <p>This is the bee that you just saw.</p>\n                    <img src=\"bees-with-color/bee-B2DF.svg\" width=\"200\">\n                    <p><span class=\"greenText\"><b>Successful harvest!</b></span><br>Your pay has increased by $0.02. Your bonus pay is now $0.94.</p>\n            ","response":0,"trial_type":"html-button-response","trial_index":102,"time_elapsed":1442474,"internal_node_id":"0.0-4.0-1.47","subject_id":"6122ae9b67e54054793dcc3e","study_id":"60edd13110225f80f9f3709b","session_id":"6196c4a36d32cc75560f0cb0","condition":"full-information","relevant_dimensions":["antennae","pattern"],"bee_group":{"antennae":"B","wings":"X","pattern":"S","legs":"X"},"bonus":1.1000000000000005},{"rt":7832,"stimulus":"bees-with-color/bee-A2SF.svg","response":0,"trial_type":"image-button-response","trial_index":103,"time_elapsed":1450308,"internal_node_id":"0.0-4.0-0.48","subject_id":"6122ae9b67e54054793dcc3e","study_id":"60edd13110225f80f9f3709b","session_id":"6196c4a36d32cc75560f0cb0","condition":"full-information","relevant_dimensions":["antennae","pattern"],"bee_group":{"antennae":"B","wings":"X","pattern":"S","legs":"X"},"action":"harvest","summary":"good-harvest","bonus":1.1000000000000005},{"rt":1205,"stimulus":"\n                    <p><b>Action: <em>harvest</em></b></p>\n                    <p>This is the bee that you just saw.</p>\n                    <img src=\"bees-with-color/bee-A2SF.svg\" width=\"200\">\n                    <p><span class=\"greenText\"><b>Successful harvest!</b></span><br>Your pay has increased by $0.02. Your bonus pay is now $0.96.</p>\n            ","response":0,"trial_type":"html-button-response","trial_index":104,"time_elapsed":1451515,"internal_node_id":"0.0-4.0-1.48","subject_id":"6122ae9b67e54054793dcc3e","study_id":"60edd13110225f80f9f3709b","session_id":"6196c4a36d32cc75560f0cb0","condition":"full-information","relevant_dimensions":["antennae","pattern"],"bee_group":{"antennae":"B","wings":"X","pattern":"S","legs":"X"},"bonus":1.1000000000000005},{"rt":3283,"stimulus":"bees-with-color/bee-B2DM.svg","response":0,"trial_type":"image-button-response","trial_index":105,"time_elapsed":1454800,"internal_node_id":"0.0-4.0-0.49","subject_id":"6122ae9b67e54054793dcc3e","study_id":"60edd13110225f80f9f3709b","session_id":"6196c4a36d32cc75560f0cb0","condition":"full-information","relevant_dimensions":["antennae","pattern"],"bee_group":{"antennae":"B","wings":"X","pattern":"S","legs":"X"},"action":"harvest","summary":"good-harvest","bonus":1.1000000000000005},{"rt":630,"stimulus":"\n                    <p><b>Action: <em>harvest</em></b></p>\n                    <p>This is the bee that you just saw.</p>\n                    <img src=\"bees-with-color/bee-B2DM.svg\" width=\"200\">\n                    <p><span class=\"greenText\"><b>Successful harvest!</b></span><br>Your pay has increased by $0.02. Your bonus pay is now $0.98.</p>\n            ","response":0,"trial_type":"html-button-response","trial_index":106,"time_elapsed":1455434,"internal_node_id":"0.0-4.0-1.49","subject_id":"6122ae9b67e54054793dcc3e","study_id":"60edd13110225f80f9f3709b","session_id":"6196c4a36d32cc75560f0cb0","condition":"full-information","relevant_dimensions":["antennae","pattern"],"bee_group":{"antennae":"B","wings":"X","pattern":"S","legs":"X"},"bonus":1.1000000000000005},{"rt":1064,"stimulus":"bees-with-color/bee-B2DF.svg","response":0,"trial_type":"image-button-response","trial_index":107,"time_elapsed":1456500,"internal_node_id":"0.0-4.0-0.50","subject_id":"6122ae9b67e54054793dcc3e","study_id":"60edd13110225f80f9f3709b","session_id":"6196c4a36d32cc75560f0cb0","condition":"full-information","relevant_dimensions":["antennae","pattern"],"bee_group":{"antennae":"B","wings":"X","pattern":"S","legs":"X"},"action":"harvest","summary":"good-harvest","bonus":1.1000000000000005},{"rt":581,"stimulus":"\n                    <p><b>Action: <em>harvest</em></b></p>\n                    <p>This is the bee that you just saw.</p>\n                    <img src=\"bees-with-color/bee-B2DF.svg\" width=\"200\">\n                    <p><span class=\"greenText\"><b>Successful harvest!</b></span><br>Your pay has increased by $0.02. Your bonus pay is now $1.00.</p>\n            ","response":0,"trial_type":"html-button-response","trial_index":108,"time_elapsed":1457084,"internal_node_id":"0.0-4.0-1.50","subject_id":"6122ae9b67e54054793dcc3e","study_id":"60edd13110225f80f9f3709b","session_id":"6196c4a36d32cc75560f0cb0","condition":"full-information","relevant_dimensions":["antennae","pattern"],"bee_group":{"antennae":"B","wings":"X","pattern":"S","legs":"X"},"bonus":1.1000000000000005},{"rt":6851,"stimulus":"bees-with-color/bee-B1SM.svg","response":1,"trial_type":"image-button-response","trial_index":109,"time_elapsed":1463938,"internal_node_id":"0.0-4.0-0.51","subject_id":"6122ae9b67e54054793dcc3e","study_id":"60edd13110225f80f9f3709b","session_id":"6196c4a36d32cc75560f0cb0","condition":"full-information","relevant_dimensions":["antennae","pattern"],"bee_group":{"antennae":"B","wings":"X","pattern":"S","legs":"X"},"action":"avoid","summary":"good-avoid","bonus":1.1000000000000005},{"rt":1028,"stimulus":"\n                    <p><b>Action: <em>avoid</em></b></p>\n                    <p>This is the bee that you just saw.</p>\n                    <img src=\"bees-with-color/bee-B1SM.svg\" width=\"200\">\n                    <p><span class=\"greenText\">Good choice!</span>  This bee would have stung you.<br>Your bonus pay is unchanged, and remains at $1.00.</p>\n            ","response":0,"trial_type":"html-button-response","trial_index":110,"time_elapsed":1464969,"internal_node_id":"0.0-4.0-1.51","subject_id":"6122ae9b67e54054793dcc3e","study_id":"60edd13110225f80f9f3709b","session_id":"6196c4a36d32cc75560f0cb0","condition":"full-information","relevant_dimensions":["antennae","pattern"],"bee_group":{"antennae":"B","wings":"X","pattern":"S","legs":"X"},"bonus":1.1000000000000005},{"rt":1101,"stimulus":"bees-with-color/bee-A1DM.svg","response":0,"trial_type":"image-button-response","trial_index":111,"time_elapsed":1466070,"internal_node_id":"0.0-4.0-0.52","subject_id":"6122ae9b67e54054793dcc3e","study_id":"60edd13110225f80f9f3709b","session_id":"6196c4a36d32cc75560f0cb0","condition":"full-information","relevant_dimensions":["antennae","pattern"],"bee_group":{"antennae":"B","wings":"X","pattern":"S","legs":"X"},"action":"harvest","summary":"good-harvest","bonus":1.1000000000000005},{"rt":623,"stimulus":"\n                    <p><b>Action: <em>harvest</em></b></p>\n                    <p>This is the bee that you just saw.</p>\n                    <img src=\"bees-with-color/bee-A1DM.svg\" width=\"200\">\n                    <p><span class=\"greenText\"><b>Successful harvest!</b></span><br>Your pay has increased by $0.02. Your bonus pay is now $1.02.</p>\n            ","response":0,"trial_type":"html-button-response","trial_index":112,"time_elapsed":1466695,"internal_node_id":"0.0-4.0-1.52","subject_id":"6122ae9b67e54054793dcc3e","study_id":"60edd13110225f80f9f3709b","session_id":"6196c4a36d32cc75560f0cb0","condition":"full-information","relevant_dimensions":["antennae","pattern"],"bee_group":{"antennae":"B","wings":"X","pattern":"S","legs":"X"},"bonus":1.1000000000000005},{"rt":15033,"stimulus":"bees-with-color/bee-B2SF.svg","response":1,"trial_type":"image-button-response","trial_index":113,"time_elapsed":1481730,"internal_node_id":"0.0-4.0-0.53","subject_id":"6122ae9b67e54054793dcc3e","study_id":"60edd13110225f80f9f3709b","session_id":"6196c4a36d32cc75560f0cb0","condition":"full-information","relevant_dimensions":["antennae","pattern"],"bee_group":{"antennae":"B","wings":"X","pattern":"S","legs":"X"},"action":"avoid","summary":"good-avoid","bonus":1.1000000000000005},{"rt":787,"stimulus":"\n                    <p><b>Action: <em>avoid</em></b></p>\n                    <p>This is the bee that you just saw.</p>\n                    <img src=\"bees-with-color/bee-B2SF.svg\" width=\"200\">\n                    <p><span class=\"greenText\">Good choice!</span>  This bee would have stung you.<br>Your bonus pay is unchanged, and remains at $1.02.</p>\n            ","response":0,"trial_type":"html-button-response","trial_index":114,"time_elapsed":1482518,"internal_node_id":"0.0-4.0-1.53","subject_id":"6122ae9b67e54054793dcc3e","study_id":"60edd13110225f80f9f3709b","session_id":"6196c4a36d32cc75560f0cb0","condition":"full-information","relevant_dimensions":["antennae","pattern"],"bee_group":{"antennae":"B","wings":"X","pattern":"S","legs":"X"},"bonus":1.1000000000000005},{"rt":1197,"stimulus":"bees-with-color/bee-A2DF.svg","response":0,"trial_type":"image-button-response","trial_index":115,"time_elapsed":1483717,"internal_node_id":"0.0-4.0-0.54","subject_id":"6122ae9b67e54054793dcc3e","study_id":"60edd13110225f80f9f3709b","session_id":"6196c4a36d32cc75560f0cb0","condition":"full-information","relevant_dimensions":["antennae","pattern"],"bee_group":{"antennae":"B","wings":"X","pattern":"S","legs":"X"},"action":"harvest","summary":"good-harvest","bonus":1.1000000000000005},{"rt":709,"stimulus":"\n                    <p><b>Action: <em>harvest</em></b></p>\n                    <p>This is the bee that you just saw.</p>\n                    <img src=\"bees-with-color/bee-A2DF.svg\" width=\"200\">\n                    <p><span class=\"greenText\"><b>Successful harvest!</b></span><br>Your pay has increased by $0.02. Your bonus pay is now $1.04.</p>\n            ","response":0,"trial_type":"html-button-response","trial_index":116,"time_elapsed":1484428,"internal_node_id":"0.0-4.0-1.54","subject_id":"6122ae9b67e54054793dcc3e","study_id":"60edd13110225f80f9f3709b","session_id":"6196c4a36d32cc75560f0cb0","condition":"full-information","relevant_dimensions":["antennae","pattern"],"bee_group":{"antennae":"B","wings":"X","pattern":"S","legs":"X"},"bonus":1.1000000000000005},{"rt":20389,"stimulus":"bees-with-color/bee-A1SM.svg","response":0,"trial_type":"image-button-response","trial_index":117,"time_elapsed":1504818,"internal_node_id":"0.0-4.0-0.55","subject_id":"6122ae9b67e54054793dcc3e","study_id":"60edd13110225f80f9f3709b","session_id":"6196c4a36d32cc75560f0cb0","condition":"full-information","relevant_dimensions":["antennae","pattern"],"bee_group":{"antennae":"B","wings":"X","pattern":"S","legs":"X"},"action":"harvest","summary":"good-harvest","bonus":1.1000000000000005},{"rt":681,"stimulus":"\n                    <p><b>Action: <em>harvest</em></b></p>\n                    <p>This is the bee that you just saw.</p>\n                    <img src=\"bees-with-color/bee-A1SM.svg\" width=\"200\">\n                    <p><span class=\"greenText\"><b>Successful harvest!</b></span><br>Your pay has increased by $0.02. Your bonus pay is now $1.06.</p>\n            ","response":0,"trial_type":"html-button-response","trial_index":118,"time_elapsed":1505500,"internal_node_id":"0.0-4.0-1.55","subject_id":"6122ae9b67e54054793dcc3e","study_id":"60edd13110225f80f9f3709b","session_id":"6196c4a36d32cc75560f0cb0","condition":"full-information","relevant_dimensions":["antennae","pattern"],"bee_group":{"antennae":"B","wings":"X","pattern":"S","legs":"X"},"bonus":1.1000000000000005},{"rt":925,"stimulus":"bees-with-color/bee-B1DM.svg","response":0,"trial_type":"image-button-response","trial_index":119,"time_elapsed":1506426,"internal_node_id":"0.0-4.0-0.56","subject_id":"6122ae9b67e54054793dcc3e","study_id":"60edd13110225f80f9f3709b","session_id":"6196c4a36d32cc75560f0cb0","condition":"full-information","relevant_dimensions":["antennae","pattern"],"bee_group":{"antennae":"B","wings":"X","pattern":"S","legs":"X"},"action":"harvest","summary":"good-harvest","bonus":1.1000000000000005},{"rt":685,"stimulus":"\n                    <p><b>Action: <em>harvest</em></b></p>\n                    <p>This is the bee that you just saw.</p>\n                    <img src=\"bees-with-color/bee-B1DM.svg\" width=\"200\">\n                    <p><span class=\"greenText\"><b>Successful harvest!</b></span><br>Your pay has increased by $0.02. Your bonus pay is now $1.08.</p>\n            ","response":0,"trial_type":"html-button-response","trial_index":120,"time_elapsed":1507113,"internal_node_id":"0.0-4.0-1.56","subject_id":"6122ae9b67e54054793dcc3e","study_id":"60edd13110225f80f9f3709b","session_id":"6196c4a36d32cc75560f0cb0","condition":"full-information","relevant_dimensions":["antennae","pattern"],"bee_group":{"antennae":"B","wings":"X","pattern":"S","legs":"X"},"bonus":1.1000000000000005},{"rt":887,"stimulus":"bees-with-color/bee-A2DM.svg","response":0,"trial_type":"image-button-response","trial_index":121,"time_elapsed":1508000,"internal_node_id":"0.0-4.0-0.57","subject_id":"6122ae9b67e54054793dcc3e","study_id":"60edd13110225f80f9f3709b","session_id":"6196c4a36d32cc75560f0cb0","condition":"full-information","relevant_dimensions":["antennae","pattern"],"bee_group":{"antennae":"B","wings":"X","pattern":"S","legs":"X"},"action":"harvest","summary":"good-harvest","bonus":1.1000000000000005},{"rt":523,"stimulus":"\n                    <p><b>Action: <em>harvest</em></b></p>\n                    <p>This is the bee that you just saw.</p>\n                    <img src=\"bees-with-color/bee-A2DM.svg\" width=\"200\">\n                    <p><span class=\"greenText\"><b>Successful harvest!</b></span><br>Your pay has increased by $0.02. Your bonus pay is now $1.10.</p>\n            ","response":0,"trial_type":"html-button-response","trial_index":122,"time_elapsed":1508525,"internal_node_id":"0.0-4.0-1.57","subject_id":"6122ae9b67e54054793dcc3e","study_id":"60edd13110225f80f9f3709b","session_id":"6196c4a36d32cc75560f0cb0","condition":"full-information","relevant_dimensions":["antennae","pattern"],"bee_group":{"antennae":"B","wings":"X","pattern":"S","legs":"X"},"bonus":1.1000000000000005},{"rt":744,"stimulus":"bees-with-color/bee-B1DF.svg","response":0,"trial_type":"image-button-response","trial_index":123,"time_elapsed":1509268,"internal_node_id":"0.0-4.0-0.58","subject_id":"6122ae9b67e54054793dcc3e","study_id":"60edd13110225f80f9f3709b","session_id":"6196c4a36d32cc75560f0cb0","condition":"full-information","relevant_dimensions":["antennae","pattern"],"bee_group":{"antennae":"B","wings":"X","pattern":"S","legs":"X"},"action":"harvest","summary":"good-harvest","bonus":1.1000000000000005},{"rt":517,"stimulus":"\n                    <p><b>Action: <em>harvest</em></b></p>\n                    <p>This is the bee that you just saw.</p>\n                    <img src=\"bees-with-color/bee-B1DF.svg\" width=\"200\">\n                    <p><span class=\"greenText\"><b>Successful harvest!</b></span><br>Your pay has increased by $0.02. Your bonus pay is now $1.12.</p>\n            ","response":0,"trial_type":"html-button-response","trial_index":124,"time_elapsed":1509787,"internal_node_id":"0.0-4.0-1.58","subject_id":"6122ae9b67e54054793dcc3e","study_id":"60edd13110225f80f9f3709b","session_id":"6196c4a36d32cc75560f0cb0","condition":"full-information","relevant_dimensions":["antennae","pattern"],"bee_group":{"antennae":"B","wings":"X","pattern":"S","legs":"X"},"bonus":1.1000000000000005},{"rt":686,"stimulus":"bees-with-color/bee-A1DF.svg","response":0,"trial_type":"image-button-response","trial_index":125,"time_elapsed":1510475,"internal_node_id":"0.0-4.0-0.59","subject_id":"6122ae9b67e54054793dcc3e","study_id":"60edd13110225f80f9f3709b","session_id":"6196c4a36d32cc75560f0cb0","condition":"full-information","relevant_dimensions":["antennae","pattern"],"bee_group":{"antennae":"B","wings":"X","pattern":"S","legs":"X"},"action":"harvest","summary":"good-harvest","bonus":1.1000000000000005},{"rt":558,"stimulus":"\n                    <p><b>Action: <em>harvest</em></b></p>\n                    <p>This is the bee that you just saw.</p>\n                    <img src=\"bees-with-color/bee-A1DF.svg\" width=\"200\">\n                    <p><span class=\"greenText\"><b>Successful harvest!</b></span><br>Your pay has increased by $0.02. Your bonus pay is now $1.14.</p>\n            ","response":0,"trial_type":"html-button-response","trial_index":126,"time_elapsed":1511033,"internal_node_id":"0.0-4.0-1.59","subject_id":"6122ae9b67e54054793dcc3e","study_id":"60edd13110225f80f9f3709b","session_id":"6196c4a36d32cc75560f0cb0","condition":"full-information","relevant_dimensions":["antennae","pattern"],"bee_group":{"antennae":"B","wings":"X","pattern":"S","legs":"X"},"bonus":1.1000000000000005},{"rt":6262,"stimulus":"bees-with-color/bee-A1SF.svg","response":0,"trial_type":"image-button-response","trial_index":127,"time_elapsed":1517296,"internal_node_id":"0.0-4.0-0.60","subject_id":"6122ae9b67e54054793dcc3e","study_id":"60edd13110225f80f9f3709b","session_id":"6196c4a36d32cc75560f0cb0","condition":"full-information","relevant_dimensions":["antennae","pattern"],"bee_group":{"antennae":"B","wings":"X","pattern":"S","legs":"X"},"action":"harvest","summary":"good-harvest","bonus":1.1000000000000005},{"rt":545,"stimulus":"\n                    <p><b>Action: <em>harvest</em></b></p>\n                    <p>This is the bee that you just saw.</p>\n                    <img src=\"bees-with-color/bee-A1SF.svg\" width=\"200\">\n                    <p><span class=\"greenText\"><b>Successful harvest!</b></span><br>Your pay has increased by $0.02. Your bonus pay is now $1.16.</p>\n            ","response":0,"trial_type":"html-button-response","trial_index":128,"time_elapsed":1517842,"internal_node_id":"0.0-4.0-1.60","subject_id":"6122ae9b67e54054793dcc3e","study_id":"60edd13110225f80f9f3709b","session_id":"6196c4a36d32cc75560f0cb0","condition":"full-information","relevant_dimensions":["antennae","pattern"],"bee_group":{"antennae":"B","wings":"X","pattern":"S","legs":"X"},"bonus":1.1000000000000005},{"rt":4138,"stimulus":"bees-with-color/bee-B2SM.svg","response":1,"trial_type":"image-button-response","trial_index":129,"time_elapsed":1521983,"internal_node_id":"0.0-4.0-0.61","subject_id":"6122ae9b67e54054793dcc3e","study_id":"60edd13110225f80f9f3709b","session_id":"6196c4a36d32cc75560f0cb0","condition":"full-information","relevant_dimensions":["antennae","pattern"],"bee_group":{"antennae":"B","wings":"X","pattern":"S","legs":"X"},"action":"avoid","summary":"good-avoid","bonus":1.1000000000000005},{"rt":669,"stimulus":"\n                    <p><b>Action: <em>avoid</em></b></p>\n                    <p>This is the bee that you just saw.</p>\n                    <img src=\"bees-with-color/bee-B2SM.svg\" width=\"200\">\n                    <p><span class=\"greenText\">Good choice!</span>  This bee would have stung you.<br>Your bonus pay is unchanged, and remains at $1.16.</p>\n            ","response":0,"trial_type":"html-button-response","trial_index":130,"time_elapsed":1522654,"internal_node_id":"0.0-4.0-1.61","subject_id":"6122ae9b67e54054793dcc3e","study_id":"60edd13110225f80f9f3709b","session_id":"6196c4a36d32cc75560f0cb0","condition":"full-information","relevant_dimensions":["antennae","pattern"],"bee_group":{"antennae":"B","wings":"X","pattern":"S","legs":"X"},"bonus":1.1000000000000005},{"rt":5263,"stimulus":"bees-with-color/bee-B1SF.svg","response":1,"trial_type":"image-button-response","trial_index":131,"time_elapsed":1527923,"internal_node_id":"0.0-4.0-0.62","subject_id":"6122ae9b67e54054793dcc3e","study_id":"60edd13110225f80f9f3709b","session_id":"6196c4a36d32cc75560f0cb0","condition":"full-information","relevant_dimensions":["antennae","pattern"],"bee_group":{"antennae":"B","wings":"X","pattern":"S","legs":"X"},"action":"avoid","summary":"good-avoid","bonus":1.1000000000000005},{"rt":587,"stimulus":"\n                    <p><b>Action: <em>avoid</em></b></p>\n                    <p>This is the bee that you just saw.</p>\n                    <img src=\"bees-with-color/bee-B1SF.svg\" width=\"200\">\n                    <p><span class=\"greenText\">Good choice!</span>  This bee would have stung you.<br>Your bonus pay is unchanged, and remains at $1.16.</p>\n            ","response":0,"trial_type":"html-button-response","trial_index":132,"time_elapsed":1528511,"internal_node_id":"0.0-4.0-1.62","subject_id":"6122ae9b67e54054793dcc3e","study_id":"60edd13110225f80f9f3709b","session_id":"6196c4a36d32cc75560f0cb0","condition":"full-information","relevant_dimensions":["antennae","pattern"],"bee_group":{"antennae":"B","wings":"X","pattern":"S","legs":"X"},"bonus":1.1000000000000005},{"rt":8497,"stimulus":"bees-with-color/bee-A2SM.svg","response":0,"trial_type":"image-button-response","trial_index":133,"time_elapsed":1537011,"internal_node_id":"0.0-4.0-0.63","subject_id":"6122ae9b67e54054793dcc3e","study_id":"60edd13110225f80f9f3709b","session_id":"6196c4a36d32cc75560f0cb0","condition":"full-information","relevant_dimensions":["antennae","pattern"],"bee_group":{"antennae":"B","wings":"X","pattern":"S","legs":"X"},"action":"harvest","summary":"good-harvest","bonus":1.1000000000000005},{"rt":546,"stimulus":"\n                    <p><b>Action: <em>harvest</em></b></p>\n                    <p>This is the bee that you just saw.</p>\n                    <img src=\"bees-with-color/bee-A2SM.svg\" width=\"200\">\n                    <p><span class=\"greenText\"><b>Successful harvest!</b></span><br>Your pay has increased by $0.02. Your bonus pay is now $1.18.</p>\n            ","response":0,"trial_type":"html-button-response","trial_index":134,"time_elapsed":1537558,"internal_node_id":"0.0-4.0-1.63","subject_id":"6122ae9b67e54054793dcc3e","study_id":"60edd13110225f80f9f3709b","session_id":"6196c4a36d32cc75560f0cb0","condition":"full-information","relevant_dimensions":["antennae","pattern"],"bee_group":{"antennae":"B","wings":"X","pattern":"S","legs":"X"},"bonus":1.1000000000000005},{"rt":10540,"stimulus":"You have completed the first part of this experiment.<br><br>You will now begin a shorter second part, in which you will receive no feedback.<br>The same rules regarding bonus pay apply.<br><br>Press any key to begin.","response":"enter","trial_type":"html-keyboard-response","trial_index":135,"time_elapsed":1548099,"internal_node_id":"0.0-5.0","subject_id":"6122ae9b67e54054793dcc3e","study_id":"60edd13110225f80f9f3709b","session_id":"6196c4a36d32cc75560f0cb0","condition":"full-information","relevant_dimensions":["antennae","pattern"],"bee_group":{"antennae":"B","wings":"X","pattern":"S","legs":"X"},"bonus":1.1000000000000005},{"rt":11805,"stimulus":"bees-with-color/bee-A1DF.svg","response":0,"trial_type":"image-button-response","trial_index":136,"time_elapsed":1559905,"internal_node_id":"0.0-6.0-0.0","subject_id":"6122ae9b67e54054793dcc3e","study_id":"60edd13110225f80f9f3709b","session_id":"6196c4a36d32cc75560f0cb0","condition":"full-information","relevant_dimensions":["antennae","pattern"],"bee_group":{"antennae":"B","wings":"X","pattern":"S","legs":"X"},"bonus":1.1000000000000005},{"rt":6450,"stimulus":"bees-with-color/bee-B1DM.svg","response":0,"trial_type":"image-button-response","trial_index":137,"time_elapsed":1566358,"internal_node_id":"0.0-6.0-0.1","subject_id":"6122ae9b67e54054793dcc3e","study_id":"60edd13110225f80f9f3709b","session_id":"6196c4a36d32cc75560f0cb0","condition":"full-information","relevant_dimensions":["antennae","pattern"],"bee_group":{"antennae":"B","wings":"X","pattern":"S","legs":"X"},"bonus":1.1000000000000005},{"rt":2212,"stimulus":"bees-with-color/bee-B1SM.svg","response":1,"trial_type":"image-button-response","trial_index":138,"time_elapsed":1568572,"internal_node_id":"0.0-6.0-0.2","subject_id":"6122ae9b67e54054793dcc3e","study_id":"60edd13110225f80f9f3709b","session_id":"6196c4a36d32cc75560f0cb0","condition":"full-information","relevant_dimensions":["antennae","pattern"],"bee_group":{"antennae":"B","wings":"X","pattern":"S","legs":"X"},"bonus":1.1000000000000005},{"rt":2475,"stimulus":"bees-with-color/bee-A2DF.svg","response":0,"trial_type":"image-button-response","trial_index":139,"time_elapsed":1571048,"internal_node_id":"0.0-6.0-0.3","subject_id":"6122ae9b67e54054793dcc3e","study_id":"60edd13110225f80f9f3709b","session_id":"6196c4a36d32cc75560f0cb0","condition":"full-information","relevant_dimensions":["antennae","pattern"],"bee_group":{"antennae":"B","wings":"X","pattern":"S","legs":"X"},"bonus":1.1000000000000005},{"rt":2461,"stimulus":"bees-with-color/bee-A2DM.svg","response":0,"trial_type":"image-button-response","trial_index":140,"time_elapsed":1573512,"internal_node_id":"0.0-6.0-0.4","subject_id":"6122ae9b67e54054793dcc3e","study_id":"60edd13110225f80f9f3709b","session_id":"6196c4a36d32cc75560f0cb0","condition":"full-information","relevant_dimensions":["antennae","pattern"],"bee_group":{"antennae":"B","wings":"X","pattern":"S","legs":"X"},"bonus":1.1000000000000005},{"rt":689,"stimulus":"bees-with-color/bee-B2DF.svg","response":1,"trial_type":"image-button-response","trial_index":141,"time_elapsed":1574202,"internal_node_id":"0.0-6.0-0.5","subject_id":"6122ae9b67e54054793dcc3e","study_id":"60edd13110225f80f9f3709b","session_id":"6196c4a36d32cc75560f0cb0","condition":"full-information","relevant_dimensions":["antennae","pattern"],"bee_group":{"antennae":"B","wings":"X","pattern":"S","legs":"X"},"bonus":1.1000000000000005},{"rt":8087,"stimulus":"bees-with-color/bee-B1SF.svg","response":0,"trial_type":"image-button-response","trial_index":142,"time_elapsed":1582290,"internal_node_id":"0.0-6.0-0.6","subject_id":"6122ae9b67e54054793dcc3e","study_id":"60edd13110225f80f9f3709b","session_id":"6196c4a36d32cc75560f0cb0","condition":"full-information","relevant_dimensions":["antennae","pattern"],"bee_group":{"antennae":"B","wings":"X","pattern":"S","legs":"X"},"bonus":1.1000000000000005},{"rt":396,"stimulus":"bees-with-color/bee-A1DM.svg","response":0,"trial_type":"image-button-response","trial_index":143,"time_elapsed":1582690,"internal_node_id":"0.0-6.0-0.7","subject_id":"6122ae9b67e54054793dcc3e","study_id":"60edd13110225f80f9f3709b","session_id":"6196c4a36d32cc75560f0cb0","condition":"full-information","relevant_dimensions":["antennae","pattern"],"bee_group":{"antennae":"B","wings":"X","pattern":"S","legs":"X"},"bonus":1.1000000000000005},{"rt":436,"stimulus":"bees-with-color/bee-B2SF.svg","response":0,"trial_type":"image-button-response","trial_index":144,"time_elapsed":1583128,"internal_node_id":"0.0-6.0-0.8","subject_id":"6122ae9b67e54054793dcc3e","study_id":"60edd13110225f80f9f3709b","session_id":"6196c4a36d32cc75560f0cb0","condition":"full-information","relevant_dimensions":["antennae","pattern"],"bee_group":{"antennae":"B","wings":"X","pattern":"S","legs":"X"},"bonus":1.1000000000000005},{"rt":396,"stimulus":"bees-with-color/bee-A1SM.svg","response":1,"trial_type":"image-button-response","trial_index":145,"time_elapsed":1583526,"internal_node_id":"0.0-6.0-0.9","subject_id":"6122ae9b67e54054793dcc3e","study_id":"60edd13110225f80f9f3709b","session_id":"6196c4a36d32cc75560f0cb0","condition":"full-information","relevant_dimensions":["antennae","pattern"],"bee_group":{"antennae":"B","wings":"X","pattern":"S","legs":"X"},"bonus":1.1000000000000005},{"rt":1115,"stimulus":"bees-with-color/bee-A2SM.svg","response":1,"trial_type":"image-button-response","trial_index":146,"time_elapsed":1584642,"internal_node_id":"0.0-6.0-0.10","subject_id":"6122ae9b67e54054793dcc3e","study_id":"60edd13110225f80f9f3709b","session_id":"6196c4a36d32cc75560f0cb0","condition":"full-information","relevant_dimensions":["antennae","pattern"],"bee_group":{"antennae":"B","wings":"X","pattern":"S","legs":"X"},"bonus":1.1000000000000005},{"rt":376,"stimulus":"bees-with-color/bee-A2SF.svg","response":0,"trial_type":"image-button-response","trial_index":147,"time_elapsed":1585020,"internal_node_id":"0.0-6.0-0.11","subject_id":"6122ae9b67e54054793dcc3e","study_id":"60edd13110225f80f9f3709b","session_id":"6196c4a36d32cc75560f0cb0","condition":"full-information","relevant_dimensions":["antennae","pattern"],"bee_group":{"antennae":"B","wings":"X","pattern":"S","legs":"X"},"bonus":1.1000000000000005},{"rt":351,"stimulus":"bees-with-color/bee-B1DF.svg","response":1,"trial_type":"image-button-response","trial_index":148,"time_elapsed":1585373,"internal_node_id":"0.0-6.0-0.12","subject_id":"6122ae9b67e54054793dcc3e","study_id":"60edd13110225f80f9f3709b","session_id":"6196c4a36d32cc75560f0cb0","condition":"full-information","relevant_dimensions":["antennae","pattern"],"bee_group":{"antennae":"B","wings":"X","pattern":"S","legs":"X"},"bonus":1.1000000000000005},{"rt":342,"stimulus":"bees-with-color/bee-B2DM.svg","response":0,"trial_type":"image-button-response","trial_index":149,"time_elapsed":1585716,"internal_node_id":"0.0-6.0-0.13","subject_id":"6122ae9b67e54054793dcc3e","study_id":"60edd13110225f80f9f3709b","session_id":"6196c4a36d32cc75560f0cb0","condition":"full-information","relevant_dimensions":["antennae","pattern"],"bee_group":{"antennae":"B","wings":"X","pattern":"S","legs":"X"},"bonus":1.1000000000000005},{"rt":352,"stimulus":"bees-with-color/bee-A1SF.svg","response":1,"trial_type":"image-button-response","trial_index":150,"time_elapsed":1586067,"internal_node_id":"0.0-6.0-0.14","subject_id":"6122ae9b67e54054793dcc3e","study_id":"60edd13110225f80f9f3709b","session_id":"6196c4a36d32cc75560f0cb0","condition":"full-information","relevant_dimensions":["antennae","pattern"],"bee_group":{"antennae":"B","wings":"X","pattern":"S","legs":"X"},"bonus":1.1000000000000005},{"rt":365,"stimulus":"bees-with-color/bee-B2SM.svg","response":0,"trial_type":"image-button-response","trial_index":151,"time_elapsed":1586434,"internal_node_id":"0.0-6.0-0.15","subject_id":"6122ae9b67e54054793dcc3e","study_id":"60edd13110225f80f9f3709b","session_id":"6196c4a36d32cc75560f0cb0","condition":"full-information","relevant_dimensions":["antennae","pattern"],"bee_group":{"antennae":"B","wings":"X","pattern":"S","legs":"X"},"bonus":1.1000000000000005},{"rt":348,"stimulus":"bees-with-color/bee-A1SF.svg","response":1,"trial_type":"image-button-response","trial_index":152,"time_elapsed":1586784,"internal_node_id":"0.0-6.0-0.16","subject_id":"6122ae9b67e54054793dcc3e","study_id":"60edd13110225f80f9f3709b","session_id":"6196c4a36d32cc75560f0cb0","condition":"full-information","relevant_dimensions":["antennae","pattern"],"bee_group":{"antennae":"B","wings":"X","pattern":"S","legs":"X"},"bonus":1.1000000000000005},{"rt":462,"stimulus":"bees-with-color/bee-B1SF.svg","response":0,"trial_type":"image-button-response","trial_index":153,"time_elapsed":1587247,"internal_node_id":"0.0-6.0-0.17","subject_id":"6122ae9b67e54054793dcc3e","study_id":"60edd13110225f80f9f3709b","session_id":"6196c4a36d32cc75560f0cb0","condition":"full-information","relevant_dimensions":["antennae","pattern"],"bee_group":{"antennae":"B","wings":"X","pattern":"S","legs":"X"},"bonus":1.1000000000000005},{"rt":388,"stimulus":"bees-with-color/bee-B2SM.svg","response":1,"trial_type":"image-button-response","trial_index":154,"time_elapsed":1587637,"internal_node_id":"0.0-6.0-0.18","subject_id":"6122ae9b67e54054793dcc3e","study_id":"60edd13110225f80f9f3709b","session_id":"6196c4a36d32cc75560f0cb0","condition":"full-information","relevant_dimensions":["antennae","pattern"],"bee_group":{"antennae":"B","wings":"X","pattern":"S","legs":"X"},"bonus":1.1000000000000005},{"rt":311,"stimulus":"bees-with-color/bee-A1DM.svg","response":0,"trial_type":"image-button-response","trial_index":155,"time_elapsed":1587949,"internal_node_id":"0.0-6.0-0.19","subject_id":"6122ae9b67e54054793dcc3e","study_id":"60edd13110225f80f9f3709b","session_id":"6196c4a36d32cc75560f0cb0","condition":"full-information","relevant_dimensions":["antennae","pattern"],"bee_group":{"antennae":"B","wings":"X","pattern":"S","legs":"X"},"bonus":1.1000000000000005},{"rt":289,"stimulus":"bees-with-color/bee-A2DF.svg","response":0,"trial_type":"image-button-response","trial_index":156,"time_elapsed":1588242,"internal_node_id":"0.0-6.0-0.20","subject_id":"6122ae9b67e54054793dcc3e","study_id":"60edd13110225f80f9f3709b","session_id":"6196c4a36d32cc75560f0cb0","condition":"full-information","relevant_dimensions":["antennae","pattern"],"bee_group":{"antennae":"B","wings":"X","pattern":"S","legs":"X"},"bonus":1.1000000000000005},{"rt":382,"stimulus":"bees-with-color/bee-B2DF.svg","response":0,"trial_type":"image-button-response","trial_index":157,"time_elapsed":1588624,"internal_node_id":"0.0-6.0-0.21","subject_id":"6122ae9b67e54054793dcc3e","study_id":"60edd13110225f80f9f3709b","session_id":"6196c4a36d32cc75560f0cb0","condition":"full-information","relevant_dimensions":["antennae","pattern"],"bee_group":{"antennae":"B","wings":"X","pattern":"S","legs":"X"},"bonus":1.1000000000000005},{"rt":308,"stimulus":"bees-with-color/bee-A1SM.svg","response":0,"trial_type":"image-button-response","trial_index":158,"time_elapsed":1588934,"internal_node_id":"0.0-6.0-0.22","subject_id":"6122ae9b67e54054793dcc3e","study_id":"60edd13110225f80f9f3709b","session_id":"6196c4a36d32cc75560f0cb0","condition":"full-information","relevant_dimensions":["antennae","pattern"],"bee_group":{"antennae":"B","wings":"X","pattern":"S","legs":"X"},"bonus":1.1000000000000005},{"rt":376,"stimulus":"bees-with-color/bee-A2DM.svg","response":1,"trial_type":"image-button-response","trial_index":159,"time_elapsed":1589312,"internal_node_id":"0.0-6.0-0.23","subject_id":"6122ae9b67e54054793dcc3e","study_id":"60edd13110225f80f9f3709b","session_id":"6196c4a36d32cc75560f0cb0","condition":"full-information","relevant_dimensions":["antennae","pattern"],"bee_group":{"antennae":"B","wings":"X","pattern":"S","legs":"X"},"bonus":1.1000000000000005},{"rt":328,"stimulus":"bees-with-color/bee-B1SM.svg","response":1,"trial_type":"image-button-response","trial_index":160,"time_elapsed":1589642,"internal_node_id":"0.0-6.0-0.24","subject_id":"6122ae9b67e54054793dcc3e","study_id":"60edd13110225f80