[{"success":true,"trial_type":"fullscreen","trial_index":0,"time_elapsed":42744,"internal_node_id":"0.0-0.0","subject_id":"60183e25b4423c05ee0ee791","study_id":"60edd13110225f80f9f3709b","session_id":"6196c201baff7fb5c96fb664","condition":"contingent","relevant_dimensions":["wings","pattern"],"bee_group":{"antennae":"X","wings":"1","pattern":"D","legs":"X"},"bonus":0.8600000000000007},{"success":true,"timeout":false,"failed_images":[],"failed_audio":[],"failed_video":[],"trial_type":"preload","trial_index":1,"time_elapsed":43634,"internal_node_id":"0.0-1.0","subject_id":"60183e25b4423c05ee0ee791","study_id":"60edd13110225f80f9f3709b","session_id":"6196c201baff7fb5c96fb664","condition":"contingent","relevant_dimensions":["wings","pattern"],"bee_group":{"antennae":"X","wings":"1","pattern":"D","legs":"X"},"bonus":0.8600000000000007},{"rt":2262,"stimulus":"Welcome! Press any key to begin.","response":" ","trial_type":"html-keyboard-response","trial_index":2,"time_elapsed":45896,"internal_node_id":"0.0-2.0","subject_id":"60183e25b4423c05ee0ee791","study_id":"60edd13110225f80f9f3709b","session_id":"6196c201baff7fb5c96fb664","condition":"contingent","relevant_dimensions":["wings","pattern"],"bee_group":{"antennae":"X","wings":"1","pattern":"D","legs":"X"},"bonus":0.8600000000000007},{"view_history":[{"page_index":0,"viewing_time":5871},{"page_index":1,"viewing_time":48744},{"page_index":2,"viewing_time":78024},{"page_index":3,"viewing_time":19808},{"page_index":4,"viewing_time":8215},{"page_index":5,"viewing_time":33408},{"page_index":6,"viewing_time":33848},{"page_index":7,"viewing_time":10816},{"page_index":8,"viewing_time":40640},{"page_index":9,"viewing_time":15368},{"page_index":10,"viewing_time":11712},{"page_index":11,"viewing_time":12200},{"page_index":12,"viewing_time":16335},{"page_index":13,"viewing_time":1537},{"page_index":14,"viewing_time":2703}],"rt":339230,"trial_type":"instructions","trial_index":3,"time_elapsed":385126,"internal_node_id":"0.0-3.0-0.0","subject_id":"60183e25b4423c05ee0ee791","study_id":"60edd13110225f80f9f3709b","session_id":"6196c201baff7fb5c96fb664","condition":"contingent","relevant_dimensions":["wings","pattern"],"bee_group":{"antennae":"X","wings":"1","pattern":"D","legs":"X"},"bonus":0.8600000000000007},{"rt":34528,"response":{"Q0":["Two or six legs","Stripes or spots on body","Single or double wings","Antennae or no antennae"]},"question_order":[0],"trial_type":"survey-multi-select","trial_index":4,"time_elapsed":419658,"internal_node_id":"0.0-3.0-1.0","subject_id":"60183e25b4423c05ee0ee791","study_id":"60edd13110225f80f9f3709b","session_id":"6196c201baff7fb5c96fb664","condition":"contingent","relevant_dimensions":["wings","pattern"],"bee_group":{"antennae":"X","wings":"1","pattern":"D","legs":"X"},"correct":true,"bonus":0.8600000000000007},{"rt":29724,"response":{"Q1":"No.","Q2":"Based on the four features of the bee.","Q3":"You do not learn if it was friendly or dangerous, and do not alter your bonus."},"question_order":[0,1,2],"trial_type":"survey-multi-choice","trial_index":5,"time_elapsed":449383,"internal_node_id":"0.0-3.0-2.0","subject_id":"60183e25b4423c05ee0ee791","study_id":"60edd13110225f80f9f3709b","session_id":"6196c201baff7fb5c96fb664","condition":"contingent","relevant_dimensions":["wings","pattern"],"bee_group":{"antennae":"X","wings":"1","pattern":"D","legs":"X"},"correct":true,"bonus":0.8600000000000007},{"rt":3751,"stimulus":"<p>Congrats, you got everything right<br>When you're ready, click the button below to continue to the experiment.</p>","response":0,"trial_type":"html-button-response","trial_index":6,"time_elapsed":453134,"internal_node_id":"0.0-3.0-3.0","subject_id":"60183e25b4423c05ee0ee791","study_id":"60edd13110225f80f9f3709b","session_id":"6196c201baff7fb5c96fb664","condition":"contingent","relevant_dimensions":["wings","pattern"],"bee_group":{"antennae":"X","wings":"1","pattern":"D","legs":"X"},"bonus":0.8600000000000007},{"rt":69973,"stimulus":"bees-with-color/bee-A1SF.svg","response":0,"trial_type":"image-button-response","trial_index":7,"time_elapsed":523110,"internal_node_id":"0.0-4.0-0.0","subject_id":"60183e25b4423c05ee0ee791","study_id":"60edd13110225f80f9f3709b","session_id":"6196c201baff7fb5c96fb664","condition":"contingent","relevant_dimensions":["wings","pattern"],"bee_group":{"antennae":"X","wings":"1","pattern":"D","legs":"X"},"action":"harvest","summary":"good-harvest","bonus":0.8600000000000007},{"rt":17108,"stimulus":"\n                    <p><b>Action: <em>harvest</em></b></p>\n                    <p>This is the bee that you just saw.</p>\n                    <img src=\"bees-with-color/bee-A1SF.svg\" width=\"200\">\n                    <p><span class=\"greenText\"><b>Successful harvest!</b></span><br>Your pay has increased by $0.02. Your bonus pay is now $0.56.</p>\n            ","response":0,"trial_type":"html-button-response","trial_index":8,"time_elapsed":540278,"internal_node_id":"0.0-4.0-1.0","subject_id":"60183e25b4423c05ee0ee791","study_id":"60edd13110225f80f9f3709b","session_id":"6196c201baff7fb5c96fb664","condition":"contingent","relevant_dimensions":["wings","pattern"],"bee_group":{"antennae":"X","wings":"1","pattern":"D","legs":"X"},"bonus":0.8600000000000007},{"rt":23326,"stimulus":"bees-with-color/bee-B2DF.svg","response":1,"trial_type":"image-button-response","trial_index":9,"time_elapsed":563606,"internal_node_id":"0.0-4.0-0.1","subject_id":"60183e25b4423c05ee0ee791","study_id":"60edd13110225f80f9f3709b","session_id":"6196c201baff7fb5c96fb664","condition":"contingent","relevant_dimensions":["wings","pattern"],"bee_group":{"antennae":"X","wings":"1","pattern":"D","legs":"X"},"action":"avoid","summary":"bad-avoid","bonus":0.8600000000000007},{"rt":4991,"stimulus":"\n                    <p><b>Action: <em>avoid</em></b></p>\n                    <p>This is the bee that you just saw.</p>\n                    <img src=\"bees-with-color/bee-B2DF.svg\" width=\"200\">\n                    <p><br>Your bonus pay is unchanged, and remains at $0.56.</p>\n            ","response":0,"trial_type":"html-button-response","trial_index":10,"time_elapsed":568598,"internal_node_id":"0.0-4.0-1.1","subject_id":"60183e25b4423c05ee0ee791","study_id":"60edd13110225f80f9f3709b","session_id":"6196c201baff7fb5c96fb664","condition":"contingent","relevant_dimensions":["wings","pattern"],"bee_group":{"antennae":"X","wings":"1","pattern":"D","legs":"X"},"bonus":0.8600000000000007},{"rt":23344,"stimulus":"bees-with-color/bee-B1SM.svg","response":0,"trial_type":"image-button-response","trial_index":11,"time_elapsed":591942,"internal_node_id":"0.0-4.0-0.2","subject_id":"60183e25b4423c05ee0ee791","study_id":"60edd13110225f80f9f3709b","session_id":"6196c201baff7fb5c96fb664","condition":"contingent","relevant_dimensions":["wings","pattern"],"bee_group":{"antennae":"X","wings":"1","pattern":"D","legs":"X"},"action":"harvest","summary":"good-harvest","bonus":0.8600000000000007},{"rt":6822,"stimulus":"\n                    <p><b>Action: <em>harvest</em></b></p>\n                    <p>This is the bee that you just saw.</p>\n                    <img src=\"bees-with-color/bee-B1SM.svg\" width=\"200\">\n                    <p><span class=\"greenText\"><b>Successful harvest!</b></span><br>Your pay has increased by $0.02. Your bonus pay is now $0.58.</p>\n            ","response":0,"trial_type":"html-button-response","trial_index":12,"time_elapsed":598765,"internal_node_id":"0.0-4.0-1.2","subject_id":"60183e25b4423c05ee0ee791","study_id":"60edd13110225f80f9f3709b","session_id":"6196c201baff7fb5c96fb664","condition":"contingent","relevant_dimensions":["wings","pattern"],"bee_group":{"antennae":"X","wings":"1","pattern":"D","legs":"X"},"bonus":0.8600000000000007},{"rt":18823,"stimulus":"bees-with-color/bee-B2SM.svg","response":0,"trial_type":"image-button-response","trial_index":13,"time_elapsed":617590,"internal_node_id":"0.0-4.0-0.3","subject_id":"60183e25b4423c05ee0ee791","study_id":"60edd13110225f80f9f3709b","session_id":"6196c201baff7fb5c96fb664","condition":"contingent","relevant_dimensions":["wings","pattern"],"bee_group":{"antennae":"X","wings":"1","pattern":"D","legs":"X"},"action":"harvest","summary":"good-harvest","bonus":0.8600000000000007},{"rt":5967,"stimulus":"\n                    <p><b>Action: <em>harvest</em></b></p>\n                    <p>This is the bee that you just saw.</p>\n                    <img src=\"bees-with-color/bee-B2SM.svg\" width=\"200\">\n                    <p><span class=\"greenText\"><b>Successful harvest!</b></span><br>Your pay has increased by $0.02. Your bonus pay is now $0.60.</p>\n            ","response":0,"trial_type":"html-button-response","trial_index":14,"time_elapsed":623557,"internal_node_id":"0.0-4.0-1.3","subject_id":"60183e25b4423c05ee0ee791","study_id":"60edd13110225f80f9f3709b","session_id":"6196c201baff7fb5c96fb664","condition":"contingent","relevant_dimensions":["wings","pattern"],"bee_group":{"antennae":"X","wings":"1","pattern":"D","legs":"X"},"bonus":0.8600000000000007},{"rt":44887,"stimulus":"bees-with-color/bee-A2DF.svg","response":1,"trial_type":"image-button-response","trial_index":15,"time_elapsed":668445,"internal_node_id":"0.0-4.0-0.4","subject_id":"60183e25b4423c05ee0ee791","study_id":"60edd13110225f80f9f3709b","session_id":"6196c201baff7fb5c96fb664","condition":"contingent","relevant_dimensions":["wings","pattern"],"bee_group":{"antennae":"X","wings":"1","pattern":"D","legs":"X"},"action":"avoid","summary":"bad-avoid","bonus":0.8600000000000007},{"rt":1775,"stimulus":"\n                    <p><b>Action: <em>avoid</em></b></p>\n                    <p>This is the bee that you just saw.</p>\n                    <img src=\"bees-with-color/bee-A2DF.svg\" width=\"200\">\n                    <p><br>Your bonus pay is unchanged, and remains at $0.60.</p>\n            ","response":0,"trial_type":"html-button-response","trial_index":16,"time_elapsed":670222,"internal_node_id":"0.0-4.0-1.4","subject_id":"60183e25b4423c05ee0ee791","study_id":"60edd13110225f80f9f3709b","session_id":"6196c201baff7fb5c96fb664","condition":"contingent","relevant_dimensions":["wings","pattern"],"bee_group":{"antennae":"X","wings":"1","pattern":"D","legs":"X"},"bonus":0.8600000000000007},{"rt":12511,"stimulus":"bees-with-color/bee-A1DM.svg","response":0,"trial_type":"image-button-response","trial_index":17,"time_elapsed":682734,"internal_node_id":"0.0-4.0-0.5","subject_id":"60183e25b4423c05ee0ee791","study_id":"60edd13110225f80f9f3709b","session_id":"6196c201baff7fb5c96fb664","condition":"contingent","relevant_dimensions":["wings","pattern"],"bee_group":{"antennae":"X","wings":"1","pattern":"D","legs":"X"},"action":"harvest","summary":"bad-harvest","bonus":0.8600000000000007},{"rt":31182,"stimulus":"\n                    <p><b>Action: <em>harvest</em></b></p>\n                    <p>This is the bee that you just saw.</p>\n                    <img src=\"bees-with-color/bee-A1DM.svg\" width=\"200\">\n                    <p><span class=\"redText\">Bad choice, the bee was angry.</span><br><b>You have been stung!</b><br>Your pay has been decreased by $0.10. Your bonus pay is now $0.50.</p>\n            ","response":0,"trial_type":"html-button-response","trial_index":18,"time_elapsed":713918,"internal_node_id":"0.0-4.0-1.5","subject_id":"60183e25b4423c05ee0ee791","study_id":"60edd13110225f80f9f3709b","session_id":"6196c201baff7fb5c96fb664","condition":"contingent","relevant_dimensions":["wings","pattern"],"bee_group":{"antennae":"X","wings":"1","pattern":"D","legs":"X"},"bonus":0.8600000000000007},{"rt":2454,"stimulus":"bees-with-color/bee-B1DM.svg","response":0,"trial_type":"image-button-response","trial_index":19,"time_elapsed":716374,"internal_node_id":"0.0-4.0-0.6","subject_id":"60183e25b4423c05ee0ee791","study_id":"60edd13110225f80f9f3709b","session_id":"6196c201baff7fb5c96fb664","condition":"contingent","relevant_dimensions":["wings","pattern"],"bee_group":{"antennae":"X","wings":"1","pattern":"D","legs":"X"},"action":"harvest","summary":"bad-harvest","bonus":0.8600000000000007},{"rt":29671,"stimulus":"\n                    <p><b>Action: <em>harvest</em></b></p>\n                    <p>This is the bee that you just saw.</p>\n                    <img src=\"bees-with-color/bee-B1DM.svg\" width=\"200\">\n                    <p><span class=\"redText\">Bad choice, the bee was angry.</span><br><b>You have been stung!</b><br>Your pay has been decreased by $0.10. Your bonus pay is now $0.40.</p>\n            ","response":0,"trial_type":"html-button-response","trial_index":20,"time_elapsed":746046,"internal_node_id":"0.0-4.0-1.6","subject_id":"60183e25b4423c05ee0ee791","study_id":"60edd13110225f80f9f3709b","session_id":"6196c201baff7fb5c96fb664","condition":"contingent","relevant_dimensions":["wings","pattern"],"bee_group":{"antennae":"X","wings":"1","pattern":"D","legs":"X"},"bonus":0.8600000000000007},{"rt":1655,"stimulus":"bees-with-color/bee-B2SF.svg","response":0,"trial_type":"image-button-response","trial_index":21,"time_elapsed":747702,"internal_node_id":"0.0-4.0-0.7","subject_id":"60183e25b4423c05ee0ee791","study_id":"60edd13110225f80f9f3709b","session_id":"6196c201baff7fb5c96fb664","condition":"contingent","relevant_dimensions":["wings","pattern"],"bee_group":{"antennae":"X","wings":"1","pattern":"D","legs":"X"},"action":"harvest","summary":"good-harvest","bonus":0.8600000000000007},{"rt":50726,"stimulus":"\n                    <p><b>Action: <em>harvest</em></b></p>\n                    <p>This is the bee that you just saw.</p>\n                    <img src=\"bees-with-color/bee-B2SF.svg\" width=\"200\">\n                    <p><span class=\"greenText\"><b>Successful harvest!</b></span><br>Your pay has increased by $0.02. Your bonus pay is now $0.42.</p>\n            ","response":0,"trial_type":"html-button-response","trial_index":22,"time_elapsed":798429,"internal_node_id":"0.0-4.0-1.7","subject_id":"60183e25b4423c05ee0ee791","study_id":"60edd13110225f80f9f3709b","session_id":"6196c201baff7fb5c96fb664","condition":"contingent","relevant_dimensions":["wings","pattern"],"bee_group":{"antennae":"X","wings":"1","pattern":"D","legs":"X"},"bonus":0.8600000000000007},{"rt":1463,"stimulus":"bees-with-color/bee-B2DM.svg","response":1,"trial_type":"image-button-response","trial_index":23,"time_elapsed":799893,"internal_node_id":"0.0-4.0-0.8","subject_id":"60183e25b4423c05ee0ee791","study_id":"60edd13110225f80f9f3709b","session_id":"6196c201baff7fb5c96fb664","condition":"contingent","relevant_dimensions":["wings","pattern"],"bee_group":{"antennae":"X","wings":"1","pattern":"D","legs":"X"},"action":"avoid","summary":"bad-avoid","bonus":0.8600000000000007},{"rt":1144,"stimulus":"\n                    <p><b>Action: <em>avoid</em></b></p>\n                    <p>This is the bee that you just saw.</p>\n                    <img src=\"bees-with-color/bee-B2DM.svg\" width=\"200\">\n                    <p><br>Your bonus pay is unchanged, and remains at $0.42.</p>\n            ","response":0,"trial_type":"html-button-response","trial_index":24,"time_elapsed":801037,"internal_node_id":"0.0-4.0-1.8","subject_id":"60183e25b4423c05ee0ee791","study_id":"60edd13110225f80f9f3709b","session_id":"6196c201baff7fb5c96fb664","condition":"contingent","relevant_dimensions":["wings","pattern"],"bee_group":{"antennae":"X","wings":"1","pattern":"D","legs":"X"},"bonus":0.8600000000000007},{"rt":1207,"stimulus":"bees-with-color/bee-A2DM.svg","response":1,"trial_type":"image-button-response","trial_index":25,"time_elapsed":802245,"internal_node_id":"0.0-4.0-0.9","subject_id":"60183e25b4423c05ee0ee791","study_id":"60edd13110225f80f9f3709b","session_id":"6196c201baff7fb5c96fb664","condition":"contingent","relevant_dimensions":["wings","pattern"],"bee_group":{"antennae":"X","wings":"1","pattern":"D","legs":"X"},"action":"avoid","summary":"bad-avoid","bonus":0.8600000000000007},{"rt":526,"stimulus":"\n                    <p><b>Action: <em>avoid</em></b></p>\n                    <p>This is the bee that you just saw.</p>\n                    <img src=\"bees-with-color/bee-A2DM.svg\" width=\"200\">\n                    <p><br>Your bonus pay is unchanged, and remains at $0.42.</p>\n            ","response":0,"trial_type":"html-button-response","trial_index":26,"time_elapsed":802773,"internal_node_id":"0.0-4.0-1.9","subject_id":"60183e25b4423c05ee0ee791","study_id":"60edd13110225f80f9f3709b","session_id":"6196c201baff7fb5c96fb664","condition":"contingent","relevant_dimensions":["wings","pattern"],"bee_group":{"antennae":"X","wings":"1","pattern":"D","legs":"X"},"bonus":0.8600000000000007},{"rt":1143,"stimulus":"bees-with-color/bee-B1SF.svg","response":0,"trial_type":"image-button-response","trial_index":27,"time_elapsed":803917,"internal_node_id":"0.0-4.0-0.10","subject_id":"60183e25b4423c05ee0ee791","study_id":"60edd13110225f80f9f3709b","session_id":"6196c201baff7fb5c96fb664","condition":"contingent","relevant_dimensions":["wings","pattern"],"bee_group":{"antennae":"X","wings":"1","pattern":"D","legs":"X"},"action":"harvest","summary":"good-harvest","bonus":0.8600000000000007},{"rt":65687,"stimulus":"\n                    <p><b>Action: <em>harvest</em></b></p>\n                    <p>This is the bee that you just saw.</p>\n                    <img src=\"bees-with-color/bee-B1SF.svg\" width=\"200\">\n                    <p><span class=\"greenText\"><b>Successful harvest!</b></span><br>Your pay has increased by $0.02. Your bonus pay is now $0.44.</p>\n            ","response":0,"trial_type":"html-button-response","trial_index":28,"time_elapsed":869605,"internal_node_id":"0.0-4.0-1.10","subject_id":"60183e25b4423c05ee0ee791","study_id":"60edd13110225f80f9f3709b","session_id":"6196c201baff7fb5c96fb664","condition":"contingent","relevant_dimensions":["wings","pattern"],"bee_group":{"antennae":"X","wings":"1","pattern":"D","legs":"X"},"bonus":0.8600000000000007},{"rt":1231,"stimulus":"bees-with-color/bee-B1DF.svg","response":1,"trial_type":"image-button-response","trial_index":29,"time_elapsed":870837,"internal_node_id":"0.0-4.0-0.11","subject_id":"60183e25b4423c05ee0ee791","study_id":"60edd13110225f80f9f3709b","session_id":"6196c201baff7fb5c96fb664","condition":"contingent","relevant_dimensions":["wings","pattern"],"bee_group":{"antennae":"X","wings":"1","pattern":"D","legs":"X"},"action":"avoid","summary":"good-avoid","bonus":0.8600000000000007},{"rt":1222,"stimulus":"\n                    <p><b>Action: <em>avoid</em></b></p>\n                    <p>This is the bee that you just saw.</p>\n                    <img src=\"bees-with-color/bee-B1DF.svg\" width=\"200\">\n                    <p><br>Your bonus pay is unchanged, and remains at $0.44.</p>\n            ","response":0,"trial_type":"html-button-response","trial_index":30,"time_elapsed":872061,"internal_node_id":"0.0-4.0-1.11","subject_id":"60183e25b4423c05ee0ee791","study_id":"60edd13110225f80f9f3709b","session_id":"6196c201baff7fb5c96fb664","condition":"contingent","relevant_dimensions":["wings","pattern"],"bee_group":{"antennae":"X","wings":"1","pattern":"D","legs":"X"},"bonus":0.8600000000000007},{"rt":1071,"stimulus":"bees-with-color/bee-A1SM.svg","response":0,"trial_type":"image-button-response","trial_index":31,"time_elapsed":873133,"internal_node_id":"0.0-4.0-0.12","subject_id":"60183e25b4423c05ee0ee791","study_id":"60edd13110225f80f9f3709b","session_id":"6196c201baff7fb5c96fb664","condition":"contingent","relevant_dimensions":["wings","pattern"],"bee_group":{"antennae":"X","wings":"1","pattern":"D","legs":"X"},"action":"harvest","summary":"good-harvest","bonus":0.8600000000000007},{"rt":25263,"stimulus":"\n                    <p><b>Action: <em>harvest</em></b></p>\n                    <p>This is the bee that you just saw.</p>\n                    <img src=\"bees-with-color/bee-A1SM.svg\" width=\"200\">\n                    <p><span class=\"greenText\"><b>Successful harvest!</b></span><br>Your pay has increased by $0.02. Your bonus pay is now $0.46.</p>\n            ","response":0,"trial_type":"html-button-response","trial_index":32,"time_elapsed":898397,"internal_node_id":"0.0-4.0-1.12","subject_id":"60183e25b4423c05ee0ee791","study_id":"60edd13110225f80f9f3709b","session_id":"6196c201baff7fb5c96fb664","condition":"contingent","relevant_dimensions":["wings","pattern"],"bee_group":{"antennae":"X","wings":"1","pattern":"D","legs":"X"},"bonus":0.8600000000000007},{"rt":1255,"stimulus":"bees-with-color/bee-A2SF.svg","response":0,"trial_type":"image-button-response","trial_index":33,"time_elapsed":899653,"internal_node_id":"0.0-4.0-0.13","subject_id":"60183e25b4423c05ee0ee791","study_id":"60edd13110225f80f9f3709b","session_id":"6196c201baff7fb5c96fb664","condition":"contingent","relevant_dimensions":["wings","pattern"],"bee_group":{"antennae":"X","wings":"1","pattern":"D","legs":"X"},"action":"harvest","summary":"good-harvest","bonus":0.8600000000000007},{"rt":21695,"stimulus":"\n                    <p><b>Action: <em>harvest</em></b></p>\n                    <p>This is the bee that you just saw.</p>\n                    <img src=\"bees-with-color/bee-A2SF.svg\" width=\"200\">\n                    <p><span class=\"greenText\"><b>Successful harvest!</b></span><br>Your pay has increased by $0.02. Your bonus pay is now $0.48.</p>\n            ","response":0,"trial_type":"html-button-response","trial_index":34,"time_elapsed":921348,"internal_node_id":"0.0-4.0-1.13","subject_id":"60183e25b4423c05ee0ee791","study_id":"60edd13110225f80f9f3709b","session_id":"6196c201baff7fb5c96fb664","condition":"contingent","relevant_dimensions":["wings","pattern"],"bee_group":{"antennae":"X","wings":"1","pattern":"D","legs":"X"},"bonus":0.8600000000000007},{"rt":1167,"stimulus":"bees-with-color/bee-A1DF.svg","response":1,"trial_type":"image-button-response","trial_index":35,"time_elapsed":922517,"internal_node_id":"0.0-4.0-0.14","subject_id":"60183e25b4423c05ee0ee791","study_id":"60edd13110225f80f9f3709b","session_id":"6196c201baff7fb5c96fb664","condition":"contingent","relevant_dimensions":["wings","pattern"],"bee_group":{"antennae":"X","wings":"1","pattern":"D","legs":"X"},"action":"avoid","summary":"good-avoid","bonus":0.8600000000000007},{"rt":783,"stimulus":"\n                    <p><b>Action: <em>avoid</em></b></p>\n                    <p>This is the bee that you just saw.</p>\n                    <img src=\"bees-with-color/bee-A1DF.svg\" width=\"200\">\n                    <p><br>Your bonus pay is unchanged, and remains at $0.48.</p>\n            ","response":0,"trial_type":"html-button-response","trial_index":36,"time_elapsed":923301,"internal_node_id":"0.0-4.0-1.14","subject_id":"60183e25b4423c05ee0ee791","study_id":"60edd13110225f80f9f3709b","session_id":"6196c201baff7fb5c96fb664","condition":"contingent","relevant_dimensions":["wings","pattern"],"bee_group":{"antennae":"X","wings":"1","pattern":"D","legs":"X"},"bonus":0.8600000000000007},{"rt":1055,"stimulus":"bees-with-color/bee-A2SM.svg","response":0,"trial_type":"image-button-response","trial_index":37,"time_elapsed":924357,"internal_node_id":"0.0-4.0-0.15","subject_id":"60183e25b4423c05ee0ee791","study_id":"60edd13110225f80f9f3709b","session_id":"6196c201baff7fb5c96fb664","condition":"contingent","relevant_dimensions":["wings","pattern"],"bee_group":{"antennae":"X","wings":"1","pattern":"D","legs":"X"},"action":"harvest","summary":"good-harvest","bonus":0.8600000000000007},{"rt":7903,"stimulus":"\n                    <p><b>Action: <em>harvest</em></b></p>\n                    <p>This is the bee that you just saw.</p>\n                    <img src=\"bees-with-color/bee-A2SM.svg\" width=\"200\">\n                    <p><span class=\"greenText\"><b>Successful harvest!</b></span><br>Your pay has increased by $0.02. Your bonus pay is now $0.50.</p>\n            ","response":0,"trial_type":"html-button-response","trial_index":38,"time_elapsed":932261,"internal_node_id":"0.0-4.0-1.15","subject_id":"60183e25b4423c05ee0ee791","study_id":"60edd13110225f80f9f3709b","session_id":"6196c201baff7fb5c96fb664","condition":"contingent","relevant_dimensions":["wings","pattern"],"bee_group":{"antennae":"X","wings":"1","pattern":"D","legs":"X"},"bonus":0.8600000000000007},{"rt":1000,"stimulus":"bees-with-color/bee-B2DF.svg","response":1,"trial_type":"image-button-response","trial_index":39,"time_elapsed":933261,"internal_node_id":"0.0-4.0-0.16","subject_id":"60183e25b4423c05ee0ee791","study_id":"60edd13110225f80f9f3709b","session_id":"6196c201baff7fb5c96fb664","condition":"contingent","relevant_dimensions":["wings","pattern"],"bee_group":{"antennae":"X","wings":"1","pattern":"D","legs":"X"},"action":"avoid","summary":"bad-avoid","bonus":0.8600000000000007},{"rt":943,"stimulus":"\n                    <p><b>Action: <em>avoid</em></b></p>\n                    <p>This is the bee that you just saw.</p>\n                    <img src=\"bees-with-color/bee-B2DF.svg\" width=\"200\">\n                    <p><br>Your bonus pay is unchanged, and remains at $0.50.</p>\n            ","response":0,"trial_type":"html-button-response","trial_index":40,"time_elapsed":934205,"internal_node_id":"0.0-4.0-1.16","subject_id":"60183e25b4423c05ee0ee791","study_id":"60edd13110225f80f9f3709b","session_id":"6196c201baff7fb5c96fb664","condition":"contingent","relevant_dimensions":["wings","pattern"],"bee_group":{"antennae":"X","wings":"1","pattern":"D","legs":"X"},"bonus":0.8600000000000007},{"rt":735,"stimulus":"bees-with-color/bee-A2DF.svg","response":1,"trial_type":"image-button-response","trial_index":41,"time_elapsed":934940,"internal_node_id":"0.0-4.0-0.17","subject_id":"60183e25b4423c05ee0ee791","study_id":"60edd13110225f80f9f3709b","session_id":"6196c201baff7fb5c96fb664","condition":"contingent","relevant_dimensions":["wings","pattern"],"bee_group":{"antennae":"X","wings":"1","pattern":"D","legs":"X"},"action":"avoid","summary":"bad-avoid","bonus":0.8600000000000007},{"rt":535,"stimulus":"\n                    <p><b>Action: <em>avoid</em></b></p>\n                    <p>This is the bee that you just saw.</p>\n                    <img src=\"bees-with-color/bee-A2DF.svg\" width=\"200\">\n                    <p><br>Your bonus pay is unchanged, and remains at $0.50.</p>\n            ","response":0,"trial_type":"html-button-response","trial_index":42,"time_elapsed":935477,"internal_node_id":"0.0-4.0-1.17","subject_id":"60183e25b4423c05ee0ee791","study_id":"60edd13110225f80f9f3709b","session_id":"6196c201baff7fb5c96fb664","condition":"contingent","relevant_dimensions":["wings","pattern"],"bee_group":{"antennae":"X","wings":"1","pattern":"D","legs":"X"},"bonus":0.8600000000000007},{"rt":895,"stimulus":"bees-with-color/bee-B1SF.svg","response":0,"trial_type":"image-button-response","trial_index":43,"time_elapsed":936373,"internal_node_id":"0.0-4.0-0.18","subject_id":"60183e25b4423c05ee0ee791","study_id":"60edd13110225f80f9f3709b","session_id":"6196c201baff7fb5c96fb664","condition":"contingent","relevant_dimensions":["wings","pattern"],"bee_group":{"antennae":"X","wings":"1","pattern":"D","legs":"X"},"action":"harvest","summary":"good-harvest","bonus":0.8600000000000007},{"rt":750,"stimulus":"\n                    <p><b>Action: <em>harvest</em></b></p>\n                    <p>This is the bee that you just saw.</p>\n                    <img src=\"bees-with-color/bee-B1SF.svg\" width=\"200\">\n                    <p><span class=\"greenText\"><b>Successful harvest!</b></span><br>Your pay has increased by $0.02. Your bonus pay is now $0.52.</p>\n            ","response":0,"trial_type":"html-button-response","trial_index":44,"time_elapsed":937124,"internal_node_id":"0.0-4.0-1.18","subject_id":"60183e25b4423c05ee0ee791","study_id":"60edd13110225f80f9f3709b","session_id":"6196c201baff7fb5c96fb664","condition":"contingent","relevant_dimensions":["wings","pattern"],"bee_group":{"antennae":"X","wings":"1","pattern":"D","legs":"X"},"bonus":0.8600000000000007},{"rt":887,"stimulus":"bees-with-color/bee-B1DM.svg","response":1,"trial_type":"image-button-response","trial_index":45,"time_elapsed":938012,"internal_node_id":"0.0-4.0-0.19","subject_id":"60183e25b4423c05ee0ee791","study_id":"60edd13110225f80f9f3709b","session_id":"6196c201baff7fb5c96fb664","condition":"contingent","relevant_dimensions":["wings","pattern"],"bee_group":{"antennae":"X","wings":"1","pattern":"D","legs":"X"},"action":"avoid","summary":"good-avoid","bonus":0.8600000000000007},{"rt":694,"stimulus":"\n                    <p><b>Action: <em>avoid</em></b></p>\n                    <p>This is the bee that you just saw.</p>\n                    <img src=\"bees-with-color/bee-B1DM.svg\" width=\"200\">\n                    <p><br>Your bonus pay is unchanged, and remains at $0.52.</p>\n            ","response":0,"trial_type":"html-button-response","trial_index":46,"time_elapsed":938709,"internal_node_id":"0.0-4.0-1.19","subject_id":"60183e25b4423c05ee0ee791","study_id":"60edd13110225f80f9f3709b","session_id":"6196c201baff7fb5c96fb664","condition":"contingent","relevant_dimensions":["wings","pattern"],"bee_group":{"antennae":"X","wings":"1","pattern":"D","legs":"X"},"bonus":0.8600000000000007},{"rt":600,"stimulus":"bees-with-color/bee-A1DF.svg","response":1,"trial_type":"image-button-response","trial_index":47,"time_elapsed":939308,"internal_node_id":"0.0-4.0-0.20","subject_id":"60183e25b4423c05ee0ee791","study_id":"60edd13110225f80f9f3709b","session_id":"6196c201baff7fb5c96fb664","condition":"contingent","relevant_dimensions":["wings","pattern"],"bee_group":{"antennae":"X","wings":"1","pattern":"D","legs":"X"},"action":"avoid","summary":"good-avoid","bonus":0.8600000000000007},{"rt":847,"stimulus":"\n                    <p><b>Action: <em>avoid</em></b></p>\n                    <p>This is the bee that you just saw.</p>\n                    <img src=\"bees-with-color/bee-A1DF.svg\" width=\"200\">\n                    <p><br>Your bonus pay is unchanged, and remains at $0.52.</p>\n            ","response":0,"trial_type":"html-button-response","trial_index":48,"time_elapsed":940156,"internal_node_id":"0.0-4.0-1.20","subject_id":"60183e25b4423c05ee0ee791","study_id":"60edd13110225f80f9f3709b","session_id":"6196c201baff7fb5c96fb664","condition":"contingent","relevant_dimensions":["wings","pattern"],"bee_group":{"antennae":"X","wings":"1","pattern":"D","legs":"X"},"bonus":0.8600000000000007},{"rt":599,"stimulus":"bees-with-color/bee-A2DM.svg","response":1,"trial_type":"image-button-response","trial_index":49,"time_elapsed":940757,"internal_node_id":"0.0-4.0-0.21","subject_id":"60183e25b4423c05ee0ee791","study_id":"60edd13110225f80f9f3709b","session_id":"6196c201baff7fb5c96fb664","condition":"contingent","relevant_dimensions":["wings","pattern"],"bee_group":{"antennae":"X","wings":"1","pattern":"D","legs":"X"},"action":"avoid","summary":"bad-avoid","bonus":0.8600000000000007},{"rt":519,"stimulus":"\n                    <p><b>Action: <em>avoid</em></b></p>\n                    <p>This is the bee that you just saw.</p>\n                    <img src=\"bees-with-color/bee-A2DM.svg\" width=\"200\">\n                    <p><br>Your bonus pay is unchanged, and remains at $0.52.</p>\n            ","response":0,"trial_type":"html-button-response","trial_index":50,"time_elapsed":941277,"internal_node_id":"0.0-4.0-1.21","subject_id":"60183e25b4423c05ee0ee791","study_id":"60edd13110225f80f9f3709b","session_id":"6196c201baff7fb5c96fb664","condition":"contingent","relevant_dimensions":["wings","pattern"],"bee_group":{"antennae":"X","wings":"1","pattern":"D","legs":"X"},"bonus":0.8600000000000007},{"rt":560,"stimulus":"bees-with-color/bee-B2DM.svg","response":1,"trial_type":"image-button-response","trial_index":51,"time_elapsed":941837,"internal_node_id":"0.0-4.0-0.22","subject_id":"60183e25b4423c05ee0ee791","study_id":"60edd13110225f80f9f3709b","session_id":"6196c201baff7fb5c96fb664","condition":"contingent","relevant_dimensions":["wings","pattern"],"bee_group":{"antennae":"X","wings":"1","pattern":"D","legs":"X"},"action":"avoid","summary":"bad-avoid","bonus":0.8600000000000007},{"rt":711,"stimulus":"\n                    <p><b>Action: <em>avoid</em></b></p>\n                    <p>This is the bee that you just saw.</p>\n                    <img src=\"bees-with-color/bee-B2DM.svg\" width=\"200\">\n                    <p><br>Your bonus pay is unchanged, and remains at $0.52.</p>\n            ","response":0,"trial_type":"html-button-response","trial_index":52,"time_elapsed":942549,"internal_node_id":"0.0-4.0-1.22","subject_id":"60183e25b4423c05ee0ee791","study_id":"60edd13110225f80f9f3709b","session_id":"6196c201baff7fb5c96fb664","condition":"contingent","relevant_dimensions":["wings","pattern"],"bee_group":{"antennae":"X","wings":"1","pattern":"D","legs":"X"},"bonus":0.8600000000000007},{"rt":903,"stimulus":"bees-with-color/bee-B2SF.svg","response":0,"trial_type":"image-button-response","trial_index":53,"time_elapsed":943452,"internal_node_id":"0.0-4.0-0.23","subject_id":"60183e25b4423c05ee0ee791","study_id":"60edd13110225f80f9f3709b","session_id":"6196c201baff7fb5c96fb664","condition":"contingent","relevant_dimensions":["wings","pattern"],"bee_group":{"antennae":"X","wings":"1","pattern":"D","legs":"X"},"action":"harvest","summary":"good-harvest","bonus":0.8600000000000007},{"rt":647,"stimulus":"\n                    <p><b>Action: <em>harvest</em></b></p>\n                    <p>This is the bee that you just saw.</p>\n                    <img src=\"bees-with-color/bee-B2SF.svg\" width=\"200\">\n                    <p><span class=\"greenText\"><b>Successful harvest!</b></span><br>Your pay has increased by $0.02. Your bonus pay is now $0.54.</p>\n            ","response":0,"trial_type":"html-button-response","trial_index":54,"time_elapsed":944100,"internal_node_id":"0.0-4.0-1.23","subject_id":"60183e25b4423c05ee0ee791","study_id":"60edd13110225f80f9f3709b","session_id":"6196c201baff7fb5c96fb664","condition":"contingent","relevant_dimensions":["wings","pattern"],"bee_group":{"antennae":"X","wings":"1","pattern":"D","legs":"X"},"bonus":0.8600000000000007},{"rt":615,"stimulus":"bees-with-color/bee-A2SM.svg","response":1,"trial_type":"image-button-response","trial_index":55,"time_elapsed":944716,"internal_node_id":"0.0-4.0-0.24","subject_id":"60183e25b4423c05ee0ee791","study_id":"60edd13110225f80f9f3709b","session_id":"6196c201baff7fb5c96fb664","condition":"contingent","relevant_dimensions":["wings","pattern"],"bee_group":{"antennae":"X","wings":"1","pattern":"D","legs":"X"},"action":"avoid","summary":"bad-avoid","bonus":0.8600000000000007},{"rt":999,"stimulus":"\n                    <p><b>Action: <em>avoid</em></b></p>\n                    <p>This is the bee that you just saw.</p>\n                    <img src=\"bees-with-color/bee-A2SM.svg\" width=\"200\">\n                    <p><br>Your bonus pay is unchanged, and remains at $0.54.</p>\n            ","response":0,"trial_type":"html-button-response","trial_index":56,"time_elapsed":945717,"internal_node_id":"0.0-4.0-1.24","subject_id":"60183e25b4423c05ee0ee791","study_id":"60edd13110225f80f9f3709b","session_id":"6196c201baff7fb5c96fb664","condition":"contingent","relevant_dimensions":["wings","pattern"],"bee_group":{"antennae":"X","wings":"1","pattern":"D","legs":"X"},"bonus":0.8600000000000007},{"rt":1135,"stimulus":"bees-with-color/bee-A2SF.svg","response":0,"trial_type":"image-button-response","trial_index":57,"time_elapsed":946853,"internal_node_id":"0.0-4.0-0.25","subject_id":"60183e25b4423c05ee0ee791","study_id":"60edd13110225f80f9f3709b","session_id":"6196c201baff7fb5c96fb664","condition":"contingent","relevant_dimensions":["wings","pattern"],"bee_group":{"antennae":"X","wings":"1","pattern":"D","legs":"X"},"action":"harvest","summary":"good-harvest","bonus":0.8600000000000007},{"rt":846,"stimulus":"\n                    <p><b>Action: <em>harvest</em></b></p>\n                    <p>This is the bee that you just saw.</p>\n                    <img src=\"bees-with-color/bee-A2SF.svg\" width=\"200\">\n                    <p><span class=\"greenText\"><b>Successful harvest!</b></span><br>Your pay has increased by $0.02. Your bonus pay is now $0.56.</p>\n            ","response":0,"trial_type":"html-button-response","trial_index":58,"time_elapsed":947700,"internal_node_id":"0.0-4.0-1.25","subject_id":"60183e25b4423c05ee0ee791","study_id":"60edd13110225f80f9f3709b","session_id":"6196c201baff7fb5c96fb664","condition":"contingent","relevant_dimensions":["wings","pattern"],"bee_group":{"antennae":"X","wings":"1","pattern":"D","legs":"X"},"bonus":0.8600000000000007},{"rt":935,"stimulus":"bees-with-color/bee-A1DM.svg","response":1,"trial_type":"image-button-response","trial_index":59,"time_elapsed":948636,"internal_node_id":"0.0-4.0-0.26","subject_id":"60183e25b4423c05ee0ee791","study_id":"60edd13110225f80f9f3709b","session_id":"6196c201baff7fb5c96fb664","condition":"contingent","relevant_dimensions":["wings","pattern"],"bee_group":{"antennae":"X","wings":"1","pattern":"D","legs":"X"},"action":"avoid","summary":"good-avoid","bonus":0.8600000000000007},{"rt":951,"stimulus":"\n                    <p><b>Action: <em>avoid</em></b></p>\n                    <p>This is the bee that you just saw.</p>\n                    <img src=\"bees-with-color/bee-A1DM.svg\" width=\"200\">\n                    <p><br>Your bonus pay is unchanged, and remains at $0.56.</p>\n            ","response":0,"trial_type":"html-button-response","trial_index":60,"time_elapsed":949589,"internal_node_id":"0.0-4.0-1.26","subject_id":"60183e25b4423c05ee0ee791","study_id":"60edd13110225f80f9f3709b","session_id":"6196c201baff7fb5c96fb664","condition":"contingent","relevant_dimensions":["wings","pattern"],"bee_group":{"antennae":"X","wings":"1","pattern":"D","legs":"X"},"bonus":0.8600000000000007},{"rt":1215,"stimulus":"bees-with-color/bee-A1SF.svg","response":0,"trial_type":"image-button-response","trial_index":61,"time_elapsed":950804,"internal_node_id":"0.0-4.0-0.27","subject_id":"60183e25b4423c05ee0ee791","study_id":"60edd13110225f80f9f3709b","session_id":"6196c201baff7fb5c96fb664","condition":"contingent","relevant_dimensions":["wings","pattern"],"bee_group":{"antennae":"X","wings":"1","pattern":"D","legs":"X"},"action":"harvest","summary":"good-harvest","bonus":0.8600000000000007},{"rt":1439,"stimulus":"\n                    <p><b>Action: <em>harvest</em></b></p>\n                    <p>This is the bee that you just saw.</p>\n                    <img src=\"bees-with-color/bee-A1SF.svg\" width=\"200\">\n                    <p><span class=\"greenText\"><b>Successful harvest!</b></span><br>Your pay has increased by $0.02. Your bonus pay is now $0.58.</p>\n            ","response":0,"trial_type":"html-button-response","trial_index":62,"time_elapsed":952245,"internal_node_id":"0.0-4.0-1.27","subject_id":"60183e25b4423c05ee0ee791","study_id":"60edd13110225f80f9f3709b","session_id":"6196c201baff7fb5c96fb664","condition":"contingent","relevant_dimensions":["wings","pattern"],"bee_group":{"antennae":"X","wings":"1","pattern":"D","legs":"X"},"bonus":0.8600000000000007},{"rt":1079,"stimulus":"bees-with-color/bee-B1SM.svg","response":0,"trial_type":"image-button-response","trial_index":63,"time_elapsed":953325,"internal_node_id":"0.0-4.0-0.28","subject_id":"60183e25b4423c05ee0ee791","study_id":"60edd13110225f80f9f3709b","session_id":"6196c201baff7fb5c96fb664","condition":"contingent","relevant_dimensions":["wings","pattern"],"bee_group":{"antennae":"X","wings":"1","pattern":"D","legs":"X"},"action":"harvest","summary":"good-harvest","bonus":0.8600000000000007},{"rt":671,"stimulus":"\n                    <p><b>Action: <em>harvest</em></b></p>\n                    <p>This is the bee that you just saw.</p>\n                    <img src=\"bees-with-color/bee-B1SM.svg\" width=\"200\">\n                    <p><span class=\"greenText\"><b>Successful harvest!</b></span><br>Your pay has increased by $0.02. Your bonus pay is now $0.60.</p>\n            ","response":0,"trial_type":"html-button-response","trial_index":64,"time_elapsed":953996,"internal_node_id":"0.0-4.0-1.28","subject_id":"60183e25b4423c05ee0ee791","study_id":"60edd13110225f80f9f3709b","session_id":"6196c201baff7fb5c96fb664","condition":"contingent","relevant_dimensions":["wings","pattern"],"bee_group":{"antennae":"X","wings":"1","pattern":"D","legs":"X"},"bonus":0.8600000000000007},{"rt":863,"stimulus":"bees-with-color/bee-B1DF.svg","response":1,"trial_type":"image-button-response","trial_index":65,"time_elapsed":954860,"internal_node_id":"0.0-4.0-0.29","subject_id":"60183e25b4423c05ee0ee791","study_id":"60edd13110225f80f9f3709b","session_id":"6196c201baff7fb5c96fb664","condition":"contingent","relevant_dimensions":["wings","pattern"],"bee_group":{"antennae":"X","wings":"1","pattern":"D","legs":"X"},"action":"avoid","summary":"good-avoid","bonus":0.8600000000000007},{"rt":727,"stimulus":"\n                    <p><b>Action: <em>avoid</em></b></p>\n                    <p>This is the bee that you just saw.</p>\n                    <img src=\"bees-with-color/bee-B1DF.svg\" width=\"200\">\n                    <p><br>Your bonus pay is unchanged, and remains at $0.60.</p>\n            ","response":0,"trial_type":"html-button-response","trial_index":66,"time_elapsed":955589,"internal_node_id":"0.0-4.0-1.29","subject_id":"60183e25b4423c05ee0ee791","study_id":"60edd13110225f80f9f3709b","session_id":"6196c201baff7fb5c96fb664","condition":"contingent","relevant_dimensions":["wings","pattern"],"bee_group":{"antennae":"X","wings":"1","pattern":"D","legs":"X"},"bonus":0.8600000000000007},{"rt":791,"stimulus":"bees-with-color/bee-B2SM.svg","response":0,"trial_type":"image-button-response","trial_index":67,"time_elapsed":956381,"internal_node_id":"0.0-4.0-0.30","subject_id":"60183e25b4423c05ee0ee791","study_id":"60edd13110225f80f9f3709b","session_id":"6196c201baff7fb5c96fb664","condition":"contingent","relevant_dimensions":["wings","pattern"],"bee_group":{"antennae":"X","wings":"1","pattern":"D","legs":"X"},"action":"harvest","summary":"good-harvest","bonus":0.8600000000000007},{"rt":678,"stimulus":"\n                    <p><b>Action: <em>harvest</em></b></p>\n                    <p>This is the bee that you just saw.</p>\n                    <img src=\"bees-with-color/bee-B2SM.svg\" width=\"200\">\n                    <p><span class=\"greenText\"><b>Successful harvest!</b></span><br>Your pay has increased by $0.02. Your bonus pay is now $0.62.</p>\n            ","response":0,"trial_type":"html-button-response","trial_index":68,"time_elapsed":957061,"internal_node_id":"0.0-4.0-1.30","subject_id":"60183e25b4423c05ee0ee791","study_id":"60edd13110225f80f9f3709b","session_id":"6196c201baff7fb5c96fb664","condition":"contingent","relevant_dimensions":["wings","pattern"],"bee_group":{"antennae":"X","wings":"1","pattern":"D","legs":"X"},"bonus":0.8600000000000007},{"rt":1008,"stimulus":"bees-with-color/bee-A1SM.svg","response":0,"trial_type":"image-button-response","trial_index":69,"time_elapsed":958068,"internal_node_id":"0.0-4.0-0.31","subject_id":"60183e25b4423c05ee0ee791","study_id":"60edd13110225f80f9f3709b","session_id":"6196c201baff7fb5c96fb664","condition":"contingent","relevant_dimensions":["wings","pattern"],"bee_group":{"antennae":"X","wings":"1","pattern":"D","legs":"X"},"action":"harvest","summary":"good-harvest","bonus":0.8600000000000007},{"rt":655,"stimulus":"\n                    <p><b>Action: <em>harvest</em></b></p>\n                    <p>This is the bee that you just saw.</p>\n                    <img src=\"bees-with-color/bee-A1SM.svg\" width=\"200\">\n                    <p><span class=\"greenText\"><b>Successful harvest!</b></span><br>Your pay has increased by $0.02. Your bonus pay is now $0.64.</p>\n            ","response":0,"trial_type":"html-button-response","trial_index":70,"time_elapsed":958724,"internal_node_id":"0.0-4.0-1.31","subject_id":"60183e25b4423c05ee0ee791","study_id":"60edd13110225f80f9f3709b","session_id":"6196c201baff7fb5c96fb664","condition":"contingent","relevant_dimensions":["wings","pattern"],"bee_group":{"antennae":"X","wings":"1","pattern":"D","legs":"X"},"bonus":0.8600000000000007},{"rt":734,"stimulus":"bees-with-color/bee-A1SF.svg","response":0,"trial_type":"image-button-response","trial_index":71,"time_elapsed":959461,"internal_node_id":"0.0-4.0-0.32","subject_id":"60183e25b4423c05ee0ee791","study_id":"60edd13110225f80f9f3709b","session_id":"6196c201baff7fb5c96fb664","condition":"contingent","relevant_dimensions":["wings","pattern"],"bee_group":{"antennae":"X","wings":"1","pattern":"D","legs":"X"},"action":"harvest","summary":"good-harvest","bonus":0.8600000000000007},{"rt":543,"stimulus":"\n                    <p><b>Action: <em>harvest</em></b></p>\n                    <p>This is the bee that you just saw.</p>\n                    <img src=\"bees-with-color/bee-A1SF.svg\" width=\"200\">\n                    <p><span class=\"greenText\"><b>Successful harvest!</b></span><br>Your pay has increased by $0.02. Your bonus pay is now $0.66.</p>\n            ","response":0,"trial_type":"html-button-response","trial_index":72,"time_elapsed":960004,"internal_node_id":"0.0-4.0-1.32","subject_id":"60183e25b4423c05ee0ee791","study_id":"60edd13110225f80f9f3709b","session_id":"6196c201baff7fb5c96fb664","condition":"contingent","relevant_dimensions":["wings","pattern"],"bee_group":{"antennae":"X","wings":"1","pattern":"D","legs":"X"},"bonus":0.8600000000000007},{"rt":832,"stimulus":"bees-with-color/bee-B2DM.svg","response":1,"trial_type":"image-button-response","trial_index":73,"time_elapsed":960838,"internal_node_id":"0.0-4.0-0.33","subject_id":"60183e25b4423c05ee0ee791","study_id":"60edd13110225f80f9f3709b","session_id":"6196c201baff7fb5c96fb664","condition":"contingent","relevant_dimensions":["wings","pattern"],"bee_group":{"antennae":"X","wings":"1","pattern":"D","legs":"X"},"action":"avoid","summary":"bad-avoid","bonus":0.8600000000000007},{"rt":678,"stimulus":"\n                    <p><b>Action: <em>avoid</em></b></p>\n                    <p>This is the bee that you just saw.</p>\n                    <img src=\"bees-with-color/bee-B2DM.svg\" width=\"200\">\n                    <p><br>Your bonus pay is unchanged, and remains at $0.66.</p>\n            ","response":0,"trial_type":"html-button-response","trial_index":74,"time_elapsed":961517,"internal_node_id":"0.0-4.0-1.33","subject_id":"60183e25b4423c05ee0ee791","study_id":"60edd13110225f80f9f3709b","session_id":"6196c201baff7fb5c96fb664","condition":"contingent","relevant_dimensions":["wings","pattern"],"bee_group":{"antennae":"X","wings":"1","pattern":"D","legs":"X"},"bonus":0.8600000000000007},{"rt":846,"stimulus":"bees-with-color/bee-B2DF.svg","response":1,"trial_type":"image-button-response","trial_index":75,"time_elapsed":962365,"internal_node_id":"0.0-4.0-0.34","subject_id":"60183e25b4423c05ee0ee791","study_id":"60edd13110225f80f9f3709b","session_id":"6196c201baff7fb5c96fb664","condition":"contingent","relevant_dimensions":["wings","pattern"],"bee_group":{"antennae":"X","wings":"1","pattern":"D","legs":"X"},"action":"avoid","summary":"bad-avoid","bonus":0.8600000000000007},{"rt":487,"stimulus":"\n                    <p><b>Action: <em>avoid</em></b></p>\n                    <p>This is the bee that you just saw.</p>\n                    <img src=\"bees-with-color/bee-B2DF.svg\" width=\"200\">\n                    <p><br>Your bonus pay is unchanged, and remains at $0.66.</p>\n            ","response":0,"trial_type":"html-button-response","trial_index":76,"time_elapsed":962853,"internal_node_id":"0.0-4.0-1.34","subject_id":"60183e25b4423c05ee0ee791","study_id":"60edd13110225f80f9f3709b","session_id":"6196c201baff7fb5c96fb664","condition":"contingent","relevant_dimensions":["wings","pattern"],"bee_group":{"antennae":"X","wings":"1","pattern":"D","legs":"X"},"bonus":0.8600000000000007},{"rt":720,"stimulus":"bees-with-color/bee-A1DM.svg","response":1,"trial_type":"image-button-response","trial_index":77,"time_elapsed":963573,"internal_node_id":"0.0-4.0-0.35","subject_id":"60183e25b4423c05ee0ee791","study_id":"60edd13110225f80f9f3709b","session_id":"6196c201baff7fb5c96fb664","condition":"contingent","relevant_dimensions":["wings","pattern"],"bee_group":{"antennae":"X","wings":"1","pattern":"D","legs":"X"},"action":"avoid","summary":"good-avoid","bonus":0.8600000000000007},{"rt":918,"stimulus":"\n                    <p><b>Action: <em>avoid</em></b></p>\n                    <p>This is the bee that you just saw.</p>\n                    <img src=\"bees-with-color/bee-A1DM.svg\" width=\"200\">\n                    <p><br>Your bonus pay is unchanged, and remains at $0.66.</p>\n            ","response":0,"trial_type":"html-button-response","trial_index":78,"time_elapsed":964492,"internal_node_id":"0.0-4.0-1.35","subject_id":"60183e25b4423c05ee0ee791","study_id":"60edd13110225f80f9f3709b","session_id":"6196c201baff7fb5c96fb664","condition":"contingent","relevant_dimensions":["wings","pattern"],"bee_group":{"antennae":"X","wings":"1","pattern":"D","legs":"X"},"bonus":0.8600000000000007},{"rt":719,"stimulus":"bees-with-color/bee-B1DF.svg","response":1,"trial_type":"image-button-response","trial_index":79,"time_elapsed":965213,"internal_node_id":"0.0-4.0-0.36","subject_id":"60183e25b4423c05ee0ee791","study_id":"60edd13110225f80f9f3709b","session_id":"6196c201baff7fb5c96fb664","condition":"contingent","relevant_dimensions":["wings","pattern"],"bee_group":{"antennae":"X","wings":"1","pattern":"D","legs":"X"},"action":"avoid","summary":"good-avoid","bonus":0.8600000000000007},{"rt":543,"stimulus":"\n                    <p><b>Action: <em>avoid</em></b></p>\n                    <p>This is the bee that you just saw.</p>\n                    <img src=\"bees-with-color/bee-B1DF.svg\" width=\"200\">\n                    <p><br>Your bonus pay is unchanged, and remains at $0.66.</p>\n            ","response":0,"trial_type":"html-button-response","trial_index":80,"time_elapsed":965756,"internal_node_id":"0.0-4.0-1.36","subject_id":"60183e25b4423c05ee0ee791","study_id":"60edd13110225f80f9f3709b","session_id":"6196c201baff7fb5c96fb664","condition":"contingent","relevant_dimensions":["wings","pattern"],"bee_group":{"antennae":"X","wings":"1","pattern":"D","legs":"X"},"bonus":0.8600000000000007},{"rt":856,"stimulus":"bees-with-color/bee-B2SF.svg","response":0,"trial_type":"image-button-response","trial_index":81,"time_elapsed":966613,"internal_node_id":"0.0-4.0-0.37","subject_id":"60183e25b4423c05ee0ee791","study_id":"60edd13110225f80f9f3709b","session_id":"6196c201baff7fb5c96fb664","condition":"contingent","relevant_dimensions":["wings","pattern"],"bee_group":{"antennae":"X","wings":"1","pattern":"D","legs":"X"},"action":"harvest","summary":"good-harvest","bonus":0.8600000000000007},{"rt":623,"stimulus":"\n                    <p><b>Action: <em>harvest</em></b></p>\n                    <p>This is the bee that you just saw.</p>\n                    <img src=\"bees-with-color/bee-B2SF.svg\" width=\"200\">\n                    <p><span class=\"greenText\"><b>Successful harvest!</b></span><br>Your pay has increased by $0.02. Your bonus pay is now $0.68.</p>\n            ","response":0,"trial_type":"html-button-response","trial_index":82,"time_elapsed":967237,"internal_node_id":"0.0-4.0-1.37","subject_id":"60183e25b4423c05ee0ee791","study_id":"60edd13110225f80f9f3709b","session_id":"6196c201baff7fb5c96fb664","condition":"contingent","relevant_dimensions":["wings","pattern"],"bee_group":{"antennae":"X","wings":"1","pattern":"D","legs":"X"},"bonus":0.8600000000000007},{"rt":864,"stimulus":"bees-with-color/bee-B2SM.svg","response":0,"trial_type":"image-button-response","trial_index":83,"time_elapsed":968101,"internal_node_id":"0.0-4.0-0.38","subject_id":"60183e25b4423c05ee0ee791","study_id":"60edd13110225f80f9f3709b","session_id":"6196c201baff7fb5c96fb664","condition":"contingent","relevant_dimensions":["wings","pattern"],"bee_group":{"antennae":"X","wings":"1","pattern":"D","legs":"X"},"action":"harvest","summary":"good-harvest","bonus":0.8600000000000007},{"rt":631,"stimulus":"\n                    <p><b>Action: <em>harvest</em></b></p>\n                    <p>This is the bee that you just saw.</p>\n                    <img src=\"bees-with-color/bee-B2SM.svg\" width=\"200\">\n                    <p><span class=\"greenText\"><b>Successful harvest!</b></span><br>Your pay has increased by $0.02. Your bonus pay is now $0.70.</p>\n            ","response":0,"trial_type":"html-button-response","trial_index":84,"time_elapsed":968732,"internal_node_id":"0.0-4.0-1.38","subject_id":"60183e25b4423c05ee0ee791","study_id":"60edd13110225f80f9f3709b","session_id":"6196c201baff7fb5c96fb664","condition":"contingent","relevant_dimensions":["wings","pattern"],"bee_group":{"antennae":"X","wings":"1","pattern":"D","legs":"X"},"bonus":0.8600000000000007},{"rt":686,"stimulus":"bees-with-color/bee-B1SF.svg","response":0,"trial_type":"image-button-response","trial_index":85,"time_elapsed":969421,"internal_node_id":"0.0-4.0-0.39","subject_id":"60183e25b4423c05ee0ee791","study_id":"60edd13110225f80f9f3709b","session_id":"6196c201baff7fb5c96fb664","condition":"contingent","relevant_dimensions":["wings","pattern"],"bee_group":{"antennae":"X","wings":"1","pattern":"D","legs":"X"},"action":"harvest","summary":"good-harvest","bonus":0.8600000000000007},{"rt":624,"stimulus":"\n                    <p><b>Action: <em>harvest</em></b></p>\n                    <p>This is the bee that you just saw.</p>\n                    <img src=\"bees-with-color/bee-B1SF.svg\" width=\"200\">\n                    <p><span class=\"greenText\"><b>Successful harvest!</b></span><br>Your pay has increased by $0.02. Your bonus pay is now $0.72.</p>\n            ","response":0,"trial_type":"html-button-response","trial_index":86,"time_elapsed":970045,"internal_node_id":"0.0-4.0-1.39","subject_id":"60183e25b4423c05ee0ee791","study_id":"60edd13110225f80f9f3709b","session_id":"6196c201baff7fb5c96fb664","condition":"contingent","relevant_dimensions":["wings","pattern"],"bee_group":{"antennae":"X","wings":"1","pattern":"D","legs":"X"},"bonus":0.8600000000000007},{"rt":583,"stimulus":"bees-with-color/bee-A2SF.svg","response":0,"trial_type":"image-button-response","trial_index":87,"time_elapsed":970628,"internal_node_id":"0.0-4.0-0.40","subject_id":"60183e25b4423c05ee0ee791","study_id":"60edd13110225f80f9f3709b","session_id":"6196c201baff7fb5c96fb664","condition":"contingent","relevant_dimensions":["wings","pattern"],"bee_group":{"antennae":"X","wings":"1","pattern":"D","legs":"X"},"action":"harvest","summary":"good-harvest","bonus":0.8600000000000007},{"rt":503,"stimulus":"\n                    <p><b>Action: <em>harvest</em></b></p>\n                    <p>This is the bee that you just saw.</p>\n                    <img src=\"bees-with-color/bee-A2SF.svg\" width=\"200\">\n                    <p><span class=\"greenText\"><b>Successful harvest!</b></span><br>Your pay has increased by $0.02. Your bonus pay is now $0.74.</p>\n            ","response":0,"trial_type":"html-button-response","trial_index":88,"time_elapsed":971132,"internal_node_id":"0.0-4.0-1.40","subject_id":"60183e25b4423c05ee0ee791","study_id":"60edd13110225f80f9f3709b","session_id":"6196c201baff7fb5c96fb664","condition":"contingent","relevant_dimensions":["wings","pattern"],"bee_group":{"antennae":"X","wings":"1","pattern":"D","legs":"X"},"bonus":0.8600000000000007},{"rt":720,"stimulus":"bees-with-color/bee-B1SM.svg","response":0,"trial_type":"image-button-response","trial_index":89,"time_elapsed":971852,"internal_node_id":"0.0-4.0-0.41","subject_id":"60183e25b4423c05ee0ee791","study_id":"60edd13110225f80f9f3709b","session_id":"6196c201baff7fb5c96fb664","condition":"contingent","relevant_dimensions":["wings","pattern"],"bee_group":{"antennae":"X","wings":"1","pattern":"D","legs":"X"},"action":"harvest","summary":"good-harvest","bonus":0.8600000000000007},{"rt":496,"stimulus":"\n                    <p><b>Action: <em>harvest</em></b></p>\n                    <p>This is the bee that you just saw.</p>\n                    <img src=\"bees-with-color/bee-B1SM.svg\" width=\"200\">\n                    <p><span class=\"greenText\"><b>Successful harvest!</b></span><br>Your pay has increased by $0.02. Your bonus pay is now $0.76.</p>\n            ","response":0,"trial_type":"html-button-response","trial_index":90,"time_elapsed":972349,"internal_node_id":"0.0-4.0-1.41","subject_id":"60183e25b4423c05ee0ee791","study_id":"60edd13110225f80f9f3709b","session_id":"6196c201baff7fb5c96fb664","condition":"contingent","relevant_dimensions":["wings","pattern"],"bee_group":{"antennae":"X","wings":"1","pattern":"D","legs":"X"},"bonus":0.8600000000000007},{"rt":1303,"stimulus":"bees-with-color/bee-B1DM.svg","response":1,"trial_type":"image-button-response","trial_index":91,"time_elapsed":973652,"internal_node_id":"0.0-4.0-0.42","subject_id":"60183e25b4423c05ee0ee791","study_id":"60edd13110225f80f9f3709b","session_id":"6196c201baff7fb5c96fb664","condition":"contingent","relevant_dimensions":["wings","pattern"],"bee_group":{"antennae":"X","wings":"1","pattern":"D","legs":"X"},"action":"avoid","summary":"good-avoid","bonus":0.8600000000000007},{"rt":807,"stimulus":"\n                    <p><b>Action: <em>avoid</em></b></p>\n                    <p>This is the bee that you just saw.</p>\n                    <img src=\"bees-with-color/bee-B1DM.svg\" width=\"200\">\n                    <p><br>Your bonus pay is unchanged, and remains at $0.76.</p>\n            ","response":0,"trial_type":"html-button-response","trial_index":92,"time_elapsed":974460,"internal_node_id":"0.0-4.0-1.42","subject_id":"60183e25b4423c05ee0ee791","study_id":"60edd13110225f80f9f3709b","session_id":"6196c201baff7fb5c96fb664","condition":"contingent","relevant_dimensions":["wings","pattern"],"bee_group":{"antennae":"X","wings":"1","pattern":"D","legs":"X"},"bonus":0.8600000000000007},{"rt":720,"stimulus":"bees-with-color/bee-A1SM.svg","response":0,"trial_type":"image-button-response","trial_index":93,"time_elapsed":975181,"internal_node_id":"0.0-4.0-0.43","subject_id":"60183e25b4423c05ee0ee791","study_id":"60edd13110225f80f9f3709b","session_id":"6196c201baff7fb5c96fb664","condition":"contingent","relevant_dimensions":["wings","pattern"],"bee_group":{"antennae":"X","wings":"1","pattern":"D","legs":"X"},"action":"harvest","summary":"good-harvest","bonus":0.8600000000000007},{"rt":895,"stimulus":"\n                    <p><b>Action: <em>harvest</em></b></p>\n                    <p>This is the bee that you just saw.</p>\n                    <img src=\"bees-with-color/bee-A1SM.svg\" width=\"200\">\n                    <p><span class=\"greenText\"><b>Successful harvest!</b></span><br>Your pay has increased by $0.02. Your bonus pay is now $0.78.</p>\n            ","response":0,"trial_type":"html-button-response","trial_index":94,"time_elapsed":976076,"internal_node_id":"0.0-4.0-1.43","subject_id":"60183e25b4423c05ee0ee791","study_id":"60edd13110225f80f9f3709b","session_id":"6196c201baff7fb5c96fb664","condition":"contingent","relevant_dimensions":["wings","pattern"],"bee_group":{"antennae":"X","wings":"1","pattern":"D","legs":"X"},"bonus":0.8600000000000007},{"rt":920,"stimulus":"bees-with-color/bee-A1DF.svg","response":1,"trial_type":"image-button-response","trial_index":95,"time_elapsed":976996,"internal_node_id":"0.0-4.0-0.44","subject_id":"60183e25b4423c05ee0ee791","study_id":"60edd13110225f80f9f3709b","session_id":"6196c201baff7fb5c96fb664","condition":"contingent","relevant_dimensions":["wings","pattern"],"bee_group":{"antennae":"X","wings":"1","pattern":"D","legs":"X"},"action":"avoid","summary":"good-avoid","bonus":0.8600000000000007},{"rt":694,"stimulus":"\n                    <p><b>Action: <em>avoid</em></b></p>\n                    <p>This is the bee that you just saw.</p>\n                    <img src=\"bees-with-color/bee-A1DF.svg\" width=\"200\">\n                    <p><br>Your bonus pay is unchanged, and remains at $0.78.</p>\n            ","response":0,"trial_type":"html-button-response","trial_index":96,"time_elapsed":977693,"internal_node_id":"0.0-4.0-1.44","subject_id":"60183e25b4423c05ee0ee791","study_id":"60edd13110225f80f9f3709b","session_id":"6196c201baff7fb5c96fb664","condition":"contingent","relevant_dimensions":["wings","pattern"],"bee_group":{"antennae":"X","wings":"1","pattern":"D","legs":"X"},"bonus":0.8600000000000007},{"rt":881,"stimulus":"bees-with-color/bee-A2DF.svg","response":1,"trial_type":"image-button-response","trial_index":97,"time_elapsed":978574,"internal_node_id":"0.0-4.0-0.45","subject_id":"60183e25b4423c05ee0ee791","study_id":"60edd13110225f80f9f3709b","session_id":"6196c201baff7fb5c96fb664","condition":"contingent","relevant_dimensions":["wings","pattern"],"bee_group":{"antennae":"X","wings":"1","pattern":"D","legs":"X"},"action":"avoid","summary":"bad-avoid","bonus":0.8600000000000007},{"rt":918,"stimulus":"\n                    <p><b>Action: <em>avoid</em></b></p>\n                    <p>This is the bee that you just saw.</p>\n                    <img src=\"bees-with-color/bee-A2DF.svg\" width=\"200\">\n                    <p><br>Your bonus pay is unchanged, and remains at $0.78.</p>\n            ","response":0,"trial_type":"html-button-response","trial_index":98,"time_elapsed":979493,"internal_node_id":"0.0-4.0-1.45","subject_id":"60183e25b4423c05ee0ee791","study_id":"60edd13110225f80f9f3709b","session_id":"6196c201baff7fb5c96fb664","condition":"contingent","relevant_dimensions":["wings","pattern"],"bee_group":{"antennae":"X","wings":"1","pattern":"D","legs":"X"},"bonus":0.8600000000000007},{"rt":639,"stimulus":"bees-with-color/bee-A2SM.svg","response":0,"trial_type":"image-button-response","trial_index":99,"time_elapsed":980132,"internal_node_id":"0.0-4.0-0.46","subject_id":"60183e25b4423c05ee0ee791","study_id":"60edd13110225f80f9f3709b","session_id":"6196c201baff7fb5c96fb664","condition":"contingent","relevant_dimensions":["wings","pattern"],"bee_group":{"antennae":"X","wings":"1","pattern":"D","legs":"X"},"action":"harvest","summary":"good-harvest","bonus":0.8600000000000007},{"rt":630,"stimulus":"\n                    <p><b>Action: <em>harvest</em></b></p>\n                    <p>This is the bee that you just saw.</p>\n                    <img src=\"bees-with-color/bee-A2SM.svg\" width=\"200\">\n                    <p><span class=\"greenText\"><b>Successful harvest!</b></span><br>Your pay has increased by $0.02. Your bonus pay is now $0.80.</p>\n            ","response":0,"trial_type":"html-button-response","trial_index":100,"time_elapsed":980765,"internal_node_id":"0.0-4.0-1.46","subject_id":"60183e25b4423c05ee0ee791","study_id":"60edd13110225f80f9f3709b","session_id":"6196c201baff7fb5c96fb664","condition":"contingent","relevant_dimensions":["wings","pattern"],"bee_group":{"antennae":"X","wings":"1","pattern":"D","legs":"X"},"bonus":0.8600000000000007},{"rt":736,"stimulus":"bees-with-color/bee-A2DM.svg","response":1,"trial_type":"image-button-response","trial_index":101,"time_elapsed":981501,"internal_node_id":"0.0-4.0-0.47","subject_id":"60183e25b4423c05ee0ee791","study_id":"60edd13110225f80f9f3709b","session_id":"6196c201baff7fb5c96fb664","condition":"contingent","relevant_dimensions":["wings","pattern"],"bee_group":{"antennae":"X","wings":"1","pattern":"D","legs":"X"},"action":"avoid","summary":"bad-avoid","bonus":0.8600000000000007},{"rt":696,"stimulus":"\n                    <p><b>Action: <em>avoid</em></b></p>\n                    <p>This is the bee that you just saw.</p>\n                    <img src=\"bees-with-color/bee-A2DM.svg\" width=\"200\">\n                    <p><br>Your bonus pay is unchanged, and remains at $0.80.</p>\n            ","response":0,"trial_type":"html-button-response","trial_index":102,"time_elapsed":982197,"internal_node_id":"0.0-4.0-1.47","subject_id":"60183e25b4423c05ee0ee791","study_id":"60edd13110225f80f9f3709b","session_id":"6196c201baff7fb5c96fb664","condition":"contingent","relevant_dimensions":["wings","pattern"],"bee_group":{"antennae":"X","wings":"1","pattern":"D","legs":"X"},"bonus":0.8600000000000007},{"rt":1103,"stimulus":"bees-with-color/bee-A1SF.svg","response":0,"trial_type":"image-button-response","trial_index":103,"time_elapsed":983300,"internal_node_id":"0.0-4.0-0.48","subject_id":"60183e25b4423c05ee0ee791","study_id":"60edd13110225f80f9f3709b","session_id":"6196c201baff7fb5c96fb664","condition":"contingent","relevant_dimensions":["wings","pattern"],"bee_group":{"antennae":"X","wings":"1","pattern":"D","legs":"X"},"action":"harvest","summary":"good-harvest","bonus":0.8600000000000007},{"rt":830,"stimulus":"\n                    <p><b>Action: <em>harvest</em></b></p>\n                    <p>This is the bee that you just saw.</p>\n                    <img src=\"bees-with-color/bee-A1SF.svg\" width=\"200\">\n                    <p><span class=\"greenText\"><b>Successful harvest!</b></span><br>Your pay has increased by $0.02. Your bonus pay is now $0.82.</p>\n            ","response":0,"trial_type":"html-button-response","trial_index":104,"time_elapsed":984132,"internal_node_id":"0.0-4.0-1.48","subject_id":"60183e25b4423c05ee0ee791","study_id":"60edd13110225f80f9f3709b","session_id":"6196c201baff7fb5c96fb664","condition":"contingent","relevant_dimensions":["wings","pattern"],"bee_group":{"antennae":"X","wings":"1","pattern":"D","legs":"X"},"bonus":0.8600000000000007},{"rt":999,"stimulus":"bees-with-color/bee-B2DM.svg","response":1,"trial_type":"image-button-response","trial_index":105,"time_elapsed":985132,"internal_node_id":"0.0-4.0-0.49","subject_id":"60183e25b4423c05ee0ee791","study_id":"60edd13110225f80f9f3709b","session_id":"6196c201baff7fb5c96fb664","condition":"contingent","relevant_dimensions":["wings","pattern"],"bee_group":{"antennae":"X","wings":"1","pattern":"D","legs":"X"},"action":"avoid","summary":"bad-avoid","bonus":0.8600000000000007},{"rt":606,"stimulus":"\n                    <p><b>Action: <em>avoid</em></b></p>\n                    <p>This is the bee that you just saw.</p>\n                    <img src=\"bees-with-color/bee-B2DM.svg\" width=\"200\">\n                    <p><br>Your bonus pay is unchanged, and remains at $0.82.</p>\n            ","response":0,"trial_type":"html-button-response","trial_index":106,"time_elapsed":985741,"internal_node_id":"0.0-4.0-1.49","subject_id":"60183e25b4423c05ee0ee791","study_id":"60edd13110225f80f9f3709b","session_id":"6196c201baff7fb5c96fb664","condition":"contingent","relevant_dimensions":["wings","pattern"],"bee_group":{"antennae":"X","wings":"1","pattern":"D","legs":"X"},"bonus":0.8600000000000007},{"rt":648,"stimulus":"bees-with-color/bee-B1DM.svg","response":1,"trial_type":"image-button-response","trial_index":107,"time_elapsed":986389,"internal_node_id":"0.0-4.0-0.50","subject_id":"60183e25b4423c05ee0ee791","study_id":"60edd13110225f80f9f3709b","session_id":"6196c201baff7fb5c96fb664","condition":"contingent","relevant_dimensions":["wings","pattern"],"bee_group":{"antennae":"X","wings":"1","pattern":"D","legs":"X"},"action":"avoid","summary":"good-avoid","bonus":0.8600000000000007},{"rt":406,"stimulus":"\n                    <p><b>Action: <em>avoid</em></b></p>\n                    <p>This is the bee that you just saw.</p>\n                    <img src=\"bees-with-color/bee-B1DM.svg\" width=\"200\">\n                    <p><br>Your bonus pay is unchanged, and remains at $0.82.</p>\n            ","response":0,"trial_type":"html-button-response","trial_index":108,"time_elapsed":986797,"internal_node_id":"0.0-4.0-1.50","subject_id":"60183e25b4423c05ee0ee791","study_id":"60edd13110225f80f9f3709b","session_id":"6196c201baff7fb5c96fb664","condition":"contingent","relevant_dimensions":["wings","pattern"],"bee_group":{"antennae":"X","wings":"1","pattern":"D","legs":"X"},"bonus":0.8600000000000007},{"rt":504,"stimulus":"bees-with-color/bee-A1DM.svg","response":1,"trial_type":"image-button-response","trial_index":109,"time_elapsed":987301,"internal_node_id":"0.0-4.0-0.51","subject_id":"60183e25b4423c05ee0ee791","study_id":"60edd13110225f80f9f3709b","session_id":"6196c201baff7fb5c96fb664","condition":"contingent","relevant_dimensions":["wings","pattern"],"bee_group":{"antennae":"X","wings":"1","pattern":"D","legs":"X"},"action":"avoid","summary":"good-avoid","bonus":0.8600000000000007},{"rt":382,"stimulus":"\n                    <p><b>Action: <em>avoid</em></b></p>\n                    <p>This is the bee that you just saw.</p>\n                    <img src=\"bees-with-color/bee-A1DM.svg\" width=\"200\">\n                    <p><br>Your bonus pay is unchanged, and remains at $0.82.</p>\n            ","response":0,"trial_type":"html-button-response","trial_index":110,"time_elapsed":987684,"internal_node_id":"0.0-4.0-1.51","subject_id":"60183e25b4423c05ee0ee791","study_id":"60edd13110225f80f9f3709b","session_id":"6196c201baff7fb5c96fb664","condition":"contingent","relevant_dimensions":["wings","pattern"],"bee_group":{"antennae":"X","wings":"1","pattern":"D","legs":"X"},"bonus":0.8600000000000007},{"rt":799,"stimulus":"bees-with-color/bee-B2SF.svg","response":0,"trial_type":"image-button-response","trial_index":111,"time_elapsed":988485,"internal_node_id":"0.0-4.0-0.52","subject_id":"60183e25b4423c05ee0ee791","study_id":"60edd13110225f80f9f3709b","session_id":"6196c201baff7fb5c96fb664","condition":"contingent","relevant_dimensions":["wings","pattern"],"bee_group":{"antennae":"X","wings":"1","pattern":"D","legs":"X"},"action":"harvest","summary":"good-harvest","bonus":0.8600000000000007},{"rt":631,"stimulus":"\n                    <p><b>Action: <em>harvest</em></b></p>\n                    <p>This is the bee that you just saw.</p>\n                    <img src=\"bees-with-color/bee-B2SF.svg\" width=\"200\">\n                    <p><span class=\"greenText\"><b>Successful harvest!</b></span><br>Your pay has increased by $0.02. Your bonus pay is now $0.84.</p>\n            ","response":0,"trial_type":"html-button-response","trial_index":112,"time_elapsed":989116,"internal_node_id":"0.0-4.0-1.52","subject_id":"60183e25b4423c05ee0ee791","study_id":"60edd13110225f80f9f3709b","session_id":"6196c201baff7fb5c96fb664","condition":"contingent","relevant_dimensions":["wings","pattern"],"bee_group":{"antennae":"X","wings":"1","pattern":"D","legs":"X"},"bonus":0.8600000000000007},{"rt":519,"stimulus":"bees-with-color/bee-B2SM.svg","response":0,"trial_type":"image-button-response","trial_index":113,"time_elapsed":989637,"internal_node_id":"0.0-4.0-0.53","subject_id":"60183e25b4423c05ee0ee791","study_id":"60edd13110225f80f9f3709b","session_id":"6196c201baff7fb5c96fb664","condition":"contingent","relevant_dimensions":["wings","pattern"],"bee_group":{"antennae":"X","wings":"1","pattern":"D","legs":"X"},"action":"harvest","summary":"good-harvest","bonus":0.8600000000000007},{"rt":431,"stimulus":"\n                    <p><b>Action: <em>harvest</em></b></p>\n                    <p>This is the bee that you just saw.</p>\n                    <img src=\"bees-with-color/bee-B2SM.svg\" width=\"200\">\n                    <p><span class=\"greenText\"><b>Successful harvest!</b></span><br>Your pay has increased by $0.02. Your bonus pay is now $0.86.</p>\n            ","response":0,"trial_type":"html-button-response","trial_index":114,"time_elapsed":990069,"internal_node_id":"0.0-4.0-1.53","subject_id":"60183e25b4423c05ee0ee791","study_id":"60edd13110225f80f9f3709b","session_id":"6196c201baff7fb5c96fb664","condition":"contingent","relevant_dimensions":["wings","pattern"],"bee_group":{"antennae":"X","wings":"1","pattern":"D","legs":"X"},"bonus":0.8600000000000007},{"rt":751,"stimulus":"bees-with-color/bee-A2DF.svg","response":1,"trial_type":"image-button-response","trial_index":115,"time_elapsed":990820,"internal_node_id":"0.0-4.0-0.54","subject_id":"60183e25b4423c05ee0ee791","study_id":"60edd13110225f80f9f3709b","session_id":"6196c201baff7fb5c96fb664","condition":"contingent","relevant_dimensions":["wings","pattern"],"bee_group":{"antennae":"X","wings":"1","pattern":"D","legs":"X"},"action":"avoid","summary":"bad-avoid","bonus":0.8600000000000007},{"rt":496,"stimulus":"\n                    <p><b>Action: <em>avoid</em></b></p>\n                    <p>This is the bee that you just saw.</p>\n                    <img src=\"bees-with-color/bee-A2DF.svg\" width=\"200\">\n                    <p><br>Your bonus pay is unchanged, and remains at $0.86.</p>\n            ","response":0,"trial_type":"html-button-response","trial_index":116,"time_elapsed":991316,"internal_node_id":"0.0-4.0-1.54","subject_id":"60183e25b4423c05ee0ee791","study_id":"60edd13110225f80f9f3709b","session_id":"6196c201baff7fb5c96fb664","condition":"contingent","relevant_dimensions":["wings","pattern"],"bee_group":{"antennae":"X","wings":"1","pattern":"D","legs":"X"},"bonus":0.8600000000000007},{"rt":831,"stimulus":"bees-with-color/bee-B1SF.svg","response":0,"trial_type":"image-button-response","trial_index":117,"time_elapsed":992148,"internal_node_id":"0.0-4.0-0.55","subject_id":"60183e25b4423c05ee0ee791","study_id":"60edd13110225f80f9f3709b","session_id":"6196c201baff7fb5c96fb664","condition":"contingent","relevant_dimensions":["wings","pattern"],"bee_group":{"antennae":"X","wings":"1","pattern":"D","legs":"X"},"action":"harvest","summary":"good-harvest","bonus":0.8600000000000007},{"rt":590,"stimulus":"\n                    <p><b>Action: <em>harvest</em></b></p>\n                    <p>This is the bee that you just saw.</p>\n                    <img src=\"bees-with-color/bee-B1SF.svg\" width=\"200\">\n                    <p><span class=\"greenText\"><b>Successful harvest!</b></span><br>Your pay has increased by $0.02. Your bonus pay is now $0.88.</p>\n            ","response":0,"trial_type":"html-button-response","trial_index":118,"time_elapsed":992740,"internal_node_id":"0.0-4.0-1.55","subject_id":"60183e25b4423c05ee0ee791","study_id":"60edd13110225f80f9f3709b","session_id":"6196c201baff7fb5c96fb664","condition":"contingent","relevant_dimensions":["wings","pattern"],"bee_group":{"antennae":"X","wings":"1","pattern":"D","legs":"X"},"bonus":0.8600000000000007},{"rt":608,"stimulus":"bees-with-color/bee-A2SM.svg","response":0,"trial_type":"image-button-response","trial_index":119,"time_elapsed":993348,"internal_node_id":"0.0-4.0-0.56","subject_id":"60183e25b4423c05ee0ee791","study_id":"60edd13110225f80f9f3709b","session_id":"6196c201baff7fb5c96fb664","condition":"contingent","relevant_dimensions":["wings","pattern"],"bee_group":{"antennae":"X","wings":"1","pattern":"D","legs":"X"},"action":"harvest","summary":"good-harvest","bonus":0.8600000000000007},{"rt":415,"stimulus":"\n                    <p><b>Action: <em>harvest</em></b></p>\n                    <p>This is the bee that you just saw.</p>\n                    <img src=\"bees-with-color/bee-A2SM.svg\" width=\"200\">\n                    <p><span class=\"greenText\"><b>Successful harvest!</b></span><br>Your pay has increased by $0.02. Your bonus pay is now $0.90.</p>\n            ","response":0,"trial_type":"html-button-response","trial_index":120,"time_elapsed":993764,"internal_node_id":"0.0-4.0-1.56","subject_id":"60183e25b4423c05ee0ee791","study_id":"60edd13110225f80f9f3709b","session_id":"6196c201baff7fb5c96fb664","condition":"contingent","relevant_dimensions":["wings","pattern"],"bee_group":{"antennae":"X","wings":"1","pattern":"D","legs":"X"},"bonus":0.8600000000000007},{"rt":543,"stimulus":"bees-with-color/bee-B1SM.svg","response":0,"trial_type":"image-button-response","trial_index":121,"time_elapsed":994308,"internal_node_id":"0.0-4.0-0.57","subject_id":"60183e25b4423c05ee0ee791","study_id":"60edd13110225f80f9f3709b","session_id":"6196c201baff7fb5c96fb664","condition":"contingent","relevant_dimensions":["wings","pattern"],"bee_group":{"antennae":"X","wings":"1","pattern":"D","legs":"X"},"action":"harvest","summary":"good-harvest","bonus":0.8600000000000007},{"rt":398,"stimulus":"\n                    <p><b>Action: <em>harvest</em></b></p>\n                    <p>This is the bee that you just saw.</p>\n                    <img src=\"bees-with-color/bee-B1SM.svg\" width=\"200\">\n                    <p><span class=\"greenText\"><b>Successful harvest!</b></span><br>Your pay has increased by $0.02. Your bonus pay is now $0.92.</p>\n            ","response":0,"trial_type":"html-button-response","trial_index":122,"time_elapsed":994709,"internal_node_id":"0.0-4.0-1.57","subject_id":"60183e25b4423c05ee0ee791","study_id":"60edd13110225f80f9f3709b","session_id":"6196c201baff7fb5c96fb664","condition":"contingent","relevant_dimensions":["wings","pattern"],"bee_group":{"antennae":"X","wings":"1","pattern":"D","legs":"X"},"bonus":0.8600000000000007},{"rt":567,"stimulus":"bees-with-color/bee-A2SF.svg","response":0,"trial_type":"image-button-response","trial_index":123,"time_elapsed":995277,"internal_node_id":"0.0-4.0-0.58","subject_id":"60183e25b4423c05ee0ee791","study_id":"60edd13110225f80f9f3709b","session_id":"6196c201baff7fb5c96fb664","condition":"contingent","relevant_dimensions":["wings","pattern"],"bee_group":{"antennae":"X","wings":"1","pattern":"D","legs":"X"},"action":"harvest","summary":"good-harvest","bonus":0.8600000000000007},{"rt":415,"stimulus":"\n                    <p><b>Action: <em>harvest</em></b></p>\n                    <p>This is the bee that you just saw.</p>\n                    <img src=\"bees-with-color/bee-A2SF.svg\" width=\"200\">\n                    <p><span class=\"greenText\"><b>Successful harvest!</b></span><br>Your pay has increased by $0.02. Your bonus pay is now $0.94.</p>\n            ","response":0,"trial_type":"html-button-response","trial_index":124,"time_elapsed":995692,"internal_node_id":"0.0-4.0-1.58","subject_id":"60183e25b4423c05ee0ee791","study_id":"60edd13110225f80f9f3709b","session_id":"6196c201baff7fb5c96fb664","condition":"contingent","relevant_dimensions":["wings","pattern"],"bee_group":{"antennae":"X","wings":"1","pattern":"D","legs":"X"},"bonus":0.8600000000000007},{"rt":775,"stimulus":"bees-with-color/bee-B1DF.svg","response":1,"trial_type":"image-button-response","trial_index":125,"time_elapsed":996468,"internal_node_id":"0.0-4.0-0.59","subject_id":"60183e25b4423c05ee0ee791","study_id":"60edd13110225f80f9f3709b","session_id":"6196c201baff7fb5c96fb664","condition":"contingent","relevant_dimensions":["wings","pattern"],"bee_group":{"antennae":"X","wings":"1","pattern":"D","legs":"X"},"action":"avoid","summary":"good-avoid","bonus":0.8600000000000007},{"rt":528,"stimulus":"\n                    <p><b>Action: <em>avoid</em></b></p>\n                    <p>This is the bee that you just saw.</p>\n                    <img src=\"bees-with-color/bee-B1DF.svg\" width=\"200\">\n                    <p><br>Your bonus pay is unchanged, and remains at $0.94.</p>\n            ","response":0,"trial_type":"html-button-response","trial_index":126,"time_elapsed":996996,"internal_node_id":"0.0-4.0-1.59","subject_id":"60183e25b4423c05ee0ee791","study_id":"60edd13110225f80f9f3709b","session_id":"6196c201baff7fb5c96fb664","condition":"contingent","relevant_dimensions":["wings","pattern"],"bee_group":{"antennae":"X","wings":"1","pattern":"D","legs":"X"},"bonus":0.8600000000000007},{"rt":816,"stimulus":"bees-with-color/bee-A2DM.svg","response":1,"trial_type":"image-button-response","trial_index":127,"time_elapsed":997813,"internal_node_id":"0.0-4.0-0.60","subject_id":"60183e25b4423c05ee0ee791","study_id":"60edd13110225f80f9f3709b","session_id":"6196c201baff7fb5c96fb664","condition":"contingent","relevant_dimensions":["wings","pattern"],"bee_group":{"antennae":"X","wings":"1","pattern":"D","legs":"X"},"action":"avoid","summary":"bad-avoid","bonus":0.8600000000000007},{"rt":518,"stimulus":"\n                    <p><b>Action: <em>avoid</em></b></p>\n                    <p>This is the bee that you just saw.</p>\n                    <img src=\"bees-with-color/bee-A2DM.svg\" width=\"200\">\n                    <p><br>Your bonus pay is unchanged, and remains at $0.94.</p>\n            ","response":0,"trial_type":"html-button-response","trial_index":128,"time_elapsed":998333,"internal_node_id":"0.0-4.0-1.60","subject_id":"60183e25b4423c05ee0ee791","study_id":"60edd13110225f80f9f3709b","session_id":"6196c201baff7fb5c96fb664","condition":"contingent","relevant_dimensions":["wings","pattern"],"bee_group":{"antennae":"X","wings":"1","pattern":"D","legs":"X"},"bonus":0.8600000000000007},{"rt":999,"stimulus":"bees-with-color/bee-A1DF.svg","response":1,"trial_type":"image-button-response","trial_index":129,"time_elapsed":999333,"internal_node_id":"0.0-4.0-0.61","subject_id":"60183e25b4423c05ee0ee791","study_id":"60edd13110225f80f9f3709b","session_id":"6196c201baff7fb5c96fb664","condition":"contingent","relevant_dimensions":["wings","pattern"],"bee_group":{"antennae":"X","wings":"1","pattern":"D","legs":"X"},"action":"avoid","summary":"good-avoid","bonus":0.8600000000000007},{"rt":576,"stimulus":"\n                    <p><b>Action: <em>avoid</em></b></p>\n                    <p>This is the bee that you just saw.</p>\n                    <img src=\"bees-with-color/bee-A1DF.svg\" width=\"200\">\n                    <p><br>Your bonus pay is unchanged, and remains at $0.94.</p>\n            ","response":0,"trial_type":"html-button-response","trial_index":130,"time_elapsed":999908,"internal_node_id":"0.0-4.0-1.61","subject_id":"60183e25b4423c05ee0ee791","study_id":"60edd13110225f80f9f3709b","session_id":"6196c201baff7fb5c96fb664","condition":"contingent","relevant_dimensions":["wings","pattern"],"bee_group":{"antennae":"X","wings":"1","pattern":"D","legs":"X"},"bonus":0.8600000000000007},{"rt":790,"stimulus":"bees-with-color/bee-B2DF.svg","response":1,"trial_type":"image-button-response","trial_index":131,"time_elapsed":1000700,"internal_node_id":"0.0-4.0-0.62","subject_id":"60183e25b4423c05ee0ee791","study_id":"60edd13110225f80f9f3709b","session_id":"6196c201baff7fb5c96fb664","condition":"contingent","relevant_dimensions":["wings","pattern"],"bee_group":{"antennae":"X","wings":"1","pattern":"D","legs":"X"},"action":"avoid","summary":"bad-avoid","bonus":0.8600000000000007},{"rt":624,"stimulus":"\n                    <p><b>Action: <em>avoid</em></b></p>\n                    <p>This is the bee that you just saw.</p>\n                    <img src=\"bees-with-color/bee-B2DF.svg\" width=\"200\">\n                    <p><br>Your bonus pay is unchanged, and remains at $0.94.</p>\n            ","response":0,"trial_type":"html-button-response","trial_index":132,"time_elapsed":1001325,"internal_node_id":"0.0-4.0-1.62","subject_id":"60183e25b4423c05ee0ee791","study_id":"60edd13110225f80f9f3709b","session_id":"6196c201baff7fb5c96fb664","condition":"contingent","relevant_dimensions":["wings","pattern"],"bee_group":{"antennae":"X","wings":"1","pattern":"D","legs":"X"},"bonus":0.8600000000000007},{"rt":799,"stimulus":"bees-with-color/bee-A1SM.svg","response":0,"trial_type":"image-button-response","trial_index":133,"time_elapsed":1002124,"internal_node_id":"0.0-4.0-0.63","subject_id":"60183e25b4423c05ee0ee791","study_id":"60edd13110225f80f9f3709b","session_id":"6196c201baff7fb5c96fb664","condition":"contingent","relevant_dimensions":["wings","pattern"],"bee_group":{"antennae":"X","wings":"1","pattern":"D","legs":"X"},"action":"harvest","summary":"good-harvest","bonus":0.8600000000000007},{"rt":486,"stimulus":"\n                    <p><b>Action: <em>harvest</em></b></p>\n                    <p>This is the bee that you just saw.</p>\n                    <img src=\"bees-with-color/bee-A1SM.svg\" width=\"200\">\n                    <p><span class=\"greenText\"><b>Successful harvest!</b></span><br>Your pay has increased by $0.02. Your bonus pay is now $0.96.</p>\n            ","response":0,"trial_type":"html-button-response","trial_index":134,"time_elapsed":1002612,"internal_node_id":"0.0-4.0-1.63","subject_id":"60183e25b4423c05ee0ee791","study_id":"60edd13110225f80f9f3709b","session_id":"6196c201baff7fb5c96fb664","condition":"contingent","relevant_dimensions":["wings","pattern"],"bee_group":{"antennae":"X","wings":"1","pattern":"D","legs":"X"},"bonus":0.8600000000000007},{"rt":14680,"stimulus":"You have completed the first part of this experiment.<br><br>You will now begin a shorter second part, in which you will receive no feedback.<br>The same rules regarding bonus pay apply.<br><br>Press any key to begin.","response":" ","trial_type":"html-keyboard-response","trial_index":135,"time_elapsed":1017293,"internal_node_id":"0.0-5.0","subject_id":"60183e25b4423c05ee0ee791","study_id":"60edd13110225f80f9f3709b","session_id":"6196c201baff7fb5c96fb664","condition":"contingent","relevant_dimensions":["wings","pattern"],"bee_group":{"antennae":"X","wings":"1","pattern":"D","legs":"X"},"bonus":0.8600000000000007},{"rt":15750,"stimulus":"bees-with-color/bee-A1DM.svg","response":0,"trial_type":"image-button-response","trial_index":136,"time_elapsed":1033044,"internal_node_id":"0.0-6.0-0.0","subject_id":"60183e25b4423c05ee0ee791","study_id":"60edd13110225f80f9f3709b","session_id":"6196c201baff7fb5c96fb664","condition":"contingent","relevant_dimensions":["wings","pattern"],"bee_group":{"antennae":"X","wings":"1","pattern":"D","legs":"X"},"bonus":0.8600000000000007},{"rt":10470,"stimulus":"bees-with-color/bee-B2SM.svg","response":1,"trial_type":"image-button-response","trial_index":137,"time_elapsed":1043516,"internal_node_id":"0.0-6.0-0.1","subject_id":"60183e25b4423c05ee0ee791","study_id":"60edd13110225f80f9f3709b","session_id":"6196c201baff7fb5c96fb664","condition":"contingent","relevant_dimensions":["wings","pattern"],"bee_group":{"antennae":"X","wings":"1","pattern":"D","legs":"X"},"bonus":0.8600000000000007},{"rt":1479,"stimulus":"bees-with-color/bee-A2SM.svg","response":1,"trial_type":"image-button-response","trial_index":138,"time_elapsed":1044996,"internal_node_id":"0.0-6.0-0.2","subject_id":"60183e25b4423c05ee0ee791","study_id":"60edd13110225f80f9f3709b","session_id":"6196c201baff7fb5c96fb664","condition":"contingent","relevant_dimensions":["wings","pattern"],"bee_group":{"antennae":"X","wings":"1","pattern":"D","legs":"X"},"bonus":0.8600000000000007},{"rt":984,"stimulus":"bees-with-color/bee-A1SM.svg","response":1,"trial_type":"image-button-response","trial_index":139,"time_elapsed":1045980,"internal_node_id":"0.0-6.0-0.3","subject_id":"60183e25b4423c05ee0ee791","study_id":"60edd13110225f80f9f3709b","session_id":"6196c201baff7fb5c96fb664","condition":"contingent","relevant_dimensions":["wings","pattern"],"bee_group":{"antennae":"X","wings":"1","pattern":"D","legs":"X"},"bonus":0.8600000000000007},{"rt":486,"stimulus":"bees-with-color/bee-A1DF.svg","response":1,"trial_type":"image-button-response","trial_index":140,"time_elapsed":1046468,"internal_node_id":"0.0-6.0-0.4","subject_id":"60183e25b4423c05ee0ee791","study_id":"60edd13110225f80f9f3709b","session_id":"6196c201baff7fb5c96fb664","condition":"contingent","relevant_dimensions":["wings","pattern"],"bee_group":{"antennae":"X","wings":"1","pattern":"D","legs":"X"},"bonus":0.8600000000000007},{"rt":288,"stimulus":"bees-with-color/bee-A2DM.svg","response":1,"trial_type":"image-button-response","trial_index":141,"time_elapsed":1046756,"internal_node_id":"0.0-6.0-0.5","subject_id":"60183e25b4423c05ee0ee791","study_id":"60edd13110225f80f9f3709b","session_id":"6196c201baff7fb5c96fb664","condition":"contingent","relevant_dimensions":["wings","pattern"],"bee_group":{"antennae":"X","wings":"1","pattern":"D","legs":"X"},"bonus":0.8600000000000007},{"rt":336,"stimulus":"bees-with-color/bee-B1SM.svg","response":1,"trial_type":"image-button-response","trial_index":142,"time_elapsed":1047092,"internal_node_id":"0.0-6.0-0.6","subject_id":"60183e25b4423c05ee0ee791","study_id":"60edd13110225f80f9f3709b","session_id":"6196c201baff7fb5c96fb664","condition":"contingent","relevant_dimensions":["wings","pattern"],"bee_group":{"antennae":"X","wings":"1","pattern":"D","legs":"X"},"bonus":0.8600000000000007},{"rt":167,"stimulus":"bees-with-color/bee-B2DF.svg","response":1,"trial_type":"image-button-response","trial_index":143,"time_elapsed":1047260,"internal_node_id":"0.0-6.0-0.7","subject_id":"60183e25b4423c05ee0ee791","study_id":"60edd13110225f80f9f3709b","session_id":"6196c201baff7fb5c96fb664","condition":"contingent","relevant_dimensions":["wings","pattern"],"bee_group":{"antennae":"X","wings":"1","pattern":"D","legs":"X"},"bonus":0.8600000000000007},{"rt":159,"stimulus":"bees-with-color/bee-A1SF.svg","response":1,"trial_type":"image-button-response","trial_index":144,"time_elapsed":1047420,"internal_node_id":"0.0-6.0-0.8","subject_id":"60183e25b4423c05ee0ee791","study_id":"60edd13110225f80f9f3709b","session_id":"6196c201baff7fb5c96fb664","condition":"contingent","relevant_dimensions":["wings","pattern"],"bee_group":{"antennae":"X","wings":"1","pattern":"D","legs":"X"},"bonus":0.8600000000000007},{"rt":168,"stimulus":"bees-with-color/bee-B1DF.svg","response":1,"trial_type":"image-button-response","trial_index":145,"time_elapsed":1047589,"internal_node_id":"0.0-6.0-0.9","subject_id":"60183e25b4423c05ee0ee791","study_id":"60edd13110225f80f9f3709b","session_id":"6196c201baff7fb5c96fb664","condition":"contingent","relevant_dimensions":["wings","pattern"],"bee_group":{"antennae":"X","wings":"1","pattern":"D","legs":"X"},"bonus":0.8600000000000007},{"rt":247,"stimulus":"bees-with-color/bee-A2SF.svg","response":1,"trial_type":"image-button-response","trial_index":146,"time_elapsed":1047837,"internal_node_id":"0.0-6.0-0.10","subject_id":"60183e25b4423c05ee0ee791","study_id":"60edd13110225f80f9f3709b","session_id":"6196c201baff7fb5c96fb664","condition":"contingent","relevant_dimensions":["wings","pattern"],"bee_group":{"antennae":"X","wings":"1","pattern":"D","legs":"X"},"bonus":0.8600000000000007},{"rt":303,"stimulus":"bees-with-color/bee-B1DM.svg","response":1,"trial_type":"image-button-response","trial_index":147,"time_elapsed":1048141,"internal_node_id":"0.0-6.0-0.11","subject_id":"60183e25b4423c05ee0ee791","study_id":"60edd13110225f80f9f3709b","session_id":"6196c201baff7fb5c96fb664","condition":"contingent","relevant_dimensions":["wings","pattern"],"bee_group":{"antennae":"X","wings":"1","pattern":"D","legs":"X"},"bonus":0.8600000000000007},{"rt":487,"stimulus":"bees-with-color/bee-B2DM.svg","response":1,"trial_type":"image-button-response","trial_index":148,"time_elapsed":1048628,"internal_node_id":"0.0-6.0-0.12","subject_id":"60183e25b4423c05ee0ee791","study_id":"60edd13110225f80f9f3709b","session_id":"6196c201baff7fb5c96fb664","condition":"contingent","relevant_dimensions":["wings","pattern"],"bee_group":{"antennae":"X","wings":"1","pattern":"D","legs":"X"},"bonus":0.8600000000000007},{"rt":368,"stimulus":"bees-with-color/bee-B2SF.svg","response":1,"trial_type":"image-button-response","trial_index":149,"time_elapsed":1048996,"internal_node_id":"0.0-6.0-0.13","subject_id":"60183e25b4423c05ee0ee791","study_id":"60edd13110225f80f9f3709b","session_id":"6196c201baff7fb5c96fb664","condition":"contingent","relevant_dimensions":["wings","pattern"],"bee_group":{"antennae":"X","wings":"1","pattern":"D","legs":"X"},"bonus":0.8600000000000007},{"rt":183,"stimulus":"bees-with-color/bee-B1SF.svg","response":1,"trial_type":"image-button-response","trial_index":150,"time_elapsed":1049181,"internal_node_id":"0.0-6.0-0.14","subject_id":"60183e25b4423c05ee0ee791","study_id":"60edd13110225f80f9f3709b","session_id":"6196c201baff7fb5c96fb664","condition":"contingent","relevant_dimensions":["wings","pattern"],"bee_group":{"antennae":"X","wings":"1","pattern":"D","legs":"X"},"bonus":0.8600000000000007},{"rt":183,"stimulus":"bees-with-color/bee-A2DF.svg","response":1,"trial_type":"image-button-response","trial_index":151,"time_elapsed":1049364,"internal_node_id":"0.0-6.0-0.15","subject_id":"60183e25b4423c05ee0ee791","study_id":"60edd13110225f80f9f3709b","session_id":"6196c201baff7fb5c96fb664","condition":"contingent","relevant_dimensions":["wings","pattern"],"bee_group":{"antennae":"X","wings":"1","pattern":"D","legs":"X"},"bonus":0.8600000000000007},{"rt":192,"stimulus":"bees-with-color/bee-A2DM.svg","response":1,"trial_type":"image-button-response","trial_index":152,"time_elapsed":1049557,"internal_node_id":"0.0-6.0-0.16","subject_id":"60183e25b4423c05ee0ee791","study_id":"60edd13110225f80f9f3709b","session_id":"6196c201baff7fb5c96fb664","condition":"contingent","relevant_dimensions":["wings","pattern"],"bee_group":{"antennae":"X","wings":"1","pattern":"D","legs":"X"},"bonus":0.8600000000000007},{"rt":199,"stimulus":"bees-with-color/bee-A2SM.svg","response":1,"trial_type":"image-button-response","trial_index":153,"time_elapsed":1049756,"internal_node_id":"0.0-6.0-0.17","subject_id":"60183e25b4423c05ee0ee791","study_id":"60edd13110225f80f9f3709b","session_id":"6196c201baff7fb5c96fb664","condition":"contingent","relevant_dimensions":["wings","pattern"],"bee_group":{"antennae":"X","wings":"1","pattern":"D","legs":"X"},"bonus":0.8600000000000007},{"rt":168,"stimulus":"bees-with-color/bee-B1DF.svg","response":1,"trial_type":"image-button-response","trial_index":154,"time_elapsed":1049924,"internal_node_id":"0.0-6.0-0.18","subject_id":"60183e25b4423c05ee0ee791","study_id":"60edd13110225f80f9f3709b","session_id":"6196c201baff7fb5c96fb664","condition":"contingent","relevant_dimensions":["wings","pattern"],"bee_group":{"antennae":"X","wings":"1","pattern":"D","legs":"X"},"bonus":0.8600000000000007},{"rt":174,"stimulus":"bees-with-color/bee-A1DM.svg","response":1,"trial_type":"image-button-response","trial_index":155,"time_elapsed":1050101,"internal_node_id":"0.0-6.0-0.19","subject_id":"60183e25b4423c05ee0ee791","study_id":"60edd13110225f80f9f3709b","session_id":"6196c201baff7fb5c96fb664","condition":"contingent","relevant_dimensions":["wings","pattern"],"bee_group":{"antennae":"X","wings":"1","pattern":"D","legs":"X"},"bonus":0.8600000000000007},{"rt":159,"stimulus":"bees-with-color/bee-A2SF.svg","response":1,"trial_type":"image-button-response","trial_index":156,"time_elapsed":1050260,"internal_node_id":"0.0-6.0-0.20","subject_id":"60183e25b4423c05ee0ee791","study_id":"60edd13110225f80f9f3709b","session_id":"6196c201baff7fb5c96fb664","condition":"contingent","relevant_dimensions":["wings","pattern"],"bee_group":{"antennae":"X","wings":"1","pattern":"D","legs":"X"},"bonus":0.8600000000000007},{"rt":159,"stimulus":"bees-with-color/bee-A1SM.svg","response":1,"trial_type":"image-button-response","trial_index":157,"time_elapsed":1050420,"internal_node_id":"0.0-6.0-0.21","subject_id":"60183e25b4423c05ee0ee791","study_id":"60edd13110225f80f9f3709b","session_id":"6196c201baff7fb5c96fb664","condition":"contingent","relevant_dimensions":["wings","pattern"],"bee_group":{"antennae":"X","wings":"1","pattern":"D","legs":"X"},"bonus":0.8600000000000007},{"rt":176,"stimulus":"bees-with-color/bee-B2DF.svg","response":1,"trial_type":"image-button-response","trial_index":158,"time_elapsed":1050596,"internal_node_id":"0.0-6.0-0.22","subject_id":"60183e25b4423c05ee0ee791","study_id":"60edd13110225f80f9f3709b","session_id":"6196c201baff7fb5c96fb664","condition":"contingent","relevant_dimensions":["wings","pattern"],"bee_group":{"antennae":"X","wings":"1","pattern":"D","legs":"X"},"bonus":0.8600000000000007},{"rt":159,"stimulus":"bees-with-color/bee-A2DF.svg","response":1,"trial_type":"image-button-response","trial_index":159,"time_elapsed":1050756,"internal_node_id":"0.0-6.0-0.23","subject_id":"60183e25b4423c05ee0ee791","study_id":"60edd13110225f80f9f3709b","session_id":"6196c201baff7fb5c96fb664","condition":"contingent","relevant_dimensions":["wings","pattern"],"bee_group":{"antennae":"X","wings":"1","pattern":"D","legs":"X"},"bonus":0.8600000000000007},{"rt":182,"stimulus":"bees-with-color/bee-A1DF.svg","response":1,"trial_type":"image-button-response","trial_index":160,"time_elapsed":1050941,"internal_node_id":"0.0-6.0-0.24","subject_id":"60183e25b4423c05ee0ee791","study_id":"60edd13110225f80f9f3709b","session_id":"6196c201baff7fb5c96fb664","condition":"contingent","relevant_dimensions":["wings","pattern"],"bee_group":{"antennae":"X","wings":"1","pattern":"D","legs":"X"},"bonus":0.8600000000000007},{"rt":152,"stimulus":"bees-with-color/bee-B1SM.svg","response":1,"trial_type":"image-button-response","trial_index":161,"time_elapsed":1051093,"internal_node_id":"0.0-6.0-0.25","subject_id":"60183e25b4423c05ee0ee791","study_id":"60edd13110225f80f9f3709b","session_id":"6196c201baff7fb5c96fb664","condition":"contingent","relevant_dimensions":["wings","pattern"],"bee_group":{"antennae":"X","wings":"1","pattern":"D","legs":"X"},"bonus":0.8600000000000007},{"rt":1542,"stimulus":"bees-with-color/bee-B2SF.svg","response":1,"trial_type":"image-button-response","trial_index":162,"time_elapsed":1052636,"internal_node_id":"0.0-6.0-0.26","subject_id":"60183e25b4423c05ee0ee791","study_id":"60edd13110225f80f9f3709b","session_id":"6196c201baff7fb5c96fb664","condition":"contingent","relevant_dimensions":["wings","pattern"],"bee_group":{"antennae":"X","wings":"1","pattern":"D","legs":"X"},"bonus":0.8600000000000007},{"rt":542,"stimulus":"bees-with-color/bee-A1SF.svg","response":1,"trial_type":"image-button-response","trial_index":163,"time_elapsed":1053180,"internal_node_id":"0.0-6.0-0.27","subject_id":"60183e25b4423c05ee0ee791","study_id":"60edd13110225f80f9f3709b","session_id":"6196c201baff7fb5c96fb664","condition":"contingent","relevant_dimensions":["wings","pattern"],"bee_group":{"antennae":"X","wings":"1","pattern":"D","legs":"X"},"bonus":0.8600000000000007},{"rt":480,"stimulus":"bees-with-color/bee-B1DM.svg","response":1,"trial_type":"image-button-response","trial_index":164,"time_elapsed":1053660,"internal_node_id":"0.0-6.0-0.28","subject_id":"60183e25b4423c05ee0ee791","study_id":"60edd13110225f80f9f3709b","session_id":"6196c201baff7fb5c96fb664","condition":"contingent","relevant_dimensions":["wings","pattern"],"bee_group":{"antennae":"X","wings":"1","pattern":"D","legs":"X"},"bonus":0.8600000000000007},{"rt":759,"stimulus":"bees-with-color/bee-B1SF.svg","response":1,"trial_type":"image-button-response","trial_index":165,"time_elapsed":1054420,"internal_node_id":"0.0-6.0-0.29","subject_id":"60183e25b4423c05ee0ee791","study_id":"60edd13110225f80f9f3709b","session_id":"6196c201baff7fb5c96fb664","condition":"contingent","relevant_dimensions":["wings","pattern"],"bee_group":{"antennae":"X","wings":"1","pattern":"D","legs":"X"},"bonus":0.8600000000000007},{"rt":398,"stimulus":"bees-with-color/bee-B2SM.svg","response":1,"trial_type":"image-button-response","trial_index":166,"time_elapsed":1054820,"internal_node_id":"0.0-6.0-0.30","subject_id":"60183e25b4423c05ee0ee791","study_id":"60edd13110225f80f9f3709b","session_id":"6196c201baff7fb5c96fb664","condition":"contingent","relevant_dimensions":["wings","pattern"],"bee_group":{"antennae":"X","wings":"1","pattern":"D","legs":"X"},"bonus":0.8600000000000007},{"rt":1031,"stimulus":"bees-with-color/bee-B2DM.svg","response":1,"trial_type":"image-button-response","trial_index":167,"time_elapsed":1055852,"internal_node_id":"0.0-6.0-0.31","subject_id":"60183e25b4423c05ee0ee791","study_id":"60edd13110225f80f9f3709b","session_id":"6196c201baff7fb5c96fb664","condition":"contingent","relevant_dimensions":["wings","pattern"],"bee_group":{"antennae":"X","wings":"1","pattern":"D","legs":"X"},"bonus":0.8600000000000007},{"rt":8159,"stimulus":"You started with $2.50 of base pay.<br><br>\n            You made $0.86 in bonus pay,\n            for a total of <b>$3.36</b>.","response":0,"trial_type":"html-button-response","trial_index":168,"time_elapsed":1064012,"internal_node_id":"0.0-7.0-0.0","subject_id":"60183e25b4423c05ee0ee791","study_id":"60edd13110225f80f9f3709b","session_id":"6196c201baff7fb5c96fb664","condition":"continge