[{"success":true,"trial_type":"fullscreen","trial_index":0,"time_elapsed":7784,"internal_node_id":"0.0-0.0","subject_id":"614f381c62a00a9deca37834","study_id":"60edd13110225f80f9f3709b","session_id":"6196c4a8df81e93b5fdd6487","condition":"full-information","relevant_dimensions":["wings","pattern"],"bee_group":{"antennae":"X","wings":"2","pattern":"D","legs":"X"},"bonus":0.5600000000000005},{"success":true,"timeout":false,"failed_images":[],"failed_audio":[],"failed_video":[],"trial_type":"preload","trial_index":1,"time_elapsed":10758,"internal_node_id":"0.0-1.0","subject_id":"614f381c62a00a9deca37834","study_id":"60edd13110225f80f9f3709b","session_id":"6196c4a8df81e93b5fdd6487","condition":"full-information","relevant_dimensions":["wings","pattern"],"bee_group":{"antennae":"X","wings":"2","pattern":"D","legs":"X"},"bonus":0.5600000000000005},{"rt":2495.5999999996275,"stimulus":"Welcome! Press any key to begin.","response":" ","trial_type":"html-keyboard-response","trial_index":2,"time_elapsed":13255,"internal_node_id":"0.0-2.0","subject_id":"614f381c62a00a9deca37834","study_id":"60edd13110225f80f9f3709b","session_id":"6196c4a8df81e93b5fdd6487","condition":"full-information","relevant_dimensions":["wings","pattern"],"bee_group":{"antennae":"X","wings":"2","pattern":"D","legs":"X"},"bonus":0.5600000000000005},{"view_history":[{"page_index":0,"viewing_time":4846},{"page_index":1,"viewing_time":13975.799999998882},{"page_index":2,"viewing_time":15841.200000001118},{"page_index":3,"viewing_time":21717.799999998882},{"page_index":4,"viewing_time":8249.400000000373},{"page_index":5,"viewing_time":8561.700000001118},{"page_index":6,"viewing_time":13123.799999998882},{"page_index":7,"viewing_time":7142.800000000745},{"page_index":8,"viewing_time":6515},{"page_index":9,"viewing_time":4296.4000000003725},{"page_index":10,"viewing_time":3410.199999999255},{"page_index":11,"viewing_time":9415.300000000745},{"page_index":12,"viewing_time":14239.39999999851},{"page_index":13,"viewing_time":1848.300000000745},{"page_index":14,"viewing_time":2248.5}],"rt":135432.5,"trial_type":"instructions","trial_index":3,"time_elapsed":148689,"internal_node_id":"0.0-3.0-0.0","subject_id":"614f381c62a00a9deca37834","study_id":"60edd13110225f80f9f3709b","session_id":"6196c4a8df81e93b5fdd6487","condition":"full-information","relevant_dimensions":["wings","pattern"],"bee_group":{"antennae":"X","wings":"2","pattern":"D","legs":"X"},"bonus":0.5600000000000005},{"rt":44314.40000000037,"response":{"Q0":["Two or six legs","Single or double wings","Antennae or no antennae"]},"question_order":[0],"trial_type":"survey-multi-select","trial_index":4,"time_elapsed":193014,"internal_node_id":"0.0-3.0-1.0","subject_id":"614f381c62a00a9deca37834","study_id":"60edd13110225f80f9f3709b","session_id":"6196c4a8df81e93b5fdd6487","condition":"full-information","relevant_dimensions":["wings","pattern"],"bee_group":{"antennae":"X","wings":"2","pattern":"D","legs":"X"},"correct":false,"bonus":0.5600000000000005},{"rt":28761.799999998882,"response":{"Q1":"No.","Q2":"Based on the four features of the bee.","Q3":"You learn if it was friendly or dangerous, but do not alter your bonus."},"question_order":[0,1,2],"trial_type":"survey-multi-choice","trial_index":5,"time_elapsed":221788,"internal_node_id":"0.0-3.0-2.0","subject_id":"614f381c62a00a9deca37834","study_id":"60edd13110225f80f9f3709b","session_id":"6196c4a8df81e93b5fdd6487","condition":"full-information","relevant_dimensions":["wings","pattern"],"bee_group":{"antennae":"X","wings":"2","pattern":"D","legs":"X"},"correct":true,"bonus":0.5600000000000005},{"rt":3221.0999999996275,"stimulus":"<p>You did not answer all comprehension questions correctly.<br>Press <b>continue</b> to review the instructions again.</p>","response":0,"trial_type":"html-button-response","trial_index":6,"time_elapsed":225022,"internal_node_id":"0.0-3.0-3.0","subject_id":"614f381c62a00a9deca37834","study_id":"60edd13110225f80f9f3709b","session_id":"6196c4a8df81e93b5fdd6487","condition":"full-information","relevant_dimensions":["wings","pattern"],"bee_group":{"antennae":"X","wings":"2","pattern":"D","legs":"X"},"bonus":0.5600000000000005},{"view_history":[{"page_index":0,"viewing_time":3603.9000000003725},{"page_index":1,"viewing_time":11733.199999999255},{"page_index":2,"viewing_time":11080.400000000373},{"page_index":3,"viewing_time":9309.5},{"page_index":4,"viewing_time":5788.199999999255},{"page_index":5,"viewing_time":14444.300000000745},{"page_index":6,"viewing_time":5216.699999999255},{"page_index":7,"viewing_time":3562.2000000011176},{"page_index":8,"viewing_time":2966.199999999255},{"page_index":9,"viewing_time":4553},{"page_index":10,"viewing_time":1786.300000000745},{"page_index":11,"viewing_time":3530.199999999255},{"page_index":12,"viewing_time":1768.5999999996275},{"page_index":13,"viewing_time":863.5999999996275},{"page_index":14,"viewing_time":1688}],"rt":81895.59999999963,"trial_type":"instructions","trial_index":7,"time_elapsed":306920,"internal_node_id":"0.0-3.0-4.0-0.0","subject_id":"614f381c62a00a9deca37834","study_id":"60edd13110225f80f9f3709b","session_id":"6196c4a8df81e93b5fdd6487","condition":"full-information","relevant_dimensions":["wings","pattern"],"bee_group":{"antennae":"X","wings":"2","pattern":"D","legs":"X"},"bonus":0.5600000000000005},{"rt":11324.10000000149,"response":{"Q0":["Two or six legs","Stripes or spots on body","Single or double wings","Antennae or no antennae"]},"question_order":[0],"trial_type":"survey-multi-select","trial_index":8,"time_elapsed":318264,"internal_node_id":"0.0-3.0-4.0-1.0","subject_id":"614f381c62a00a9deca37834","study_id":"60edd13110225f80f9f3709b","session_id":"6196c4a8df81e93b5fdd6487","condition":"full-information","relevant_dimensions":["wings","pattern"],"bee_group":{"antennae":"X","wings":"2","pattern":"D","legs":"X"},"correct":true,"bonus":0.5600000000000005},{"rt":15690.099999999627,"response":{"Q1":"No.","Q2":"Based on the four features of the bee.","Q3":"You learn if it was friendly or dangerous, but do not alter your bonus."},"question_order":[0,1,2],"trial_type":"survey-multi-choice","trial_index":9,"time_elapsed":333966,"internal_node_id":"0.0-3.0-4.0-2.0","subject_id":"614f381c62a00a9deca37834","study_id":"60edd13110225f80f9f3709b","session_id":"6196c4a8df81e93b5fdd6487","condition":"full-information","relevant_dimensions":["wings","pattern"],"bee_group":{"antennae":"X","wings":"2","pattern":"D","legs":"X"},"correct":true,"bonus":0.5600000000000005},{"rt":2519.5999999996275,"stimulus":"<p>Congrats, you got everything right<br>When you're ready, click the button below to continue to the experiment.</p>","response":0,"trial_type":"html-button-response","trial_index":10,"time_elapsed":336498,"internal_node_id":"0.0-3.0-4.0-3.0","subject_id":"614f381c62a00a9deca37834","study_id":"60edd13110225f80f9f3709b","session_id":"6196c4a8df81e93b5fdd6487","condition":"full-information","relevant_dimensions":["wings","pattern"],"bee_group":{"antennae":"X","wings":"2","pattern":"D","legs":"X"},"bonus":0.5600000000000005},{"rt":4494.4000000003725,"stimulus":"bees-with-color/bee-A1DF.svg","response":0,"trial_type":"image-button-response","trial_index":11,"time_elapsed":341000,"internal_node_id":"0.0-4.0-0.0","subject_id":"614f381c62a00a9deca37834","study_id":"60edd13110225f80f9f3709b","session_id":"6196c4a8df81e93b5fdd6487","condition":"full-information","relevant_dimensions":["wings","pattern"],"bee_group":{"antennae":"X","wings":"2","pattern":"D","legs":"X"},"action":"harvest","summary":"good-harvest","bonus":0.5600000000000005},{"rt":11181.300000000745,"stimulus":"\n                    <p><b>Action: <em>harvest</em></b></p>\n                    <p>This is the bee that you just saw.</p>\n                    <img src=\"bees-with-color/bee-A1DF.svg\" width=\"200\">\n                    <p><span class=\"greenText\"><b>Successful harvest!</b></span><br>Your pay has increased by $0.02. Your bonus pay is now $0.56.</p>\n            ","response":0,"trial_type":"html-button-response","trial_index":12,"time_elapsed":352189,"internal_node_id":"0.0-4.0-1.0","subject_id":"614f381c62a00a9deca37834","study_id":"60edd13110225f80f9f3709b","session_id":"6196c4a8df81e93b5fdd6487","condition":"full-information","relevant_dimensions":["wings","pattern"],"bee_group":{"antennae":"X","wings":"2","pattern":"D","legs":"X"},"bonus":0.5600000000000005},{"rt":3971,"stimulus":"bees-with-color/bee-A2DM.svg","response":0,"trial_type":"image-button-response","trial_index":13,"time_elapsed":356166,"internal_node_id":"0.0-4.0-0.1","subject_id":"614f381c62a00a9deca37834","study_id":"60edd13110225f80f9f3709b","session_id":"6196c4a8df81e93b5fdd6487","condition":"full-information","relevant_dimensions":["wings","pattern"],"bee_group":{"antennae":"X","wings":"2","pattern":"D","legs":"X"},"action":"harvest","summary":"bad-harvest","bonus":0.5600000000000005},{"rt":5774.699999999255,"stimulus":"\n                    <p><b>Action: <em>harvest</em></b></p>\n                    <p>This is the bee that you just saw.</p>\n                    <img src=\"bees-with-color/bee-A2DM.svg\" width=\"200\">\n                    <p><span class=\"redText\">Bad choice, the bee was angry.</span><br><b>You have been stung!</b><br>Your pay has been decreased by $0.10. Your bonus pay is now $0.46.</p>\n            ","response":0,"trial_type":"html-button-response","trial_index":14,"time_elapsed":361946,"internal_node_id":"0.0-4.0-1.1","subject_id":"614f381c62a00a9deca37834","study_id":"60edd13110225f80f9f3709b","session_id":"6196c4a8df81e93b5fdd6487","condition":"full-information","relevant_dimensions":["wings","pattern"],"bee_group":{"antennae":"X","wings":"2","pattern":"D","legs":"X"},"bonus":0.5600000000000005},{"rt":2916,"stimulus":"bees-with-color/bee-B1SM.svg","response":1,"trial_type":"image-button-response","trial_index":15,"time_elapsed":364868,"internal_node_id":"0.0-4.0-0.2","subject_id":"614f381c62a00a9deca37834","study_id":"60edd13110225f80f9f3709b","session_id":"6196c4a8df81e93b5fdd6487","condition":"full-information","relevant_dimensions":["wings","pattern"],"bee_group":{"antennae":"X","wings":"2","pattern":"D","legs":"X"},"action":"avoid","summary":"bad-avoid","bonus":0.5600000000000005},{"rt":10656.299999998882,"stimulus":"\n                    <p><b>Action: <em>avoid</em></b></p>\n                    <p>This is the bee that you just saw.</p>\n                    <img src=\"bees-with-color/bee-B1SM.svg\" width=\"200\">\n                    <p><span class=\"redText\">Bad choice,</span> the bee was friendly.<br>Your bonus pay is unchanged, and remains at $0.46.</p>\n            ","response":0,"trial_type":"html-button-response","trial_index":16,"time_elapsed":375528,"internal_node_id":"0.0-4.0-1.2","subject_id":"614f381c62a00a9deca37834","study_id":"60edd13110225f80f9f3709b","session_id":"6196c4a8df81e93b5fdd6487","condition":"full-information","relevant_dimensions":["wings","pattern"],"bee_group":{"antennae":"X","wings":"2","pattern":"D","legs":"X"},"bonus":0.5600000000000005},{"rt":5642.299999998882,"stimulus":"bees-with-color/bee-A2SM.svg","response":0,"trial_type":"image-button-response","trial_index":17,"time_elapsed":381175,"internal_node_id":"0.0-4.0-0.3","subject_id":"614f381c62a00a9deca37834","study_id":"60edd13110225f80f9f3709b","session_id":"6196c4a8df81e93b5fdd6487","condition":"full-information","relevant_dimensions":["wings","pattern"],"bee_group":{"antennae":"X","wings":"2","pattern":"D","legs":"X"},"action":"harvest","summary":"good-harvest","bonus":0.5600000000000005},{"rt":9749.299999998882,"stimulus":"\n                    <p><b>Action: <em>harvest</em></b></p>\n                    <p>This is the bee that you just saw.</p>\n                    <img src=\"bees-with-color/bee-A2SM.svg\" width=\"200\">\n                    <p><span class=\"greenText\"><b>Successful harvest!</b></span><br>Your pay has increased by $0.02. Your bonus pay is now $0.48.</p>\n            ","response":0,"trial_type":"html-button-response","trial_index":18,"time_elapsed":390930,"internal_node_id":"0.0-4.0-1.3","subject_id":"614f381c62a00a9deca37834","study_id":"60edd13110225f80f9f3709b","session_id":"6196c4a8df81e93b5fdd6487","condition":"full-information","relevant_dimensions":["wings","pattern"],"bee_group":{"antennae":"X","wings":"2","pattern":"D","legs":"X"},"bonus":0.5600000000000005},{"rt":3010.7999999988824,"stimulus":"bees-with-color/bee-A2DF.svg","response":0,"trial_type":"image-button-response","trial_index":19,"time_elapsed":393946,"internal_node_id":"0.0-4.0-0.4","subject_id":"614f381c62a00a9deca37834","study_id":"60edd13110225f80f9f3709b","session_id":"6196c4a8df81e93b5fdd6487","condition":"full-information","relevant_dimensions":["wings","pattern"],"bee_group":{"antennae":"X","wings":"2","pattern":"D","legs":"X"},"action":"harvest","summary":"bad-harvest","bonus":0.5600000000000005},{"rt":7148.300000000745,"stimulus":"\n                    <p><b>Action: <em>harvest</em></b></p>\n                    <p>This is the bee that you just saw.</p>\n                    <img src=\"bees-with-color/bee-A2DF.svg\" width=\"200\">\n                    <p><span class=\"redText\">Bad choice, the bee was angry.</span><br><b>You have been stung!</b><br>Your pay has been decreased by $0.10. Your bonus pay is now $0.38.</p>\n            ","response":0,"trial_type":"html-button-response","trial_index":20,"time_elapsed":401098,"internal_node_id":"0.0-4.0-1.4","subject_id":"614f381c62a00a9deca37834","study_id":"60edd13110225f80f9f3709b","session_id":"6196c4a8df81e93b5fdd6487","condition":"full-information","relevant_dimensions":["wings","pattern"],"bee_group":{"antennae":"X","wings":"2","pattern":"D","legs":"X"},"bonus":0.5600000000000005},{"rt":5014,"stimulus":"bees-with-color/bee-A1SM.svg","response":1,"trial_type":"image-button-response","trial_index":21,"time_elapsed":406117,"internal_node_id":"0.0-4.0-0.5","subject_id":"614f381c62a00a9deca37834","study_id":"60edd13110225f80f9f3709b","session_id":"6196c4a8df81e93b5fdd6487","condition":"full-information","relevant_dimensions":["wings","pattern"],"bee_group":{"antennae":"X","wings":"2","pattern":"D","legs":"X"},"action":"avoid","summary":"bad-avoid","bonus":0.5600000000000005},{"rt":4735.800000000745,"stimulus":"\n                    <p><b>Action: <em>avoid</em></b></p>\n                    <p>This is the bee that you just saw.</p>\n                    <img src=\"bees-with-color/bee-A1SM.svg\" width=\"200\">\n                    <p><span class=\"redText\">Bad choice,</span> the bee was friendly.<br>Your bonus pay is unchanged, and remains at $0.38.</p>\n            ","response":0,"trial_type":"html-button-response","trial_index":22,"time_elapsed":410857,"internal_node_id":"0.0-4.0-1.5","subject_id":"614f381c62a00a9deca37834","study_id":"60edd13110225f80f9f3709b","session_id":"6196c4a8df81e93b5fdd6487","condition":"full-information","relevant_dimensions":["wings","pattern"],"bee_group":{"antennae":"X","wings":"2","pattern":"D","legs":"X"},"bonus":0.5600000000000005},{"rt":2061.199999999255,"stimulus":"bees-with-color/bee-B1SF.svg","response":0,"trial_type":"image-button-response","trial_index":23,"time_elapsed":412925,"internal_node_id":"0.0-4.0-0.6","subject_id":"614f381c62a00a9deca37834","study_id":"60edd13110225f80f9f3709b","session_id":"6196c4a8df81e93b5fdd6487","condition":"full-information","relevant_dimensions":["wings","pattern"],"bee_group":{"antennae":"X","wings":"2","pattern":"D","legs":"X"},"action":"harvest","summary":"good-harvest","bonus":0.5600000000000005},{"rt":10132.099999999627,"stimulus":"\n                    <p><b>Action: <em>harvest</em></b></p>\n                    <p>This is the bee that you just saw.</p>\n                    <img src=\"bees-with-color/bee-B1SF.svg\" width=\"200\">\n                    <p><span class=\"greenText\"><b>Successful harvest!</b></span><br>Your pay has increased by $0.02. Your bonus pay is now $0.40.</p>\n            ","response":0,"trial_type":"html-button-response","trial_index":24,"time_elapsed":423062,"internal_node_id":"0.0-4.0-1.6","subject_id":"614f381c62a00a9deca37834","study_id":"60edd13110225f80f9f3709b","session_id":"6196c4a8df81e93b5fdd6487","condition":"full-information","relevant_dimensions":["wings","pattern"],"bee_group":{"antennae":"X","wings":"2","pattern":"D","legs":"X"},"bonus":0.5600000000000005},{"rt":3306.5,"stimulus":"bees-with-color/bee-A1DM.svg","response":1,"trial_type":"image-button-response","trial_index":25,"time_elapsed":426372,"internal_node_id":"0.0-4.0-0.7","subject_id":"614f381c62a00a9deca37834","study_id":"60edd13110225f80f9f3709b","session_id":"6196c4a8df81e93b5fdd6487","condition":"full-information","relevant_dimensions":["wings","pattern"],"bee_group":{"antennae":"X","wings":"2","pattern":"D","legs":"X"},"action":"avoid","summary":"bad-avoid","bonus":0.5600000000000005},{"rt":3867.9000000003725,"stimulus":"\n                    <p><b>Action: <em>avoid</em></b></p>\n                    <p>This is the bee that you just saw.</p>\n                    <img src=\"bees-with-color/bee-A1DM.svg\" width=\"200\">\n                    <p><span class=\"redText\">Bad choice,</span> the bee was friendly.<br>Your bonus pay is unchanged, and remains at $0.40.</p>\n            ","response":0,"trial_type":"html-button-response","trial_index":26,"time_elapsed":430243,"internal_node_id":"0.0-4.0-1.7","subject_id":"614f381c62a00a9deca37834","study_id":"60edd13110225f80f9f3709b","session_id":"6196c4a8df81e93b5fdd6487","condition":"full-information","relevant_dimensions":["wings","pattern"],"bee_group":{"antennae":"X","wings":"2","pattern":"D","legs":"X"},"bonus":0.5600000000000005},{"rt":2047.5999999996275,"stimulus":"bees-with-color/bee-B2DF.svg","response":1,"trial_type":"image-button-response","trial_index":27,"time_elapsed":432296,"internal_node_id":"0.0-4.0-0.8","subject_id":"614f381c62a00a9deca37834","study_id":"60edd13110225f80f9f3709b","session_id":"6196c4a8df81e93b5fdd6487","condition":"full-information","relevant_dimensions":["wings","pattern"],"bee_group":{"antennae":"X","wings":"2","pattern":"D","legs":"X"},"action":"avoid","summary":"good-avoid","bonus":0.5600000000000005},{"rt":3291.5999999996275,"stimulus":"\n                    <p><b>Action: <em>avoid</em></b></p>\n                    <p>This is the bee that you just saw.</p>\n                    <img src=\"bees-with-color/bee-B2DF.svg\" width=\"200\">\n                    <p><span class=\"greenText\">Good choice!</span>  This bee would have stung you.<br>Your bonus pay is unchanged, and remains at $0.40.</p>\n            ","response":0,"trial_type":"html-button-response","trial_index":28,"time_elapsed":435591,"internal_node_id":"0.0-4.0-1.8","subject_id":"614f381c62a00a9deca37834","study_id":"60edd13110225f80f9f3709b","session_id":"6196c4a8df81e93b5fdd6487","condition":"full-information","relevant_dimensions":["wings","pattern"],"bee_group":{"antennae":"X","wings":"2","pattern":"D","legs":"X"},"bonus":0.5600000000000005},{"rt":4691.700000001118,"stimulus":"bees-with-color/bee-B2DM.svg","response":1,"trial_type":"image-button-response","trial_index":29,"time_elapsed":440287,"internal_node_id":"0.0-4.0-0.9","subject_id":"614f381c62a00a9deca37834","study_id":"60edd13110225f80f9f3709b","session_id":"6196c4a8df81e93b5fdd6487","condition":"full-information","relevant_dimensions":["wings","pattern"],"bee_group":{"antennae":"X","wings":"2","pattern":"D","legs":"X"},"action":"avoid","summary":"good-avoid","bonus":0.5600000000000005},{"rt":2725,"stimulus":"\n                    <p><b>Action: <em>avoid</em></b></p>\n                    <p>This is the bee that you just saw.</p>\n                    <img src=\"bees-with-color/bee-B2DM.svg\" width=\"200\">\n                    <p><span class=\"greenText\">Good choice!</span>  This bee would have stung you.<br>Your bonus pay is unchanged, and remains at $0.40.</p>\n            ","response":0,"trial_type":"html-button-response","trial_index":30,"time_elapsed":443016,"internal_node_id":"0.0-4.0-1.9","subject_id":"614f381c62a00a9deca37834","study_id":"60edd13110225f80f9f3709b","session_id":"6196c4a8df81e93b5fdd6487","condition":"full-information","relevant_dimensions":["wings","pattern"],"bee_group":{"antennae":"X","wings":"2","pattern":"D","legs":"X"},"bonus":0.5600000000000005},{"rt":2145.60000000149,"stimulus":"bees-with-color/bee-A2SF.svg","response":0,"trial_type":"image-button-response","trial_index":31,"time_elapsed":445167,"internal_node_id":"0.0-4.0-0.10","subject_id":"614f381c62a00a9deca37834","study_id":"60edd13110225f80f9f3709b","session_id":"6196c4a8df81e93b5fdd6487","condition":"full-information","relevant_dimensions":["wings","pattern"],"bee_group":{"antennae":"X","wings":"2","pattern":"D","legs":"X"},"action":"harvest","summary":"good-harvest","bonus":0.5600000000000005},{"rt":5242.9000000003725,"stimulus":"\n                    <p><b>Action: <em>harvest</em></b></p>\n                    <p>This is the bee that you just saw.</p>\n                    <img src=\"bees-with-color/bee-A2SF.svg\" width=\"200\">\n                    <p><span class=\"greenText\"><b>Successful harvest!</b></span><br>Your pay has increased by $0.02. Your bonus pay is now $0.42.</p>\n            ","response":0,"trial_type":"html-button-response","trial_index":32,"time_elapsed":450414,"internal_node_id":"0.0-4.0-1.10","subject_id":"614f381c62a00a9deca37834","study_id":"60edd13110225f80f9f3709b","session_id":"6196c4a8df81e93b5fdd6487","condition":"full-information","relevant_dimensions":["wings","pattern"],"bee_group":{"antennae":"X","wings":"2","pattern":"D","legs":"X"},"bonus":0.5600000000000005},{"rt":1837.300000000745,"stimulus":"bees-with-color/bee-B2SF.svg","response":1,"trial_type":"image-button-response","trial_index":33,"time_elapsed":452256,"internal_node_id":"0.0-4.0-0.11","subject_id":"614f381c62a00a9deca37834","study_id":"60edd13110225f80f9f3709b","session_id":"6196c4a8df81e93b5fdd6487","condition":"full-information","relevant_dimensions":["wings","pattern"],"bee_group":{"antennae":"X","wings":"2","pattern":"D","legs":"X"},"action":"avoid","summary":"bad-avoid","bonus":0.5600000000000005},{"rt":3045.0999999996275,"stimulus":"\n                    <p><b>Action: <em>avoid</em></b></p>\n                    <p>This is the bee that you just saw.</p>\n                    <img src=\"bees-with-color/bee-B2SF.svg\" width=\"200\">\n                    <p><span class=\"redText\">Bad choice,</span> the bee was friendly.<br>Your bonus pay is unchanged, and remains at $0.42.</p>\n            ","response":0,"trial_type":"html-button-response","trial_index":34,"time_elapsed":455305,"internal_node_id":"0.0-4.0-1.11","subject_id":"614f381c62a00a9deca37834","study_id":"60edd13110225f80f9f3709b","session_id":"6196c4a8df81e93b5fdd6487","condition":"full-information","relevant_dimensions":["wings","pattern"],"bee_group":{"antennae":"X","wings":"2","pattern":"D","legs":"X"},"bonus":0.5600000000000005},{"rt":3996,"stimulus":"bees-with-color/bee-A1SF.svg","response":0,"trial_type":"image-button-response","trial_index":35,"time_elapsed":459306,"internal_node_id":"0.0-4.0-0.12","subject_id":"614f381c62a00a9deca37834","study_id":"60edd13110225f80f9f3709b","session_id":"6196c4a8df81e93b5fdd6487","condition":"full-information","relevant_dimensions":["wings","pattern"],"bee_group":{"antennae":"X","wings":"2","pattern":"D","legs":"X"},"action":"harvest","summary":"good-harvest","bonus":0.5600000000000005},{"rt":1914.9000000003725,"stimulus":"\n                    <p><b>Action: <em>harvest</em></b></p>\n                    <p>This is the bee that you just saw.</p>\n                    <img src=\"bees-with-color/bee-A1SF.svg\" width=\"200\">\n                    <p><span class=\"greenText\"><b>Successful harvest!</b></span><br>Your pay has increased by $0.02. Your bonus pay is now $0.44.</p>\n            ","response":0,"trial_type":"html-button-response","trial_index":36,"time_elapsed":461226,"internal_node_id":"0.0-4.0-1.12","subject_id":"614f381c62a00a9deca37834","study_id":"60edd13110225f80f9f3709b","session_id":"6196c4a8df81e93b5fdd6487","condition":"full-information","relevant_dimensions":["wings","pattern"],"bee_group":{"antennae":"X","wings":"2","pattern":"D","legs":"X"},"bonus":0.5600000000000005},{"rt":6178.200000001118,"stimulus":"bees-with-color/bee-B2SM.svg","response":1,"trial_type":"image-button-response","trial_index":37,"time_elapsed":467409,"internal_node_id":"0.0-4.0-0.13","subject_id":"614f381c62a00a9deca37834","study_id":"60edd13110225f80f9f3709b","session_id":"6196c4a8df81e93b5fdd6487","condition":"full-information","relevant_dimensions":["wings","pattern"],"bee_group":{"antennae":"X","wings":"2","pattern":"D","legs":"X"},"action":"avoid","summary":"bad-avoid","bonus":0.5600000000000005},{"rt":2356.699999999255,"stimulus":"\n                    <p><b>Action: <em>avoid</em></b></p>\n                    <p>This is the bee that you just saw.</p>\n                    <img src=\"bees-with-color/bee-B2SM.svg\" width=\"200\">\n                    <p><span class=\"redText\">Bad choice,</span> the bee was friendly.<br>Your bonus pay is unchanged, and remains at $0.44.</p>\n            ","response":0,"trial_type":"html-button-response","trial_index":38,"time_elapsed":469768,"internal_node_id":"0.0-4.0-1.13","subject_id":"614f381c62a00a9deca37834","study_id":"60edd13110225f80f9f3709b","session_id":"6196c4a8df81e93b5fdd6487","condition":"full-information","relevant_dimensions":["wings","pattern"],"bee_group":{"antennae":"X","wings":"2","pattern":"D","legs":"X"},"bonus":0.5600000000000005},{"rt":2489,"stimulus":"bees-with-color/bee-B1DF.svg","response":1,"trial_type":"image-button-response","trial_index":39,"time_elapsed":472261,"internal_node_id":"0.0-4.0-0.14","subject_id":"614f381c62a00a9deca37834","study_id":"60edd13110225f80f9f3709b","session_id":"6196c4a8df81e93b5fdd6487","condition":"full-information","relevant_dimensions":["wings","pattern"],"bee_group":{"antennae":"X","wings":"2","pattern":"D","legs":"X"},"action":"avoid","summary":"bad-avoid","bonus":0.5600000000000005},{"rt":1894.5999999996275,"stimulus":"\n                    <p><b>Action: <em>avoid</em></b></p>\n                    <p>This is the bee that you just saw.</p>\n                    <img src=\"bees-with-color/bee-B1DF.svg\" width=\"200\">\n                    <p><span class=\"redText\">Bad choice,</span> the bee was friendly.<br>Your bonus pay is unchanged, and remains at $0.44.</p>\n            ","response":0,"trial_type":"html-button-response","trial_index":40,"time_elapsed":474159,"internal_node_id":"0.0-4.0-1.14","subject_id":"614f381c62a00a9deca37834","study_id":"60edd13110225f80f9f3709b","session_id":"6196c4a8df81e93b5fdd6487","condition":"full-information","relevant_dimensions":["wings","pattern"],"bee_group":{"antennae":"X","wings":"2","pattern":"D","legs":"X"},"bonus":0.5600000000000005},{"rt":2785.800000000745,"stimulus":"bees-with-color/bee-B1DM.svg","response":0,"trial_type":"image-button-response","trial_index":41,"time_elapsed":476949,"internal_node_id":"0.0-4.0-0.15","subject_id":"614f381c62a00a9deca37834","study_id":"60edd13110225f80f9f3709b","session_id":"6196c4a8df81e93b5fdd6487","condition":"full-information","relevant_dimensions":["wings","pattern"],"bee_group":{"antennae":"X","wings":"2","pattern":"D","legs":"X"},"action":"harvest","summary":"good-harvest","bonus":0.5600000000000005},{"rt":2865.39999999851,"stimulus":"\n                    <p><b>Action: <em>harvest</em></b></p>\n                    <p>This is the bee that you just saw.</p>\n                    <img src=\"bees-with-color/bee-B1DM.svg\" width=\"200\">\n                    <p><span class=\"greenText\"><b>Successful harvest!</b></span><br>Your pay has increased by $0.02. Your bonus pay is now $0.46.</p>\n            ","response":0,"trial_type":"html-button-response","trial_index":42,"time_elapsed":479818,"internal_node_id":"0.0-4.0-1.15","subject_id":"614f381c62a00a9deca37834","study_id":"60edd13110225f80f9f3709b","session_id":"6196c4a8df81e93b5fdd6487","condition":"full-information","relevant_dimensions":["wings","pattern"],"bee_group":{"antennae":"X","wings":"2","pattern":"D","legs":"X"},"bonus":0.5600000000000005},{"rt":1538.199999999255,"stimulus":"bees-with-color/bee-A2SF.svg","response":1,"trial_type":"image-button-response","trial_index":43,"time_elapsed":481360,"internal_node_id":"0.0-4.0-0.16","subject_id":"614f381c62a00a9deca37834","study_id":"60edd13110225f80f9f3709b","session_id":"6196c4a8df81e93b5fdd6487","condition":"full-information","relevant_dimensions":["wings","pattern"],"bee_group":{"antennae":"X","wings":"2","pattern":"D","legs":"X"},"action":"avoid","summary":"bad-avoid","bonus":0.5600000000000005},{"rt":1585.5,"stimulus":"\n                    <p><b>Action: <em>avoid</em></b></p>\n                    <p>This is the bee that you just saw.</p>\n                    <img src=\"bees-with-color/bee-A2SF.svg\" width=\"200\">\n                    <p><span class=\"redText\">Bad choice,</span> the bee was friendly.<br>Your bonus pay is unchanged, and remains at $0.46.</p>\n            ","response":0,"trial_type":"html-button-response","trial_index":44,"time_elapsed":482949,"internal_node_id":"0.0-4.0-1.16","subject_id":"614f381c62a00a9deca37834","study_id":"60edd13110225f80f9f3709b","session_id":"6196c4a8df81e93b5fdd6487","condition":"full-information","relevant_dimensions":["wings","pattern"],"bee_group":{"antennae":"X","wings":"2","pattern":"D","legs":"X"},"bonus":0.5600000000000005},{"rt":1730.699999999255,"stimulus":"bees-with-color/bee-A1SM.svg","response":1,"trial_type":"image-button-response","trial_index":45,"time_elapsed":484682,"internal_node_id":"0.0-4.0-0.17","subject_id":"614f381c62a00a9deca37834","study_id":"60edd13110225f80f9f3709b","session_id":"6196c4a8df81e93b5fdd6487","condition":"full-information","relevant_dimensions":["wings","pattern"],"bee_group":{"antennae":"X","wings":"2","pattern":"D","legs":"X"},"action":"avoid","summary":"bad-avoid","bonus":0.5600000000000005},{"rt":1825.5,"stimulus":"\n                    <p><b>Action: <em>avoid</em></b></p>\n                    <p>This is the bee that you just saw.</p>\n                    <img src=\"bees-with-color/bee-A1SM.svg\" width=\"200\">\n                    <p><span class=\"redText\">Bad choice,</span> the bee was friendly.<br>Your bonus pay is unchanged, and remains at $0.46.</p>\n            ","response":0,"trial_type":"html-button-response","trial_index":46,"time_elapsed":486511,"internal_node_id":"0.0-4.0-1.17","subject_id":"614f381c62a00a9deca37834","study_id":"60edd13110225f80f9f3709b","session_id":"6196c4a8df81e93b5fdd6487","condition":"full-information","relevant_dimensions":["wings","pattern"],"bee_group":{"antennae":"X","wings":"2","pattern":"D","legs":"X"},"bonus":0.5600000000000005},{"rt":2159.699999999255,"stimulus":"bees-with-color/bee-B2DF.svg","response":0,"trial_type":"image-button-response","trial_index":47,"time_elapsed":488675,"internal_node_id":"0.0-4.0-0.18","subject_id":"614f381c62a00a9deca37834","study_id":"60edd13110225f80f9f3709b","session_id":"6196c4a8df81e93b5fdd6487","condition":"full-information","relevant_dimensions":["wings","pattern"],"bee_group":{"antennae":"X","wings":"2","pattern":"D","legs":"X"},"action":"harvest","summary":"bad-harvest","bonus":0.5600000000000005},{"rt":1819.4000000003725,"stimulus":"\n                    <p><b>Action: <em>harvest</em></b></p>\n                    <p>This is the bee that you just saw.</p>\n                    <img src=\"bees-with-color/bee-B2DF.svg\" width=\"200\">\n                    <p><span class=\"redText\">Bad choice, the bee was angry.</span><br><b>You have been stung!</b><br>Your pay has been decreased by $0.10. Your bonus pay is now $0.36.</p>\n            ","response":0,"trial_type":"html-button-response","trial_index":48,"time_elapsed":490499,"internal_node_id":"0.0-4.0-1.18","subject_id":"614f381c62a00a9deca37834","study_id":"60edd13110225f80f9f3709b","session_id":"6196c4a8df81e93b5fdd6487","condition":"full-information","relevant_dimensions":["wings","pattern"],"bee_group":{"antennae":"X","wings":"2","pattern":"D","legs":"X"},"bonus":0.5600000000000005},{"rt":2616.800000000745,"stimulus":"bees-with-color/bee-A1DF.svg","response":0,"trial_type":"image-button-response","trial_index":49,"time_elapsed":493120,"internal_node_id":"0.0-4.0-0.19","subject_id":"614f381c62a00a9deca37834","study_id":"60edd13110225f80f9f3709b","session_id":"6196c4a8df81e93b5fdd6487","condition":"full-information","relevant_dimensions":["wings","pattern"],"bee_group":{"antennae":"X","wings":"2","pattern":"D","legs":"X"},"action":"harvest","summary":"good-harvest","bonus":0.5600000000000005},{"rt":1169,"stimulus":"\n                    <p><b>Action: <em>harvest</em></b></p>\n                    <p>This is the bee that you just saw.</p>\n                    <img src=\"bees-with-color/bee-A1DF.svg\" width=\"200\">\n                    <p><span class=\"greenText\"><b>Successful harvest!</b></span><br>Your pay has increased by $0.02. Your bonus pay is now $0.38.</p>\n            ","response":0,"trial_type":"html-button-response","trial_index":50,"time_elapsed":494293,"internal_node_id":"0.0-4.0-1.19","subject_id":"614f381c62a00a9deca37834","study_id":"60edd13110225f80f9f3709b","session_id":"6196c4a8df81e93b5fdd6487","condition":"full-information","relevant_dimensions":["wings","pattern"],"bee_group":{"antennae":"X","wings":"2","pattern":"D","legs":"X"},"bonus":0.5600000000000005},{"rt":1879.699999999255,"stimulus":"bees-with-color/bee-B2SM.svg","response":1,"trial_type":"image-button-response","trial_index":51,"time_elapsed":496177,"internal_node_id":"0.0-4.0-0.20","subject_id":"614f381c62a00a9deca37834","study_id":"60edd13110225f80f9f3709b","session_id":"6196c4a8df81e93b5fdd6487","condition":"full-information","relevant_dimensions":["wings","pattern"],"bee_group":{"antennae":"X","wings":"2","pattern":"D","legs":"X"},"action":"avoid","summary":"bad-avoid","bonus":0.5600000000000005},{"rt":1155.699999999255,"stimulus":"\n                    <p><b>Action: <em>avoid</em></b></p>\n                    <p>This is the bee that you just saw.</p>\n                    <img src=\"bees-with-color/bee-B2SM.svg\" width=\"200\">\n                    <p><span class=\"redText\">Bad choice,</span> the bee was friendly.<br>Your bonus pay is unchanged, and remains at $0.38.</p>\n            ","response":0,"trial_type":"html-button-response","trial_index":52,"time_elapsed":497337,"internal_node_id":"0.0-4.0-1.20","subject_id":"614f381c62a00a9deca37834","study_id":"60edd13110225f80f9f3709b","session_id":"6196c4a8df81e93b5fdd6487","condition":"full-information","relevant_dimensions":["wings","pattern"],"bee_group":{"antennae":"X","wings":"2","pattern":"D","legs":"X"},"bonus":0.5600000000000005},{"rt":2617.300000000745,"stimulus":"bees-with-color/bee-B2DM.svg","response":0,"trial_type":"image-button-response","trial_index":53,"time_elapsed":499959,"internal_node_id":"0.0-4.0-0.21","subject_id":"614f381c62a00a9deca37834","study_id":"60edd13110225f80f9f3709b","session_id":"6196c4a8df81e93b5fdd6487","condition":"full-information","relevant_dimensions":["wings","pattern"],"bee_group":{"antennae":"X","wings":"2","pattern":"D","legs":"X"},"action":"harvest","summary":"bad-harvest","bonus":0.5600000000000005},{"rt":1661.3999999985099,"stimulus":"\n                    <p><b>Action: <em>harvest</em></b></p>\n                    <p>This is the bee that you just saw.</p>\n                    <img src=\"bees-with-color/bee-B2DM.svg\" width=\"200\">\n                    <p><span class=\"redText\">Bad choice, the bee was angry.</span><br><b>You have been stung!</b><br>Your pay has been decreased by $0.10. Your bonus pay is now $0.28.</p>\n            ","response":0,"trial_type":"html-button-response","trial_index":54,"time_elapsed":501623,"internal_node_id":"0.0-4.0-1.21","subject_id":"614f381c62a00a9deca37834","study_id":"60edd13110225f80f9f3709b","session_id":"6196c4a8df81e93b5fdd6487","condition":"full-information","relevant_dimensions":["wings","pattern"],"bee_group":{"antennae":"X","wings":"2","pattern":"D","legs":"X"},"bonus":0.5600000000000005},{"rt":2499.7999999988824,"stimulus":"bees-with-color/bee-B1SM.svg","response":0,"trial_type":"image-button-response","trial_index":55,"time_elapsed":504128,"internal_node_id":"0.0-4.0-0.22","subject_id":"614f381c62a00a9deca37834","study_id":"60edd13110225f80f9f3709b","session_id":"6196c4a8df81e93b5fdd6487","condition":"full-information","relevant_dimensions":["wings","pattern"],"bee_group":{"antennae":"X","wings":"2","pattern":"D","legs":"X"},"action":"harvest","summary":"good-harvest","bonus":0.5600000000000005},{"rt":1392.5,"stimulus":"\n                    <p><b>Action: <em>harvest</em></b></p>\n                    <p>This is the bee that you just saw.</p>\n                    <img src=\"bees-with-color/bee-B1SM.svg\" width=\"200\">\n                    <p><span class=\"greenText\"><b>Successful harvest!</b></span><br>Your pay has increased by $0.02. Your bonus pay is now $0.30.</p>\n            ","response":0,"trial_type":"html-button-response","trial_index":56,"time_elapsed":505525,"internal_node_id":"0.0-4.0-1.22","subject_id":"614f381c62a00a9deca37834","study_id":"60edd13110225f80f9f3709b","session_id":"6196c4a8df81e93b5fdd6487","condition":"full-information","relevant_dimensions":["wings","pattern"],"bee_group":{"antennae":"X","wings":"2","pattern":"D","legs":"X"},"bonus":0.5600000000000005},{"rt":2617.5,"stimulus":"bees-with-color/bee-A2SM.svg","response":1,"trial_type":"image-button-response","trial_index":57,"time_elapsed":508147,"internal_node_id":"0.0-4.0-0.23","subject_id":"614f381c62a00a9deca37834","study_id":"60edd13110225f80f9f3709b","session_id":"6196c4a8df81e93b5fdd6487","condition":"full-information","relevant_dimensions":["wings","pattern"],"bee_group":{"antennae":"X","wings":"2","pattern":"D","legs":"X"},"action":"avoid","summary":"bad-avoid","bonus":0.5600000000000005},{"rt":1635,"stimulus":"\n                    <p><b>Action: <em>avoid</em></b></p>\n                    <p>This is the bee that you just saw.</p>\n                    <img src=\"bees-with-color/bee-A2SM.svg\" width=\"200\">\n                    <p><span class=\"redText\">Bad choice,</span> the bee was friendly.<br>Your bonus pay is unchanged, and remains at $0.30.</p>\n            ","response":0,"trial_type":"html-button-response","trial_index":58,"time_elapsed":509785,"internal_node_id":"0.0-4.0-1.23","subject_id":"614f381c62a00a9deca37834","study_id":"60edd13110225f80f9f3709b","session_id":"6196c4a8df81e93b5fdd6487","condition":"full-information","relevant_dimensions":["wings","pattern"],"bee_group":{"antennae":"X","wings":"2","pattern":"D","legs":"X"},"bonus":0.5600000000000005},{"rt":4325.9000000003725,"stimulus":"bees-with-color/bee-B1DF.svg","response":1,"trial_type":"image-button-response","trial_index":59,"time_elapsed":514114,"internal_node_id":"0.0-4.0-0.24","subject_id":"614f381c62a00a9deca37834","study_id":"60edd13110225f80f9f3709b","session_id":"6196c4a8df81e93b5fdd6487","condition":"full-information","relevant_dimensions":["wings","pattern"],"bee_group":{"antennae":"X","wings":"2","pattern":"D","legs":"X"},"action":"avoid","summary":"bad-avoid","bonus":0.5600000000000005},{"rt":1476,"stimulus":"\n                    <p><b>Action: <em>avoid</em></b></p>\n                    <p>This is the bee that you just saw.</p>\n                    <img src=\"bees-with-color/bee-B1DF.svg\" width=\"200\">\n                    <p><span class=\"redText\">Bad choice,</span> the bee was friendly.<br>Your bonus pay is unchanged, and remains at $0.30.</p>\n            ","response":0,"trial_type":"html-button-response","trial_index":60,"time_elapsed":515593,"internal_node_id":"0.0-4.0-1.24","subject_id":"614f381c62a00a9deca37834","study_id":"60edd13110225f80f9f3709b","session_id":"6196c4a8df81e93b5fdd6487","condition":"full-information","relevant_dimensions":["wings","pattern"],"bee_group":{"antennae":"X","wings":"2","pattern":"D","legs":"X"},"bonus":0.5600000000000005},{"rt":1542.0999999996275,"stimulus":"bees-with-color/bee-A1SF.svg","response":0,"trial_type":"image-button-response","trial_index":61,"time_elapsed":517139,"internal_node_id":"0.0-4.0-0.25","subject_id":"614f381c62a00a9deca37834","study_id":"60edd13110225f80f9f3709b","session_id":"6196c4a8df81e93b5fdd6487","condition":"full-information","relevant_dimensions":["wings","pattern"],"bee_group":{"antennae":"X","wings":"2","pattern":"D","legs":"X"},"action":"harvest","summary":"good-harvest","bonus":0.5600000000000005},{"rt":1513.4000000003725,"stimulus":"\n                    <p><b>Action: <em>harvest</em></b></p>\n                    <p>This is the bee that you just saw.</p>\n                    <img src=\"bees-with-color/bee-A1SF.svg\" width=\"200\">\n                    <p><span class=\"greenText\"><b>Successful harvest!</b></span><br>Your pay has increased by $0.02. Your bonus pay is now $0.32.</p>\n            ","response":0,"trial_type":"html-button-response","trial_index":62,"time_elapsed":518656,"internal_node_id":"0.0-4.0-1.25","subject_id":"614f381c62a00a9deca37834","study_id":"60edd13110225f80f9f3709b","session_id":"6196c4a8df81e93b5fdd6487","condition":"full-information","relevant_dimensions":["wings","pattern"],"bee_group":{"antennae":"X","wings":"2","pattern":"D","legs":"X"},"bonus":0.5600000000000005},{"rt":2129.5999999996275,"stimulus":"bees-with-color/bee-B1DM.svg","response":0,"trial_type":"image-button-response","trial_index":63,"time_elapsed":520787,"internal_node_id":"0.0-4.0-0.26","subject_id":"614f381c62a00a9deca37834","study_id":"60edd13110225f80f9f3709b","session_id":"6196c4a8df81e93b5fdd6487","condition":"full-information","relevant_dimensions":["wings","pattern"],"bee_group":{"antennae":"X","wings":"2","pattern":"D","legs":"X"},"action":"harvest","summary":"good-harvest","bonus":0.5600000000000005},{"rt":2020.5,"stimulus":"\n                    <p><b>Action: <em>harvest</em></b></p>\n                    <p>This is the bee that you just saw.</p>\n                    <img src=\"bees-with-color/bee-B1DM.svg\" width=\"200\">\n                    <p><span class=\"greenText\"><b>Successful harvest!</b></span><br>Your pay has increased by $0.02. Your bonus pay is now $0.34.</p>\n            ","response":0,"trial_type":"html-button-response","trial_index":64,"time_elapsed":522811,"internal_node_id":"0.0-4.0-1.26","subject_id":"614f381c62a00a9deca37834","study_id":"60edd13110225f80f9f3709b","session_id":"6196c4a8df81e93b5fdd6487","condition":"full-information","relevant_dimensions":["wings","pattern"],"bee_group":{"antennae":"X","wings":"2","pattern":"D","legs":"X"},"bonus":0.5600000000000005},{"rt":2131.4000000003725,"stimulus":"bees-with-color/bee-A2DF.svg","response":1,"trial_type":"image-button-response","trial_index":65,"time_elapsed":524947,"internal_node_id":"0.0-4.0-0.27","subject_id":"614f381c62a00a9deca37834","study_id":"60edd13110225f80f9f3709b","session_id":"6196c4a8df81e93b5fdd6487","condition":"full-information","relevant_dimensions":["wings","pattern"],"bee_group":{"antennae":"X","wings":"2","pattern":"D","legs":"X"},"action":"avoid","summary":"good-avoid","bonus":0.5600000000000005},{"rt":1907.4000000003725,"stimulus":"\n                    <p><b>Action: <em>avoid</em></b></p>\n                    <p>This is the bee that you just saw.</p>\n                    <img src=\"bees-with-color/bee-A2DF.svg\" width=\"200\">\n                    <p><span class=\"greenText\">Good choice!</span>  This bee would have stung you.<br>Your bonus pay is unchanged, and remains at $0.34.</p>\n            ","response":0,"trial_type":"html-button-response","trial_index":66,"time_elapsed":526859,"internal_node_id":"0.0-4.0-1.27","subject_id":"614f381c62a00a9deca37834","study_id":"60edd13110225f80f9f3709b","session_id":"6196c4a8df81e93b5fdd6487","condition":"full-information","relevant_dimensions":["wings","pattern"],"bee_group":{"antennae":"X","wings":"2","pattern":"D","legs":"X"},"bonus":0.5600000000000005},{"rt":2654.9000000003725,"stimulus":"bees-with-color/bee-A2DM.svg","response":0,"trial_type":"image-button-response","trial_index":67,"time_elapsed":529518,"internal_node_id":"0.0-4.0-0.28","subject_id":"614f381c62a00a9deca37834","study_id":"60edd13110225f80f9f3709b","session_id":"6196c4a8df81e93b5fdd6487","condition":"full-information","relevant_dimensions":["wings","pattern"],"bee_group":{"antennae":"X","wings":"2","pattern":"D","legs":"X"},"action":"harvest","summary":"bad-harvest","bonus":0.5600000000000005},{"rt":1173.8999999985099,"stimulus":"\n                    <p><b>Action: <em>harvest</em></b></p>\n                    <p>This is the bee that you just saw.</p>\n                    <img src=\"bees-with-color/bee-A2DM.svg\" width=\"200\">\n                    <p><span class=\"redText\">Bad choice, the bee was angry.</span><br><b>You have been stung!</b><br>Your pay has been decreased by $0.10. Your bonus pay is now $0.24.</p>\n            ","response":0,"trial_type":"html-button-response","trial_index":68,"time_elapsed":530695,"internal_node_id":"0.0-4.0-1.28","subject_id":"614f381c62a00a9deca37834","study_id":"60edd13110225f80f9f3709b","session_id":"6196c4a8df81e93b5fdd6487","condition":"full-information","relevant_dimensions":["wings","pattern"],"bee_group":{"antennae":"X","wings":"2","pattern":"D","legs":"X"},"bonus":0.5600000000000005},{"rt":3756.199999999255,"stimulus":"bees-with-color/bee-A1DM.svg","response":1,"trial_type":"image-button-response","trial_index":69,"time_elapsed":534454,"internal_node_id":"0.0-4.0-0.29","subject_id":"614f381c62a00a9deca37834","study_id":"60edd13110225f80f9f3709b","session_id":"6196c4a8df81e93b5fdd6487","condition":"full-information","relevant_dimensions":["wings","pattern"],"bee_group":{"antennae":"X","wings":"2","pattern":"D","legs":"X"},"action":"avoid","summary":"bad-avoid","bonus":0.5600000000000005},{"rt":1514.5,"stimulus":"\n                    <p><b>Action: <em>avoid</em></b></p>\n                    <p>This is the bee that you just saw.</p>\n                    <img src=\"bees-with-color/bee-A1DM.svg\" width=\"200\">\n                    <p><span class=\"redText\">Bad choice,</span> the bee was friendly.<br>Your bonus pay is unchanged, and remains at $0.24.</p>\n            ","response":0,"trial_type":"html-button-response","trial_index":70,"time_elapsed":535973,"internal_node_id":"0.0-4.0-1.29","subject_id":"614f381c62a00a9deca37834","study_id":"60edd13110225f80f9f3709b","session_id":"6196c4a8df81e93b5fdd6487","condition":"full-information","relevant_dimensions":["wings","pattern"],"bee_group":{"antennae":"X","wings":"2","pattern":"D","legs":"X"},"bonus":0.5600000000000005},{"rt":2706.699999999255,"stimulus":"bees-with-color/bee-B1SF.svg","response":1,"trial_type":"image-button-response","trial_index":71,"time_elapsed":538684,"internal_node_id":"0.0-4.0-0.30","subject_id":"614f381c62a00a9deca37834","study_id":"60edd13110225f80f9f3709b","session_id":"6196c4a8df81e93b5fdd6487","condition":"full-information","relevant_dimensions":["wings","pattern"],"bee_group":{"antennae":"X","wings":"2","pattern":"D","legs":"X"},"action":"avoid","summary":"bad-avoid","bonus":0.5600000000000005},{"rt":1025.300000000745,"stimulus":"\n                    <p><b>Action: <em>avoid</em></b></p>\n                    <p>This is the bee that you just saw.</p>\n                    <img src=\"bees-with-color/bee-B1SF.svg\" width=\"200\">\n                    <p><span class=\"redText\">Bad choice,</span> the bee was friendly.<br>Your bonus pay is unchanged, and remains at $0.24.</p>\n            ","response":0,"trial_type":"html-button-response","trial_index":72,"time_elapsed":539714,"internal_node_id":"0.0-4.0-1.30","subject_id":"614f381c62a00a9deca37834","study_id":"60edd13110225f80f9f3709b","session_id":"6196c4a8df81e93b5fdd6487","condition":"full-information","relevant_dimensions":["wings","pattern"],"bee_group":{"antennae":"X","wings":"2","pattern":"D","legs":"X"},"bonus":0.5600000000000005},{"rt":890.0999999996275,"stimulus":"bees-with-color/bee-B2SF.svg","response":1,"trial_type":"image-button-response","trial_index":73,"time_elapsed":540609,"internal_node_id":"0.0-4.0-0.31","subject_id":"614f381c62a00a9deca37834","study_id":"60edd13110225f80f9f3709b","session_id":"6196c4a8df81e93b5fdd6487","condition":"full-information","relevant_dimensions":["wings","pattern"],"bee_group":{"antennae":"X","wings":"2","pattern":"D","legs":"X"},"action":"avoid","summary":"bad-avoid","bonus":0.5600000000000005},{"rt":929.8000000007451,"stimulus":"\n                    <p><b>Action: <em>avoid</em></b></p>\n                    <p>This is the bee that you just saw.</p>\n                    <img src=\"bees-with-color/bee-B2SF.svg\" width=\"200\">\n                    <p><span class=\"redText\">Bad choice,</span> the bee was friendly.<br>Your bonus pay is unchanged, and remains at $0.24.</p>\n            ","response":0,"trial_type":"html-button-response","trial_index":74,"time_elapsed":541543,"internal_node_id":"0.0-4.0-1.31","subject_id":"614f381c62a00a9deca37834","study_id":"60edd13110225f80f9f3709b","session_id":"6196c4a8df81e93b5fdd6487","condition":"full-information","relevant_dimensions":["wings","pattern"],"bee_group":{"antennae":"X","wings":"2","pattern":"D","legs":"X"},"bonus":0.5600000000000005},{"rt":764.3000000007451,"stimulus":"bees-with-color/bee-A1DF.svg","response":1,"trial_type":"image-button-response","trial_index":75,"time_elapsed":542311,"internal_node_id":"0.0-4.0-0.32","subject_id":"614f381c62a00a9deca37834","study_id":"60edd13110225f80f9f3709b","session_id":"6196c4a8df81e93b5fdd6487","condition":"full-information","relevant_dimensions":["wings","pattern"],"bee_group":{"antennae":"X","wings":"2","pattern":"D","legs":"X"},"action":"avoid","summary":"bad-avoid","bonus":0.5600000000000005},{"rt":813.4000000003725,"stimulus":"\n                    <p><b>Action: <em>avoid</em></b></p>\n                    <p>This is the bee that you just saw.</p>\n                    <img src=\"bees-with-color/bee-A1DF.svg\" width=\"200\">\n                    <p><span class=\"redText\">Bad choice,</span> the bee was friendly.<br>Your bonus pay is unchanged, and remains at $0.24.</p>\n            ","response":0,"trial_type":"html-button-response","trial_index":76,"time_elapsed":543129,"internal_node_id":"0.0-4.0-1.32","subject_id":"614f381c62a00a9deca37834","study_id":"60edd13110225f80f9f3709b","session_id":"6196c4a8df81e93b5fdd6487","condition":"full-information","relevant_dimensions":["wings","pattern"],"bee_group":{"antennae":"X","wings":"2","pattern":"D","legs":"X"},"bonus":0.5600000000000005},{"rt":1020.3000000007451,"stimulus":"bees-with-color/bee-A2SF.svg","response":1,"trial_type":"image-button-response","trial_index":77,"time_elapsed":544153,"internal_node_id":"0.0-4.0-0.33","subject_id":"614f381c62a00a9deca37834","study_id":"60edd13110225f80f9f3709b","session_id":"6196c4a8df81e93b5fdd6487","condition":"full-information","relevant_dimensions":["wings","pattern"],"bee_group":{"antennae":"X","wings":"2","pattern":"D","legs":"X"},"action":"avoid","summary":"bad-avoid","bonus":0.5600000000000005},{"rt":1023.9000000003725,"stimulus":"\n                    <p><b>Action: <em>avoid</em></b></p>\n                    <p>This is the bee that you just saw.</p>\n                    <img src=\"bees-with-color/bee-A2SF.svg\" width=\"200\">\n                    <p><span class=\"redText\">Bad choice,</span> the bee was friendly.<br>Your bonus pay is unchanged, and remains at $0.24.</p>\n            ","response":0,"trial_type":"html-button-response","trial_index":78,"time_elapsed":545182,"internal_node_id":"0.0-4.0-1.33","subject_id":"614f381c62a00a9deca37834","study_id":"60edd13110225f80f9f3709b","session_id":"6196c4a8df81e93b5fdd6487","condition":"full-information","relevant_dimensions":["wings","pattern"],"bee_group":{"antennae":"X","wings":"2","pattern":"D","legs":"X"},"bonus":0.5600000000000005},{"rt":755.2000000011176,"stimulus":"bees-with-color/bee-B2SM.svg","response":1,"trial_type":"image-button-response","trial_index":79,"time_elapsed":545940,"internal_node_id":"0.0-4.0-0.34","subject_id":"614f381c62a00a9deca37834","study_id":"60edd13110225f80f9f3709b","session_id":"6196c4a8df81e93b5fdd6487","condition":"full-information","relevant_dimensions":["wings","pattern"],"bee_group":{"antennae":"X","wings":"2","pattern":"D","legs":"X"},"action":"avoid","summary":"bad-avoid","bonus":0.5600000000000005},{"rt":772.6000000014901,"stimulus":"\n                    <p><b>Action: <em>avoid</em></b></p>\n                    <p>This is the bee that you just saw.</p>\n                    <img src=\"bees-with-color/bee-B2SM.svg\" width=\"200\">\n                    <p><span class=\"redText\">Bad choice,</span> the bee was friendly.<br>Your bonus pay is unchanged, and remains at $0.24.</p>\n            ","response":0,"trial_type":"html-button-response","trial_index":80,"time_elapsed":546716,"internal_node_id":"0.0-4.0-1.34","subject_id":"614f381c62a00a9deca37834","study_id":"60edd13110225f80f9f3709b","session_id":"6196c4a8df81e93b5fdd6487","condition":"full-information","relevant_dimensions":["wings","pattern"],"bee_group":{"antennae":"X","wings":"2","pattern":"D","legs":"X"},"bonus":0.5600000000000005},{"rt":735.0999999996275,"stimulus":"bees-with-color/bee-B1DF.svg","response":1,"trial_type":"image-button-response","trial_index":81,"time_elapsed":547455,"internal_node_id":"0.0-4.0-0.35","subject_id":"614f381c62a00a9deca37834","study_id":"60edd13110225f80f9f3709b","session_id":"6196c4a8df81e93b5fdd6487","condition":"full-information","relevant_dimensions":["wings","pattern"],"bee_group":{"antennae":"X","wings":"2","pattern":"D","legs":"X"},"action":"avoid","summary":"bad-avoid","bonus":0.5600000000000005},{"rt":679.4000000003725,"stimulus":"\n                    <p><b>Action: <em>avoid</em></b></p>\n                    <p>This is the bee that you just saw.</p>\n                    <img src=\"bees-with-color/bee-B1DF.svg\" width=\"200\">\n                    <p><span class=\"redText\">Bad choice,</span> the bee was friendly.<br>Your bonus pay is unchanged, and remains at $0.24.</p>\n            ","response":0,"trial_type":"html-button-response","trial_index":82,"time_elapsed":548138,"internal_node_id":"0.0-4.0-1.35","subject_id":"614f381c62a00a9deca37834","study_id":"60edd13110225f80f9f3709b","session_id":"6196c4a8df81e93b5fdd6487","condition":"full-information","relevant_dimensions":["wings","pattern"],"bee_group":{"antennae":"X","wings":"2","pattern":"D","legs":"X"},"bonus":0.5600000000000005},{"rt":1164.699999999255,"stimulus":"bees-with-color/bee-A2SM.svg","response":1,"trial_type":"image-button-response","trial_index":83,"time_elapsed":549306,"internal_node_id":"0.0-4.0-0.36","subject_id":"614f381c62a00a9deca37834","study_id":"60edd13110225f80f9f3709b","session_id":"6196c4a8df81e93b5fdd6487","condition":"full-information","relevant_dimensions":["wings","pattern"],"bee_group":{"antennae":"X","wings":"2","pattern":"D","legs":"X"},"action":"avoid","summary":"bad-avoid","bonus":0.5600000000000005},{"rt":664.3000000007451,"stimulus":"\n                    <p><b>Action: <em>avoid</em></b></p>\n                    <p>This is the bee that you just saw.</p>\n                    <img src=\"bees-with-color/bee-A2SM.svg\" width=\"200\">\n                    <p><span class=\"redText\">Bad choice,</span> the bee was friendly.<br>Your bonus pay is unchanged, and remains at $0.24.</p>\n            ","response":0,"trial_type":"html-button-response","trial_index":84,"time_elapsed":549974,"internal_node_id":"0.0-4.0-1.36","subject_id":"614f381c62a00a9deca37834","study_id":"60edd13110225f80f9f3709b","session_id":"6196c4a8df81e93b5fdd6487","condition":"full-information","relevant_dimensions":["wings","pattern"],"bee_group":{"antennae":"X","wings":"2","pattern":"D","legs":"X"},"bonus":0.5600000000000005},{"rt":672.7000000011176,"stimulus":"bees-with-color/bee-A2DF.svg","response":1,"trial_type":"image-button-response","trial_index":85,"time_elapsed":550649,"internal_node_id":"0.0-4.0-0.37","subject_id":"614f381c62a00a9deca37834","study_id":"60edd13110225f80f9f3709b","session_id":"6196c4a8df81e93b5fdd6487","condition":"full-information","relevant_dimensions":["wings","pattern"],"bee_group":{"antennae":"X","wings":"2","pattern":"D","legs":"X"},"action":"avoid","summary":"good-avoid","bonus":0.5600000000000005},{"rt":1653.5999999996275,"stimulus":"\n                    <p><b>Action: <em>avoid</em></b></p>\n                    <p>This is the bee that you just saw.</p>\n                    <img src=\"bees-with-color/bee-A2DF.svg\" width=\"200\">\n                    <p><span class=\"greenText\">Good choice!</span>  This bee would have stung you.<br>Your bonus pay is unchanged, and remains at $0.24.</p>\n            ","response":0,"trial_type":"html-button-response","trial_index":86,"time_elapsed":552305,"internal_node_id":"0.0-4.0-1.37","subject_id":"614f381c62a00a9deca37834","study_id":"60edd13110225f80f9f3709b","session_id":"6196c4a8df81e93b5fdd6487","condition":"full-information","relevant_dimensions":["wings","pattern"],"bee_group":{"antennae":"X","wings":"2","pattern":"D","legs":"X"},"bonus":0.5600000000000005},{"rt":920.8999999985099,"stimulus":"bees-with-color/bee-A1SM.svg","response":1,"trial_type":"image-button-response","trial_index":87,"time_elapsed":553229,"internal_node_id":"0.0-4.0-0.38","subject_id":"614f381c62a00a9deca37834","study_id":"60edd13110225f80f9f3709b","session_id":"6196c4a8df81e93b5fdd6487","condition":"full-information","relevant_dimensions":["wings","pattern"],"bee_group":{"antennae":"X","wings":"2","pattern":"D","legs":"X"},"action":"avoid","summary":"bad-avoid","bonus":0.5600000000000005},{"rt":810.1999999992549,"stimulus":"\n                    <p><b>Action: <em>avoid</em></b></p>\n                    <p>This is the bee that you just saw.</p>\n                    <img src=\"bees-with-color/bee-A1SM.svg\" width=\"200\">\n                    <p><span class=\"redText\">Bad choice,</span> the bee was friendly.<br>Your bonus pay is unchanged, and remains at $0.24.</p>\n            ","response":0,"trial_type":"html-button-response","trial_index":88,"time_elapsed":554042,"internal_node_id":"0.0-4.0-1.38","subject_id":"614f381c62a00a9deca37834","study_id":"60edd13110225f80f9f3709b","session_id":"6196c4a8df81e93b5fdd6487","condition":"full-information","relevant_dimensions":["wings","pattern"],"bee_group":{"antennae":"X","wings":"2","pattern":"D","legs":"X"},"bonus":0.5600000000000005},{"rt":791,"stimulus":"bees-with-color/bee-B2DM.svg","response":1,"trial_type":"image-button-response","trial_index":89,"time_elapsed":554837,"internal_node_id":"0.0-4.0-0.39","subject_id":"614f381c62a00a9deca37834","study_id":"60edd13110225f80f9f3709b","session_id":"6196c4a8df81e93b5fdd6487","condition":"full-information","relevant_dimensions":["wings","pattern"],"bee_group":{"antennae":"X","wings":"2","pattern":"D","legs":"X"},"action":"avoid","summary":"good-avoid","bonus":0.5600000000000005},{"rt":730.7999999988824,"stimulus":"\n                    <p><b>Action: <em>avoid</em></b></p>\n                    <p>This is the bee that you just saw.</p>\n                    <img src=\"bees-with-color/bee-B2DM.svg\" width=\"200\">\n                    <p><span class=\"greenText\">Good choice!</span>  This bee would have stung you.<br>Your bonus pay is unchanged, and remains at $0.24.</p>\n            ","response":0,"trial_type":"html-button-response","trial_index":90,"time_elapsed":555571,"internal_node_id":"0.0-4.0-1.39","subject_id":"614f381c62a00a9deca37834","study_id":"60edd13110225f80f9f3709b","session_id":"6196c4a8df81e93b5fdd6487","condition":"full-information","relevant_dimensions":["wings","pattern"],"bee_group":{"antennae":"X","wings":"2","pattern":"D","legs":"X"},"bonus":0.5600000000000005},{"rt":667.1999999992549,"stimulus":"bees-with-color/bee-A1SF.svg","response":1,"trial_type":"image-button-response","trial_index":91,"time_elapsed":556242,"internal_node_id":"0.0-4.0-0.40","subject_id":"614f381c62a00a9deca37834","study_id":"60edd13110225f80f9f3709b","session_id":"6196c4a8df81e93b5fdd6487","condition":"full-information","relevant_dimensions":["wings","pattern"],"bee_group":{"antennae":"X","wings":"2","pattern":"D","legs":"X"},"action":"avoid","summary":"bad-avoid","bonus":0.5600000000000005},{"rt":799.7999999988824,"stimulus":"\n                    <p><b>Action: <em>avoid</em></b></p>\n                    <p>This is the bee that you just saw.</p>\n                    <img src=\"bees-with-color/bee-A1SF.svg\" width=\"200\">\n                    <p><span class=\"redText\">Bad choice,</span> the bee was friendly.<br>Your bonus pay is unchanged, and remains at $0.24.</p>\n            ","response":0,"trial_type":"html-button-response","trial_index":92,"time_elapsed":557045,"internal_node_id":"0.0-4.0-1.40","subject_id":"614f381c62a00a9deca37834","study_id":"60edd13110225f80f9f3709b","session_id":"6196c4a8df81e93b5fdd6487","condition":"full-information","relevant_dimensions":["wings","pattern"],"bee_group":{"antennae":"X","wings":"2","pattern":"D","legs":"X"},"bonus":0.5600000000000005},{"rt":1003.1000000014901,"stimulus":"bees-with-color/bee-B2DF.svg","response":1,"trial_type":"image-button-response","trial_index":93,"time_elapsed":558052,"internal_node_id":"0.0-4.0-0.41","subject_id":"614f381c62a00a9deca37834","study_id":"60edd13110225f80f9f3709b","session_id":"6196c4a8df81e93b5fdd6487","condition":"full-information","relevant_dimensions":["wings","pattern"],"bee_group":{"antennae":"X","wings":"2","pattern":"D","legs":"X"},"action":"avoid","summary":"good-avoid","bonus":0.5600000000000005},{"rt":636.5999999996275,"stimulus":"\n                    <p><b>Action: <em>avoid</em></b></p>\n                    <p>This is the bee that you just saw.</p>\n                    <img src=\"bees-with-color/bee-B2DF.svg\" width=\"200\">\n                    <p><span class=\"greenText\">Good choice!</span>  This bee would have stung you.<br>Your bonus pay is unchanged, and remains at $0.24.</p>\n            ","response":0,"trial_type":"html-button-response","trial_index":94,"time_elapsed":558693,"internal_node_id":"0.0-4.0-1.41","subject_id":"614f381c62a00a9deca37834","study_id":"60edd13110225f80f9f3709b","session_id":"6196c4a8df81e93b5fdd6487","condition":"full-information","relevant_dimensions":["wings","pattern"],"bee_group":{"antennae":"X","wings":"2","pattern":"D","legs":"X"},"bonus":0.5600000000000005},{"rt":595.4000000003725,"stimulus":"bees-with-color/bee-B1SF.svg","response":1,"trial_type":"image-button-response","trial_index":95,"time_elapsed":559292,"internal_node_id":"0.0-4.0-0.42","subject_id":"614f381c62a00a9deca37834","study_id":"60edd13110225f80f9f3709b","session_id":"6196c4a8df81e93b5fdd6487","condition":"full-information","relevant_dimensions":["wings","pattern"],"bee_group":{"antennae":"X","wings":"2","pattern":"D","legs":"X"},"action":"avoid","summary":"bad-avoid","bonus":0.5600000000000005},{"rt":638.8000000007451,"stimulus":"\n                    <p><b>Action: <em>avoid</em></b></p>\n                    <p>This is the bee that you just saw.</p>\n                    <img src=\"bees-with-color/bee-B1SF.svg\" width=\"200\">\n                    <p><span class=\"redText\">Bad choice,</span> the bee was friendly.<br>Your bonus pay is unchanged, and remains at $0.24.</p>\n            ","response":0,"trial_type":"html-button-response","trial_index":96,"time_elapsed":559934,"internal_node_id":"0.0-4.0-1.42","subject_id":"614f381c62a00a9deca37834","study_id":"60edd13110225f80f9f3709b","session_id":"6196c4a8df81e93b5fdd6487","condition":"full-information","relevant_dimensions":["wings","pattern"],"bee_group":{"antennae":"X","wings":"2","pattern":"D","legs":"X"},"bonus":0.5600000000000005},{"rt":758,"stimulus":"bees-with-color/bee-A1DM.svg","response":1,"trial_type":"image-button-response","trial_index":97,"time_elapsed":560695,"internal_node_id":"0.0-4.0-0.43","subject_id":"614f381c62a00a9deca37834","study_id":"60edd13110225f80f9f3709b","session_id":"6196c4a8df81e93b5fdd6487","condition":"full-information","relevant_dimensions":["wings","pattern"],"bee_group":{"antennae":"X","wings":"2","pattern":"D","legs":"X"},"action":"avoid","summary":"bad-avoid","bonus":0.5600000000000005},{"rt":602.4000000003725,"stimulus":"\n                    <p><b>Action: <em>avoid</em></b></p>\n                    <p>This is the bee that you just saw.</p>\n                    <img src=\"bees-with-color/bee-A1DM.svg\" width=\"200\">\n                    <p><span class=\"redText\">Bad choice,</span> the bee was friendly.<br>Your bonus pay is unchanged, and remains at $0.24.</p>\n            ","response":0,"trial_type":"html-button-response","trial_index":98,"time_elapsed":561302,"internal_node_id":"0.0-4.0-1.43","subject_id":"614f381c62a00a9deca37834","study_id":"60edd13110225f80f9f3709b","session_id":"6196c4a8df81e93b5fdd6487","condition":"full-information","relevant_dimensions":["wings","pattern"],"bee_group":{"antennae":"X","wings":"2","pattern":"D","legs":"X"},"bonus":0.5600000000000005},{"rt":674.8999999985099,"stimulus":"bees-with-color/bee-B1DM.svg","response":1,"trial_type":"image-button-response","trial_index":99,"time_elapsed":561980,"internal_node_id":"0.0-4.0-0.44","subject_id":"614f381c62a00a9deca37834","study_id":"60edd13110225f80f9f3709b","session_id":"6196c4a8df81e93b5fdd6487","condition":"full-information","relevant_dimensions":["wings","pattern"],"bee_group":{"antennae":"X","wings":"2","pattern":"D","legs":"X"},"action":"avoid","summary":"bad-avoid","bonus":0.5600000000000005},{"rt":783.7999999988824,"stimulus":"\n                    <p><b>Action: <em>avoid</em></b></p>\n                    <p>This is the bee that you just saw.</p>\n                    <img src=\"bees-with-color/bee-B1DM.svg\" width=\"200\">\n                    <p><span class=\"redText\">Bad choice,</span> the bee was friendly.<br>Your bonus pay is unchanged, and remains at $0.24.</p>\n            ","response":0,"trial_type":"html-button-response","trial_index":100,"time_elapsed":562767,"internal_node_id":"0.0-4.0-1.44","subject_id":"614f381c62a00a9deca37834","study_id":"60edd13110225f80f9f3709b","session_id":"6196c4a8df81e93b5fdd6487","condition":"full-information","relevant_dimensions":["wings","pattern"],"bee_group":{"antennae":"X","wings":"2","pattern":"D","legs":"X"},"bonus":0.5600000000000005},{"rt":801.8000000007451,"stimulus":"bees-with-color/bee-B1SM.svg","response":1,"trial_type":"image-button-response","trial_index":101,"time_elapsed":563573,"internal_node_id":"0.0-4.0-0.45","subject_id":"614f381c62a00a9deca37834","study_id":"60edd13110225f80f9f3709b","session_id":"6196c4a8df81e93b5fdd6487","condition":"full-information","relevant_dimensions":["wings","pattern"],"bee_group":{"antennae":"X","wings":"2","pattern":"D","legs":"X"},"action":"avoid","summary":"bad-avoid","bonus":0.5600000000000005},{"rt":631.5999999996275,"stimulus":"\n                    <p><b>Action: <em>avoid</em></b></p>\n                    <p>This is the bee that you just saw.</p>\n                    <img src=\"bees-with-color/bee-B1SM.svg\" width=\"200\">\n                    <p><span class=\"redText\">Bad choice,</span> the bee was friendly.<br>Your bonus pay is unchanged, and remains at $0.24.</p>\n            ","response":0,"trial_type":"html-button-response","trial_index":102,"time_elapsed":564208,"internal_node_id":"0.0-4.0-1.45","subject_id":"614f381c62a00a9deca37834","study_id":"60edd13110225f80f9f3709b","session_id":"6196c4a8df81e93b5fdd6487","condition":"full-information","relevant_dimensions":["wings","pattern"],"bee_group":{"antennae":"X","wings":"2","pattern":"D","legs":"X"},"bonus":0.5600000000000005},{"rt":1195.5999999996275,"stimulus":"bees-with-color/bee-B2SF.svg","response":1,"trial_type":"image-button-response","trial_index":103,"time_elapsed":565407,"internal_node_id":"0.0-4.0-0.46","subject_id":"614f381c62a00a9deca37834","study_id":"60edd13110225f80f9f3709b","session_id":"6196c4a8df81e93b5fdd6487","condition":"full-information","relevant_dimensions":["wings","pattern"],"bee_group":{"antennae":"X","wings":"2","pattern":"D","legs":"X"},"action":"avoid","summary":"bad-avoid","bonus":0.5600000000000005},{"rt":625.1999999992549,"stimulus":"\n                    <p><b>Action: <em>avoid</em></b></p>\n                    <p>This is the bee that you just saw.</p>\n                    <img src=\"bees-with-color/bee-B2SF.svg\" width=\"200\">\n                    <p><span class=\"redText\">Bad choice,</span> the bee was friendly.<br>Your bonus pay is unchanged, and remains at $0.24.</p>\n            ","response":0,"trial_type":"html-button-response","trial_index":104,"time_elapsed":566036,"internal_node_id":"0.0-4.0-1.46","subject_id":"614f381c62a00a9deca37834","study_id":"60edd13110225f80f9f3709b","session_id":"6196c4a8df81e93b5fdd6487","condition":"full-information","relevant_dimensions":["wings","pattern"],"bee_group":{"antennae":"X","wings":"2","pattern":"D","legs":"X"},"bonus":0.5600000000000005},{"rt":791.9000000003725,"stimulus":"bees-with-color/bee-A2DM.svg","response":1,"trial_type":"image-button-response","trial_index":105,"time_elapsed":566832,"internal_node_id":"0.0-4.0-0.47","subject_id":"614f381c62a00a9deca37834","study_id":"60edd13110225f80f9f3709b","session_id":"6196c4a8df81e93b5fdd6487","condition":"full-information","relevant_dimensions":["wings","pattern"],"bee_group":{"antennae":"X","wings":"2","pattern":"D","legs":"X"},"action":"avoid","summary":"good-avoid","bonus":0.5600000000000005},{"rt":657.1999999992549,"stimulus":"\n                    <p><b>Action: <em>avoid</em></b></p>\n                    <p>This is the bee that you just saw.</p>\n                    <img src=\"bees-with-color/bee-A2DM.svg\" width=\"200\">\n                    <p><span class=\"greenText\">Good choice!</span>  This bee would have stung you.<br>Your bonus pay is unchanged, and remains at $0.24.</p>\n            ","response":0,"trial_type":"html-button-response","trial_index":106,"time_elapsed":567493,"internal_node_id":"0.0-4.0-1.47","subject_id":"614f381c62a00a9deca37834","study_id":"60edd13110225f80f9f3709b","session_id":"6196c4a8df81e93b5fdd6487","condition":"full-information","relevant_dimensions":["wings","pattern"],"bee_group":{"antennae":"X","wings":"2","pattern":"D","legs":"X"},"bonus":0.5600000000000005},{"rt":1502.9000000003725,"stimulus":"bees-with-color/bee-B2DM.svg","response":1,"trial_type":"image-button-response","trial_index":107,"time_elapsed":569000,"internal_node_id":"0.0-4.0-0.48","subject_id":"614f381c62a00a9deca37834","study_id":"60edd13110225f80f9f3709b","session_id":"6196c4a8df81e93b5fdd6487","condition":"full-information","relevant_dimensions":["wings","pattern"],"bee_group":{"antennae":"X","wings":"2","pattern":"D","legs":"X"},"action":"avoid","summary":"good-avoid","bonus":0.5600000000000005},{"rt":1454.300000000745,"stimulus":"\n                    <p><b>Action: <em>avoid</em></b></p>\n                    <p>This is the bee that you just saw.</p>\n                    <img src=\"bees-with-color/bee-B2DM.svg\" width=\"200\">\n                    <p><span class=\"greenText\">Good choice!</span>  This bee would have stung you.<br>Your bonus pay is unchanged, and remains at $0.24.</p>\n            ","response":0,"trial_type":"html-button-response","trial_index":108,"time_elapsed":570458,"internal_node_id":"0.0-4.0-1.48","subject_id":"614f381c62a00a9deca37834","study_id":"60edd13110225f80f9f3709b","session_id":"6196c4a8df81e93b5fdd6487","condition":"full-information","relevant_dimensions":["wings","pattern"],"bee_group":{"antennae":"X","wings":"2","pattern":"D","legs":"X"},"bonus":0.5600000000000005},{"rt":651.2999999988824,"stimulus":"bees-with-color/bee-B1DF.svg","response":1,"trial_type":"image-button-response","trial_index":109,"time_elapsed":571113,"internal_node_id":"0.0-4.0-0.49","subject_id":"614f381c62a00a9deca37834","study_id":"60edd13110225f80f9f3709b","session_id":"6196c4a8df81e93b5fdd6487","condition":"full-information","relevant_dimensions":["wings","pattern"],"bee_group":{"antennae":"X","wings":"2","pattern":"D","legs":"X"},"action":"avoid","summary":"bad-avoid","bonus":0.5600000000000005},{"rt":690,"stimulus":"\n                    <p><b>Action: <em>avoid</em></b></p>\n                    <p>This is the bee that you just saw.</p>\n                    <img src=\"bees-with-color/bee-B1DF.svg\" width=\"200\">\n                    <p><span class=\"redText\">Bad choice,</span> the bee was friendly.<br>Your bonus pay is unchanged, and remains at $0.24.</p>\n            ","response":0,"trial_type":"html-button-response","trial_index":110,"time_elapsed":571805,"internal_node_id":"0.0-4.0-1.49","subject_id":"614f381c62a00a9deca37834","study_id":"60edd13110225f80f9f3709b","session_id":"6196c4a8df81e93b5fdd6487","condition":"full-information","relevant_dimensions":["wings","pattern"],"bee_group":{"antennae":"X","wings":"2","pattern":"D","legs":"X"},"bonus":0.5600000000000005},{"rt":619.0999999996275,"stimulus":"bees-with-color/bee-A2SM.svg","response":1,"trial_type":"image-button-response","trial_index":111,"time_elapsed":572427,"internal_node_id":"0.0-4.0-0.50","subject_id":"614f381c62a00a9deca37834","study_id":"60edd13110225f80f9f3709b","session_id":"6196c4a8df81e93b5fdd6487","condition":"full-information","relevant_dimensions":["wings","pattern"],"bee_group":{"antennae":"X","wings":"2","pattern":"D","legs":"X"},"action":"avoid","summary":"bad-avoid","bonus":0.5600000000000005},{"rt":723.8000000007451,"stimulus":"\n                    <p><b>Action: <em>avoid</em></b></p>\n                    <p>This is the bee that you just saw.</p>\n                    <img src=\"bees-with-color/bee-A2SM.svg\" width=\"200\">\n                    <p><span class=\"redText\">Bad choice,</span> the bee was friendly.<br>Your bonus pay is unchanged, and remains at $0.24.</p>\n            ","response":0,"trial_type":"html-button-response","trial_index":112,"time_elapsed":573155,"internal_node_id":"0.0-4.0-1.50","subject_id":"614f381c62a00a9deca37834","study_id":"60edd13110225f80f9f3709b","session_id":"6196c4a8df81e93b5fdd6487","condition":"full-information","relevant_dimensions":["wings","pattern"],"bee_group":{"antennae":"X","wings":"2","pattern":"D","legs":"X"},"bonus":0.5600000000000005},{"rt":907.5,"stimulus":"bees-with-color/bee-A1DF.svg","response":1,"trial_type":"image-button-response","trial_index":113,"time_elapsed":574066,"internal_node_id":"0.0-4.0-0.51","subject_id":"614f381c62a00a9deca37834","study_id":"60edd13110225f80f9f3709b","session_id":"6196c4a8df81e93b5fdd6487","condition":"full-information","relevant_dimensions":["wings","pattern"],"bee_group":{"antennae":"X","wings":"2","pattern":"D","legs":"X"},"action":"avoid","summary":"bad-avoid","bonus":0.5600000000000005},{"rt":651.5,"stimulus":"\n                    <p><b>Action: <em>avoid</em></b></p>\n                    <p>This is the bee that you just saw.</p>\n                    <img src=\"bees-with-color/bee-A1DF.svg\" width=\"200\">\n                    <p><span class=\"redText\">Bad choice,</span> the bee was friendly.<br>Your bonus pay is unchanged, and remains at $0.24.</p>\n            ","response":0,"trial_type":"html-button-response","trial_index":114,"time_elapsed":574723,"internal_node_id":"0.0-4.0-1.51","subject_id":"614f381c62a00a9deca37834","study_id":"60edd13110225f80f9f3709b","session_id":"6196c4a8df81e93b5fdd6487","condition":"full-information","relevant_dimensions":["wings","pattern"],"bee_group":{"antennae":"X","wings":"2","pattern":"D","legs":"X"},"bonus":0.5600000000000005},{"rt":1402.0999999996275,"stimulus":"bees-with-color/bee-B1DM.svg","response":1,"trial_type":"image-button-response","trial_index":115,"time_elapsed":576128,"internal_node_id":"0.0-4.0-0.52","subject_id":"614f381c62a00a9deca37834","study_id":"60edd13110225f80f9f3709b","session_id":"6196c4a8df81e93b5fdd6487","condition":"full-information","relevant_dimensions":["wings","pattern"],"bee_group":{"antennae":"X","wings":"2","pattern":"D","legs":"X"},"action":"avoid","summary":"bad-avoid","bonus":0.5600000000000005},{"rt":657.7000000011176,"stimulus":"\n                    <p><b>Action: <em>avoid</em></b></p>\n                    <p>This is the bee that you just saw.</p>\n                    <img src=\"bees-with-color/bee-B1DM.svg\" width=\"200\">\n                    <p><span class=\"redText\">Bad choice,</span> the bee was friendly.<br>Your bonus pay is unchanged, and remains at $0.24.</p>\n            ","response":0,"trial_type":"html-button-response","trial_index":116,"time_elapsed":576790,"internal_node_id":"0.0-4.0-1.52","subject_id":"614f381c62a00a9deca37834","study_id":"60edd13110225f80f9f3709b","session_id":"6196c4a8df81e93b5fdd6487","condition":"full-information","relevant_dimensions":["wings","pattern"],"bee_group":{"antennae":"X","wings":"2","pattern":"D","legs":"X"},"bonus":0.5600000000000005},{"rt":993.9000000003725,"stimulus":"bees-with-color/bee-A1SF.svg","response":1,"trial_type":"image-button-response","trial_index":117,"time_elapsed":577786,"internal_node_id":"0.0-4.0-0.53","subject_id":"614f381c62a00a9deca37834","study_id":"60edd13110225f80f9f3709b","session_id":"6196c4a8df81e93b5fdd6487","condition":"full-information","relevant_dimensions":["wings","pattern"],"bee_group":{"antennae":"X","wings":"2","pattern":"D","legs":"X"},"action":"avoid","summary":"bad-avoid","bonus":0.5600000000000005},{"rt":829.3999999985099,"stimulus":"\n                    <p><b>Action: <em>avoid</em></b></p>\n                    <p>This is the bee that you just saw.</p>\n                    <img src=\"bees-with-color/bee-A1SF.svg\" width=\"200\">\n                    <p><span class=\"redText\">Bad choice,</span> the bee was friendly.<br>Your bonus pay is unchanged, and remains at $0.24.</p>\n            ","response":0,"trial_type":"html-button-response","trial_index":118,"time_elapsed":578618,"internal_node_id":"0.0-4.0-1.53","subject_id":"614f381c62a00a9deca37834","study_id":"60edd13110225f80f9f3709b","session_id":"6196c4a8df81e93b5fdd6487","condition":"full-information","relevant_dimensions":["wings","pattern"],"bee_group":{"antennae":"X","wings":"2","pattern":"D","legs":"X"},"bonus":0.5600000000000005},{"rt":691.1000000014901,"stimulus":"bees-with-color/bee-A2SF.svg","response":1,"trial_type":"image-button-response","trial_index":119,"time_elapsed":579312,"internal_node_id":"0.0-4.0-0.54","subject_id":"614f381c62a00a9deca37834","study_id":"60edd13110225f80f9f3709b","session_id":"6196c4a8df81e93b5fdd6487","condition":"full-information","relevant_dimensions":["wings","pattern"],"bee_group":{"antennae":"X","wings":"2","pattern":"D","legs":"X"},"action":"avoid","summary":"bad-avoid","bonus":0.5600000000000005},{"rt":777.5999999996275,"stimulus":"\n                    <p><b>Action: <em>avoid</em></b></p>\n                    <p>This is the bee that you just saw.</p>\n                    <img src=\"bees-with-color/bee-A2SF.svg\" width=\"200\">\n                    <p><span class=\"redText\">Bad choice,</span> the bee was friendly.<br>Your bonus pay is unchanged, and remains at $0.24.</p>\n            ","response":0,"trial_type":"html-button-response","trial_index":120,"time_elapsed":580092,"internal_node_id":"0.0-4.0-1.54","subject_id":"614f381c62a00a9deca37834","study_id":"60edd13110225f80f9f3709b","session_id":"6196c4a8df81e93b5fdd6487","condition":"full-information","relevant_dimensions":["wings","pattern"],"bee_group":{"antennae":"X","wings":"2","pattern":"D","legs":"X"},"bonus":0.5600000000000005},{"rt":1070.9000000003725,"stimulus":"bees-with-color/bee-B2DF.svg","response":1,"trial_type":"image-button-response","trial_index":121,"time_elapsed":581167,"internal_node_id":"0.0-4.0-0.55","subject_id":"614f381c62a00a9deca37834","study_id":"60edd13110225f80f9f3709b","session_id":"6196c4a8df81e93b5fdd6487","condition":"full-information","relevant_dimensions":["wings","pattern"],"bee_group":{"antennae":"X","wings":"2","pattern":"D","legs":"X"},"action":"avoid","summary":"good-avoid","bonus":0.5600000000000005},{"rt":676.6000000014901,"stimulus":"\n                    <p><b>Action: <em>avoid</em></b></p>\n                    <p>This is the bee that you just saw.</p>\n                    <img src=\"bees-with-color/bee-B2DF.svg\" width=\"200\">\n                    <p><span class=\"greenText\">Good choice!</span>  This bee would have stung you.<br>Your bonus pay is unchanged, and remains at $0.24.</p>\n            ","response":0,"trial_type":"html-button-response","trial_index":122,"time_elapsed":581846,"internal_node_id":"0.0-4.0-1.55","subject_id":"614f381c62a00a9deca37834","study_id":"60edd13110225f80f9f3709b","session_id":"6196c4a8df81e93b5fdd6487","condition":"full-information","relevant_dimensions":["wings","pattern"],"bee_group":{"antennae":"X","wings":"2","pattern":"D","legs":"X"},"bonus":0.5600000000000005},{"rt":725.8999999985099,"stimulus":"bees-with-color/bee-A1SM.svg","response":1,"trial_type":"image-button-response","trial_index":123,"time_elapsed":582574,"internal_node_id":"0.0-4.0-0.56","subject_id":"614f381c62a00a9deca37834","study_id":"60edd13110225f80f9f3709b","session_id":"6196c4a8df81e93b5fdd6487","condition":"full-information","relevant_dimensions":["wings","pattern"],"bee_group":{"antennae":"X","wings":"2","pattern":"D","legs":"X"},"action":"avoid","summary":"bad-avoid","bonus":0.5600000000000005},{"rt":688.0999999996275,"stimulus":"\n                    <p><b>Action: <em>avoid</em></b></p>\n                    <p>This is the bee that you just saw.</p>\n                    <img src=\"bees-with-color/bee-A1SM.svg\" width=\"200\">\n                    <p><span class=\"redText\">Bad choice,</span> the bee was friendly.<br>Your bonus pay is unchanged, and remains at $0.24.</p>\n            ","response":0,"trial_type":"html-button-response","trial_index":124,"time_elapsed":583265,"internal_node_id":"0.0-4.0-1.56","subject_id":"614f381c62a00a9deca37834","study_id":"60edd13110225f80f9f3709b","session_id":"6196c4a8df81e93b5fdd6487","condition":"full-information","relevant_dimensions":["wings","pattern"],"bee_group":{"antennae":"X","wings":"2","pattern":"D","legs":"X"},"bonus":0.5600000000000005},{"rt":603,"stimulus":"bees-with-color/bee-B1SM.svg","response":1,"trial_type":"image-button-response","trial_index":125,"time_elapsed":583872,"internal_node_id":"0.0-4.0-0.57","subject_id":"614f381c62a00a9deca37834","study_id":"60edd13110225f80f9f3709b","session_id":"6196c4a8df81e93b5fdd6487","condition":"full-information","relevant_dimensions":["wings","pattern"],"bee_group":{"antennae":"X","wings":"2","pattern":"D","legs":"X"},"action":"avoid","summary":"bad-avoid","bonus":0.5600000000000005},{"rt":717.4000000003725,"stimulus":"\n                    <p><b>Action: <em>avoid</em></b></p>\n                    <p>This is the bee that you just saw.</p>\n                    <img src=\"bees-with-color/bee-B1SM.svg\" width=\"200\">\n                    <p><span class=\"redText\">Bad choice,</span> the bee was friendly.<br>Your bonus pay is unchanged, and remains at $0.24.</p>\n            ","response":0,"trial_type":"html-button-response","trial_index":126,"time_elapsed":584592,"internal_node_id":"0.0-4.0-1.57","subject_id":"614f381c62a00a9deca37834","study_id":"60edd13110225f80f9f3709b","session_id":"6196c4a8df81e93b5fdd6487","condition":"full-information","relevant_dimensions":["wings","pattern"],"bee_group":{"antennae":"X","wings":"2","pattern":"D","legs":"X"},"bonus":0.5600000000000005},{"rt":585.1999999992549,"stimulus":"bees-with-color/bee-A1DM.svg","response":1,"trial_type":"image-button-response","trial_index":127,"time_elapsed":585180,"internal_node_id":"0.0-4.0-0.58","subject_id":"614f381c62a00a9deca37834","study_id":"60edd13110225f80f9f3709b","session_id":"6196c4a8df81e93b5fdd6487","condition":"full-information","relevant_dimensions":["wings","pattern"],"bee_group":{"antennae":"X","wings":"2","pattern":"D","legs":"X"},"action":"avoid","summary":"bad-avoid","bonus":0.5600000000000005},{"rt":796,"stimulus":"\n                    <p><b>Action: <em>avoid</em></b></p>\n                    <p>This is the bee that you just saw.</p>\n                    <img src=\"bees-with-color/bee-A1DM.svg\" width=\"200\">\n                    <p><span class=\"redText\">Bad choice,</span> the bee was friendly.<br>Your bonus pay is unchanged, and remains at $0.24.</p>\n            ","response":0,"trial_type":"html-button-response","trial_index":128,"time_elapsed":585980,"internal_node_id":"0.0-4.0-1.58","subject_id":"614f381c62a00a9deca37834","study_id":"60edd13110225f80f9f3709b","session_id":"6196c4a8df81e93b5fdd6487","condition":"full-information","relevant_dimensions":["wings","pattern"],"bee_group":{"antennae":"X","wings":"2","pattern":"D","legs":"X"},"bonus":0.5600000000000005},{"rt":809.0999999996275,"stimulus":"bees-with-color/bee-A2DF.svg","response":1,"trial_type":"image-button-response","trial_index":129,"time_elapsed":586793,"internal_node_id":"0.0-4.0-0.59","subject_id":"614f381c62a00a9deca37834","study_id":"60edd13110225f80f9f3709b","session_id":"6196c4a8df81e93b5fdd6487","condition":"full-information","relevant_dimensions":["wings","pattern"],"bee_group":{"antennae":"X","wings":"2","pattern":"D","legs":"X"},"action":"avoid","summary":"good-avoid","bonus":0.5600000000000005},{"rt":597,"stimulus":"\n                    <p><b>Action: <em>avoid</em></b></p>\n                    <p>This is the bee that you just saw.</p>\n                    <img src=\"bees-with-color/bee-A2DF.svg\" width=\"200\">\n                    <p><span class=\"greenText\">Good choice!</span>  This bee would have stung you.<br>Your bonus pay is unchanged, and remains at $0.24.</p>\n            ","response":0,"trial_type":"html-button-response","trial_index":130,"time_elapsed":587393,"internal_node_id":"0.0-4.0-1.59","subject_id":"614f381c62a00a9deca37834","study_id":"60edd13110225f80f9f3709b","session_id":"6196c4a8df81e93b5fdd6487","condition":"full-information","relevant_dimensions":["wings","pattern"],"bee_group":{"antennae":"X","wings":"2","pattern":"D","legs":"X"},"bonus":0.5600000000000005},{"rt":1440.0999999996275,"stimulus":"bees-with-color/bee-B2SF.svg","response":1,"trial_type":"image-button-response","trial_index":131,"time_elapsed":588836,"internal_node_id":"0.0-4.0-0.60","subject_id":"614f381c62a00a9deca37834","study_id":"60edd13110225f80f9f3709b","session_id":"6196c4a8df81e93b5fdd6487","condition":"full-information","relevant_dimensions":["wings","pattern"],"bee_group":{"antennae":"X","wings":"2","pattern":"D","legs":"X"},"action":"avoid","summary":"bad-avoid","bonus":0.5600000000000005},{"rt":669.4000000003725,"stimulus":"\n                    <p><b>Action: <em>avoid</em></b></p>\n                    <p>This is the bee that you just saw.</p>\n                    <img src=\"bees-with-color/bee-B2SF.svg\" width=\"200\">\n                    <p><span class=\"redText\">Bad choice,</span> the bee was friendly.<br>Your bonus pay is unchanged, and remains at $0.24.</p>\n            ","response":0,"trial_type":"html-button-response","trial_index":132,"time_elapsed":589509,"internal_node_id":"0.0-4.0-1.60","subject_id":"614f381c62a00a9deca37834","study_id":"60edd13110225f80f9f3709b","session_id":"6196c4a8df81e93b5fdd6487","condition":"full-information","relevant_dimensions":["wings","pattern"],"bee_group":{"antennae":"X","wings":"2","pattern":"D","legs":"X"},"bonus":0.5600000000000005},{"rt":1009.9000000003725,"stimulus":"bees-with-color/bee-B2SM.svg","response":1,"trial_type":"image-button-response","trial_index":133,"time_elapsed":590523,"internal_node_id":"0.0-4.0-0.61","subject_id":"614f381c62a00a9deca37834","study_id":"60edd13110225f80f9f3709b","session_id":"6196c4a8df81e93b5fdd6487","condition":"full-information","relevant_dimensions":["wings","pattern"],"bee_group":{"antennae":"X","wings":"2","pattern":"D","legs":"X"},"action":"avoid","summary":"bad-avoid","bonus":0.5600000000000005},{"rt":661.8000000007451,"stimulus":"\n                    <p><b>Action: <em>avoid</em></b></p>\n                    <p>This is the bee that you just saw.</p>\n                    <img src=\"bees-with-color/bee-B2SM.svg\" width=\"200\">\n                    <p><span class=\"redText\">Bad choice,</span> the bee was friendly.<br>Your bonus pay is unchanged, and remains at $0.24.</p>\n            ","response":0,"trial_type":"html-button-response","trial_index":134,"time_elapsed":591190,"internal_node_id":"0.0-4.0-1.61","subject_id":"614f381c62a00a9deca37834","study_id":"60edd13110225f80f9f3709b","session_id":"6196c4a8df81e93b5fdd6487","condition":"full-information","relevant_dimensions":["wings","pattern"],"bee_group":{"antennae":"X","wings":"2","pattern":"D","legs":"X"},"bonus":0.5600000000000005},{"rt":771.0999999996275,"stimulus":"bees-with-color/bee-B1SF.svg","response":1,"trial_type":"image-button-response","trial_index":135,"time_elapsed":591965,"internal_node_id":"0.0-4.0-0.62","subject_id":"614f381c62a00a9deca37834","study_id":"60edd13110225f80f9f3709b","session_id":"6196c4a8df81e93b5fdd6487","condition":"full-information","relevant_dimensions":["wings","pattern"],"bee_group":{"antennae":"X","wings":"2","pattern":"D","legs":"X"},"action":"avoid","summary":"bad-avoid","bonus":0.5600000000000005},{"rt":795.6999999992549,"stimulus":"\n                    <p><b>Action: <em>avoid</em></b></p>\n                    <p>This is the bee that you just saw.</p>\n                    <img src=\"bees-with-color/bee-B1SF.svg\" width=\"200\">\n                    <p><span class=\"redText\">Bad choice,</span> the bee was friendly.<br>Your bonus pay is unchanged, and remains at $0.24.</p>\n            ","response":0,"trial_type":"html-button-response","trial_index":136,"time_elapsed":592764,"internal_node_id":"0.0-4.0-1.62","subject_id":"614f381c62a00a9deca37834","study_id":"60edd13110225f80f9f3709b","session_id":"6196c4a8df81e93b5fdd6487","condition":"full-information","relevant_dimensions":["wings","pattern"],"bee_group":{"antennae":"X","wings":"2","pattern":"D","legs":"X"},"bonus":0.5600000000000005},{"rt":1022.6999999992549,"stimulus":"bees-with-color/bee-A2DM.svg","response":1,"trial_type":"image-button-response","trial_index":137,"time_elapsed":593789,"internal_node_id":"0.0-4.0-0.63","subject_id":"614f381c62a00a9deca37834","study_id":"60edd13110225f80f9f3709b","session_id":"6196c4a8df81e93b5fdd6487","condition":"full-information","relevant_dimensions":["wings","pattern"],"bee_group":{"antennae":"X","wings":"2","pattern":"D","legs":"X"},"action":"avoid","summary":"good-avoid","bonus":0.5600000000000005},{"rt":865.5,"stimulus":"\n                    <p><b>Action: <em>avoid</em></b></p>\n                    <p>This is the bee that you just saw.</p>\n                    <img src=\"bees-with-color/bee-A2DM.svg\" width=\"200\">\n                    <p><span class=\"greenText\">Good choice!</span>  This bee would have stung you.<br>Your bonus pay is unchanged, and remains at $0.24.</p>\n            ","response":0,"trial_type":"html-button-response","trial_index":138,"time_elapsed":594657,"internal_node_id":"0.0-4.0-1.63","subject_id":"614f381c62a00a9deca37834","study_id":"60edd13110225f80f9f3709b","session_id":"6196c4a8df81e93b5fdd6487","condition":"full-information","relevant_dimensions":["wings","pattern"],"bee_group":{"antennae":"X","wings":"2","pattern":"D","legs":"X"},"bonus":0.5600000000000005},{"rt":6511.5999999996275,"stimulus":"You have completed the first part of this experiment.<br><br>You will now begin a shorter second part, in which you will receive no feedback.<br>The same rules regarding bonus pay apply.<br><br>Press any key to begin.","response":" ","trial_type":"html-keyboard-response","trial_index":139,"time_elapsed":601172,"internal_node_id":"0.0-5.0","subject_id":"614f381c62a00a9deca37834","study_id":"60edd13110225f80f9f3709b","session_id":"6196c4a8df81e93b5fdd6487","condition":"full-information","relevant_dimensions":["wings","pattern"],"bee_group":{"antennae":"X","wings":"2","pattern":"D","legs":"X"},"bonus":0.5600000000000005},{"rt":5352.199999999255,"stimulus":"bees-with-color/bee-A2DM.svg","response":1,"trial_type":"image-button-response","trial_index":140,"time_elapsed":606545,"internal_node_id":"0.0-6.0-0.0","subject_id":"614f381c62a00a9deca37834","study_id":"60edd13110225f80f9f3709b","session_id":"6196c4a8df81e93b5fdd6487","condition":"full-information","relevant_dimensions":["wings","pattern"],"bee_group":{"antennae":"X","wings":"2","pattern":"D","legs":"X"},"bonus":0.5600000000000005},{"rt":1511.699999999255,"stimulus":"bees-with-color/bee-B2SM.svg","response":0,"trial_type":"image-button-response","trial_index":141,"time_elapsed":608062,"internal_node_id":"0.0-6.0-0.1","subject_id":"614f381c62a00a9deca37834","study_id":"60edd13110225f80f9f3709b","session_id":"6196c4a8df81e93b5fdd6487","condition":"full-information","relevant_dimensions":["wings","pattern"],"bee_group":{"antennae":"X","wings":"2","pattern":"D","legs":"X"},"bonus":0.5600000000000005},{"rt":964.7000000011176,"stimulus":"bees-with-color/bee-B1SF.svg","response":0,"trial_type":"image-button-response","trial_index":142,"time_elapsed":609030,"internal_node_id":"0.0-6.0-0.2","subject_id":"614f381c62a00a9deca37834","study_id":"60edd13110225f80f9f3709b","session_id":"6196c4a8df81e93b5fdd6487","condition":"full-information","relevant_dimensions":["wings","pattern"],"bee_group":{"antennae":"X","wings":"2","pattern":"D","legs":"X"},"bonus":0.5600000000000005},{"rt":1583.4000000003725,"stimulus":"bees-with-color/bee-B2DF.svg","response":1,"trial_type":"image-button-response","trial_index":143,"time_elapsed":610618,"internal_node_id":"0.0-6.0-0.3","subject_id":"614f381c62a00a9deca37834","study_id":"60edd13110225f80f9f3709b","session_id":"6196c4a8df81e93b5fdd6487","condition":"full-information","relevant_dimensions":["wings","pattern"],"bee_group":{"antennae":"X","wings":"2","pattern":"D","legs":"X"},"bonus":0.5600000000000005},{"rt":1885.4000000003725,"stimulus":"bees-with-color/bee-A1SM.svg","response":0,"trial_type":"image-button-response","trial_index":144,"time_elapsed":612509,"internal_node_id":"0.0-6.0-0.4","subject_id":"614f381c62a00a9deca37834","study_id":"60edd13110225f80f9f3709b","session_id":"6196c4a8df81e93b5fdd6487","condition":"full-information","relevant_dimensions":["wings","pattern"],"bee_group":{"antennae":"X","wings":"2","pattern":"D","legs":"X"},"bonus":0.5600000000000005},{"rt":1064.800000000745,"stimulus":"bees-with-color/bee-A2SM.svg","response":1,"trial_type":"image-button-response","trial_index":145,"time_elapsed":613578,"internal_node_id":"0.0-6.0-0.5","subject_id":"614f381c62a00a9deca37834","study_id":"60edd13110225f80f9f3709b","session_id":"6196c4a8df81e93b5fdd6487","condition":"full-information","relevant_dimensions":["wings","pattern"],"bee_group":{"antennae":"X","wings":"2","pattern":"D","legs":"X"},"bonus":0.5600000000000005},{"rt":873,"stimulus":"bees-with-color/bee-A1DM.svg","response":0,"trial_type":"image-button-response","trial_index":146,"time_elapsed":614456,"internal_node_id":"0.0-6.0-0.6","subject_id":"614f381c62a00a9deca37834","study_id":"60edd13110225f80f9f3709b","session_id":"6196c4a8df81e93b5fdd6487","condition":"full-information","relevant_dimensions":["wings","pattern"],"bee_group":{"antennae":"X","wings":"2","pattern":"D","legs":"X"},"bonus":0.5600000000000005},{"rt":995.6000000014901,"stimulus":"bees-with-color/bee-A2SF.svg","response":1,"trial_type":"image-button-response","trial_index":147,"time_elapsed":615456,"internal_node_id":"0.0-6.0-0.7","subject_id":"614f381c62a00a9deca37834","study_id":"60edd13110225f80f9f3709b","session_id":"6196c4a8df81e93b5fdd6487","condition":"full-information","relevant_dimensions":["wings","pattern"],"bee_group":{"antennae":"X","wings":"2","pattern":"D","legs":"X"},"bonus":0.5600000000000005},{"rt":937.3000000007451,"stimulus":"bees-with-color/bee-B1SM.svg","response":0,"trial_type":"image-button-response","trial_index":148,"time_elapsed":616400,"internal_node_id":"0.0-6.0-0.8","subject_id":"614f381c62a00a9deca37834","study_id":"60edd13110225f80f9f3709b","session_id":"6196c4a8df81e93b5fdd6487","condition":"full-information","relevant_dimensions":["wings","pattern"],"bee_group":{"antennae":"X","wings":"2","pattern":"D","legs":"X"},"bonus":0.5600000000000005},{"rt":1407.699999999255,"stimulus":"bees-with-color/bee-B1DM.svg","response":0,"trial_type":"image-button-response","trial_index":149,"time_elapsed":617812,"internal_node_id":"0.0-6.0-0.9","subject_id":"614f381c62a00a9deca37834","study_id":"60edd13110225f80f9f3709b","session_id":"6196c4a8df81e93b5fdd6487","condition":"full-information","relevant_dimensions":["wings","pattern"],"bee_group":{"antennae":"X","wings":"2","pattern":"D","legs":"X"},"bonus":0.5600000000000005},{"rt":792.8999999985099,"stimulus":"bees-with-color/bee-B2DM.svg","response":1,"trial_type":"image-button-response","trial_index":150,"time_elapsed":618608,"internal_node_id":"0.0-6.0-0.10","subject_id":"614f381c62a00a9deca37834","study_id":"60edd13110225f80f9f3709b","session_id":"6196c4a8df81e93b5fdd6487","condition":"full-information","relevant_dimensions":["wings","pattern"],"bee_group":{"antennae":"X","wings":"2","pattern":"D","legs":"X"},"bonus":0.5600000000000005},{"rt":1381.5999999996275,"stimulus":"bees-with-color/bee-A2DF.svg","response":1,"trial_type":"image-button-response","trial_index":151,"time_elapsed":619993,"internal_node_id":"0.0-6.0-0.11","subject_id":"614f381c62a00a9deca37834","study_id":"60edd13110225f80f9f3709b","session_id":"6196c4a8df81e93b5fdd6487","condition":"full-information","relevant_dimensions":["wings","pattern"],"bee_group":{"antennae":"X","wings":"2","pattern":"D","legs":"X"},"bonus":0.5600000000000005},{"rt":804.3000000007451,"stimulus":"bees-with-color/bee-B1DF.svg","response":0,"trial_type":"image-button-response","trial_index":152,"time_elapsed":620801,"internal_node_id":"0.0-6.0-0.12","subject_id":"614f381c62a00a9deca37834","study_id":"60edd13110225f80f9f3709b","session_id":"6196c4a8df81e93b5fdd6487","condition":"full-information","relevant_dimensions":["wings","pattern"],"bee_group":{"antennae":"X","wings":"2","pattern":"D","legs":"X"},"bonus":0.5600000000000005},{"rt":1065.2000000011176,"stimulus":"bees-with-color/bee-A1DF.svg","response":0,"trial_type":"image-button-response","trial_index":153,"time_elapsed":621871,"internal_node_id":"0.0-6.0-0.13","subject_id":"614f381c62a00a9deca37834","study_id":"60edd13110225f80f9f3709b","session_id":"6196c4a8df81e93b5fdd6487","condition":"full-information","relevant_dimensions":["wings","pattern"],"bee_group":{"antennae":"X","wings":"2","pattern":"D","legs":"X"},"bonus":0.5600000000000005},{"rt":711.6999999992549,"stimulus":"bees-with-color/bee-B2SF.svg","response":1,"trial_type":"image-button-response","trial_index":154,"time_elapsed":622588,"internal_node_id":"0.0-6.0-0.14","subject_id":"614f381c62a00a9deca37834","study_id":"60edd13110225f80f9f3709b","session_id":"6196c4a8df81e93b5fdd6487","condition":"full-information","relevant_dimensions":["wings","pattern"],"bee_group":{"antennae":"X","wings":"2","pattern":"D","legs":"X"},"bonus":0.5600000000000005},{"rt":1045.2999999988824,"stimulus":"bees-with-color/bee-A1SF.svg","response":0,"trial_type":"image-button-response","trial_index":155,"time_elapsed":623643,"internal_node_id":"0.0-6.0-0.15","subject_id":"614f381c62a00a9deca37834","study_id":"60edd13110225f80f9f3709b","session_id":"6196c4a8df81e93b5fdd6487","condition":"full-information","relevant_dimensions":["wings","pattern"],"bee_group":{"antennae":"X","wings":"2","pattern":"D","legs":"X"},"bonus":0.5600000000000005},{"rt":1761.2999999988824,"stimulus":"bees-with-color/