[{"success":true,"trial_type":"fullscreen","trial_index":0,"time_elapsed":1469311,"internal_node_id":"0.0-0.0","subject_id":"5ea967566e16ad037690bc4c","study_id":"60edd13110225f80f9f3709b","session_id":"6196c6fb858ed99ed2255827","condition":"full-information","relevant_dimensions":["antennae","wings"],"bee_group":{"antennae":"B","wings":"1","pattern":"X","legs":"X"},"bonus":0.7800000000000011},{"success":true,"timeout":false,"failed_images":[],"failed_audio":[],"failed_video":[],"trial_type":"preload","trial_index":1,"time_elapsed":1471372,"internal_node_id":"0.0-1.0","subject_id":"5ea967566e16ad037690bc4c","study_id":"60edd13110225f80f9f3709b","session_id":"6196c6fb858ed99ed2255827","condition":"full-information","relevant_dimensions":["antennae","wings"],"bee_group":{"antennae":"B","wings":"1","pattern":"X","legs":"X"},"bonus":0.7800000000000011},{"rt":2624.8000000715256,"stimulus":"Welcome! Press any key to begin.","response":" ","trial_type":"html-keyboard-response","trial_index":2,"time_elapsed":1473998,"internal_node_id":"0.0-2.0","subject_id":"5ea967566e16ad037690bc4c","study_id":"60edd13110225f80f9f3709b","session_id":"6196c6fb858ed99ed2255827","condition":"full-information","relevant_dimensions":["antennae","wings"],"bee_group":{"antennae":"B","wings":"1","pattern":"X","legs":"X"},"bonus":0.7800000000000011},{"view_history":[{"page_index":0,"viewing_time":3358.8000000715256},{"page_index":1,"viewing_time":14103.199999928474},{"page_index":2,"viewing_time":12990.399999976158},{"page_index":3,"viewing_time":12491.200000047684},{"page_index":4,"viewing_time":6266.600000023842},{"page_index":5,"viewing_time":5635.899999976158},{"page_index":6,"viewing_time":8725.600000023842},{"page_index":7,"viewing_time":12004.199999928474},{"page_index":8,"viewing_time":5586.5},{"page_index":9,"viewing_time":7265.800000071526},{"page_index":10,"viewing_time":5628.799999952316},{"page_index":11,"viewing_time":15892.300000071526},{"page_index":12,"viewing_time":8580.899999976158},{"page_index":13,"viewing_time":1551.1999999284744},{"page_index":12,"viewing_time":7701.800000071526},{"page_index":13,"viewing_time":1268.1000000238419},{"page_index":14,"viewing_time":2377.2999999523163}],"rt":131428.89999997616,"trial_type":"instructions","trial_index":3,"time_elapsed":1605426,"internal_node_id":"0.0-3.0-0.0","subject_id":"5ea967566e16ad037690bc4c","study_id":"60edd13110225f80f9f3709b","session_id":"6196c6fb858ed99ed2255827","condition":"full-information","relevant_dimensions":["antennae","wings"],"bee_group":{"antennae":"B","wings":"1","pattern":"X","legs":"X"},"bonus":0.7800000000000011},{"rt":45463.299999952316,"response":{"Q0":["Two or six legs","Stripes or spots on body","Single or double wings","Antennae or no antennae"]},"question_order":[0],"trial_type":"survey-multi-select","trial_index":4,"time_elapsed":1650892,"internal_node_id":"0.0-3.0-1.0","subject_id":"5ea967566e16ad037690bc4c","study_id":"60edd13110225f80f9f3709b","session_id":"6196c6fb858ed99ed2255827","condition":"full-information","relevant_dimensions":["antennae","wings"],"bee_group":{"antennae":"B","wings":"1","pattern":"X","legs":"X"},"correct":true,"bonus":0.7800000000000011},{"rt":21728.400000095367,"response":{"Q1":"No.","Q2":"Based on the four features of the bee.","Q3":"You learn if it was friendly or dangerous, but do not alter your bonus."},"question_order":[0,1,2],"trial_type":"survey-multi-choice","trial_index":5,"time_elapsed":1672622,"internal_node_id":"0.0-3.0-2.0","subject_id":"5ea967566e16ad037690bc4c","study_id":"60edd13110225f80f9f3709b","session_id":"6196c6fb858ed99ed2255827","condition":"full-information","relevant_dimensions":["antennae","wings"],"bee_group":{"antennae":"B","wings":"1","pattern":"X","legs":"X"},"correct":true,"bonus":0.7800000000000011},{"rt":2831.5,"stimulus":"<p>Congrats, you got everything right<br>When you're ready, click the button below to continue to the experiment.</p>","response":0,"trial_type":"html-button-response","trial_index":6,"time_elapsed":1675456,"internal_node_id":"0.0-3.0-3.0","subject_id":"5ea967566e16ad037690bc4c","study_id":"60edd13110225f80f9f3709b","session_id":"6196c6fb858ed99ed2255827","condition":"full-information","relevant_dimensions":["antennae","wings"],"bee_group":{"antennae":"B","wings":"1","pattern":"X","legs":"X"},"bonus":0.7800000000000011},{"rt":9402.899999976158,"stimulus":"bees-with-color/bee-A2DF.svg","response":1,"trial_type":"image-button-response","trial_index":7,"time_elapsed":1684862,"internal_node_id":"0.0-4.0-0.0","subject_id":"5ea967566e16ad037690bc4c","study_id":"60edd13110225f80f9f3709b","session_id":"6196c6fb858ed99ed2255827","condition":"full-information","relevant_dimensions":["antennae","wings"],"bee_group":{"antennae":"B","wings":"1","pattern":"X","legs":"X"},"action":"avoid","summary":"bad-avoid","bonus":0.7800000000000011},{"rt":17306.399999976158,"stimulus":"\n                    <p><b>Action: <em>avoid</em></b></p>\n                    <p>This is the bee that you just saw.</p>\n                    <img src=\"bees-with-color/bee-A2DF.svg\" width=\"200\">\n                    <p><span class=\"redText\">Bad choice,</span> the bee was friendly.<br>Your bonus pay is unchanged, and remains at $0.54.</p>\n            ","response":0,"trial_type":"html-button-response","trial_index":8,"time_elapsed":1702170,"internal_node_id":"0.0-4.0-1.0","subject_id":"5ea967566e16ad037690bc4c","study_id":"60edd13110225f80f9f3709b","session_id":"6196c6fb858ed99ed2255827","condition":"full-information","relevant_dimensions":["antennae","wings"],"bee_group":{"antennae":"B","wings":"1","pattern":"X","legs":"X"},"bonus":0.7800000000000011},{"rt":7383.399999976158,"stimulus":"bees-with-color/bee-B2DM.svg","response":1,"trial_type":"image-button-response","trial_index":9,"time_elapsed":1709555,"internal_node_id":"0.0-4.0-0.1","subject_id":"5ea967566e16ad037690bc4c","study_id":"60edd13110225f80f9f3709b","session_id":"6196c6fb858ed99ed2255827","condition":"full-information","relevant_dimensions":["antennae","wings"],"bee_group":{"antennae":"B","wings":"1","pattern":"X","legs":"X"},"action":"avoid","summary":"bad-avoid","bonus":0.7800000000000011},{"rt":8794.799999952316,"stimulus":"\n                    <p><b>Action: <em>avoid</em></b></p>\n                    <p>This is the bee that you just saw.</p>\n                    <img src=\"bees-with-color/bee-B2DM.svg\" width=\"200\">\n                    <p><span class=\"redText\">Bad choice,</span> the bee was friendly.<br>Your bonus pay is unchanged, and remains at $0.54.</p>\n            ","response":0,"trial_type":"html-button-response","trial_index":10,"time_elapsed":1718351,"internal_node_id":"0.0-4.0-1.1","subject_id":"5ea967566e16ad037690bc4c","study_id":"60edd13110225f80f9f3709b","session_id":"6196c6fb858ed99ed2255827","condition":"full-information","relevant_dimensions":["antennae","wings"],"bee_group":{"antennae":"B","wings":"1","pattern":"X","legs":"X"},"bonus":0.7800000000000011},{"rt":2545.7000000476837,"stimulus":"bees-with-color/bee-B1DM.svg","response":0,"trial_type":"image-button-response","trial_index":11,"time_elapsed":1720898,"internal_node_id":"0.0-4.0-0.2","subject_id":"5ea967566e16ad037690bc4c","study_id":"60edd13110225f80f9f3709b","session_id":"6196c6fb858ed99ed2255827","condition":"full-information","relevant_dimensions":["antennae","wings"],"bee_group":{"antennae":"B","wings":"1","pattern":"X","legs":"X"},"action":"harvest","summary":"bad-harvest","bonus":0.7800000000000011},{"rt":18235.399999976158,"stimulus":"\n                    <p><b>Action: <em>harvest</em></b></p>\n                    <p>This is the bee that you just saw.</p>\n                    <img src=\"bees-with-color/bee-B1DM.svg\" width=\"200\">\n                    <p><span class=\"redText\">Bad choice, the bee was angry.</span><br><b>You have been stung!</b><br>Your pay has been decreased by $0.10. Your bonus pay is now $0.44.</p>\n            ","response":0,"trial_type":"html-button-response","trial_index":12,"time_elapsed":1739135,"internal_node_id":"0.0-4.0-1.2","subject_id":"5ea967566e16ad037690bc4c","study_id":"60edd13110225f80f9f3709b","session_id":"6196c6fb858ed99ed2255827","condition":"full-information","relevant_dimensions":["antennae","wings"],"bee_group":{"antennae":"B","wings":"1","pattern":"X","legs":"X"},"bonus":0.7800000000000011},{"rt":4725.100000023842,"stimulus":"bees-with-color/bee-A1SF.svg","response":1,"trial_type":"image-button-response","trial_index":13,"time_elapsed":1743861,"internal_node_id":"0.0-4.0-0.3","subject_id":"5ea967566e16ad037690bc4c","study_id":"60edd13110225f80f9f3709b","session_id":"6196c6fb858ed99ed2255827","condition":"full-information","relevant_dimensions":["antennae","wings"],"bee_group":{"antennae":"B","wings":"1","pattern":"X","legs":"X"},"action":"avoid","summary":"bad-avoid","bonus":0.7800000000000011},{"rt":5934.700000047684,"stimulus":"\n                    <p><b>Action: <em>avoid</em></b></p>\n                    <p>This is the bee that you just saw.</p>\n                    <img src=\"bees-with-color/bee-A1SF.svg\" width=\"200\">\n                    <p><span class=\"redText\">Bad choice,</span> the bee was friendly.<br>Your bonus pay is unchanged, and remains at $0.44.</p>\n            ","response":0,"trial_type":"html-button-response","trial_index":14,"time_elapsed":1749797,"internal_node_id":"0.0-4.0-1.3","subject_id":"5ea967566e16ad037690bc4c","study_id":"60edd13110225f80f9f3709b","session_id":"6196c6fb858ed99ed2255827","condition":"full-information","relevant_dimensions":["antennae","wings"],"bee_group":{"antennae":"B","wings":"1","pattern":"X","legs":"X"},"bonus":0.7800000000000011},{"rt":9015.700000047684,"stimulus":"bees-with-color/bee-B2DF.svg","response":1,"trial_type":"image-button-response","trial_index":15,"time_elapsed":1758814,"internal_node_id":"0.0-4.0-0.4","subject_id":"5ea967566e16ad037690bc4c","study_id":"60edd13110225f80f9f3709b","session_id":"6196c6fb858ed99ed2255827","condition":"full-information","relevant_dimensions":["antennae","wings"],"bee_group":{"antennae":"B","wings":"1","pattern":"X","legs":"X"},"action":"avoid","summary":"bad-avoid","bonus":0.7800000000000011},{"rt":6472.299999952316,"stimulus":"\n                    <p><b>Action: <em>avoid</em></b></p>\n                    <p>This is the bee that you just saw.</p>\n                    <img src=\"bees-with-color/bee-B2DF.svg\" width=\"200\">\n                    <p><span class=\"redText\">Bad choice,</span> the bee was friendly.<br>Your bonus pay is unchanged, and remains at $0.44.</p>\n            ","response":0,"trial_type":"html-button-response","trial_index":16,"time_elapsed":1765288,"internal_node_id":"0.0-4.0-1.4","subject_id":"5ea967566e16ad037690bc4c","study_id":"60edd13110225f80f9f3709b","session_id":"6196c6fb858ed99ed2255827","condition":"full-information","relevant_dimensions":["antennae","wings"],"bee_group":{"antennae":"B","wings":"1","pattern":"X","legs":"X"},"bonus":0.7800000000000011},{"rt":2065.899999976158,"stimulus":"bees-with-color/bee-B1SF.svg","response":1,"trial_type":"image-button-response","trial_index":17,"time_elapsed":1767355,"internal_node_id":"0.0-4.0-0.5","subject_id":"5ea967566e16ad037690bc4c","study_id":"60edd13110225f80f9f3709b","session_id":"6196c6fb858ed99ed2255827","condition":"full-information","relevant_dimensions":["antennae","wings"],"bee_group":{"antennae":"B","wings":"1","pattern":"X","legs":"X"},"action":"avoid","summary":"good-avoid","bonus":0.7800000000000011},{"rt":5800.799999952316,"stimulus":"\n                    <p><b>Action: <em>avoid</em></b></p>\n                    <p>This is the bee that you just saw.</p>\n                    <img src=\"bees-with-color/bee-B1SF.svg\" width=\"200\">\n                    <p><span class=\"greenText\">Good choice!</span>  This bee would have stung you.<br>Your bonus pay is unchanged, and remains at $0.44.</p>\n            ","response":0,"trial_type":"html-button-response","trial_index":18,"time_elapsed":1773157,"internal_node_id":"0.0-4.0-1.5","subject_id":"5ea967566e16ad037690bc4c","study_id":"60edd13110225f80f9f3709b","session_id":"6196c6fb858ed99ed2255827","condition":"full-information","relevant_dimensions":["antennae","wings"],"bee_group":{"antennae":"B","wings":"1","pattern":"X","legs":"X"},"bonus":0.7800000000000011},{"rt":12978.900000095367,"stimulus":"bees-with-color/bee-A1DF.svg","response":0,"trial_type":"image-button-response","trial_index":19,"time_elapsed":1786138,"internal_node_id":"0.0-4.0-0.6","subject_id":"5ea967566e16ad037690bc4c","study_id":"60edd13110225f80f9f3709b","session_id":"6196c6fb858ed99ed2255827","condition":"full-information","relevant_dimensions":["antennae","wings"],"bee_group":{"antennae":"B","wings":"1","pattern":"X","legs":"X"},"action":"harvest","summary":"good-harvest","bonus":0.7800000000000011},{"rt":9644.099999904633,"stimulus":"\n                    <p><b>Action: <em>harvest</em></b></p>\n                    <p>This is the bee that you just saw.</p>\n                    <img src=\"bees-with-color/bee-A1DF.svg\" width=\"200\">\n                    <p><span class=\"greenText\"><b>Successful harvest!</b></span><br>Your pay has increased by $0.02. Your bonus pay is now $0.46.</p>\n            ","response":0,"trial_type":"html-button-response","trial_index":20,"time_elapsed":1795784,"internal_node_id":"0.0-4.0-1.6","subject_id":"5ea967566e16ad037690bc4c","study_id":"60edd13110225f80f9f3709b","session_id":"6196c6fb858ed99ed2255827","condition":"full-information","relevant_dimensions":["antennae","wings"],"bee_group":{"antennae":"B","wings":"1","pattern":"X","legs":"X"},"bonus":0.7800000000000011},{"rt":8376.200000047684,"stimulus":"bees-with-color/bee-B2SF.svg","response":1,"trial_type":"image-button-response","trial_index":21,"time_elapsed":1804162,"internal_node_id":"0.0-4.0-0.7","subject_id":"5ea967566e16ad037690bc4c","study_id":"60edd13110225f80f9f3709b","session_id":"6196c6fb858ed99ed2255827","condition":"full-information","relevant_dimensions":["antennae","wings"],"bee_group":{"antennae":"B","wings":"1","pattern":"X","legs":"X"},"action":"avoid","summary":"bad-avoid","bonus":0.7800000000000011},{"rt":6756.400000095367,"stimulus":"\n                    <p><b>Action: <em>avoid</em></b></p>\n                    <p>This is the bee that you just saw.</p>\n                    <img src=\"bees-with-color/bee-B2SF.svg\" width=\"200\">\n                    <p><span class=\"redText\">Bad choice,</span> the bee was friendly.<br>Your bonus pay is unchanged, and remains at $0.46.</p>\n            ","response":0,"trial_type":"html-button-response","trial_index":22,"time_elapsed":1810920,"internal_node_id":"0.0-4.0-1.7","subject_id":"5ea967566e16ad037690bc4c","study_id":"60edd13110225f80f9f3709b","session_id":"6196c6fb858ed99ed2255827","condition":"full-information","relevant_dimensions":["antennae","wings"],"bee_group":{"antennae":"B","wings":"1","pattern":"X","legs":"X"},"bonus":0.7800000000000011},{"rt":5387.600000023842,"stimulus":"bees-with-color/bee-A2SF.svg","response":1,"trial_type":"image-button-response","trial_index":23,"time_elapsed":1816309,"internal_node_id":"0.0-4.0-0.8","subject_id":"5ea967566e16ad037690bc4c","study_id":"60edd13110225f80f9f3709b","session_id":"6196c6fb858ed99ed2255827","condition":"full-information","relevant_dimensions":["antennae","wings"],"bee_group":{"antennae":"B","wings":"1","pattern":"X","legs":"X"},"action":"avoid","summary":"bad-avoid","bonus":0.7800000000000011},{"rt":5900.899999976158,"stimulus":"\n                    <p><b>Action: <em>avoid</em></b></p>\n                    <p>This is the bee that you just saw.</p>\n                    <img src=\"bees-with-color/bee-A2SF.svg\" width=\"200\">\n                    <p><span class=\"redText\">Bad choice,</span> the bee was friendly.<br>Your bonus pay is unchanged, and remains at $0.46.</p>\n            ","response":0,"trial_type":"html-button-response","trial_index":24,"time_elapsed":1822211,"internal_node_id":"0.0-4.0-1.8","subject_id":"5ea967566e16ad037690bc4c","study_id":"60edd13110225f80f9f3709b","session_id":"6196c6fb858ed99ed2255827","condition":"full-information","relevant_dimensions":["antennae","wings"],"bee_group":{"antennae":"B","wings":"1","pattern":"X","legs":"X"},"bonus":0.7800000000000011},{"rt":14310.099999904633,"stimulus":"bees-with-color/bee-B2SM.svg","response":1,"trial_type":"image-button-response","trial_index":25,"time_elapsed":1836522,"internal_node_id":"0.0-4.0-0.9","subject_id":"5ea967566e16ad037690bc4c","study_id":"60edd13110225f80f9f3709b","session_id":"6196c6fb858ed99ed2255827","condition":"full-information","relevant_dimensions":["antennae","wings"],"bee_group":{"antennae":"B","wings":"1","pattern":"X","legs":"X"},"action":"avoid","summary":"bad-avoid","bonus":0.7800000000000011},{"rt":5674.399999976158,"stimulus":"\n                    <p><b>Action: <em>avoid</em></b></p>\n                    <p>This is the bee that you just saw.</p>\n                    <img src=\"bees-with-color/bee-B2SM.svg\" width=\"200\">\n                    <p><span class=\"redText\">Bad choice,</span> the bee was friendly.<br>Your bonus pay is unchanged, and remains at $0.46.</p>\n            ","response":0,"trial_type":"html-button-response","trial_index":26,"time_elapsed":1842198,"internal_node_id":"0.0-4.0-1.9","subject_id":"5ea967566e16ad037690bc4c","study_id":"60edd13110225f80f9f3709b","session_id":"6196c6fb858ed99ed2255827","condition":"full-information","relevant_dimensions":["antennae","wings"],"bee_group":{"antennae":"B","wings":"1","pattern":"X","legs":"X"},"bonus":0.7800000000000011},{"rt":21820.899999976158,"stimulus":"bees-with-color/bee-A1SM.svg","response":0,"trial_type":"image-button-response","trial_index":27,"time_elapsed":1864019,"internal_node_id":"0.0-4.0-0.10","subject_id":"5ea967566e16ad037690bc4c","study_id":"60edd13110225f80f9f3709b","session_id":"6196c6fb858ed99ed2255827","condition":"full-information","relevant_dimensions":["antennae","wings"],"bee_group":{"antennae":"B","wings":"1","pattern":"X","legs":"X"},"action":"harvest","summary":"good-harvest","bonus":0.7800000000000011},{"rt":7455.899999976158,"stimulus":"\n                    <p><b>Action: <em>harvest</em></b></p>\n                    <p>This is the bee that you just saw.</p>\n                    <img src=\"bees-with-color/bee-A1SM.svg\" width=\"200\">\n                    <p><span class=\"greenText\"><b>Successful harvest!</b></span><br>Your pay has increased by $0.02. Your bonus pay is now $0.48.</p>\n            ","response":0,"trial_type":"html-button-response","trial_index":28,"time_elapsed":1871476,"internal_node_id":"0.0-4.0-1.10","subject_id":"5ea967566e16ad037690bc4c","study_id":"60edd13110225f80f9f3709b","session_id":"6196c6fb858ed99ed2255827","condition":"full-information","relevant_dimensions":["antennae","wings"],"bee_group":{"antennae":"B","wings":"1","pattern":"X","legs":"X"},"bonus":0.7800000000000011},{"rt":18191.600000023842,"stimulus":"bees-with-color/bee-A1DM.svg","response":1,"trial_type":"image-button-response","trial_index":29,"time_elapsed":1889670,"internal_node_id":"0.0-4.0-0.11","subject_id":"5ea967566e16ad037690bc4c","study_id":"60edd13110225f80f9f3709b","session_id":"6196c6fb858ed99ed2255827","condition":"full-information","relevant_dimensions":["antennae","wings"],"bee_group":{"antennae":"B","wings":"1","pattern":"X","legs":"X"},"action":"avoid","summary":"bad-avoid","bonus":0.7800000000000011},{"rt":5377.699999928474,"stimulus":"\n                    <p><b>Action: <em>avoid</em></b></p>\n                    <p>This is the bee that you just saw.</p>\n                    <img src=\"bees-with-color/bee-A1DM.svg\" width=\"200\">\n                    <p><span class=\"redText\">Bad choice,</span> the bee was friendly.<br>Your bonus pay is unchanged, and remains at $0.48.</p>\n            ","response":0,"trial_type":"html-button-response","trial_index":30,"time_elapsed":1895049,"internal_node_id":"0.0-4.0-1.11","subject_id":"5ea967566e16ad037690bc4c","study_id":"60edd13110225f80f9f3709b","session_id":"6196c6fb858ed99ed2255827","condition":"full-information","relevant_dimensions":["antennae","wings"],"bee_group":{"antennae":"B","wings":"1","pattern":"X","legs":"X"},"bonus":0.7800000000000011},{"rt":19446.100000023842,"stimulus":"bees-with-color/bee-B1DF.svg","response":0,"trial_type":"image-button-response","trial_index":31,"time_elapsed":1914496,"internal_node_id":"0.0-4.0-0.12","subject_id":"5ea967566e16ad037690bc4c","study_id":"60edd13110225f80f9f3709b","session_id":"6196c6fb858ed99ed2255827","condition":"full-information","relevant_dimensions":["antennae","wings"],"bee_group":{"antennae":"B","wings":"1","pattern":"X","legs":"X"},"action":"harvest","summary":"bad-harvest","bonus":0.7800000000000011},{"rt":4093.600000023842,"stimulus":"\n                    <p><b>Action: <em>harvest</em></b></p>\n                    <p>This is the bee that you just saw.</p>\n                    <img src=\"bees-with-color/bee-B1DF.svg\" width=\"200\">\n                    <p><span class=\"redText\">Bad choice, the bee was angry.</span><br><b>You have been stung!</b><br>Your pay has been decreased by $0.10. Your bonus pay is now $0.38.</p>\n            ","response":0,"trial_type":"html-button-response","trial_index":32,"time_elapsed":1918591,"internal_node_id":"0.0-4.0-1.12","subject_id":"5ea967566e16ad037690bc4c","study_id":"60edd13110225f80f9f3709b","session_id":"6196c6fb858ed99ed2255827","condition":"full-information","relevant_dimensions":["antennae","wings"],"bee_group":{"antennae":"B","wings":"1","pattern":"X","legs":"X"},"bonus":0.7800000000000011},{"rt":18976.700000047684,"stimulus":"bees-with-color/bee-A2DM.svg","response":1,"trial_type":"image-button-response","trial_index":33,"time_elapsed":1937569,"internal_node_id":"0.0-4.0-0.13","subject_id":"5ea967566e16ad037690bc4c","study_id":"60edd13110225f80f9f3709b","session_id":"6196c6fb858ed99ed2255827","condition":"full-information","relevant_dimensions":["antennae","wings"],"bee_group":{"antennae":"B","wings":"1","pattern":"X","legs":"X"},"action":"avoid","summary":"bad-avoid","bonus":0.7800000000000011},{"rt":2709.2999999523163,"stimulus":"\n                    <p><b>Action: <em>avoid</em></b></p>\n                    <p>This is the bee that you just saw.</p>\n                    <img src=\"bees-with-color/bee-A2DM.svg\" width=\"200\">\n                    <p><span class=\"redText\">Bad choice,</span> the bee was friendly.<br>Your bonus pay is unchanged, and remains at $0.38.</p>\n            ","response":0,"trial_type":"html-button-response","trial_index":34,"time_elapsed":1940279,"internal_node_id":"0.0-4.0-1.13","subject_id":"5ea967566e16ad037690bc4c","study_id":"60edd13110225f80f9f3709b","session_id":"6196c6fb858ed99ed2255827","condition":"full-information","relevant_dimensions":["antennae","wings"],"bee_group":{"antennae":"B","wings":"1","pattern":"X","legs":"X"},"bonus":0.7800000000000011},{"rt":17793.699999928474,"stimulus":"bees-with-color/bee-B1SM.svg","response":1,"trial_type":"image-button-response","trial_index":35,"time_elapsed":1958074,"internal_node_id":"0.0-4.0-0.14","subject_id":"5ea967566e16ad037690bc4c","study_id":"60edd13110225f80f9f3709b","session_id":"6196c6fb858ed99ed2255827","condition":"full-information","relevant_dimensions":["antennae","wings"],"bee_group":{"antennae":"B","wings":"1","pattern":"X","legs":"X"},"action":"avoid","summary":"good-avoid","bonus":0.7800000000000011},{"rt":4898.700000047684,"stimulus":"\n                    <p><b>Action: <em>avoid</em></b></p>\n                    <p>This is the bee that you just saw.</p>\n                    <img src=\"bees-with-color/bee-B1SM.svg\" width=\"200\">\n                    <p><span class=\"greenText\">Good choice!</span>  This bee would have stung you.<br>Your bonus pay is unchanged, and remains at $0.38.</p>\n            ","response":0,"trial_type":"html-button-response","trial_index":36,"time_elapsed":1962974,"internal_node_id":"0.0-4.0-1.14","subject_id":"5ea967566e16ad037690bc4c","study_id":"60edd13110225f80f9f3709b","session_id":"6196c6fb858ed99ed2255827","condition":"full-information","relevant_dimensions":["antennae","wings"],"bee_group":{"antennae":"B","wings":"1","pattern":"X","legs":"X"},"bonus":0.7800000000000011},{"rt":1035.1999999284744,"stimulus":"bees-with-color/bee-A2SM.svg","response":0,"trial_type":"image-button-response","trial_index":37,"time_elapsed":1964011,"internal_node_id":"0.0-4.0-0.15","subject_id":"5ea967566e16ad037690bc4c","study_id":"60edd13110225f80f9f3709b","session_id":"6196c6fb858ed99ed2255827","condition":"full-information","relevant_dimensions":["antennae","wings"],"bee_group":{"antennae":"B","wings":"1","pattern":"X","legs":"X"},"action":"harvest","summary":"good-harvest","bonus":0.7800000000000011},{"rt":8394.800000071526,"stimulus":"\n                    <p><b>Action: <em>harvest</em></b></p>\n                    <p>This is the bee that you just saw.</p>\n                    <img src=\"bees-with-color/bee-A2SM.svg\" width=\"200\">\n                    <p><span class=\"greenText\"><b>Successful harvest!</b></span><br>Your pay has increased by $0.02. Your bonus pay is now $0.40.</p>\n            ","response":0,"trial_type":"html-button-response","trial_index":38,"time_elapsed":1972407,"internal_node_id":"0.0-4.0-1.15","subject_id":"5ea967566e16ad037690bc4c","study_id":"60edd13110225f80f9f3709b","session_id":"6196c6fb858ed99ed2255827","condition":"full-information","relevant_dimensions":["antennae","wings"],"bee_group":{"antennae":"B","wings":"1","pattern":"X","legs":"X"},"bonus":0.7800000000000011},{"rt":20991.900000095367,"stimulus":"bees-with-color/bee-A1SF.svg","response":0,"trial_type":"image-button-response","trial_index":39,"time_elapsed":1993400,"internal_node_id":"0.0-4.0-0.16","subject_id":"5ea967566e16ad037690bc4c","study_id":"60edd13110225f80f9f3709b","session_id":"6196c6fb858ed99ed2255827","condition":"full-information","relevant_dimensions":["antennae","wings"],"bee_group":{"antennae":"B","wings":"1","pattern":"X","legs":"X"},"action":"harvest","summary":"good-harvest","bonus":0.7800000000000011},{"rt":1109.7999999523163,"stimulus":"\n                    <p><b>Action: <em>harvest</em></b></p>\n                    <p>This is the bee that you just saw.</p>\n                    <img src=\"bees-with-color/bee-A1SF.svg\" width=\"200\">\n                    <p><span class=\"greenText\"><b>Successful harvest!</b></span><br>Your pay has increased by $0.02. Your bonus pay is now $0.42.</p>\n            ","response":0,"trial_type":"html-button-response","trial_index":40,"time_elapsed":1994511,"internal_node_id":"0.0-4.0-1.16","subject_id":"5ea967566e16ad037690bc4c","study_id":"60edd13110225f80f9f3709b","session_id":"6196c6fb858ed99ed2255827","condition":"full-information","relevant_dimensions":["antennae","wings"],"bee_group":{"antennae":"B","wings":"1","pattern":"X","legs":"X"},"bonus":0.7800000000000011},{"rt":11955,"stimulus":"bees-with-color/bee-B1SM.svg","response":1,"trial_type":"image-button-response","trial_index":41,"time_elapsed":2006468,"internal_node_id":"0.0-4.0-0.17","subject_id":"5ea967566e16ad037690bc4c","study_id":"60edd13110225f80f9f3709b","session_id":"6196c6fb858ed99ed2255827","condition":"full-information","relevant_dimensions":["antennae","wings"],"bee_group":{"antennae":"B","wings":"1","pattern":"X","legs":"X"},"action":"avoid","summary":"good-avoid","bonus":0.7800000000000011},{"rt":6516.699999928474,"stimulus":"\n                    <p><b>Action: <em>avoid</em></b></p>\n                    <p>This is the bee that you just saw.</p>\n                    <img src=\"bees-with-color/bee-B1SM.svg\" width=\"200\">\n                    <p><span class=\"greenText\">Good choice!</span>  This bee would have stung you.<br>Your bonus pay is unchanged, and remains at $0.42.</p>\n            ","response":0,"trial_type":"html-button-response","trial_index":42,"time_elapsed":2012986,"internal_node_id":"0.0-4.0-1.17","subject_id":"5ea967566e16ad037690bc4c","study_id":"60edd13110225f80f9f3709b","session_id":"6196c6fb858ed99ed2255827","condition":"full-information","relevant_dimensions":["antennae","wings"],"bee_group":{"antennae":"B","wings":"1","pattern":"X","legs":"X"},"bonus":0.7800000000000011},{"rt":23009.5,"stimulus":"bees-with-color/bee-A2DM.svg","response":1,"trial_type":"image-button-response","trial_index":43,"time_elapsed":2035997,"internal_node_id":"0.0-4.0-0.18","subject_id":"5ea967566e16ad037690bc4c","study_id":"60edd13110225f80f9f3709b","session_id":"6196c6fb858ed99ed2255827","condition":"full-information","relevant_dimensions":["antennae","wings"],"bee_group":{"antennae":"B","wings":"1","pattern":"X","legs":"X"},"action":"avoid","summary":"bad-avoid","bonus":0.7800000000000011},{"rt":5949.399999976158,"stimulus":"\n                    <p><b>Action: <em>avoid</em></b></p>\n                    <p>This is the bee that you just saw.</p>\n                    <img src=\"bees-with-color/bee-A2DM.svg\" width=\"200\">\n                    <p><span class=\"redText\">Bad choice,</span> the bee was friendly.<br>Your bonus pay is unchanged, and remains at $0.42.</p>\n            ","response":0,"trial_type":"html-button-response","trial_index":44,"time_elapsed":2041948,"internal_node_id":"0.0-4.0-1.18","subject_id":"5ea967566e16ad037690bc4c","study_id":"60edd13110225f80f9f3709b","session_id":"6196c6fb858ed99ed2255827","condition":"full-information","relevant_dimensions":["antennae","wings"],"bee_group":{"antennae":"B","wings":"1","pattern":"X","legs":"X"},"bonus":0.7800000000000011},{"rt":16416.299999952316,"stimulus":"bees-with-color/bee-B1DM.svg","response":0,"trial_type":"image-button-response","trial_index":45,"time_elapsed":2058366,"internal_node_id":"0.0-4.0-0.19","subject_id":"5ea967566e16ad037690bc4c","study_id":"60edd13110225f80f9f3709b","session_id":"6196c6fb858ed99ed2255827","condition":"full-information","relevant_dimensions":["antennae","wings"],"bee_group":{"antennae":"B","wings":"1","pattern":"X","legs":"X"},"action":"harvest","summary":"bad-harvest","bonus":0.7800000000000011},{"rt":1203.3999999761581,"stimulus":"\n                    <p><b>Action: <em>harvest</em></b></p>\n                    <p>This is the bee that you just saw.</p>\n                    <img src=\"bees-with-color/bee-B1DM.svg\" width=\"200\">\n                    <p><span class=\"redText\">Bad choice, the bee was angry.</span><br><b>You have been stung!</b><br>Your pay has been decreased by $0.10. Your bonus pay is now $0.32.</p>\n            ","response":0,"trial_type":"html-button-response","trial_index":46,"time_elapsed":2059570,"internal_node_id":"0.0-4.0-1.19","subject_id":"5ea967566e16ad037690bc4c","study_id":"60edd13110225f80f9f3709b","session_id":"6196c6fb858ed99ed2255827","condition":"full-information","relevant_dimensions":["antennae","wings"],"bee_group":{"antennae":"B","wings":"1","pattern":"X","legs":"X"},"bonus":0.7800000000000011},{"rt":1509.5,"stimulus":"bees-with-color/bee-B2SM.svg","response":0,"trial_type":"image-button-response","trial_index":47,"time_elapsed":2061081,"internal_node_id":"0.0-4.0-0.20","subject_id":"5ea967566e16ad037690bc4c","study_id":"60edd13110225f80f9f3709b","session_id":"6196c6fb858ed99ed2255827","condition":"full-information","relevant_dimensions":["antennae","wings"],"bee_group":{"antennae":"B","wings":"1","pattern":"X","legs":"X"},"action":"harvest","summary":"good-harvest","bonus":0.7800000000000011},{"rt":988.1000000238419,"stimulus":"\n                    <p><b>Action: <em>harvest</em></b></p>\n                    <p>This is the bee that you just saw.</p>\n                    <img src=\"bees-with-color/bee-B2SM.svg\" width=\"200\">\n                    <p><span class=\"greenText\"><b>Successful harvest!</b></span><br>Your pay has increased by $0.02. Your bonus pay is now $0.34.</p>\n            ","response":0,"trial_type":"html-button-response","trial_index":48,"time_elapsed":2062070,"internal_node_id":"0.0-4.0-1.20","subject_id":"5ea967566e16ad037690bc4c","study_id":"60edd13110225f80f9f3709b","session_id":"6196c6fb858ed99ed2255827","condition":"full-information","relevant_dimensions":["antennae","wings"],"bee_group":{"antennae":"B","wings":"1","pattern":"X","legs":"X"},"bonus":0.7800000000000011},{"rt":9044.100000023842,"stimulus":"bees-with-color/bee-A1SM.svg","response":0,"trial_type":"image-button-response","trial_index":49,"time_elapsed":2071115,"internal_node_id":"0.0-4.0-0.21","subject_id":"5ea967566e16ad037690bc4c","study_id":"60edd13110225f80f9f3709b","session_id":"6196c6fb858ed99ed2255827","condition":"full-information","relevant_dimensions":["antennae","wings"],"bee_group":{"antennae":"B","wings":"1","pattern":"X","legs":"X"},"action":"harvest","summary":"good-harvest","bonus":0.7800000000000011},{"rt":1530.6999999284744,"stimulus":"\n                    <p><b>Action: <em>harvest</em></b></p>\n                    <p>This is the bee that you just saw.</p>\n                    <img src=\"bees-with-color/bee-A1SM.svg\" width=\"200\">\n                    <p><span class=\"greenText\"><b>Successful harvest!</b></span><br>Your pay has increased by $0.02. Your bonus pay is now $0.36.</p>\n            ","response":0,"trial_type":"html-button-response","trial_index":50,"time_elapsed":2072647,"internal_node_id":"0.0-4.0-1.21","subject_id":"5ea967566e16ad037690bc4c","study_id":"60edd13110225f80f9f3709b","session_id":"6196c6fb858ed99ed2255827","condition":"full-information","relevant_dimensions":["antennae","wings"],"bee_group":{"antennae":"B","wings":"1","pattern":"X","legs":"X"},"bonus":0.7800000000000011},{"rt":6487,"stimulus":"bees-with-color/bee-A1DF.svg","response":0,"trial_type":"image-button-response","trial_index":51,"time_elapsed":2079135,"internal_node_id":"0.0-4.0-0.22","subject_id":"5ea967566e16ad037690bc4c","study_id":"60edd13110225f80f9f3709b","session_id":"6196c6fb858ed99ed2255827","condition":"full-information","relevant_dimensions":["antennae","wings"],"bee_group":{"antennae":"B","wings":"1","pattern":"X","legs":"X"},"action":"harvest","summary":"good-harvest","bonus":0.7800000000000011},{"rt":1471.3999999761581,"stimulus":"\n                    <p><b>Action: <em>harvest</em></b></p>\n                    <p>This is the bee that you just saw.</p>\n                    <img src=\"bees-with-color/bee-A1DF.svg\" width=\"200\">\n                    <p><span class=\"greenText\"><b>Successful harvest!</b></span><br>Your pay has increased by $0.02. Your bonus pay is now $0.38.</p>\n            ","response":0,"trial_type":"html-button-response","trial_index":52,"time_elapsed":2080608,"internal_node_id":"0.0-4.0-1.22","subject_id":"5ea967566e16ad037690bc4c","study_id":"60edd13110225f80f9f3709b","session_id":"6196c6fb858ed99ed2255827","condition":"full-information","relevant_dimensions":["antennae","wings"],"bee_group":{"antennae":"B","wings":"1","pattern":"X","legs":"X"},"bonus":0.7800000000000011},{"rt":11070.099999904633,"stimulus":"bees-with-color/bee-A2DF.svg","response":0,"trial_type":"image-button-response","trial_index":53,"time_elapsed":2091680,"internal_node_id":"0.0-4.0-0.23","subject_id":"5ea967566e16ad037690bc4c","study_id":"60edd13110225f80f9f3709b","session_id":"6196c6fb858ed99ed2255827","condition":"full-information","relevant_dimensions":["antennae","wings"],"bee_group":{"antennae":"B","wings":"1","pattern":"X","legs":"X"},"action":"harvest","summary":"good-harvest","bonus":0.7800000000000011},{"rt":1121.7000000476837,"stimulus":"\n                    <p><b>Action: <em>harvest</em></b></p>\n                    <p>This is the bee that you just saw.</p>\n                    <img src=\"bees-with-color/bee-A2DF.svg\" width=\"200\">\n                    <p><span class=\"greenText\"><b>Successful harvest!</b></span><br>Your pay has increased by $0.02. Your bonus pay is now $0.40.</p>\n            ","response":0,"trial_type":"html-button-response","trial_index":54,"time_elapsed":2092803,"internal_node_id":"0.0-4.0-1.23","subject_id":"5ea967566e16ad037690bc4c","study_id":"60edd13110225f80f9f3709b","session_id":"6196c6fb858ed99ed2255827","condition":"full-information","relevant_dimensions":["antennae","wings"],"bee_group":{"antennae":"B","wings":"1","pattern":"X","legs":"X"},"bonus":0.7800000000000011},{"rt":5815.100000023842,"stimulus":"bees-with-color/bee-B2DM.svg","response":0,"trial_type":"image-button-response","trial_index":55,"time_elapsed":2098619,"internal_node_id":"0.0-4.0-0.24","subject_id":"5ea967566e16ad037690bc4c","study_id":"60edd13110225f80f9f3709b","session_id":"6196c6fb858ed99ed2255827","condition":"full-information","relevant_dimensions":["antennae","wings"],"bee_group":{"antennae":"B","wings":"1","pattern":"X","legs":"X"},"action":"harvest","summary":"good-harvest","bonus":0.7800000000000011},{"rt":1165.8999999761581,"stimulus":"\n                    <p><b>Action: <em>harvest</em></b></p>\n                    <p>This is the bee that you just saw.</p>\n                    <img src=\"bees-with-color/bee-B2DM.svg\" width=\"200\">\n                    <p><span class=\"greenText\"><b>Successful harvest!</b></span><br>Your pay has increased by $0.02. Your bonus pay is now $0.42.</p>\n            ","response":0,"trial_type":"html-button-response","trial_index":56,"time_elapsed":2099787,"internal_node_id":"0.0-4.0-1.24","subject_id":"5ea967566e16ad037690bc4c","study_id":"60edd13110225f80f9f3709b","session_id":"6196c6fb858ed99ed2255827","condition":"full-information","relevant_dimensions":["antennae","wings"],"bee_group":{"antennae":"B","wings":"1","pattern":"X","legs":"X"},"bonus":0.7800000000000011},{"rt":18585.399999976158,"stimulus":"bees-with-color/bee-A2SM.svg","response":0,"trial_type":"image-button-response","trial_index":57,"time_elapsed":2118374,"internal_node_id":"0.0-4.0-0.25","subject_id":"5ea967566e16ad037690bc4c","study_id":"60edd13110225f80f9f3709b","session_id":"6196c6fb858ed99ed2255827","condition":"full-information","relevant_dimensions":["antennae","wings"],"bee_group":{"antennae":"B","wings":"1","pattern":"X","legs":"X"},"action":"harvest","summary":"good-harvest","bonus":0.7800000000000011},{"rt":1078,"stimulus":"\n                    <p><b>Action: <em>harvest</em></b></p>\n                    <p>This is the bee that you just saw.</p>\n                    <img src=\"bees-with-color/bee-A2SM.svg\" width=\"200\">\n                    <p><span class=\"greenText\"><b>Successful harvest!</b></span><br>Your pay has increased by $0.02. Your bonus pay is now $0.44.</p>\n            ","response":0,"trial_type":"html-button-response","trial_index":58,"time_elapsed":2119453,"internal_node_id":"0.0-4.0-1.25","subject_id":"5ea967566e16ad037690bc4c","study_id":"60edd13110225f80f9f3709b","session_id":"6196c6fb858ed99ed2255827","condition":"full-information","relevant_dimensions":["antennae","wings"],"bee_group":{"antennae":"B","wings":"1","pattern":"X","legs":"X"},"bonus":0.7800000000000011},{"rt":14938.400000095367,"stimulus":"bees-with-color/bee-A2SF.svg","response":0,"trial_type":"image-button-response","trial_index":59,"time_elapsed":2134393,"internal_node_id":"0.0-4.0-0.26","subject_id":"5ea967566e16ad037690bc4c","study_id":"60edd13110225f80f9f3709b","session_id":"6196c6fb858ed99ed2255827","condition":"full-information","relevant_dimensions":["antennae","wings"],"bee_group":{"antennae":"B","wings":"1","pattern":"X","legs":"X"},"action":"harvest","summary":"good-harvest","bonus":0.7800000000000011},{"rt":888.8999999761581,"stimulus":"\n                    <p><b>Action: <em>harvest</em></b></p>\n                    <p>This is the bee that you just saw.</p>\n                    <img src=\"bees-with-color/bee-A2SF.svg\" width=\"200\">\n                    <p><span class=\"greenText\"><b>Successful harvest!</b></span><br>Your pay has increased by $0.02. Your bonus pay is now $0.46.</p>\n            ","response":0,"trial_type":"html-button-response","trial_index":60,"time_elapsed":2135284,"internal_node_id":"0.0-4.0-1.26","subject_id":"5ea967566e16ad037690bc4c","study_id":"60edd13110225f80f9f3709b","session_id":"6196c6fb858ed99ed2255827","condition":"full-information","relevant_dimensions":["antennae","wings"],"bee_group":{"antennae":"B","wings":"1","pattern":"X","legs":"X"},"bonus":0.7800000000000011},{"rt":5314.300000071526,"stimulus":"bees-with-color/bee-B2SF.svg","response":0,"trial_type":"image-button-response","trial_index":61,"time_elapsed":2140599,"internal_node_id":"0.0-4.0-0.27","subject_id":"5ea967566e16ad037690bc4c","study_id":"60edd13110225f80f9f3709b","session_id":"6196c6fb858ed99ed2255827","condition":"full-information","relevant_dimensions":["antennae","wings"],"bee_group":{"antennae":"B","wings":"1","pattern":"X","legs":"X"},"action":"harvest","summary":"good-harvest","bonus":0.7800000000000011},{"rt":869.7999999523163,"stimulus":"\n                    <p><b>Action: <em>harvest</em></b></p>\n                    <p>This is the bee that you just saw.</p>\n                    <img src=\"bees-with-color/bee-B2SF.svg\" width=\"200\">\n                    <p><span class=\"greenText\"><b>Successful harvest!</b></span><br>Your pay has increased by $0.02. Your bonus pay is now $0.48.</p>\n            ","response":0,"trial_type":"html-button-response","trial_index":62,"time_elapsed":2141471,"internal_node_id":"0.0-4.0-1.27","subject_id":"5ea967566e16ad037690bc4c","study_id":"60edd13110225f80f9f3709b","session_id":"6196c6fb858ed99ed2255827","condition":"full-information","relevant_dimensions":["antennae","wings"],"bee_group":{"antennae":"B","wings":"1","pattern":"X","legs":"X"},"bonus":0.7800000000000011},{"rt":10279.800000071526,"stimulus":"bees-with-color/bee-A1DM.svg","response":0,"trial_type":"image-button-response","trial_index":63,"time_elapsed":2151753,"internal_node_id":"0.0-4.0-0.28","subject_id":"5ea967566e16ad037690bc4c","study_id":"60edd13110225f80f9f3709b","session_id":"6196c6fb858ed99ed2255827","condition":"full-information","relevant_dimensions":["antennae","wings"],"bee_group":{"antennae":"B","wings":"1","pattern":"X","legs":"X"},"action":"harvest","summary":"good-harvest","bonus":0.7800000000000011},{"rt":1338.3999999761581,"stimulus":"\n                    <p><b>Action: <em>harvest</em></b></p>\n                    <p>This is the bee that you just saw.</p>\n                    <img src=\"bees-with-color/bee-A1DM.svg\" width=\"200\">\n                    <p><span class=\"greenText\"><b>Successful harvest!</b></span><br>Your pay has increased by $0.02. Your bonus pay is now $0.50.</p>\n            ","response":0,"trial_type":"html-button-response","trial_index":64,"time_elapsed":2153093,"internal_node_id":"0.0-4.0-1.28","subject_id":"5ea967566e16ad037690bc4c","study_id":"60edd13110225f80f9f3709b","session_id":"6196c6fb858ed99ed2255827","condition":"full-information","relevant_dimensions":["antennae","wings"],"bee_group":{"antennae":"B","wings":"1","pattern":"X","legs":"X"},"bonus":0.7800000000000011},{"rt":15164.100000023842,"stimulus":"bees-with-color/bee-B1SF.svg","response":1,"trial_type":"image-button-response","trial_index":65,"time_elapsed":2168258,"internal_node_id":"0.0-4.0-0.29","subject_id":"5ea967566e16ad037690bc4c","study_id":"60edd13110225f80f9f3709b","session_id":"6196c6fb858ed99ed2255827","condition":"full-information","relevant_dimensions":["antennae","wings"],"bee_group":{"antennae":"B","wings":"1","pattern":"X","legs":"X"},"action":"avoid","summary":"good-avoid","bonus":0.7800000000000011},{"rt":1098.3000000715256,"stimulus":"\n                    <p><b>Action: <em>avoid</em></b></p>\n                    <p>This is the bee that you just saw.</p>\n                    <img src=\"bees-with-color/bee-B1SF.svg\" width=\"200\">\n                    <p><span class=\"greenText\">Good choice!</span>  This bee would have stung you.<br>Your bonus pay is unchanged, and remains at $0.50.</p>\n            ","response":0,"trial_type":"html-button-response","trial_index":66,"time_elapsed":2169357,"internal_node_id":"0.0-4.0-1.29","subject_id":"5ea967566e16ad037690bc4c","study_id":"60edd13110225f80f9f3709b","session_id":"6196c6fb858ed99ed2255827","condition":"full-information","relevant_dimensions":["antennae","wings"],"bee_group":{"antennae":"B","wings":"1","pattern":"X","legs":"X"},"bonus":0.7800000000000011},{"rt":19809.700000047684,"stimulus":"bees-with-color/bee-B2DF.svg","response":0,"trial_type":"image-button-response","trial_index":67,"time_elapsed":2189168,"internal_node_id":"0.0-4.0-0.30","subject_id":"5ea967566e16ad037690bc4c","study_id":"60edd13110225f80f9f3709b","session_id":"6196c6fb858ed99ed2255827","condition":"full-information","relevant_dimensions":["antennae","wings"],"bee_group":{"antennae":"B","wings":"1","pattern":"X","legs":"X"},"action":"harvest","summary":"good-harvest","bonus":0.7800000000000011},{"rt":899.1000000238419,"stimulus":"\n                    <p><b>Action: <em>harvest</em></b></p>\n                    <p>This is the bee that you just saw.</p>\n                    <img src=\"bees-with-color/bee-B2DF.svg\" width=\"200\">\n                    <p><span class=\"greenText\"><b>Successful harvest!</b></span><br>Your pay has increased by $0.02. Your bonus pay is now $0.52.</p>\n            ","response":0,"trial_type":"html-button-response","trial_index":68,"time_elapsed":2190068,"internal_node_id":"0.0-4.0-1.30","subject_id":"5ea967566e16ad037690bc4c","study_id":"60edd13110225f80f9f3709b","session_id":"6196c6fb858ed99ed2255827","condition":"full-information","relevant_dimensions":["antennae","wings"],"bee_group":{"antennae":"B","wings":"1","pattern":"X","legs":"X"},"bonus":0.7800000000000011},{"rt":19079.799999952316,"stimulus":"bees-with-color/bee-B1DF.svg","response":1,"trial_type":"image-button-response","trial_index":69,"time_elapsed":2209150,"internal_node_id":"0.0-4.0-0.31","subject_id":"5ea967566e16ad037690bc4c","study_id":"60edd13110225f80f9f3709b","session_id":"6196c6fb858ed99ed2255827","condition":"full-information","relevant_dimensions":["antennae","wings"],"bee_group":{"antennae":"B","wings":"1","pattern":"X","legs":"X"},"action":"avoid","summary":"good-avoid","bonus":0.7800000000000011},{"rt":963.2000000476837,"stimulus":"\n                    <p><b>Action: <em>avoid</em></b></p>\n                    <p>This is the bee that you just saw.</p>\n                    <img src=\"bees-with-color/bee-B1DF.svg\" width=\"200\">\n                    <p><span class=\"greenText\">Good choice!</span>  This bee would have stung you.<br>Your bonus pay is unchanged, and remains at $0.52.</p>\n            ","response":0,"trial_type":"html-button-response","trial_index":70,"time_elapsed":2210114,"internal_node_id":"0.0-4.0-1.31","subject_id":"5ea967566e16ad037690bc4c","study_id":"60edd13110225f80f9f3709b","session_id":"6196c6fb858ed99ed2255827","condition":"full-information","relevant_dimensions":["antennae","wings"],"bee_group":{"antennae":"B","wings":"1","pattern":"X","legs":"X"},"bonus":0.7800000000000011},{"rt":1676.1000000238419,"stimulus":"bees-with-color/bee-A2DF.svg","response":0,"trial_type":"image-button-response","trial_index":71,"time_elapsed":2211792,"internal_node_id":"0.0-4.0-0.32","subject_id":"5ea967566e16ad037690bc4c","study_id":"60edd13110225f80f9f3709b","session_id":"6196c6fb858ed99ed2255827","condition":"full-information","relevant_dimensions":["antennae","wings"],"bee_group":{"antennae":"B","wings":"1","pattern":"X","legs":"X"},"action":"harvest","summary":"good-harvest","bonus":0.7800000000000011},{"rt":1132.7000000476837,"stimulus":"\n                    <p><b>Action: <em>harvest</em></b></p>\n                    <p>This is the bee that you just saw.</p>\n                    <img src=\"bees-with-color/bee-A2DF.svg\" width=\"200\">\n                    <p><span class=\"greenText\"><b>Successful harvest!</b></span><br>Your pay has increased by $0.02. Your bonus pay is now $0.54.</p>\n            ","response":0,"trial_type":"html-button-response","trial_index":72,"time_elapsed":2212925,"internal_node_id":"0.0-4.0-1.32","subject_id":"5ea967566e16ad037690bc4c","study_id":"60edd13110225f80f9f3709b","session_id":"6196c6fb858ed99ed2255827","condition":"full-information","relevant_dimensions":["antennae","wings"],"bee_group":{"antennae":"B","wings":"1","pattern":"X","legs":"X"},"bonus":0.7800000000000011},{"rt":5009,"stimulus":"bees-with-color/bee-A2SM.svg","response":0,"trial_type":"image-button-response","trial_index":73,"time_elapsed":2217936,"internal_node_id":"0.0-4.0-0.33","subject_id":"5ea967566e16ad037690bc4c","study_id":"60edd13110225f80f9f3709b","session_id":"6196c6fb858ed99ed2255827","condition":"full-information","relevant_dimensions":["antennae","wings"],"bee_group":{"antennae":"B","wings":"1","pattern":"X","legs":"X"},"action":"harvest","summary":"good-harvest","bonus":0.7800000000000011},{"rt":889.5,"stimulus":"\n                    <p><b>Action: <em>harvest</em></b></p>\n                    <p>This is the bee that you just saw.</p>\n                    <img src=\"bees-with-color/bee-A2SM.svg\" width=\"200\">\n                    <p><span class=\"greenText\"><b>Successful harvest!</b></span><br>Your pay has increased by $0.02. Your bonus pay is now $0.56.</p>\n            ","response":0,"trial_type":"html-button-response","trial_index":74,"time_elapsed":2218826,"internal_node_id":"0.0-4.0-1.33","subject_id":"5ea967566e16ad037690bc4c","study_id":"60edd13110225f80f9f3709b","session_id":"6196c6fb858ed99ed2255827","condition":"full-information","relevant_dimensions":["antennae","wings"],"bee_group":{"antennae":"B","wings":"1","pattern":"X","legs":"X"},"bonus":0.7800000000000011},{"rt":12511.100000023842,"stimulus":"bees-with-color/bee-A1DF.svg","response":0,"trial_type":"image-button-response","trial_index":75,"time_elapsed":2231339,"internal_node_id":"0.0-4.0-0.34","subject_id":"5ea967566e16ad037690bc4c","study_id":"60edd13110225f80f9f3709b","session_id":"6196c6fb858ed99ed2255827","condition":"full-information","relevant_dimensions":["antennae","wings"],"bee_group":{"antennae":"B","wings":"1","pattern":"X","legs":"X"},"action":"harvest","summary":"good-harvest","bonus":0.7800000000000011},{"rt":848.8999999761581,"stimulus":"\n                    <p><b>Action: <em>harvest</em></b></p>\n                    <p>This is the bee that you just saw.</p>\n                    <img src=\"bees-with-color/bee-A1DF.svg\" width=\"200\">\n                    <p><span class=\"greenText\"><b>Successful harvest!</b></span><br>Your pay has increased by $0.02. Your bonus pay is now $0.58.</p>\n            ","response":0,"trial_type":"html-button-response","trial_index":76,"time_elapsed":2232190,"internal_node_id":"0.0-4.0-1.34","subject_id":"5ea967566e16ad037690bc4c","study_id":"60edd13110225f80f9f3709b","session_id":"6196c6fb858ed99ed2255827","condition":"full-information","relevant_dimensions":["antennae","wings"],"bee_group":{"antennae":"B","wings":"1","pattern":"X","legs":"X"},"bonus":0.7800000000000011},{"rt":11076.300000071526,"stimulus":"bees-with-color/bee-B1SF.svg","response":0,"trial_type":"image-button-response","trial_index":77,"time_elapsed":2243268,"internal_node_id":"0.0-4.0-0.35","subject_id":"5ea967566e16ad037690bc4c","study_id":"60edd13110225f80f9f3709b","session_id":"6196c6fb858ed99ed2255827","condition":"full-information","relevant_dimensions":["antennae","wings"],"bee_group":{"antennae":"B","wings":"1","pattern":"X","legs":"X"},"action":"harvest","summary":"bad-harvest","bonus":0.7800000000000011},{"rt":1369.1000000238419,"stimulus":"\n                    <p><b>Action: <em>harvest</em></b></p>\n                    <p>This is the bee that you just saw.</p>\n                    <img src=\"bees-with-color/bee-B1SF.svg\" width=\"200\">\n                    <p><span class=\"redText\">Bad choice, the bee was angry.</span><br><b>You have been stung!</b><br>Your pay has been decreased by $0.10. Your bonus pay is now $0.48.</p>\n            ","response":0,"trial_type":"html-button-response","trial_index":78,"time_elapsed":2244638,"internal_node_id":"0.0-4.0-1.35","subject_id":"5ea967566e16ad037690bc4c","study_id":"60edd13110225f80f9f3709b","session_id":"6196c6fb858ed99ed2255827","condition":"full-information","relevant_dimensions":["antennae","wings"],"bee_group":{"antennae":"B","wings":"1","pattern":"X","legs":"X"},"bonus":0.7800000000000011},{"rt":22625,"stimulus":"bees-with-color/bee-A1DM.svg","response":0,"trial_type":"image-button-response","trial_index":79,"time_elapsed":2267264,"internal_node_id":"0.0-4.0-0.36","subject_id":"5ea967566e16ad037690bc4c","study_id":"60edd13110225f80f9f3709b","session_id":"6196c6fb858ed99ed2255827","condition":"full-information","relevant_dimensions":["antennae","wings"],"bee_group":{"antennae":"B","wings":"1","pattern":"X","legs":"X"},"action":"harvest","summary":"good-harvest","bonus":0.7800000000000011},{"rt":956.6000000238419,"stimulus":"\n                    <p><b>Action: <em>harvest</em></b></p>\n                    <p>This is the bee that you just saw.</p>\n                    <img src=\"bees-with-color/bee-A1DM.svg\" width=\"200\">\n                    <p><span class=\"greenText\"><b>Successful harvest!</b></span><br>Your pay has increased by $0.02. Your bonus pay is now $0.50.</p>\n            ","response":0,"trial_type":"html-button-response","trial_index":80,"time_elapsed":2268222,"internal_node_id":"0.0-4.0-1.36","subject_id":"5ea967566e16ad037690bc4c","study_id":"60edd13110225f80f9f3709b","session_id":"6196c6fb858ed99ed2255827","condition":"full-information","relevant_dimensions":["antennae","wings"],"bee_group":{"antennae":"B","wings":"1","pattern":"X","legs":"X"},"bonus":0.7800000000000011},{"rt":4155.100000023842,"stimulus":"bees-with-color/bee-A1SF.svg","response":0,"trial_type":"image-button-response","trial_index":81,"time_elapsed":2272379,"internal_node_id":"0.0-4.0-0.37","subject_id":"5ea967566e16ad037690bc4c","study_id":"60edd13110225f80f9f3709b","session_id":"6196c6fb858ed99ed2255827","condition":"full-information","relevant_dimensions":["antennae","wings"],"bee_group":{"antennae":"B","wings":"1","pattern":"X","legs":"X"},"action":"harvest","summary":"good-harvest","bonus":0.7800000000000011},{"rt":1139.1000000238419,"stimulus":"\n                    <p><b>Action: <em>harvest</em></b></p>\n                    <p>This is the bee that you just saw.</p>\n                    <img src=\"bees-with-color/bee-A1SF.svg\" width=\"200\">\n                    <p><span class=\"greenText\"><b>Successful harvest!</b></span><br>Your pay has increased by $0.02. Your bonus pay is now $0.52.</p>\n            ","response":0,"trial_type":"html-button-response","trial_index":82,"time_elapsed":2273519,"internal_node_id":"0.0-4.0-1.37","subject_id":"5ea967566e16ad037690bc4c","study_id":"60edd13110225f80f9f3709b","session_id":"6196c6fb858ed99ed2255827","condition":"full-information","relevant_dimensions":["antennae","wings"],"bee_group":{"antennae":"B","wings":"1","pattern":"X","legs":"X"},"bonus":0.7800000000000011},{"rt":6609.399999976158,"stimulus":"bees-with-color/bee-A2DM.svg","response":0,"trial_type":"image-button-response","trial_index":83,"time_elapsed":2280130,"internal_node_id":"0.0-4.0-0.38","subject_id":"5ea967566e16ad037690bc4c","study_id":"60edd13110225f80f9f3709b","session_id":"6196c6fb858ed99ed2255827","condition":"full-information","relevant_dimensions":["antennae","wings"],"bee_group":{"antennae":"B","wings":"1","pattern":"X","legs":"X"},"action":"harvest","summary":"good-harvest","bonus":0.7800000000000011},{"rt":2349.100000023842,"stimulus":"\n                    <p><b>Action: <em>harvest</em></b></p>\n                    <p>This is the bee that you just saw.</p>\n                    <img src=\"bees-with-color/bee-A2DM.svg\" width=\"200\">\n                    <p><span class=\"greenText\"><b>Successful harvest!</b></span><br>Your pay has increased by $0.02. Your bonus pay is now $0.54.</p>\n            ","response":0,"trial_type":"html-button-response","trial_index":84,"time_elapsed":2282480,"internal_node_id":"0.0-4.0-1.38","subject_id":"5ea967566e16ad037690bc4c","study_id":"60edd13110225f80f9f3709b","session_id":"6196c6fb858ed99ed2255827","condition":"full-information","relevant_dimensions":["antennae","wings"],"bee_group":{"antennae":"B","wings":"1","pattern":"X","legs":"X"},"bonus":0.7800000000000011},{"rt":5730.300000071526,"stimulus":"bees-with-color/bee-B1DM.svg","response":0,"trial_type":"image-button-response","trial_index":85,"time_elapsed":2288211,"internal_node_id":"0.0-4.0-0.39","subject_id":"5ea967566e16ad037690bc4c","study_id":"60edd13110225f80f9f3709b","session_id":"6196c6fb858ed99ed2255827","condition":"full-information","relevant_dimensions":["antennae","wings"],"bee_group":{"antennae":"B","wings":"1","pattern":"X","legs":"X"},"action":"harvest","summary":"bad-harvest","bonus":0.7800000000000011},{"rt":2863.399999976158,"stimulus":"\n                    <p><b>Action: <em>harvest</em></b></p>\n                    <p>This is the bee that you just saw.</p>\n                    <img src=\"bees-with-color/bee-B1DM.svg\" width=\"200\">\n                    <p><span class=\"redText\">Bad choice, the bee was angry.</span><br><b>You have been stung!</b><br>Your pay has been decreased by $0.10. Your bonus pay is now $0.44.</p>\n            ","response":0,"trial_type":"html-button-response","trial_index":86,"time_elapsed":2291076,"internal_node_id":"0.0-4.0-1.39","subject_id":"5ea967566e16ad037690bc4c","study_id":"60edd13110225f80f9f3709b","session_id":"6196c6fb858ed99ed2255827","condition":"full-information","relevant_dimensions":["antennae","wings"],"bee_group":{"antennae":"B","wings":"1","pattern":"X","legs":"X"},"bonus":0.7800000000000011},{"rt":22799.100000023842,"stimulus":"bees-with-color/bee-B1DF.svg","response":1,"trial_type":"image-button-response","trial_index":87,"time_elapsed":2313876,"internal_node_id":"0.0-4.0-0.40","subject_id":"5ea967566e16ad037690bc4c","study_id":"60edd13110225f80f9f3709b","session_id":"6196c6fb858ed99ed2255827","condition":"full-information","relevant_dimensions":["antennae","wings"],"bee_group":{"antennae":"B","wings":"1","pattern":"X","legs":"X"},"action":"avoid","summary":"good-avoid","bonus":0.7800000000000011},{"rt":1109.0999999046326,"stimulus":"\n                    <p><b>Action: <em>avoid</em></b></p>\n                    <p>This is the bee that you just saw.</p>\n                    <img src=\"bees-with-color/bee-B1DF.svg\" width=\"200\">\n                    <p><span class=\"greenText\">Good choice!</span>  This bee would have stung you.<br>Your bonus pay is unchanged, and remains at $0.44.</p>\n            ","response":0,"trial_type":"html-button-response","trial_index":88,"time_elapsed":2314986,"internal_node_id":"0.0-4.0-1.40","subject_id":"5ea967566e16ad037690bc4c","study_id":"60edd13110225f80f9f3709b","session_id":"6196c6fb858ed99ed2255827","condition":"full-information","relevant_dimensions":["antennae","wings"],"bee_group":{"antennae":"B","wings":"1","pattern":"X","legs":"X"},"bonus":0.7800000000000011},{"rt":4935.799999952316,"stimulus":"bees-with-color/bee-A1SM.svg","response":0,"trial_type":"image-button-response","trial_index":89,"time_elapsed":2319924,"internal_node_id":"0.0-4.0-0.41","subject_id":"5ea967566e16ad037690bc4c","study_id":"60edd13110225f80f9f3709b","session_id":"6196c6fb858ed99ed2255827","condition":"full-information","relevant_dimensions":["antennae","wings"],"bee_group":{"antennae":"B","wings":"1","pattern":"X","legs":"X"},"action":"harvest","summary":"good-harvest","bonus":0.7800000000000011},{"rt":1277.1000000238419,"stimulus":"\n                    <p><b>Action: <em>harvest</em></b></p>\n                    <p>This is the bee that you just saw.</p>\n                    <img src=\"bees-with-color/bee-A1SM.svg\" width=\"200\">\n                    <p><span class=\"greenText\"><b>Successful harvest!</b></span><br>Your pay has increased by $0.02. Your bonus pay is now $0.46.</p>\n            ","response":0,"trial_type":"html-button-response","trial_index":90,"time_elapsed":2321202,"internal_node_id":"0.0-4.0-1.41","subject_id":"5ea967566e16ad037690bc4c","study_id":"60edd13110225f80f9f3709b","session_id":"6196c6fb858ed99ed2255827","condition":"full-information","relevant_dimensions":["antennae","wings"],"bee_group":{"antennae":"B","wings":"1","pattern":"X","legs":"X"},"bonus":0.7800000000000011},{"rt":14105.199999928474,"stimulus":"bees-with-color/bee-B2SM.svg","response":0,"trial_type":"image-button-response","trial_index":91,"time_elapsed":2335309,"internal_node_id":"0.0-4.0-0.42","subject_id":"5ea967566e16ad037690bc4c","study_id":"60edd13110225f80f9f3709b","session_id":"6196c6fb858ed99ed2255827","condition":"full-information","relevant_dimensions":["antennae","wings"],"bee_group":{"antennae":"B","wings":"1","pattern":"X","legs":"X"},"action":"harvest","summary":"good-harvest","bonus":0.7800000000000011},{"rt":750.1000000238419,"stimulus":"\n                    <p><b>Action: <em>harvest</em></b></p>\n                    <p>This is the bee that you just saw.</p>\n                    <img src=\"bees-with-color/bee-B2SM.svg\" width=\"200\">\n                    <p><span class=\"greenText\"><b>Successful harvest!</b></span><br>Your pay has increased by $0.02. Your bonus pay is now $0.48.</p>\n            ","response":0,"trial_type":"html-button-response","trial_index":92,"time_elapsed":2336060,"internal_node_id":"0.0-4.0-1.42","subject_id":"5ea967566e16ad037690bc4c","study_id":"60edd13110225f80f9f3709b","session_id":"6196c6fb858ed99ed2255827","condition":"full-information","relevant_dimensions":["antennae","wings"],"bee_group":{"antennae":"B","wings":"1","pattern":"X","legs":"X"},"bonus":0.7800000000000011},{"rt":12696.200000047684,"stimulus":"bees-with-color/bee-A2SF.svg","response":0,"trial_type":"image-button-response","trial_index":93,"time_elapsed":2348757,"internal_node_id":"0.0-4.0-0.43","subject_id":"5ea967566e16ad037690bc4c","study_id":"60edd13110225f80f9f3709b","session_id":"6196c6fb858ed99ed2255827","condition":"full-information","relevant_dimensions":["antennae","wings"],"bee_group":{"antennae":"B","wings":"1","pattern":"X","legs":"X"},"action":"harvest","summary":"good-harvest","bonus":0.7800000000000011},{"rt":912.2999999523163,"stimulus":"\n                    <p><b>Action: <em>harvest</em></b></p>\n                    <p>This is the bee that you just saw.</p>\n                    <img src=\"bees-with-color/bee-A2SF.svg\" width=\"200\">\n                    <p><span class=\"greenText\"><b>Successful harvest!</b></span><br>Your pay has increased by $0.02. Your bonus pay is now $0.50.</p>\n            ","response":0,"trial_type":"html-button-response","trial_index":94,"time_elapsed":2349670,"internal_node_id":"0.0-4.0-1.43","subject_id":"5ea967566e16ad037690bc4c","study_id":"60edd13110225f80f9f3709b","session_id":"6196c6fb858ed99ed2255827","condition":"full-information","relevant_dimensions":["antennae","wings"],"bee_group":{"antennae":"B","wings":"1","pattern":"X","legs":"X"},"bonus":0.7800000000000011},{"rt":10578.899999976158,"stimulus":"bees-with-color/bee-B2DF.svg","response":0,"trial_type":"image-button-response","trial_index":95,"time_elapsed":2360250,"internal_node_id":"0.0-4.0-0.44","subject_id":"5ea967566e16ad037690bc4c","study_id":"60edd13110225f80f9f3709b","session_id":"6196c6fb858ed99ed2255827","condition":"full-information","relevant_dimensions":["antennae","wings"],"bee_group":{"antennae":"B","wings":"1","pattern":"X","legs":"X"},"action":"harvest","summary":"good-harvest","bonus":0.7800000000000011},{"rt":1358,"stimulus":"\n                    <p><b>Action: <em>harvest</em></b></p>\n                    <p>This is the bee that you just saw.</p>\n                    <img src=\"bees-with-color/bee-B2DF.svg\" width=\"200\">\n                    <p><span class=\"greenText\"><b>Successful harvest!</b></span><br>Your pay has increased by $0.02. Your bonus pay is now $0.52.</p>\n            ","response":0,"trial_type":"html-button-response","trial_index":96,"time_elapsed":2361609,"internal_node_id":"0.0-4.0-1.44","subject_id":"5ea967566e16ad037690bc4c","study_id":"60edd13110225f80f9f3709b","session_id":"6196c6fb858ed99ed2255827","condition":"full-information","relevant_dimensions":["antennae","wings"],"bee_group":{"antennae":"B","wings":"1","pattern":"X","legs":"X"},"bonus":0.7800000000000011},{"rt":9629.600000023842,"stimulus":"bees-with-color/bee-B1SM.svg","response":0,"trial_type":"image-button-response","trial_index":97,"time_elapsed":2371240,"internal_node_id":"0.0-4.0-0.45","subject_id":"5ea967566e16ad037690bc4c","study_id":"60edd13110225f80f9f3709b","session_id":"6196c6fb858ed99ed2255827","condition":"full-information","relevant_dimensions":["antennae","wings"],"bee_group":{"antennae":"B","wings":"1","pattern":"X","legs":"X"},"action":"harvest","summary":"bad-harvest","bonus":0.7800000000000011},{"rt":1327.1000000238419,"stimulus":"\n                    <p><b>Action: <em>harvest</em></b></p>\n                    <p>This is the bee that you just saw.</p>\n                    <img src=\"bees-with-color/bee-B1SM.svg\" width=\"200\">\n                    <p><span class=\"redText\">Bad choice, the bee was angry.</span><br><b>You have been stung!</b><br>Your pay has been decreased by $0.10. Your bonus pay is now $0.42.</p>\n            ","response":0,"trial_type":"html-button-response","trial_index":98,"time_elapsed":2372569,"internal_node_id":"0.0-4.0-1.45","subject_id":"5ea967566e16ad037690bc4c","study_id":"60edd13110225f80f9f3709b","session_id":"6196c6fb858ed99ed2255827","condition":"full-information","relevant_dimensions":["antennae","wings"],"bee_group":{"antennae":"B","wings":"1","pattern":"X","legs":"X"},"bonus":0.7800000000000011},{"rt":7305.600000023842,"stimulus":"bees-with-color/bee-B2DM.svg","response":0,"trial_type":"image-button-response","trial_index":99,"time_elapsed":2379875,"internal_node_id":"0.0-4.0-0.46","subject_id":"5ea967566e16ad037690bc4c","study_id":"60edd13110225f80f9f3709b","session_id":"6196c6fb858ed99ed2255827","condition":"full-information","relevant_dimensions":["antennae","wings"],"bee_group":{"antennae":"B","wings":"1","pattern":"X","legs":"X"},"action":"harvest","summary":"good-harvest","bonus":0.7800000000000011},{"rt":849.2000000476837,"stimulus":"\n                    <p><b>Action: <em>harvest</em></b></p>\n                    <p>This is the bee that you just saw.</p>\n                    <img src=\"bees-with-color/bee-B2DM.svg\" width=\"200\">\n                    <p><span class=\"greenText\"><b>Successful harvest!</b></span><br>Your pay has increased by $0.02. Your bonus pay is now $0.44.</p>\n            ","response":0,"trial_type":"html-button-response","trial_index":100,"time_elapsed":2380726,"internal_node_id":"0.0-4.0-1.46","subject_id":"5ea967566e16ad037690bc4c","study_id":"60edd13110225f80f9f3709b","session_id":"6196c6fb858ed99ed2255827","condition":"full-information","relevant_dimensions":["antennae","wings"],"bee_group":{"antennae":"B","wings":"1","pattern":"X","legs":"X"},"bonus":0.7800000000000011},{"rt":11899.899999976158,"stimulus":"bees-with-color/bee-B2SF.svg","response":0,"trial_type":"image-button-response","trial_index":101,"time_elapsed":2392627,"internal_node_id":"0.0-4.0-0.47","subject_id":"5ea967566e16ad037690bc4c","study_id":"60edd13110225f80f9f3709b","session_id":"6196c6fb858ed99ed2255827","condition":"full-information","relevant_dimensions":["antennae","wings"],"bee_group":{"antennae":"B","wings":"1","pattern":"X","legs":"X"},"action":"harvest","summary":"good-harvest","bonus":0.7800000000000011},{"rt":787.1000000238419,"stimulus":"\n                    <p><b>Action: <em>harvest</em></b></p>\n                    <p>This is the bee that you just saw.</p>\n                    <img src=\"bees-with-color/bee-B2SF.svg\" width=\"200\">\n                    <p><span class=\"greenText\"><b>Successful harvest!</b></span><br>Your pay has increased by $0.02. Your bonus pay is now $0.46.</p>\n            ","response":0,"trial_type":"html-button-response","trial_index":102,"time_elapsed":2393415,"internal_node_id":"0.0-4.0-1.47","subject_id":"5ea967566e16ad037690bc4c","study_id":"60edd13110225f80f9f3709b","session_id":"6196c6fb858ed99ed2255827","condition":"full-information","relevant_dimensions":["antennae","wings"],"bee_group":{"antennae":"B","wings":"1","pattern":"X","legs":"X"},"bonus":0.7800000000000011},{"rt":11279.399999976158,"stimulus":"bees-with-color/bee-A2DF.svg","response":0,"trial_type":"image-button-response","trial_index":103,"time_elapsed":2404696,"internal_node_id":"0.0-4.0-0.48","subject_id":"5ea967566e16ad037690bc4c","study_id":"60edd13110225f80f9f3709b","session_id":"6196c6fb858ed99ed2255827","condition":"full-information","relevant_dimensions":["antennae","wings"],"bee_group":{"antennae":"B","wings":"1","pattern":"X","legs":"X"},"action":"harvest","summary":"good-harvest","bonus":0.7800000000000011},{"rt":1005.8999999761581,"stimulus":"\n                    <p><b>Action: <em>harvest</em></b></p>\n                    <p>This is the bee that you just saw.</p>\n                    <img src=\"bees-with-color/bee-A2DF.svg\" width=\"200\">\n                    <p><span class=\"greenText\"><b>Successful harvest!</b></span><br>Your pay has increased by $0.02. Your bonus pay is now $0.48.</p>\n            ","response":0,"trial_type":"html-button-response","trial_index":104,"time_elapsed":2405703,"internal_node_id":"0.0-4.0-1.48","subject_id":"5ea967566e16ad037690bc4c","study_id":"60edd13110225f80f9f3709b","session_id":"6196c6fb858ed99ed2255827","condition":"full-information","relevant_dimensions":["antennae","wings"],"bee_group":{"antennae":"B","wings":"1","pattern":"X","legs":"X"},"bonus":0.7800000000000011},{"rt":1560.8999999761581,"stimulus":"bees-with-color/bee-B1SF.svg","response":0,"trial_type":"image-button-response","trial_index":105,"time_elapsed":2407266,"internal_node_id":"0.0-4.0-0.49","subject_id":"5ea967566e16ad037690bc4c","study_id":"60edd13110225f80f9f3709b","session_id":"6196c6fb858ed99ed2255827","condition":"full-information","relevant_dimensions":["antennae","wings"],"bee_group":{"antennae":"B","wings":"1","pattern":"X","legs":"X"},"action":"harvest","summary":"bad-harvest","bonus":0.7800000000000011},{"rt":1034,"stimulus":"\n                    <p><b>Action: <em>harvest</em></b></p>\n                    <p>This is the bee that you just saw.</p>\n                    <img src=\"bees-with-color/bee-B1SF.svg\" width=\"200\">\n                    <p><span class=\"redText\">Bad choice, the bee was angry.</span><br><b>You have been stung!</b><br>Your pay has been decreased by $0.10. Your bonus pay is now $0.38.</p>\n            ","response":0,"trial_type":"html-button-response","trial_index":106,"time_elapsed":2408301,"internal_node_id":"0.0-4.0-1.49","subject_id":"5ea967566e16ad037690bc4c","study_id":"60edd13110225f80f9f3709b","session_id":"6196c6fb858ed99ed2255827","condition":"full-information","relevant_dimensions":["antennae","wings"],"bee_group":{"antennae":"B","wings":"1","pattern":"X","legs":"X"},"bonus":0.7800000000000011},{"rt":11180.100000023842,"stimulus":"bees-with-color/bee-A2DM.svg","response":0,"trial_type":"image-button-response","trial_index":107,"time_elapsed":2419482,"internal_node_id":"0.0-4.0-0.50","subject_id":"5ea967566e16ad037690bc4c","study_id":"60edd13110225f80f9f3709b","session_id":"6196c6fb858ed99ed2255827","condition":"full-information","relevant_dimensions":["antennae","wings"],"bee_group":{"antennae":"B","wings":"1","pattern":"X","legs":"X"},"action":"harvest","summary":"good-harvest","bonus":0.7800000000000011},{"rt":1136.1000000238419,"stimulus":"\n                    <p><b>Action: <em>harvest</em></b></p>\n                    <p>This is the bee that you just saw.</p>\n                    <img src=\"bees-with-color/bee-A2DM.svg\" width=\"200\">\n                    <p><span class=\"greenText\"><b>Successful harvest!</b></span><br>Your pay has increased by $0.02. Your bonus pay is now $0.40.</p>\n            ","response":0,"trial_type":"html-button-response","trial_index":108,"time_elapsed":2420619,"internal_node_id":"0.0-4.0-1.50","subject_id":"5ea967566e16ad037690bc4c","study_id":"60edd13110225f80f9f3709b","session_id":"6196c6fb858ed99ed2255827","condition":"full-information","relevant_dimensions":["antennae","wings"],"bee_group":{"antennae":"B","wings":"1","pattern":"X","legs":"X"},"bonus":0.7800000000000011},{"rt":3212.7999999523163,"stimulus":"bees-with-color/bee-A2SM.svg","response":0,"trial_type":"image-button-response","trial_index":109,"time_elapsed":2423833,"internal_node_id":"0.0-4.0-0.51","subject_id":"5ea967566e16ad037690bc4c","study_id":"60edd13110225f80f9f3709b","session_id":"6196c6fb858ed99ed2255827","condition":"full-information","relevant_dimensions":["antennae","wings"],"bee_group":{"antennae":"B","wings":"1","pattern":"X","legs":"X"},"action":"harvest","summary":"good-harvest","bonus":0.7800000000000011},{"rt":1350,"stimulus":"\n                    <p><b>Action: <em>harvest</em></b></p>\n                    <p>This is the bee that you just saw.</p>\n                    <img src=\"bees-with-color/bee-A2SM.svg\" width=\"200\">\n                    <p><span class=\"greenText\"><b>Successful harvest!</b></span><br>Your pay has increased by $0.02. Your bonus pay is now $0.42.</p>\n            ","response":0,"trial_type":"html-button-response","trial_index":110,"time_elapsed":2425184,"internal_node_id":"0.0-4.0-1.51","subject_id":"5ea967566e16ad037690bc4c","study_id":"60edd13110225f80f9f3709b","session_id":"6196c6fb858ed99ed2255827","condition":"full-information","relevant_dimensions":["antennae","wings"],"bee_group":{"antennae":"B","wings":"1","pattern":"X","legs":"X"},"bonus":0.7800000000000011},{"rt":12167,"stimulus":"bees-with-color/bee-A1SM.svg","response":1,"trial_type":"image-button-response","trial_index":111,"time_elapsed":2437353,"internal_node_id":"0.0-4.0-0.52","subject_id":"5ea967566e16ad037690bc4c","study_id":"60edd13110225f80f9f3709b","session_id":"6196c6fb858ed99ed2255827","condition":"full-information","relevant_dimensions":["antennae","wings"],"bee_group":{"antennae":"B","wings":"1","pattern":"X","legs":"X"},"action":"avoid","summary":"bad-avoid","bonus":0.7800000000000011},{"rt":1195.2999999523163,"stimulus":"\n                    <p><b>Action: <em>avoid</em></b></p>\n                    <p>This is the bee that you just saw.</p>\n                    <img src=\"bees-with-color/bee-A1SM.svg\" width=\"200\">\n                    <p><span class=\"redText\">Bad choice,</span> the bee was friendly.<br>Your bonus pay is unchanged, and remains at $0.42.</p>\n            ","response":0,"trial_type":"html-button-response","trial_index":112,"time_elapsed":2438550,"internal_node_id":"0.0-4.0-1.52","subject_id":"5ea967566e16ad037690bc4c","study_id":"60edd13110225f80f9f3709b","session_id":"6196c6fb858ed99ed2255827","condition":"full-information","relevant_dimensions":["antennae","wings"],"bee_group":{"antennae":"B","wings":"1","pattern":"X","legs":"X"},"bonus":0.7800000000000011},{"rt":10851.799999952316,"stimulus":"bees-with-color/bee-A1SF.svg","response":0,"trial_type":"image-button-response","trial_index":113,"time_elapsed":2449403,"internal_node_id":"0.0-4.0-0.53","subject_id":"5ea967566e16ad037690bc4c","study_id":"60edd13110225f80f9f3709b","session_id":"6196c6fb858ed99ed2255827","condition":"full-information","relevant_dimensions":["antennae","wings"],"bee_group":{"antennae":"B","wings":"1","pattern":"X","legs":"X"},"action":"harvest","summary":"good-harvest","bonus":0.7800000000000011},{"rt":1093.6000000238419,"stimulus":"\n                    <p><b>Action: <em>harvest</em></b></p>\n                    <p>This is the bee that you just saw.</p>\n                    <img src=\"bees-with-color/bee-A1SF.svg\" width=\"200\">\n                    <p><span class=\"greenText\"><b>Successful harvest!</b></span><br>Your pay has increased by $0.02. Your bonus pay is now $0.44.</p>\n            ","response":0,"trial_type":"html-button-response","trial_index":114,"time_elapsed":2450498,"internal_node_id":"0.0-4.0-1.53","subject_id":"5ea967566e16ad037690bc4c","study_id":"60edd13110225f80f9f3709b","session_id":"6196c6fb858ed99ed2255827","condition":"full-information","relevant_dimensions":["antennae","wings"],"bee_group":{"antennae":"B","wings":"1","pattern":"X","legs":"X"},"bonus":0.7800000000000011},{"rt":10343.200000047684,"stimulus":"bees-with-color/bee-B2SM.svg","response":0,"trial_type":"image-button-response","trial_index":115,"time_elapsed":2460843,"internal_node_id":"0.0-4.0-0.54","subject_id":"5ea967566e16ad037690bc4c","study_id":"60edd13110225f80f9f3709b","session_id":"6196c6fb858ed99ed2255827","condition":"full-information","relevant_dimensions":["antennae","wings"],"bee_group":{"antennae":"B","wings":"1","pattern":"X","legs":"X"},"action":"harvest","summary":"good-harvest","bonus":0.7800000000000011},{"rt":1059.8999999761581,"stimulus":"\n                    <p><b>Action: <em>harvest</em></b></p>\n                    <p>This is the bee that you just saw.</p>\n                    <img src=\"bees-with-color/bee-B2SM.svg\" width=\"200\">\n                    <p><span class=\"greenText\"><b>Successful harvest!</b></span><br>Your pay has increased by $0.02. Your bonus pay is now $0.46.</p>\n            ","response":0,"trial_type":"html-button-response","trial_index":116,"time_elapsed":2461904,"internal_node_id":"0.0-4.0-1.54","subject_id":"5ea967566e16ad037690bc4c","study_id":"60edd13110225f80f9f3709b","session_id":"6196c6fb858ed99ed2255827","condition":"full-information","relevant_dimensions":["antennae","wings"],"bee_group":{"antennae":"B","wings":"1","pattern":"X","legs":"X"},"bonus":0.7800000000000011},{"rt":4477.400000095367,"stimulus":"bees-with-color/bee-B1DF.svg","response":0,"trial_type":"image-button-response","trial_index":117,"time_elapsed":2466383,"internal_node_id":"0.0-4.0-0.55","subject_id":"5ea967566e16ad037690bc4c","study_id":"60edd13110225f80f9f3709b","session_id":"6196c6fb858ed99ed2255827","condition":"full-information","relevant_dimensions":["antennae","wings"],"bee_group":{"antennae":"B","wings":"1","pattern":"X","legs":"X"},"action":"harvest","summary":"bad-harvest","bonus":0.7800000000000011},{"rt":1201.1000000238419,"stimulus":"\n                    <p><b>Action: <em>harvest</em></b></p>\n                    <p>This is the bee that you just saw.</p>\n                    <img src=\"bees-with-color/bee-B1DF.svg\" width=\"200\">\n                    <p><span class=\"redText\">Bad choice, the bee was angry.</span><br><b>You have been stung!</b><br>Your pay has been decreased by $0.10. Your bonus pay is now $0.36.</p>\n            ","response":0,"trial_type":"html-button-response","trial_index":118,"time_elapsed":2467585,"internal_node_id":"0.0-4.0-1.55","subject_id":"5ea967566e16ad037690bc4c","study_id":"60edd13110225f80f9f3709b","session_id":"6196c6fb858ed99ed2255827","condition":"full-information","relevant_dimensions":["antennae","wings"],"bee_group":{"antennae":"B","wings":"1","pattern":"X","legs":"X"},"bonus":0.7800000000000011},{"rt":8268.600000023842,"stimulus":"bees-with-color/bee-A2SF.svg","response":0,"trial_type":"image-button-response","trial_index":119,"time_elapsed":2475855,"internal_node_id":"0.0-4.0-0.56","subject_id":"5ea967566e16ad037690bc4c","study_id":"60edd13110225f80f9f3709b","session_id":"6196c6fb858ed99ed2255827","condition":"full-information","relevant_dimensions":["antennae","wings"],"bee_group":{"antennae":"B","wings":"1","pattern":"X","legs":"X"},"action":"harvest","summary":"good-harvest","bonus":0.7800000000000011},{"rt":1110.8000000715256,"stimulus":"\n                    <p><b>Action: <em>harvest</em></b></p>\n                    <p>This is the bee that you just saw.</p>\n                    <img src=\"bees-with-color/bee-A2SF.svg\" width=\"200\">\n                    <p><span class=\"greenText\"><b>Successful harvest!</b></span><br>Your pay has increased by $0.02. Your bonus pay is now $0.38.</p>\n            ","response":0,"trial_type":"html-button-response","trial_index":120,"time_elapsed":2476967,"internal_node_id":"0.0-4.0-1.56","subject_id":"5ea967566e16ad037690bc4c","study_id":"60edd13110225f80f9f3709b","session_id":"6196c6fb858ed99ed2255827","condition":"full-information","relevant_dimensions":["antennae","wings"],"bee_group":{"antennae":"B","wings":"1","pattern":"X","legs":"X"},"bonus":0.7800000000000011},{"rt":8446.700000047684,"stimulus":"bees-with-color/bee-B1SM.svg","response":1,"trial_type":"image-button-response","trial_index":121,"time_elapsed":2485415,"internal_node_id":"0.0-4.0-0.57","subject_id":"5ea967566e16ad037690bc4c","study_id":"60edd13110225f80f9f3709b","session_id":"6196c6fb858ed99ed2255827","condition":"full-information","relevant_dimensions":["antennae","wings"],"bee_group":{"antennae":"B","wings":"1","pattern":"X","legs":"X"},"action":"avoid","summary":"good-avoid","bonus":0.7800000000000011},{"rt":1082.1000000238419,"stimulus":"\n                    <p><b>Action: <em>avoid</em></b></p>\n                    <p>This is the bee that you just saw.</p>\n                    <img src=\"bees-with-color/bee-B1SM.svg\" width=\"200\">\n                    <p><span class=\"greenText\">Good choice!</span>  This bee would have stung you.<br>Your bonus pay is unchanged, and remains at $0.38.</p>\n            ","response":0,"trial_type":"html-button-response","trial_index":122,"time_elapsed":2486498,"internal_node_id":"0.0-4.0-1.57","subject_id":"5ea967566e16ad037690bc4c","study_id":"60edd13110225f80f9f3709b","session_id":"6196c6fb858ed99ed2255827","condition":"full-information","relevant_dimensions":["antennae","wings"],"bee_group":{"antennae":"B","wings":"1","pattern":"X","legs":"X"},"bonus":0.7800000000000011},{"rt":5694.5,"stimulus":"bees-with-color/bee-B2SF.svg","response":0,"trial_type":"image-button-response","trial_index":123,"time_elapsed":2492193,"internal_node_id":"0.0-4.0-0.58","subject_id":"5ea967566e16ad037690bc4c","study_id":"60edd13110225f80f9f3709b","session_id":"6196c6fb858ed99ed2255827","condition":"full-information","relevant_dimensions":["antennae","wings"],"bee_group":{"antennae":"B","wings":"1","pattern":"X","legs":"X"},"action":"harvest","summary":"good-harvest","bonus":0.7800000000000011},{"rt":770.9000000953674,"stimulus":"\n                    <p><b>Action: <em>harvest</em></b></p>\n                    <p>This is the bee that you just saw.</p>\n                    <img src=\"bees-with-color/bee-B2SF.svg\" width=\"200\">\n                    <p><span class=\"greenText\"><b>Successful harvest!</b></span><br>Your pay has increased by $0.02. Your bonus pay is now $0.40.</p>\n            ","response":0,"trial_type":"html-button-response","trial_index":124,"time_elapsed":2492966,"internal_node_id":"0.0-4.0-1.58","subject_id":"5ea967566e16ad037690bc4c","study_id":"60edd13110225f80f9f3709b","session_id":"6196c6fb858ed99ed2255827","condition":"full-information","relevant_dimensions":["antennae","wings"],"bee_group":{"antennae":"B","wings":"1","pattern":"X","legs":"X"},"bonus":0.7800000000000011},{"rt":10589.700000047684,"stimulus":"bees-with-color/bee-A1DF.svg","response":0,"trial_type":"image-button-response","trial_index":125,"time_elapsed":2503557,"internal_node_id":"0.0-4.0-0.59","subject_id":"5ea967566e16ad037690bc4c","study_id":"60edd13110225f80f9f3709b","session_id":"6196c6fb858ed99ed2255827","condition":"full-information","relevant_dimensions":["antennae","wings"],"bee_group":{"antennae":"B","wings":"1","pattern":"X","legs":"X"},"action":"harvest","summary":"good-harvest","bonus":0.7800000000000011},{"rt":894.5,"stimulus":"\n                    <p><b>Action: <em>harvest</em></b></p>\n                    <p>This is the bee that you just saw.</p>\n                    <img src=\"bees-with-color/bee-A1DF.svg\" width=\"200\">\n                    <p><span class=\"greenText\"><b>Successful harvest!</b></span><br>Your pay has increased by $0.02. Your bonus pay is now $0.42.</p>\n            ","response":0,"trial_type":"html-button-response","trial_index":126,"time_elapsed":2504453,"internal_node_id":"0.0-4.0-1.59","subject_id":"5ea967566e16ad037690bc4c","study_id":"60edd13110225f80f9f3709b","session_id":"6196c6fb858ed99ed2255827","condition":"full-information","relevant_dimensions":["antennae","wings"],"bee_group":{"antennae":"B","wings":"1","pattern":"X","legs":"X"},"bonus":0.7800000000000011},{"rt":15737.100000023842,"stimulus":"bees-with-color/bee-B2DM.svg","response":0,"trial_type":"image-button-response","trial_index":127,"time_elapsed":2520191,"internal_node_id":"0.0-4.0-0.60","subject_id":"5ea967566e16ad037690bc4c","study_id":"60edd13110225f80f9f3709b","session_id":"6196c6fb858ed99ed2255827","condition":"full-information","relevant_dimensions":["antennae","wings"],"bee_group":{"antennae":"B","wings":"1","pattern":"X","legs":"X"},"action":"harvest","summary":"good-harvest","bonus":0.7800000000000011},{"rt":834.6000000238419,"stimulus":"\n                    <p><b>Action: <em>harvest</em></b></p>\n                    <p>This is the bee that you just saw.</p>\n                    <img src=\"bees-with-color/bee-B2DM.svg\" width=\"200\">\n                    <p><span class=\"greenText\"><b>Successful harvest!</b></span><br>Your pay has increased by $0.02. Your bonus pay is now $0.44.</p>\n            ","response":0,"trial_type":"html-button-response","trial_index":128,"time_elapsed":2521027,"internal_node_id":"0.0-4.0-1.60","subject_id":"5ea967566e16ad037690bc4c","study_id":"60edd13110225f80f9f3709b","session_id":"6196c6fb858ed99ed2255827","condition":"full-information","relevant_dimensions":["antennae","wings"],"bee_group":{"antennae":"B","wings":"1","pattern":"X","legs":"X"},"bonus":0.7800000000000011},{"rt":6485.799999952316,"stimulus":"bees-with-color/bee-A1DM.svg","response":1,"trial_type":"image-button-response","trial_index":129,"time_elapsed":2527515,"internal_node_id":"0.0-4.0-0.61","subject_id":"5ea967566e16ad037690bc4c","study_id":"60edd13110225f80f9f3709b","session_id":"6196c6fb858ed99ed2255827","condition":"full-information","relevant_dimensions":["antennae","wings"],"bee_group":{"antennae":"B","wings":"1","pattern":"X","legs":"X"},"action":"avoid","summary":"bad-avoid","bonus":0.7800000000000011},{"rt":1098.6000000238419,"stimulus":"\n                    <p><b>Action: <em>avoid</em></b></p>\n                    <p>This is the bee that you just saw.</p>\n                    <img src=\"bees-with-color/bee-A1DM.svg\" width=\"200\">\n                    <p><span class=\"redText\">Bad choice,</span> the bee was friendly.<br>Your bonus pay is unchanged, and remains at $0.44.</p>\n            ","response":0,"trial_type":"html-button-response","trial_index":130,"time_elapsed":2528615,"internal_node_id":"0.0-4.0-1.61","subject_id":"5ea967566e16ad037690bc4c","study_id":"60edd13110225f80f9f3709b","session_id":"6196c6fb858ed99ed2255827","condition":"full-information","relevant_dimensions":["antennae","wings"],"bee_group":{"antennae":"B","wings":"1","pattern":"X","legs":"X"},"bonus":0.7800000000000011},{"rt":2608.600000023842,"stimulus":"bees-with-color/bee-B1DM.svg","response":1,"trial_type":"image-button-response","trial_index":131,"time_elapsed":2531225,"internal_node_id":"0.0-4.0-0.62","subject_id":"5ea967566e16ad037690bc4c","study_id":"60edd13110225f80f9f3709b","session_id":"6196c6fb858ed99ed2255827","condition":"full-information","relevant_dimensions":["antennae","wings"],"bee_group":{"antennae":"B","wings":"1","pattern":"X","legs":"X"},"action":"avoid","summary":"good-avoid","bonus":0.7800000000000011},{"rt":1080.3999999761581,"stimulus":"\n                    <p><b>Action: <em>avoid</em></b></p>\n                    <p>This is the bee that you just saw.</p>\n                    <img src=\"bees-with-color/bee-B1DM.svg\" width=\"200\">\n                    <p><span class=\"greenText\">Good choice!</span>  This bee would have stung you.<br>Your bonus pay is unchanged, and remains at $0.44.</p>\n            ","response":0,"trial_type":"html-button-response","trial_index":132,"time_elapsed":2532306,"internal_node_id":"0.0-4.0-1.62","subject_id":"5ea967566e16ad037690bc4c","study_id":"60edd13110225f80f9f3709b","session_id":"6196c6fb858ed99ed2255827","condition":"full-information","relevant_dimensions":["antennae","wings"],"bee_group":{"antennae":"B","wings":"1","pattern":"X","legs":"X"},"bonus":0.7800000000000011},{"rt":5469.199999928474,"stimulus":"bees-with-color/bee-B2DF.svg","response":0,"trial_type":"image-button-response","trial_index":133,"time_elapsed":2537777,"internal_node_id":"0.0-4.0-0.63","subject_id":"5ea967566e16ad037690bc4c","study_id":"60edd13110225f80f9f3709b","session_id":"6196c6fb858ed99ed2255827","condition":"full-information","relevant_dimensions":["antennae","wings"],"bee_group":{"antennae":"B","wings":"1","pattern":"X","legs":"X"},"action":"harvest","summary":"good-harvest","bonus":0.7800000000000011},{"rt":969.1999999284744,"stimulus":"\n                    <p><b>Action: <em>harvest</em></b></p>\n                    <p>This is the bee that you just saw.</p>\n                    <img src=\"bees-with-color/bee-B2DF.svg\" width=\"200\">\n                    <p><span class=\"greenText\"><b>Successful harvest!</b></span><br>Your pay has increased by $0.02. Your bonus pay is now $0.46.</p>\n            ","response":0,"trial_type":"html-button-response","trial_index":134,"time_elapsed":2538747,"internal_node_id":"0.0-4.0-1.63","subject_id":"5ea967566e16ad037690bc4c","study_id":"60edd13110225f80f9f3709b","session_id":"6196c6fb858ed99ed2255827","condition":"full-information","relevant_dimensions":["antennae","wings"],"bee_group":{"antennae":"B","wings":"1","pattern":"X","legs":"X"},"bonus":0.7800000000000011},{"rt":8448.199999928474,"stimulus":"You have completed the first part of this experiment.<br><br>You will now begin a shorter second part, in which you will receive no feedback.<br>The same rules regarding bonus pay apply.<br><br>Press any key to begin.","response":" ","trial_type":"html-keyboard-response","trial_index":135,"time_elapsed":2547196,"internal_node_id":"0.0-5.0","subject_id":"5ea967566e16ad037690bc4c","study_id":"60edd13110225f80f9f3709b","session_id":"6196c6fb858ed99ed2255827","condition":"full-information","relevant_dimensions":["antennae","wings"],"bee_group":{"antennae":"B","wings":"1","pattern":"X","legs":"X"},"bonus":0.7800000000000011},{"rt":13777.799999952316,"stimulus":"bees-with-color/bee-B2SF.svg","response":0,"trial_type":"image-button-response","trial_index":136,"time_elapsed":2560981,"internal_node_id":"0.0-6.0-0.0","subject_id":"5ea967566e16ad037690bc4c","study_id":"60edd13110225f80f9f3709b","session_id":"6196c6fb858ed99ed2255827","condition":"full-information","relevant_dimensions":["antennae","wings"],"bee_group":{"antennae":"B","wings":"1","pattern":"X","legs":"X"},"bonus":0.7800000000000011},{"rt":62853.40000009537,"stimulus":"bees-with-color/bee-A2SM.svg","response":0,"trial_type":"image-button-response","trial_index":137,"time_elapsed":2623836,"internal_node_id":"0.0-6.0-0.1","subject_id":"5ea967566e16ad037690bc4c","study_id":"60edd13110225f80f9f3709b","session_id":"6196c6fb858ed99ed2255827","condition":"full-information","relevant_dimensions":["antennae","wings"],"bee_group":{"antennae":"B","wings":"1","pattern":"X","legs":"X"},"bonus":0.7800000000000011},{"rt":4244.299999952316,"stimulus":"bees-with-color/bee-A2SF.svg","response":0,"trial_type":"image-button-response","trial_index":138,"time_elapsed":2628083,"internal_node_id":"0.0-6.0-0.2","subject_id":"5ea967566e16ad037690bc4c","study_id":"60edd13110225f80f9f3709b","session_id":"6196c6fb858ed99ed2255827","condition":"full-information","relevant_dimensions":["antennae","wings"],"bee_group":{"antennae":"B","wings":"1","pattern":"X","legs":"X"},"bonus":0.7800000000000011},{"rt":1756.6000000238419,"stimulus":"bees-with-color/bee-B1SM.svg","response":1,"trial_type":"image-button-response","trial_index":139,"time_elapsed":2629841,"internal_node_id":"0.0-6.0-0.3","subject_id":"5ea967566e16ad037690bc4c","study_id":"60edd13110225f80f9f3709b","session_id":"6196c6fb858ed99ed2255827","condition":"full-information","relevant_dimensions":["antennae","wings"],"bee_group":{"antennae":"B","wings":"1","pattern":"X","legs":"X"},"bonus":0.7800000000000011},{"rt":16571.5,"stimulus":"bees-with-color/bee-A2DF.svg","response":0,"trial_type":"image-button-response","trial_index":140,"time_elapsed":2646414,"internal_node_id":"0.0-6.0-0.4","subject_id":"5ea967566e16ad037690bc4c","study_id":"60edd13110225f80f9f3709b","session_id":"6196c6fb858ed99ed2255827","condition":"full-information","relevant_dimensions":["antennae","wings"],"bee_group":{"antennae":"B","wings":"1","pattern":"X","legs":"X"},"bonus":0.7800000000000011},{"rt":1184.2000000476837,"stimulus":"bees-with-color/bee-B1SF.svg","response":1,"trial_type":"image-button-response","trial_index":141,"time_elapsed":2647600,"internal_node_id":"0.0-6.0-0.5","subject_id":"5ea967566e16ad037690bc4c","study_id":"60edd13110225f80f9f3709b","session_id":"6196c6fb858ed99ed2255827","condition":"full-information","relevant_dimensions":["antennae","wings"],"bee_group":{"antennae":"B","wings":"1","pattern":"X","legs":"X"},"bonus":0.7800000000000011},{"rt":2096.399999976158,"stimulus":"bees-with-color/bee-A1DM.svg","response":0,"trial_type":"image-button-response","trial_index":142,"time_elapsed":2649698,"internal_node_id":"0.0-6.0-0.6","subject_id":"5ea967566e16ad037690bc4c","study_id":"60edd13110225f80f9f3709b","session_id":"6196c6fb858ed99ed2255827","condition":"full-information","relevant_dimensions":["antennae","wings"],"bee_group":{"antennae":"B","wings":"1","pattern":"X","legs":"X"},"bonus":0.7800000000000011},{"rt":1848.7999999523163,"stimulus":"bees-with-color/bee-A1DF.svg","response":1,"trial_type":"image-button-response","trial_index":143,"time_elapsed":2651548,"internal_node_id":"0.0-6.0-0.7","subject_id":"5ea967566e16ad037690bc4c","study_id":"60edd13110225f80f9f3709b","session_id":"6196c6fb858ed99ed2255827","condition":"full-information","relevant_dimensions":["antennae","wings"],"bee_group":{"antennae":"B","wings":"1","pattern":"X","legs":"X"},"bonus":0.7800000000000011},{"rt":1834.7000000476837,"stimulus":"bees-with-color/bee-B2SM.svg","response":1,"trial_type":"image-button-response","trial_index":144,"time_elapsed":2653384,"internal_node_id":"0.0-6.0-0.8","subject_id":"5ea967566e16ad037690bc4c","study_id":"60edd13110225f80f9f3709b","session_id":"6196c6fb858ed99ed2255827","condition":"full-information","relevant_dimensions":["antennae","wings"],"bee_group":{"antennae":"B","wings":"1","pattern":"X","legs":"X"},"bonus":0.7800000000000011},{"rt":2904.6999999284744,"stimulus":"bees-with-color/bee-B1DF.svg","response":1,"trial_type":"image-button-response","trial_index":145,"time_elapsed":2656290,"internal_node_id":"0.0-6.0-0.9","subject_id":"5ea967566e16ad037690bc4c","study_id":"60edd13110225f80f9f3709b","session_id":"6196c6fb858ed99ed2255827","condition":"full-information","relevant_dimensions":["antennae","wings"],"bee_group":{"antennae":"B","wings":"1","pattern":"X","legs":"X"},"bonus":0.7800000000000011},{"rt":995.6000000238419,"stimulus":"bees-with-color/bee-B2DM.svg","response":0,"trial_type":"image-button-response","trial_index":146,"time_elapsed":2657288,"internal_node_id":"0.0-6.0-0.10","subject_id":"5ea967566e16ad037690bc4c","study_id":"60edd13110225f80f9f3709b","session_id":"6196c6fb858ed99ed2255827","condition":"full-information","relevant_dimensions":["antennae","wings"],"bee_group":{"antennae":"B","wings":"1","pattern":"X","legs":"X"},"bonus":0.7800000000000011},{"rt":1403.7000000476837,"stimulus":"bees-with-color/bee-A2DM.svg","response":0,"trial_type":"image-button-response","trial_index":147,"time_elapsed":2658693,"internal_node_id":"0.0-6.0-0.11","subject_id":"5ea967566e16ad037690bc4c","study_id":"60edd13110225f80f9f3709b","session_id":"6196c6fb858ed99ed2255827","condition":"full-information","relevant_dimensions":["antennae","wings"],"bee_group":{"antennae":"B","wings":"1","pattern":"X","legs":"X"},"bonus":0.7800000000000011},{"rt":1437.6000000238419,"stimulus":"bees-with-color/bee-B2DF.svg","response":1,"trial_type":"image-button-response","trial_index":148,"time_elapsed":2660132,"internal_node_id":"0.0-6.0-0.12","subject_id":"5ea967566e16ad037690bc4c","study_id":"60edd13110225f80f9f3709b","session_id":"6196c6fb858ed99ed2255827","condition":"full-information","relevant_dimensions":["antennae","wings"],"bee_group":{"antennae":"B","wings":"1","pattern":"X","legs":"X"},"bonus":0.7800000000000011},{"rt":17779.700000047684,"stimulus":"bees-with-color/bee-A1SM.svg","response":0,"trial_type":"image-button-response","trial_index":149,"time_elapsed":2677914,"internal_node_id":"0.0-6.0-0.13","subject_id":"5ea967566e16ad037690bc4c","study_id":"60edd13110225f80f9f3709b","session_id":"6196c6fb858ed99ed2255827","condition":"full-information","relevant_dimensions":["antennae","wings"],"bee_group":{"antennae":"B","wings":"1","pattern":"X","legs":"X"},"bonus":0.7800000000000011},{"rt":1968.8999999761581,"stimulus":"bees-with-color/bee-B1DM.svg","response":1,"trial_type":"image-button-response","trial_index":150,"time_elapsed":2679885,"internal_node_id":"0.0-6.0-0.14","subject_id":"5ea967566e16ad037690bc4c","study_id":"60edd13110225f80f9f3709b","session_id":"6196c6fb858ed99ed2255827","condition":"full-information","relevant_dimensions":["antennae","wings"],"bee_group":{"antennae":"B","wings":"1","pattern":"X","legs":"X"},"bonus":0.7800000000000011},{"rt":1690.7999999523163,"stimulus":"bees-with-color/bee-A1SF.svg","response":0,"trial_type":"image-button-response","trial_index":151,"time_elapsed":2681577,"internal_node_id":"0.0-6.0-0.15","subject_id":"5ea967566e16ad037690bc4c","study_id":"60edd13110225f80f9f3709b","session_id":"6196c6fb858ed99ed2255827","condition":"full-information","relevant_dimensions":["antennae","wings"],"bee_group":{"antennae":"B","wings":"1","pattern":"X","legs":"X"},"bonus":0.7800000000000011},{"rt":917.1999999284744,"stimulus":"bees-with-color/bee-B1DM.svg","response":1,"trial_type":"image-button-response","trial_index":152,"time_elapsed":2682496,"internal_node_id":"0.0-6.0-0.16","subject_id":"5ea967566e16ad037690bc4c","study_id":"60edd13110225f80f9f3709b","session_id":"6196c6fb858ed99ed2255827","condition":"full-information","relevant_dimensions":["antennae","wings"],"bee_group":{"antennae":"B","wings":"1","pattern":"X","legs":"X"},"bonus":0.7800000000000011},{"rt":1183.7000000476837,"stimulus":"bees-with-color/bee-B1DF.svg","response":1,"trial_type":"image-button-response","trial_index":153,"time_elapsed":2683682,"internal_node_id":"0.0-6.0-0.17","subject_id":"5ea967566e16ad037690bc4c","study_id":"60edd13110225f80f9f3709b","session_id":"6196c6fb858ed99ed2255827","condition":"full-information","relevant_dimensions":["antennae","wings"],"bee_group":{"antennae":"B","wings":"1","pattern":"X","legs":"X"},"bonus":0.7800000000000011},{"rt":1106.2999999523163,"stimulus":"bees-with-color/bee-B2SF.svg","response":0,"trial_type":"image-button-response","trial_index":154,"time_elapsed":2684789,"internal_node_id":"0.0-6.0-0.18","subject_id":"5ea967566e16ad037690bc4c","study_id":"60edd13110225f80f9f3709b","session_id":"6196c6fb858ed99ed2255827","condition":"full-information","relevant_dimensions":["antennae","wings"],"bee_group":{"antennae":"B","wings":"1","pattern":"X","legs":"X"},"bonus":0.7800000000000011},{"rt":2300.100000023842,"stimulus":"bees-with-color/bee-A1SM.svg","response":0,"trial_type":"image-button-response","trial_index":155,"time_elapsed":2687091,"internal_node_id":"0.0-6.0-0.19","subject_id":"5ea967566e16ad037690bc4c","study_id":"60edd13110225f80f9f3709b","session_id":"6196c6fb858ed99ed2255827","condition":"full-information","relevant_dimensions":["antennae","wings"],"bee_group":{"antennae":"B","wings":"1","pattern":"X","l