[{"success":true,"trial_type":"fullscreen","trial_index":0,"time_elapsed":7754,"internal_node_id":"0.0-0.0","subject_id":"5c10e5c5753adc0001590f2c","study_id":"60edd13110225f80f9f3709b","session_id":"6196c2504e41bed3e07f6654","condition":"full-information","relevant_dimensions":["antennae","pattern"],"bee_group":{"antennae":"A","wings":"X","pattern":"D","legs":"X"},"bonus":1.4000000000000008},{"success":true,"timeout":false,"failed_images":[],"failed_audio":[],"failed_video":[],"trial_type":"preload","trial_index":1,"time_elapsed":14168,"internal_node_id":"0.0-1.0","subject_id":"5c10e5c5753adc0001590f2c","study_id":"60edd13110225f80f9f3709b","session_id":"6196c2504e41bed3e07f6654","condition":"full-information","relevant_dimensions":["antennae","pattern"],"bee_group":{"antennae":"A","wings":"X","pattern":"D","legs":"X"},"bonus":1.4000000000000008},{"rt":5698.5999999996275,"stimulus":"Welcome! Press any key to begin.","response":" ","trial_type":"html-keyboard-response","trial_index":2,"time_elapsed":19869,"internal_node_id":"0.0-2.0","subject_id":"5c10e5c5753adc0001590f2c","study_id":"60edd13110225f80f9f3709b","session_id":"6196c2504e41bed3e07f6654","condition":"full-information","relevant_dimensions":["antennae","pattern"],"bee_group":{"antennae":"A","wings":"X","pattern":"D","legs":"X"},"bonus":1.4000000000000008},{"view_history":[{"page_index":0,"viewing_time":6309.5999999996275},{"page_index":1,"viewing_time":17907.099999999627},{"page_index":2,"viewing_time":18539.099999999627},{"page_index":3,"viewing_time":35635.40000000037},{"page_index":4,"viewing_time":7703.5},{"page_index":5,"viewing_time":11403.400000000373},{"page_index":6,"viewing_time":16342.199999999255},{"page_index":7,"viewing_time":10658.300000000745},{"page_index":8,"viewing_time":9799.299999998882},{"page_index":9,"viewing_time":5073.4000000003725},{"page_index":10,"viewing_time":4302.4000000003725},{"page_index":11,"viewing_time":10440.5},{"page_index":12,"viewing_time":23465.900000000373},{"page_index":13,"viewing_time":3002.0999999996275},{"page_index":14,"viewing_time":2256.300000000745}],"rt":182840.5,"trial_type":"instructions","trial_index":3,"time_elapsed":202713,"internal_node_id":"0.0-3.0-0.0","subject_id":"5c10e5c5753adc0001590f2c","study_id":"60edd13110225f80f9f3709b","session_id":"6196c2504e41bed3e07f6654","condition":"full-information","relevant_dimensions":["antennae","pattern"],"bee_group":{"antennae":"A","wings":"X","pattern":"D","legs":"X"},"bonus":1.4000000000000008},{"rt":43014.800000000745,"response":{"Q0":["Two or six legs","Stripes or spots on body","Single or double wings","Antennae or no antennae"]},"question_order":[0],"trial_type":"survey-multi-select","trial_index":4,"time_elapsed":245774,"internal_node_id":"0.0-3.0-1.0","subject_id":"5c10e5c5753adc0001590f2c","study_id":"60edd13110225f80f9f3709b","session_id":"6196c2504e41bed3e07f6654","condition":"full-information","relevant_dimensions":["antennae","pattern"],"bee_group":{"antennae":"A","wings":"X","pattern":"D","legs":"X"},"correct":true,"bonus":1.4000000000000008},{"rt":45573.300000000745,"response":{"Q1":"No.","Q2":"Based on the four features of the bee.","Q3":"You learn if it was friendly or dangerous, but do not alter your bonus."},"question_order":[0,1,2],"trial_type":"survey-multi-choice","trial_index":5,"time_elapsed":291352,"internal_node_id":"0.0-3.0-2.0","subject_id":"5c10e5c5753adc0001590f2c","study_id":"60edd13110225f80f9f3709b","session_id":"6196c2504e41bed3e07f6654","condition":"full-information","relevant_dimensions":["antennae","pattern"],"bee_group":{"antennae":"A","wings":"X","pattern":"D","legs":"X"},"correct":true,"bonus":1.4000000000000008},{"rt":2949.2000000011176,"stimulus":"<p>Congrats, you got everything right<br>When you're ready, click the button below to continue to the experiment.</p>","response":0,"trial_type":"html-button-response","trial_index":6,"time_elapsed":294308,"internal_node_id":"0.0-3.0-3.0","subject_id":"5c10e5c5753adc0001590f2c","study_id":"60edd13110225f80f9f3709b","session_id":"6196c2504e41bed3e07f6654","condition":"full-information","relevant_dimensions":["antennae","pattern"],"bee_group":{"antennae":"A","wings":"X","pattern":"D","legs":"X"},"bonus":1.4000000000000008},{"rt":5917.10000000149,"stimulus":"bees-with-color/bee-B1SM.svg","response":0,"trial_type":"image-button-response","trial_index":7,"time_elapsed":300238,"internal_node_id":"0.0-4.0-0.0","subject_id":"5c10e5c5753adc0001590f2c","study_id":"60edd13110225f80f9f3709b","session_id":"6196c2504e41bed3e07f6654","condition":"full-information","relevant_dimensions":["antennae","pattern"],"bee_group":{"antennae":"A","wings":"X","pattern":"D","legs":"X"},"action":"harvest","summary":"good-harvest","bonus":1.4000000000000008},{"rt":12236.400000000373,"stimulus":"\n                    <p><b>Action: <em>harvest</em></b></p>\n                    <p>This is the bee that you just saw.</p>\n                    <img src=\"bees-with-color/bee-B1SM.svg\" width=\"200\">\n                    <p><span class=\"greenText\"><b>Successful harvest!</b></span><br>Your pay has increased by $0.02. Your bonus pay is now $0.56.</p>\n            ","response":0,"trial_type":"html-button-response","trial_index":8,"time_elapsed":312486,"internal_node_id":"0.0-4.0-1.0","subject_id":"5c10e5c5753adc0001590f2c","study_id":"60edd13110225f80f9f3709b","session_id":"6196c2504e41bed3e07f6654","condition":"full-information","relevant_dimensions":["antennae","pattern"],"bee_group":{"antennae":"A","wings":"X","pattern":"D","legs":"X"},"bonus":1.4000000000000008},{"rt":6223.799999998882,"stimulus":"bees-with-color/bee-A2SF.svg","response":1,"trial_type":"image-button-response","trial_index":9,"time_elapsed":318717,"internal_node_id":"0.0-4.0-0.1","subject_id":"5c10e5c5753adc0001590f2c","study_id":"60edd13110225f80f9f3709b","session_id":"6196c2504e41bed3e07f6654","condition":"full-information","relevant_dimensions":["antennae","pattern"],"bee_group":{"antennae":"A","wings":"X","pattern":"D","legs":"X"},"action":"avoid","summary":"bad-avoid","bonus":1.4000000000000008},{"rt":7988.4000000003725,"stimulus":"\n                    <p><b>Action: <em>avoid</em></b></p>\n                    <p>This is the bee that you just saw.</p>\n                    <img src=\"bees-with-color/bee-A2SF.svg\" width=\"200\">\n                    <p><span class=\"redText\">Bad choice,</span> the bee was friendly.<br>Your bonus pay is unchanged, and remains at $0.56.</p>\n            ","response":0,"trial_type":"html-button-response","trial_index":10,"time_elapsed":326711,"internal_node_id":"0.0-4.0-1.1","subject_id":"5c10e5c5753adc0001590f2c","study_id":"60edd13110225f80f9f3709b","session_id":"6196c2504e41bed3e07f6654","condition":"full-information","relevant_dimensions":["antennae","pattern"],"bee_group":{"antennae":"A","wings":"X","pattern":"D","legs":"X"},"bonus":1.4000000000000008},{"rt":4069.5,"stimulus":"bees-with-color/bee-B2DF.svg","response":0,"trial_type":"image-button-response","trial_index":11,"time_elapsed":330787,"internal_node_id":"0.0-4.0-0.2","subject_id":"5c10e5c5753adc0001590f2c","study_id":"60edd13110225f80f9f3709b","session_id":"6196c2504e41bed3e07f6654","condition":"full-information","relevant_dimensions":["antennae","pattern"],"bee_group":{"antennae":"A","wings":"X","pattern":"D","legs":"X"},"action":"harvest","summary":"good-harvest","bonus":1.4000000000000008},{"rt":17184.700000001118,"stimulus":"\n                    <p><b>Action: <em>harvest</em></b></p>\n                    <p>This is the bee that you just saw.</p>\n                    <img src=\"bees-with-color/bee-B2DF.svg\" width=\"200\">\n                    <p><span class=\"greenText\"><b>Successful harvest!</b></span><br>Your pay has increased by $0.02. Your bonus pay is now $0.58.</p>\n            ","response":0,"trial_type":"html-button-response","trial_index":12,"time_elapsed":347978,"internal_node_id":"0.0-4.0-1.2","subject_id":"5c10e5c5753adc0001590f2c","study_id":"60edd13110225f80f9f3709b","session_id":"6196c2504e41bed3e07f6654","condition":"full-information","relevant_dimensions":["antennae","pattern"],"bee_group":{"antennae":"A","wings":"X","pattern":"D","legs":"X"},"bonus":1.4000000000000008},{"rt":6572.4000000003725,"stimulus":"bees-with-color/bee-A2DF.svg","response":1,"trial_type":"image-button-response","trial_index":13,"time_elapsed":354559,"internal_node_id":"0.0-4.0-0.3","subject_id":"5c10e5c5753adc0001590f2c","study_id":"60edd13110225f80f9f3709b","session_id":"6196c2504e41bed3e07f6654","condition":"full-information","relevant_dimensions":["antennae","pattern"],"bee_group":{"antennae":"A","wings":"X","pattern":"D","legs":"X"},"action":"avoid","summary":"good-avoid","bonus":1.4000000000000008},{"rt":20147,"stimulus":"\n                    <p><b>Action: <em>avoid</em></b></p>\n                    <p>This is the bee that you just saw.</p>\n                    <img src=\"bees-with-color/bee-A2DF.svg\" width=\"200\">\n                    <p><span class=\"greenText\">Good choice!</span>  This bee would have stung you.<br>Your bonus pay is unchanged, and remains at $0.58.</p>\n            ","response":0,"trial_type":"html-button-response","trial_index":14,"time_elapsed":374713,"internal_node_id":"0.0-4.0-1.3","subject_id":"5c10e5c5753adc0001590f2c","study_id":"60edd13110225f80f9f3709b","session_id":"6196c2504e41bed3e07f6654","condition":"full-information","relevant_dimensions":["antennae","pattern"],"bee_group":{"antennae":"A","wings":"X","pattern":"D","legs":"X"},"bonus":1.4000000000000008},{"rt":3054.5999999996275,"stimulus":"bees-with-color/bee-A1DF.svg","response":1,"trial_type":"image-button-response","trial_index":15,"time_elapsed":377775,"internal_node_id":"0.0-4.0-0.4","subject_id":"5c10e5c5753adc0001590f2c","study_id":"60edd13110225f80f9f3709b","session_id":"6196c2504e41bed3e07f6654","condition":"full-information","relevant_dimensions":["antennae","pattern"],"bee_group":{"antennae":"A","wings":"X","pattern":"D","legs":"X"},"action":"avoid","summary":"good-avoid","bonus":1.4000000000000008},{"rt":6663,"stimulus":"\n                    <p><b>Action: <em>avoid</em></b></p>\n                    <p>This is the bee that you just saw.</p>\n                    <img src=\"bees-with-color/bee-A1DF.svg\" width=\"200\">\n                    <p><span class=\"greenText\">Good choice!</span>  This bee would have stung you.<br>Your bonus pay is unchanged, and remains at $0.58.</p>\n            ","response":0,"trial_type":"html-button-response","trial_index":16,"time_elapsed":384443,"internal_node_id":"0.0-4.0-1.4","subject_id":"5c10e5c5753adc0001590f2c","study_id":"60edd13110225f80f9f3709b","session_id":"6196c2504e41bed3e07f6654","condition":"full-information","relevant_dimensions":["antennae","pattern"],"bee_group":{"antennae":"A","wings":"X","pattern":"D","legs":"X"},"bonus":1.4000000000000008},{"rt":2150.9000000003725,"stimulus":"bees-with-color/bee-B2SM.svg","response":0,"trial_type":"image-button-response","trial_index":17,"time_elapsed":386601,"internal_node_id":"0.0-4.0-0.5","subject_id":"5c10e5c5753adc0001590f2c","study_id":"60edd13110225f80f9f3709b","session_id":"6196c2504e41bed3e07f6654","condition":"full-information","relevant_dimensions":["antennae","pattern"],"bee_group":{"antennae":"A","wings":"X","pattern":"D","legs":"X"},"action":"harvest","summary":"good-harvest","bonus":1.4000000000000008},{"rt":11542.5,"stimulus":"\n                    <p><b>Action: <em>harvest</em></b></p>\n                    <p>This is the bee that you just saw.</p>\n                    <img src=\"bees-with-color/bee-B2SM.svg\" width=\"200\">\n                    <p><span class=\"greenText\"><b>Successful harvest!</b></span><br>Your pay has increased by $0.02. Your bonus pay is now $0.60.</p>\n            ","response":0,"trial_type":"html-button-response","trial_index":18,"time_elapsed":398150,"internal_node_id":"0.0-4.0-1.5","subject_id":"5c10e5c5753adc0001590f2c","study_id":"60edd13110225f80f9f3709b","session_id":"6196c2504e41bed3e07f6654","condition":"full-information","relevant_dimensions":["antennae","pattern"],"bee_group":{"antennae":"A","wings":"X","pattern":"D","legs":"X"},"bonus":1.4000000000000008},{"rt":3835.0999999996275,"stimulus":"bees-with-color/bee-B2DM.svg","response":1,"trial_type":"image-button-response","trial_index":19,"time_elapsed":401993,"internal_node_id":"0.0-4.0-0.6","subject_id":"5c10e5c5753adc0001590f2c","study_id":"60edd13110225f80f9f3709b","session_id":"6196c2504e41bed3e07f6654","condition":"full-information","relevant_dimensions":["antennae","pattern"],"bee_group":{"antennae":"A","wings":"X","pattern":"D","legs":"X"},"action":"avoid","summary":"bad-avoid","bonus":1.4000000000000008},{"rt":6397.10000000149,"stimulus":"\n                    <p><b>Action: <em>avoid</em></b></p>\n                    <p>This is the bee that you just saw.</p>\n                    <img src=\"bees-with-color/bee-B2DM.svg\" width=\"200\">\n                    <p><span class=\"redText\">Bad choice,</span> the bee was friendly.<br>Your bonus pay is unchanged, and remains at $0.60.</p>\n            ","response":0,"trial_type":"html-button-response","trial_index":20,"time_elapsed":408396,"internal_node_id":"0.0-4.0-1.6","subject_id":"5c10e5c5753adc0001590f2c","study_id":"60edd13110225f80f9f3709b","session_id":"6196c2504e41bed3e07f6654","condition":"full-information","relevant_dimensions":["antennae","pattern"],"bee_group":{"antennae":"A","wings":"X","pattern":"D","legs":"X"},"bonus":1.4000000000000008},{"rt":3248.2999999988824,"stimulus":"bees-with-color/bee-A1SM.svg","response":1,"trial_type":"image-button-response","trial_index":21,"time_elapsed":411652,"internal_node_id":"0.0-4.0-0.7","subject_id":"5c10e5c5753adc0001590f2c","study_id":"60edd13110225f80f9f3709b","session_id":"6196c2504e41bed3e07f6654","condition":"full-information","relevant_dimensions":["antennae","pattern"],"bee_group":{"antennae":"A","wings":"X","pattern":"D","legs":"X"},"action":"avoid","summary":"bad-avoid","bonus":1.4000000000000008},{"rt":16618.400000000373,"stimulus":"\n                    <p><b>Action: <em>avoid</em></b></p>\n                    <p>This is the bee that you just saw.</p>\n                    <img src=\"bees-with-color/bee-A1SM.svg\" width=\"200\">\n                    <p><span class=\"redText\">Bad choice,</span> the bee was friendly.<br>Your bonus pay is unchanged, and remains at $0.60.</p>\n            ","response":0,"trial_type":"html-button-response","trial_index":22,"time_elapsed":428276,"internal_node_id":"0.0-4.0-1.7","subject_id":"5c10e5c5753adc0001590f2c","study_id":"60edd13110225f80f9f3709b","session_id":"6196c2504e41bed3e07f6654","condition":"full-information","relevant_dimensions":["antennae","pattern"],"bee_group":{"antennae":"A","wings":"X","pattern":"D","legs":"X"},"bonus":1.4000000000000008},{"rt":2512.39999999851,"stimulus":"bees-with-color/bee-B2SF.svg","response":0,"trial_type":"image-button-response","trial_index":23,"time_elapsed":430795,"internal_node_id":"0.0-4.0-0.8","subject_id":"5c10e5c5753adc0001590f2c","study_id":"60edd13110225f80f9f3709b","session_id":"6196c2504e41bed3e07f6654","condition":"full-information","relevant_dimensions":["antennae","pattern"],"bee_group":{"antennae":"A","wings":"X","pattern":"D","legs":"X"},"action":"harvest","summary":"good-harvest","bonus":1.4000000000000008},{"rt":5563.199999999255,"stimulus":"\n                    <p><b>Action: <em>harvest</em></b></p>\n                    <p>This is the bee that you just saw.</p>\n                    <img src=\"bees-with-color/bee-B2SF.svg\" width=\"200\">\n                    <p><span class=\"greenText\"><b>Successful harvest!</b></span><br>Your pay has increased by $0.02. Your bonus pay is now $0.62.</p>\n            ","response":0,"trial_type":"html-button-response","trial_index":24,"time_elapsed":436365,"internal_node_id":"0.0-4.0-1.8","subject_id":"5c10e5c5753adc0001590f2c","study_id":"60edd13110225f80f9f3709b","session_id":"6196c2504e41bed3e07f6654","condition":"full-information","relevant_dimensions":["antennae","pattern"],"bee_group":{"antennae":"A","wings":"X","pattern":"D","legs":"X"},"bonus":1.4000000000000008},{"rt":9022.199999999255,"stimulus":"bees-with-color/bee-B1DM.svg","response":1,"trial_type":"image-button-response","trial_index":25,"time_elapsed":445395,"internal_node_id":"0.0-4.0-0.9","subject_id":"5c10e5c5753adc0001590f2c","study_id":"60edd13110225f80f9f3709b","session_id":"6196c2504e41bed3e07f6654","condition":"full-information","relevant_dimensions":["antennae","pattern"],"bee_group":{"antennae":"A","wings":"X","pattern":"D","legs":"X"},"action":"avoid","summary":"bad-avoid","bonus":1.4000000000000008},{"rt":4245.0999999996275,"stimulus":"\n                    <p><b>Action: <em>avoid</em></b></p>\n                    <p>This is the bee that you just saw.</p>\n                    <img src=\"bees-with-color/bee-B1DM.svg\" width=\"200\">\n                    <p><span class=\"redText\">Bad choice,</span> the bee was friendly.<br>Your bonus pay is unchanged, and remains at $0.62.</p>\n            ","response":0,"trial_type":"html-button-response","trial_index":26,"time_elapsed":449646,"internal_node_id":"0.0-4.0-1.9","subject_id":"5c10e5c5753adc0001590f2c","study_id":"60edd13110225f80f9f3709b","session_id":"6196c2504e41bed3e07f6654","condition":"full-information","relevant_dimensions":["antennae","pattern"],"bee_group":{"antennae":"A","wings":"X","pattern":"D","legs":"X"},"bonus":1.4000000000000008},{"rt":2816.5,"stimulus":"bees-with-color/bee-A2DM.svg","response":1,"trial_type":"image-button-response","trial_index":27,"time_elapsed":452469,"internal_node_id":"0.0-4.0-0.10","subject_id":"5c10e5c5753adc0001590f2c","study_id":"60edd13110225f80f9f3709b","session_id":"6196c2504e41bed3e07f6654","condition":"full-information","relevant_dimensions":["antennae","pattern"],"bee_group":{"antennae":"A","wings":"X","pattern":"D","legs":"X"},"action":"avoid","summary":"good-avoid","bonus":1.4000000000000008},{"rt":9419,"stimulus":"\n                    <p><b>Action: <em>avoid</em></b></p>\n                    <p>This is the bee that you just saw.</p>\n                    <img src=\"bees-with-color/bee-A2DM.svg\" width=\"200\">\n                    <p><span class=\"greenText\">Good choice!</span>  This bee would have stung you.<br>Your bonus pay is unchanged, and remains at $0.62.</p>\n            ","response":0,"trial_type":"html-button-response","trial_index":28,"time_elapsed":461894,"internal_node_id":"0.0-4.0-1.10","subject_id":"5c10e5c5753adc0001590f2c","study_id":"60edd13110225f80f9f3709b","session_id":"6196c2504e41bed3e07f6654","condition":"full-information","relevant_dimensions":["antennae","pattern"],"bee_group":{"antennae":"A","wings":"X","pattern":"D","legs":"X"},"bonus":1.4000000000000008},{"rt":8973.5,"stimulus":"bees-with-color/bee-B1SF.svg","response":1,"trial_type":"image-button-response","trial_index":29,"time_elapsed":470874,"internal_node_id":"0.0-4.0-0.11","subject_id":"5c10e5c5753adc0001590f2c","study_id":"60edd13110225f80f9f3709b","session_id":"6196c2504e41bed3e07f6654","condition":"full-information","relevant_dimensions":["antennae","pattern"],"bee_group":{"antennae":"A","wings":"X","pattern":"D","legs":"X"},"action":"avoid","summary":"bad-avoid","bonus":1.4000000000000008},{"rt":2092.4000000003725,"stimulus":"\n                    <p><b>Action: <em>avoid</em></b></p>\n                    <p>This is the bee that you just saw.</p>\n                    <img src=\"bees-with-color/bee-B1SF.svg\" width=\"200\">\n                    <p><span class=\"redText\">Bad choice,</span> the bee was friendly.<br>Your bonus pay is unchanged, and remains at $0.62.</p>\n            ","response":0,"trial_type":"html-button-response","trial_index":30,"time_elapsed":472972,"internal_node_id":"0.0-4.0-1.11","subject_id":"5c10e5c5753adc0001590f2c","study_id":"60edd13110225f80f9f3709b","session_id":"6196c2504e41bed3e07f6654","condition":"full-information","relevant_dimensions":["antennae","pattern"],"bee_group":{"antennae":"A","wings":"X","pattern":"D","legs":"X"},"bonus":1.4000000000000008},{"rt":5382.199999999255,"stimulus":"bees-with-color/bee-B1DF.svg","response":0,"trial_type":"image-button-response","trial_index":31,"time_elapsed":478361,"internal_node_id":"0.0-4.0-0.12","subject_id":"5c10e5c5753adc0001590f2c","study_id":"60edd13110225f80f9f3709b","session_id":"6196c2504e41bed3e07f6654","condition":"full-information","relevant_dimensions":["antennae","pattern"],"bee_group":{"antennae":"A","wings":"X","pattern":"D","legs":"X"},"action":"harvest","summary":"good-harvest","bonus":1.4000000000000008},{"rt":5854.0999999996275,"stimulus":"\n                    <p><b>Action: <em>harvest</em></b></p>\n                    <p>This is the bee that you just saw.</p>\n                    <img src=\"bees-with-color/bee-B1DF.svg\" width=\"200\">\n                    <p><span class=\"greenText\"><b>Successful harvest!</b></span><br>Your pay has increased by $0.02. Your bonus pay is now $0.64.</p>\n            ","response":0,"trial_type":"html-button-response","trial_index":32,"time_elapsed":484221,"internal_node_id":"0.0-4.0-1.12","subject_id":"5c10e5c5753adc0001590f2c","study_id":"60edd13110225f80f9f3709b","session_id":"6196c2504e41bed3e07f6654","condition":"full-information","relevant_dimensions":["antennae","pattern"],"bee_group":{"antennae":"A","wings":"X","pattern":"D","legs":"X"},"bonus":1.4000000000000008},{"rt":1981.2999999988824,"stimulus":"bees-with-color/bee-A2SM.svg","response":1,"trial_type":"image-button-response","trial_index":33,"time_elapsed":486210,"internal_node_id":"0.0-4.0-0.13","subject_id":"5c10e5c5753adc0001590f2c","study_id":"60edd13110225f80f9f3709b","session_id":"6196c2504e41bed3e07f6654","condition":"full-information","relevant_dimensions":["antennae","pattern"],"bee_group":{"antennae":"A","wings":"X","pattern":"D","legs":"X"},"action":"avoid","summary":"bad-avoid","bonus":1.4000000000000008},{"rt":4406.0999999996275,"stimulus":"\n                    <p><b>Action: <em>avoid</em></b></p>\n                    <p>This is the bee that you just saw.</p>\n                    <img src=\"bees-with-color/bee-A2SM.svg\" width=\"200\">\n                    <p><span class=\"redText\">Bad choice,</span> the bee was friendly.<br>Your bonus pay is unchanged, and remains at $0.64.</p>\n            ","response":0,"trial_type":"html-button-response","trial_index":34,"time_elapsed":490622,"internal_node_id":"0.0-4.0-1.13","subject_id":"5c10e5c5753adc0001590f2c","study_id":"60edd13110225f80f9f3709b","session_id":"6196c2504e41bed3e07f6654","condition":"full-information","relevant_dimensions":["antennae","pattern"],"bee_group":{"antennae":"A","wings":"X","pattern":"D","legs":"X"},"bonus":1.4000000000000008},{"rt":4151.60000000149,"stimulus":"bees-with-color/bee-A1DM.svg","response":1,"trial_type":"image-button-response","trial_index":35,"time_elapsed":494781,"internal_node_id":"0.0-4.0-0.14","subject_id":"5c10e5c5753adc0001590f2c","study_id":"60edd13110225f80f9f3709b","session_id":"6196c2504e41bed3e07f6654","condition":"full-information","relevant_dimensions":["antennae","pattern"],"bee_group":{"antennae":"A","wings":"X","pattern":"D","legs":"X"},"action":"avoid","summary":"good-avoid","bonus":1.4000000000000008},{"rt":6042.4000000003725,"stimulus":"\n                    <p><b>Action: <em>avoid</em></b></p>\n                    <p>This is the bee that you just saw.</p>\n                    <img src=\"bees-with-color/bee-A1DM.svg\" width=\"200\">\n                    <p><span class=\"greenText\">Good choice!</span>  This bee would have stung you.<br>Your bonus pay is unchanged, and remains at $0.64.</p>\n            ","response":0,"trial_type":"html-button-response","trial_index":36,"time_elapsed":500829,"internal_node_id":"0.0-4.0-1.14","subject_id":"5c10e5c5753adc0001590f2c","study_id":"60edd13110225f80f9f3709b","session_id":"6196c2504e41bed3e07f6654","condition":"full-information","relevant_dimensions":["antennae","pattern"],"bee_group":{"antennae":"A","wings":"X","pattern":"D","legs":"X"},"bonus":1.4000000000000008},{"rt":3707.300000000745,"stimulus":"bees-with-color/bee-A1SF.svg","response":1,"trial_type":"image-button-response","trial_index":37,"time_elapsed":504542,"internal_node_id":"0.0-4.0-0.15","subject_id":"5c10e5c5753adc0001590f2c","study_id":"60edd13110225f80f9f3709b","session_id":"6196c2504e41bed3e07f6654","condition":"full-information","relevant_dimensions":["antennae","pattern"],"bee_group":{"antennae":"A","wings":"X","pattern":"D","legs":"X"},"action":"avoid","summary":"bad-avoid","bonus":1.4000000000000008},{"rt":8410.800000000745,"stimulus":"\n                    <p><b>Action: <em>avoid</em></b></p>\n                    <p>This is the bee that you just saw.</p>\n                    <img src=\"bees-with-color/bee-A1SF.svg\" width=\"200\">\n                    <p><span class=\"redText\">Bad choice,</span> the bee was friendly.<br>Your bonus pay is unchanged, and remains at $0.64.</p>\n            ","response":0,"trial_type":"html-button-response","trial_index":38,"time_elapsed":512958,"internal_node_id":"0.0-4.0-1.15","subject_id":"5c10e5c5753adc0001590f2c","study_id":"60edd13110225f80f9f3709b","session_id":"6196c2504e41bed3e07f6654","condition":"full-information","relevant_dimensions":["antennae","pattern"],"bee_group":{"antennae":"A","wings":"X","pattern":"D","legs":"X"},"bonus":1.4000000000000008},{"rt":2200.199999999255,"stimulus":"bees-with-color/bee-B1SF.svg","response":1,"trial_type":"image-button-response","trial_index":39,"time_elapsed":515164,"internal_node_id":"0.0-4.0-0.16","subject_id":"5c10e5c5753adc0001590f2c","study_id":"60edd13110225f80f9f3709b","session_id":"6196c2504e41bed3e07f6654","condition":"full-information","relevant_dimensions":["antennae","pattern"],"bee_group":{"antennae":"A","wings":"X","pattern":"D","legs":"X"},"action":"avoid","summary":"bad-avoid","bonus":1.4000000000000008},{"rt":3369.89999999851,"stimulus":"\n                    <p><b>Action: <em>avoid</em></b></p>\n                    <p>This is the bee that you just saw.</p>\n                    <img src=\"bees-with-color/bee-B1SF.svg\" width=\"200\">\n                    <p><span class=\"redText\">Bad choice,</span> the bee was friendly.<br>Your bonus pay is unchanged, and remains at $0.64.</p>\n            ","response":0,"trial_type":"html-button-response","trial_index":40,"time_elapsed":518539,"internal_node_id":"0.0-4.0-1.16","subject_id":"5c10e5c5753adc0001590f2c","study_id":"60edd13110225f80f9f3709b","session_id":"6196c2504e41bed3e07f6654","condition":"full-information","relevant_dimensions":["antennae","pattern"],"bee_group":{"antennae":"A","wings":"X","pattern":"D","legs":"X"},"bonus":1.4000000000000008},{"rt":5239.199999999255,"stimulus":"bees-with-color/bee-A2DF.svg","response":1,"trial_type":"image-button-response","trial_index":41,"time_elapsed":523784,"internal_node_id":"0.0-4.0-0.17","subject_id":"5c10e5c5753adc0001590f2c","study_id":"60edd13110225f80f9f3709b","session_id":"6196c2504e41bed3e07f6654","condition":"full-information","relevant_dimensions":["antennae","pattern"],"bee_group":{"antennae":"A","wings":"X","pattern":"D","legs":"X"},"action":"avoid","summary":"good-avoid","bonus":1.4000000000000008},{"rt":4636.699999999255,"stimulus":"\n                    <p><b>Action: <em>avoid</em></b></p>\n                    <p>This is the bee that you just saw.</p>\n                    <img src=\"bees-with-color/bee-A2DF.svg\" width=\"200\">\n                    <p><span class=\"greenText\">Good choice!</span>  This bee would have stung you.<br>Your bonus pay is unchanged, and remains at $0.64.</p>\n            ","response":0,"trial_type":"html-button-response","trial_index":42,"time_elapsed":528427,"internal_node_id":"0.0-4.0-1.17","subject_id":"5c10e5c5753adc0001590f2c","study_id":"60edd13110225f80f9f3709b","session_id":"6196c2504e41bed3e07f6654","condition":"full-information","relevant_dimensions":["antennae","pattern"],"bee_group":{"antennae":"A","wings":"X","pattern":"D","legs":"X"},"bonus":1.4000000000000008},{"rt":2752.7999999988824,"stimulus":"bees-with-color/bee-B1SM.svg","response":0,"trial_type":"image-button-response","trial_index":43,"time_elapsed":531186,"internal_node_id":"0.0-4.0-0.18","subject_id":"5c10e5c5753adc0001590f2c","study_id":"60edd13110225f80f9f3709b","session_id":"6196c2504e41bed3e07f6654","condition":"full-information","relevant_dimensions":["antennae","pattern"],"bee_group":{"antennae":"A","wings":"X","pattern":"D","legs":"X"},"action":"harvest","summary":"good-harvest","bonus":1.4000000000000008},{"rt":9866.900000000373,"stimulus":"\n                    <p><b>Action: <em>harvest</em></b></p>\n                    <p>This is the bee that you just saw.</p>\n                    <img src=\"bees-with-color/bee-B1SM.svg\" width=\"200\">\n                    <p><span class=\"greenText\"><b>Successful harvest!</b></span><br>Your pay has increased by $0.02. Your bonus pay is now $0.66.</p>\n            ","response":0,"trial_type":"html-button-response","trial_index":44,"time_elapsed":541061,"internal_node_id":"0.0-4.0-1.18","subject_id":"5c10e5c5753adc0001590f2c","study_id":"60edd13110225f80f9f3709b","session_id":"6196c2504e41bed3e07f6654","condition":"full-information","relevant_dimensions":["antennae","pattern"],"bee_group":{"antennae":"A","wings":"X","pattern":"D","legs":"X"},"bonus":1.4000000000000008},{"rt":2501.0999999996275,"stimulus":"bees-with-color/bee-A1SM.svg","response":1,"trial_type":"image-button-response","trial_index":45,"time_elapsed":543570,"internal_node_id":"0.0-4.0-0.19","subject_id":"5c10e5c5753adc0001590f2c","study_id":"60edd13110225f80f9f3709b","session_id":"6196c2504e41bed3e07f6654","condition":"full-information","relevant_dimensions":["antennae","pattern"],"bee_group":{"antennae":"A","wings":"X","pattern":"D","legs":"X"},"action":"avoid","summary":"bad-avoid","bonus":1.4000000000000008},{"rt":3029,"stimulus":"\n                    <p><b>Action: <em>avoid</em></b></p>\n                    <p>This is the bee that you just saw.</p>\n                    <img src=\"bees-with-color/bee-A1SM.svg\" width=\"200\">\n                    <p><span class=\"redText\">Bad choice,</span> the bee was friendly.<br>Your bonus pay is unchanged, and remains at $0.66.</p>\n            ","response":0,"trial_type":"html-button-response","trial_index":46,"time_elapsed":546606,"internal_node_id":"0.0-4.0-1.19","subject_id":"5c10e5c5753adc0001590f2c","study_id":"60edd13110225f80f9f3709b","session_id":"6196c2504e41bed3e07f6654","condition":"full-information","relevant_dimensions":["antennae","pattern"],"bee_group":{"antennae":"A","wings":"X","pattern":"D","legs":"X"},"bonus":1.4000000000000008},{"rt":8265,"stimulus":"bees-with-color/bee-B2SM.svg","response":0,"trial_type":"image-button-response","trial_index":47,"time_elapsed":554876,"internal_node_id":"0.0-4.0-0.20","subject_id":"5c10e5c5753adc0001590f2c","study_id":"60edd13110225f80f9f3709b","session_id":"6196c2504e41bed3e07f6654","condition":"full-information","relevant_dimensions":["antennae","pattern"],"bee_group":{"antennae":"A","wings":"X","pattern":"D","legs":"X"},"action":"harvest","summary":"good-harvest","bonus":1.4000000000000008},{"rt":8481.200000001118,"stimulus":"\n                    <p><b>Action: <em>harvest</em></b></p>\n                    <p>This is the bee that you just saw.</p>\n                    <img src=\"bees-with-color/bee-B2SM.svg\" width=\"200\">\n                    <p><span class=\"greenText\"><b>Successful harvest!</b></span><br>Your pay has increased by $0.02. Your bonus pay is now $0.68.</p>\n            ","response":0,"trial_type":"html-button-response","trial_index":48,"time_elapsed":563364,"internal_node_id":"0.0-4.0-1.20","subject_id":"5c10e5c5753adc0001590f2c","study_id":"60edd13110225f80f9f3709b","session_id":"6196c2504e41bed3e07f6654","condition":"full-information","relevant_dimensions":["antennae","pattern"],"bee_group":{"antennae":"A","wings":"X","pattern":"D","legs":"X"},"bonus":1.4000000000000008},{"rt":2911.5,"stimulus":"bees-with-color/bee-A1DM.svg","response":1,"trial_type":"image-button-response","trial_index":49,"time_elapsed":566282,"internal_node_id":"0.0-4.0-0.21","subject_id":"5c10e5c5753adc0001590f2c","study_id":"60edd13110225f80f9f3709b","session_id":"6196c2504e41bed3e07f6654","condition":"full-information","relevant_dimensions":["antennae","pattern"],"bee_group":{"antennae":"A","wings":"X","pattern":"D","legs":"X"},"action":"avoid","summary":"good-avoid","bonus":1.4000000000000008},{"rt":10805.300000000745,"stimulus":"\n                    <p><b>Action: <em>avoid</em></b></p>\n                    <p>This is the bee that you just saw.</p>\n                    <img src=\"bees-with-color/bee-A1DM.svg\" width=\"200\">\n                    <p><span class=\"greenText\">Good choice!</span>  This bee would have stung you.<br>Your bonus pay is unchanged, and remains at $0.68.</p>\n            ","response":0,"trial_type":"html-button-response","trial_index":50,"time_elapsed":577093,"internal_node_id":"0.0-4.0-1.21","subject_id":"5c10e5c5753adc0001590f2c","study_id":"60edd13110225f80f9f3709b","session_id":"6196c2504e41bed3e07f6654","condition":"full-information","relevant_dimensions":["antennae","pattern"],"bee_group":{"antennae":"A","wings":"X","pattern":"D","legs":"X"},"bonus":1.4000000000000008},{"rt":3453.10000000149,"stimulus":"bees-with-color/bee-A1SF.svg","response":1,"trial_type":"image-button-response","trial_index":51,"time_elapsed":580554,"internal_node_id":"0.0-4.0-0.22","subject_id":"5c10e5c5753adc0001590f2c","study_id":"60edd13110225f80f9f3709b","session_id":"6196c2504e41bed3e07f6654","condition":"full-information","relevant_dimensions":["antennae","pattern"],"bee_group":{"antennae":"A","wings":"X","pattern":"D","legs":"X"},"action":"avoid","summary":"bad-avoid","bonus":1.4000000000000008},{"rt":3451.0999999996275,"stimulus":"\n                    <p><b>Action: <em>avoid</em></b></p>\n                    <p>This is the bee that you just saw.</p>\n                    <img src=\"bees-with-color/bee-A1SF.svg\" width=\"200\">\n                    <p><span class=\"redText\">Bad choice,</span> the bee was friendly.<br>Your bonus pay is unchanged, and remains at $0.68.</p>\n            ","response":0,"trial_type":"html-button-response","trial_index":52,"time_elapsed":584011,"internal_node_id":"0.0-4.0-1.22","subject_id":"5c10e5c5753adc0001590f2c","study_id":"60edd13110225f80f9f3709b","session_id":"6196c2504e41bed3e07f6654","condition":"full-information","relevant_dimensions":["antennae","pattern"],"bee_group":{"antennae":"A","wings":"X","pattern":"D","legs":"X"},"bonus":1.4000000000000008},{"rt":3498.5,"stimulus":"bees-with-color/bee-B2DF.svg","response":0,"trial_type":"image-button-response","trial_index":53,"time_elapsed":587517,"internal_node_id":"0.0-4.0-0.23","subject_id":"5c10e5c5753adc0001590f2c","study_id":"60edd13110225f80f9f3709b","session_id":"6196c2504e41bed3e07f6654","condition":"full-information","relevant_dimensions":["antennae","pattern"],"bee_group":{"antennae":"A","wings":"X","pattern":"D","legs":"X"},"action":"harvest","summary":"good-harvest","bonus":1.4000000000000008},{"rt":8303.700000001118,"stimulus":"\n                    <p><b>Action: <em>harvest</em></b></p>\n                    <p>This is the bee that you just saw.</p>\n                    <img src=\"bees-with-color/bee-B2DF.svg\" width=\"200\">\n                    <p><span class=\"greenText\"><b>Successful harvest!</b></span><br>Your pay has increased by $0.02. Your bonus pay is now $0.70.</p>\n            ","response":0,"trial_type":"html-button-response","trial_index":54,"time_elapsed":595824,"internal_node_id":"0.0-4.0-1.23","subject_id":"5c10e5c5753adc0001590f2c","study_id":"60edd13110225f80f9f3709b","session_id":"6196c2504e41bed3e07f6654","condition":"full-information","relevant_dimensions":["antennae","pattern"],"bee_group":{"antennae":"A","wings":"X","pattern":"D","legs":"X"},"bonus":1.4000000000000008},{"rt":3619.7000000011176,"stimulus":"bees-with-color/bee-A2SM.svg","response":1,"trial_type":"image-button-response","trial_index":55,"time_elapsed":599449,"internal_node_id":"0.0-4.0-0.24","subject_id":"5c10e5c5753adc0001590f2c","study_id":"60edd13110225f80f9f3709b","session_id":"6196c2504e41bed3e07f6654","condition":"full-information","relevant_dimensions":["antennae","pattern"],"bee_group":{"antennae":"A","wings":"X","pattern":"D","legs":"X"},"action":"avoid","summary":"bad-avoid","bonus":1.4000000000000008},{"rt":4301.800000000745,"stimulus":"\n                    <p><b>Action: <em>avoid</em></b></p>\n                    <p>This is the bee that you just saw.</p>\n                    <img src=\"bees-with-color/bee-A2SM.svg\" width=\"200\">\n                    <p><span class=\"redText\">Bad choice,</span> the bee was friendly.<br>Your bonus pay is unchanged, and remains at $0.70.</p>\n            ","response":0,"trial_type":"html-button-response","trial_index":56,"time_elapsed":603754,"internal_node_id":"0.0-4.0-1.24","subject_id":"5c10e5c5753adc0001590f2c","study_id":"60edd13110225f80f9f3709b","session_id":"6196c2504e41bed3e07f6654","condition":"full-information","relevant_dimensions":["antennae","pattern"],"bee_group":{"antennae":"A","wings":"X","pattern":"D","legs":"X"},"bonus":1.4000000000000008},{"rt":2441.5999999996275,"stimulus":"bees-with-color/bee-A2SF.svg","response":1,"trial_type":"image-button-response","trial_index":57,"time_elapsed":606202,"internal_node_id":"0.0-4.0-0.25","subject_id":"5c10e5c5753adc0001590f2c","study_id":"60edd13110225f80f9f3709b","session_id":"6196c2504e41bed3e07f6654","condition":"full-information","relevant_dimensions":["antennae","pattern"],"bee_group":{"antennae":"A","wings":"X","pattern":"D","legs":"X"},"action":"avoid","summary":"bad-avoid","bonus":1.4000000000000008},{"rt":4228.0999999996275,"stimulus":"\n                    <p><b>Action: <em>avoid</em></b></p>\n                    <p>This is the bee that you just saw.</p>\n                    <img src=\"bees-with-color/bee-A2SF.svg\" width=\"200\">\n                    <p><span class=\"redText\">Bad choice,</span> the bee was friendly.<br>Your bonus pay is unchanged, and remains at $0.70.</p>\n            ","response":0,"trial_type":"html-button-response","trial_index":58,"time_elapsed":610435,"internal_node_id":"0.0-4.0-1.25","subject_id":"5c10e5c5753adc0001590f2c","study_id":"60edd13110225f80f9f3709b","session_id":"6196c2504e41bed3e07f6654","condition":"full-information","relevant_dimensions":["antennae","pattern"],"bee_group":{"antennae":"A","wings":"X","pattern":"D","legs":"X"},"bonus":1.4000000000000008},{"rt":2415.7999999988824,"stimulus":"bees-with-color/bee-B2SF.svg","response":0,"trial_type":"image-button-response","trial_index":59,"time_elapsed":612859,"internal_node_id":"0.0-4.0-0.26","subject_id":"5c10e5c5753adc0001590f2c","study_id":"60edd13110225f80f9f3709b","session_id":"6196c2504e41bed3e07f6654","condition":"full-information","relevant_dimensions":["antennae","pattern"],"bee_group":{"antennae":"A","wings":"X","pattern":"D","legs":"X"},"action":"harvest","summary":"good-harvest","bonus":1.4000000000000008},{"rt":4152.199999999255,"stimulus":"\n                    <p><b>Action: <em>harvest</em></b></p>\n                    <p>This is the bee that you just saw.</p>\n                    <img src=\"bees-with-color/bee-B2SF.svg\" width=\"200\">\n                    <p><span class=\"greenText\"><b>Successful harvest!</b></span><br>Your pay has increased by $0.02. Your bonus pay is now $0.72.</p>\n            ","response":0,"trial_type":"html-button-response","trial_index":60,"time_elapsed":617017,"internal_node_id":"0.0-4.0-1.26","subject_id":"5c10e5c5753adc0001590f2c","study_id":"60edd13110225f80f9f3709b","session_id":"6196c2504e41bed3e07f6654","condition":"full-information","relevant_dimensions":["antennae","pattern"],"bee_group":{"antennae":"A","wings":"X","pattern":"D","legs":"X"},"bonus":1.4000000000000008},{"rt":5963.300000000745,"stimulus":"bees-with-color/bee-A2DM.svg","response":1,"trial_type":"image-button-response","trial_index":61,"time_elapsed":622987,"internal_node_id":"0.0-4.0-0.27","subject_id":"5c10e5c5753adc0001590f2c","study_id":"60edd13110225f80f9f3709b","session_id":"6196c2504e41bed3e07f6654","condition":"full-information","relevant_dimensions":["antennae","pattern"],"bee_group":{"antennae":"A","wings":"X","pattern":"D","legs":"X"},"action":"avoid","summary":"good-avoid","bonus":1.4000000000000008},{"rt":2450.2999999988824,"stimulus":"\n                    <p><b>Action: <em>avoid</em></b></p>\n                    <p>This is the bee that you just saw.</p>\n                    <img src=\"bees-with-color/bee-A2DM.svg\" width=\"200\">\n                    <p><span class=\"greenText\">Good choice!</span>  This bee would have stung you.<br>Your bonus pay is unchanged, and remains at $0.72.</p>\n            ","response":0,"trial_type":"html-button-response","trial_index":62,"time_elapsed":625445,"internal_node_id":"0.0-4.0-1.27","subject_id":"5c10e5c5753adc0001590f2c","study_id":"60edd13110225f80f9f3709b","session_id":"6196c2504e41bed3e07f6654","condition":"full-information","relevant_dimensions":["antennae","pattern"],"bee_group":{"antennae":"A","wings":"X","pattern":"D","legs":"X"},"bonus":1.4000000000000008},{"rt":7809.39999999851,"stimulus":"bees-with-color/bee-B2DM.svg","response":1,"trial_type":"image-button-response","trial_index":63,"time_elapsed":633261,"internal_node_id":"0.0-4.0-0.28","subject_id":"5c10e5c5753adc0001590f2c","study_id":"60edd13110225f80f9f3709b","session_id":"6196c2504e41bed3e07f6654","condition":"full-information","relevant_dimensions":["antennae","pattern"],"bee_group":{"antennae":"A","wings":"X","pattern":"D","legs":"X"},"action":"avoid","summary":"bad-avoid","bonus":1.4000000000000008},{"rt":1738.300000000745,"stimulus":"\n                    <p><b>Action: <em>avoid</em></b></p>\n                    <p>This is the bee that you just saw.</p>\n                    <img src=\"bees-with-color/bee-B2DM.svg\" width=\"200\">\n                    <p><span class=\"redText\">Bad choice,</span> the bee was friendly.<br>Your bonus pay is unchanged, and remains at $0.72.</p>\n            ","response":0,"trial_type":"html-button-response","trial_index":64,"time_elapsed":635006,"internal_node_id":"0.0-4.0-1.28","subject_id":"5c10e5c5753adc0001590f2c","study_id":"60edd13110225f80f9f3709b","session_id":"6196c2504e41bed3e07f6654","condition":"full-information","relevant_dimensions":["antennae","pattern"],"bee_group":{"antennae":"A","wings":"X","pattern":"D","legs":"X"},"bonus":1.4000000000000008},{"rt":3888.300000000745,"stimulus":"bees-with-color/bee-B1DF.svg","response":1,"trial_type":"image-button-response","trial_index":65,"time_elapsed":638900,"internal_node_id":"0.0-4.0-0.29","subject_id":"5c10e5c5753adc0001590f2c","study_id":"60edd13110225f80f9f3709b","session_id":"6196c2504e41bed3e07f6654","condition":"full-information","relevant_dimensions":["antennae","pattern"],"bee_group":{"antennae":"A","wings":"X","pattern":"D","legs":"X"},"action":"avoid","summary":"bad-avoid","bonus":1.4000000000000008},{"rt":1598.800000000745,"stimulus":"\n                    <p><b>Action: <em>avoid</em></b></p>\n                    <p>This is the bee that you just saw.</p>\n                    <img src=\"bees-with-color/bee-B1DF.svg\" width=\"200\">\n                    <p><span class=\"redText\">Bad choice,</span> the bee was friendly.<br>Your bonus pay is unchanged, and remains at $0.72.</p>\n            ","response":0,"trial_type":"html-button-response","trial_index":66,"time_elapsed":640503,"internal_node_id":"0.0-4.0-1.29","subject_id":"5c10e5c5753adc0001590f2c","study_id":"60edd13110225f80f9f3709b","session_id":"6196c2504e41bed3e07f6654","condition":"full-information","relevant_dimensions":["antennae","pattern"],"bee_group":{"antennae":"A","wings":"X","pattern":"D","legs":"X"},"bonus":1.4000000000000008},{"rt":6045.5,"stimulus":"bees-with-color/bee-A1DF.svg","response":1,"trial_type":"image-button-response","trial_index":67,"time_elapsed":646554,"internal_node_id":"0.0-4.0-0.30","subject_id":"5c10e5c5753adc0001590f2c","study_id":"60edd13110225f80f9f3709b","session_id":"6196c2504e41bed3e07f6654","condition":"full-information","relevant_dimensions":["antennae","pattern"],"bee_group":{"antennae":"A","wings":"X","pattern":"D","legs":"X"},"action":"avoid","summary":"good-avoid","bonus":1.4000000000000008},{"rt":4301.9000000003725,"stimulus":"\n                    <p><b>Action: <em>avoid</em></b></p>\n                    <p>This is the bee that you just saw.</p>\n                    <img src=\"bees-with-color/bee-A1DF.svg\" width=\"200\">\n                    <p><span class=\"greenText\">Good choice!</span>  This bee would have stung you.<br>Your bonus pay is unchanged, and remains at $0.72.</p>\n            ","response":0,"trial_type":"html-button-response","trial_index":68,"time_elapsed":650861,"internal_node_id":"0.0-4.0-1.30","subject_id":"5c10e5c5753adc0001590f2c","study_id":"60edd13110225f80f9f3709b","session_id":"6196c2504e41bed3e07f6654","condition":"full-information","relevant_dimensions":["antennae","pattern"],"bee_group":{"antennae":"A","wings":"X","pattern":"D","legs":"X"},"bonus":1.4000000000000008},{"rt":3983.9000000003725,"stimulus":"bees-with-color/bee-B1DM.svg","response":0,"trial_type":"image-button-response","trial_index":69,"time_elapsed":654852,"internal_node_id":"0.0-4.0-0.31","subject_id":"5c10e5c5753adc0001590f2c","study_id":"60edd13110225f80f9f3709b","session_id":"6196c2504e41bed3e07f6654","condition":"full-information","relevant_dimensions":["antennae","pattern"],"bee_group":{"antennae":"A","wings":"X","pattern":"D","legs":"X"},"action":"harvest","summary":"good-harvest","bonus":1.4000000000000008},{"rt":2550.9000000003725,"stimulus":"\n                    <p><b>Action: <em>harvest</em></b></p>\n                    <p>This is the bee that you just saw.</p>\n                    <img src=\"bees-with-color/bee-B1DM.svg\" width=\"200\">\n                    <p><span class=\"greenText\"><b>Successful harvest!</b></span><br>Your pay has increased by $0.02. Your bonus pay is now $0.74.</p>\n            ","response":0,"trial_type":"html-button-response","trial_index":70,"time_elapsed":657408,"internal_node_id":"0.0-4.0-1.31","subject_id":"5c10e5c5753adc0001590f2c","study_id":"60edd13110225f80f9f3709b","session_id":"6196c2504e41bed3e07f6654","condition":"full-information","relevant_dimensions":["antennae","pattern"],"bee_group":{"antennae":"A","wings":"X","pattern":"D","legs":"X"},"bonus":1.4000000000000008},{"rt":6191.799999998882,"stimulus":"bees-with-color/bee-B2SM.svg","response":0,"trial_type":"image-button-response","trial_index":71,"time_elapsed":663606,"internal_node_id":"0.0-4.0-0.32","subject_id":"5c10e5c5753adc0001590f2c","study_id":"60edd13110225f80f9f3709b","session_id":"6196c2504e41bed3e07f6654","condition":"full-information","relevant_dimensions":["antennae","pattern"],"bee_group":{"antennae":"A","wings":"X","pattern":"D","legs":"X"},"action":"harvest","summary":"good-harvest","bonus":1.4000000000000008},{"rt":1703.699999999255,"stimulus":"\n                    <p><b>Action: <em>harvest</em></b></p>\n                    <p>This is the bee that you just saw.</p>\n                    <img src=\"bees-with-color/bee-B2SM.svg\" width=\"200\">\n                    <p><span class=\"greenText\"><b>Successful harvest!</b></span><br>Your pay has increased by $0.02. Your bonus pay is now $0.76.</p>\n            ","response":0,"trial_type":"html-button-response","trial_index":72,"time_elapsed":665316,"internal_node_id":"0.0-4.0-1.32","subject_id":"5c10e5c5753adc0001590f2c","study_id":"60edd13110225f80f9f3709b","session_id":"6196c2504e41bed3e07f6654","condition":"full-information","relevant_dimensions":["antennae","pattern"],"bee_group":{"antennae":"A","wings":"X","pattern":"D","legs":"X"},"bonus":1.4000000000000008},{"rt":3595.5999999996275,"stimulus":"bees-with-color/bee-B1DF.svg","response":0,"trial_type":"image-button-response","trial_index":73,"time_elapsed":668918,"internal_node_id":"0.0-4.0-0.33","subject_id":"5c10e5c5753adc0001590f2c","study_id":"60edd13110225f80f9f3709b","session_id":"6196c2504e41bed3e07f6654","condition":"full-information","relevant_dimensions":["antennae","pattern"],"bee_group":{"antennae":"A","wings":"X","pattern":"D","legs":"X"},"action":"harvest","summary":"good-harvest","bonus":1.4000000000000008},{"rt":3834.199999999255,"stimulus":"\n                    <p><b>Action: <em>harvest</em></b></p>\n                    <p>This is the bee that you just saw.</p>\n                    <img src=\"bees-with-color/bee-B1DF.svg\" width=\"200\">\n                    <p><span class=\"greenText\"><b>Successful harvest!</b></span><br>Your pay has increased by $0.02. Your bonus pay is now $0.78.</p>\n            ","response":0,"trial_type":"html-button-response","trial_index":74,"time_elapsed":672756,"internal_node_id":"0.0-4.0-1.33","subject_id":"5c10e5c5753adc0001590f2c","study_id":"60edd13110225f80f9f3709b","session_id":"6196c2504e41bed3e07f6654","condition":"full-information","relevant_dimensions":["antennae","pattern"],"bee_group":{"antennae":"A","wings":"X","pattern":"D","legs":"X"},"bonus":1.4000000000000008},{"rt":3922.4000000003725,"stimulus":"bees-with-color/bee-A2DM.svg","response":1,"trial_type":"image-button-response","trial_index":75,"time_elapsed":676685,"internal_node_id":"0.0-4.0-0.34","subject_id":"5c10e5c5753adc0001590f2c","study_id":"60edd13110225f80f9f3709b","session_id":"6196c2504e41bed3e07f6654","condition":"full-information","relevant_dimensions":["antennae","pattern"],"bee_group":{"antennae":"A","wings":"X","pattern":"D","legs":"X"},"action":"avoid","summary":"good-avoid","bonus":1.4000000000000008},{"rt":2876.89999999851,"stimulus":"\n                    <p><b>Action: <em>avoid</em></b></p>\n                    <p>This is the bee that you just saw.</p>\n                    <img src=\"bees-with-color/bee-A2DM.svg\" width=\"200\">\n                    <p><span class=\"greenText\">Good choice!</span>  This bee would have stung you.<br>Your bonus pay is unchanged, and remains at $0.78.</p>\n            ","response":0,"trial_type":"html-button-response","trial_index":76,"time_elapsed":679567,"internal_node_id":"0.0-4.0-1.34","subject_id":"5c10e5c5753adc0001590f2c","study_id":"60edd13110225f80f9f3709b","session_id":"6196c2504e41bed3e07f6654","condition":"full-information","relevant_dimensions":["antennae","pattern"],"bee_group":{"antennae":"A","wings":"X","pattern":"D","legs":"X"},"bonus":1.4000000000000008},{"rt":2305.800000000745,"stimulus":"bees-with-color/bee-A1DM.svg","response":1,"trial_type":"image-button-response","trial_index":77,"time_elapsed":681878,"internal_node_id":"0.0-4.0-0.35","subject_id":"5c10e5c5753adc0001590f2c","study_id":"60edd13110225f80f9f3709b","session_id":"6196c2504e41bed3e07f6654","condition":"full-information","relevant_dimensions":["antennae","pattern"],"bee_group":{"antennae":"A","wings":"X","pattern":"D","legs":"X"},"action":"avoid","summary":"good-avoid","bonus":1.4000000000000008},{"rt":2836.5,"stimulus":"\n                    <p><b>Action: <em>avoid</em></b></p>\n                    <p>This is the bee that you just saw.</p>\n                    <img src=\"bees-with-color/bee-A1DM.svg\" width=\"200\">\n                    <p><span class=\"greenText\">Good choice!</span>  This bee would have stung you.<br>Your bonus pay is unchanged, and remains at $0.78.</p>\n            ","response":0,"trial_type":"html-button-response","trial_index":78,"time_elapsed":684717,"internal_node_id":"0.0-4.0-1.35","subject_id":"5c10e5c5753adc0001590f2c","study_id":"60edd13110225f80f9f3709b","session_id":"6196c2504e41bed3e07f6654","condition":"full-information","relevant_dimensions":["antennae","pattern"],"bee_group":{"antennae":"A","wings":"X","pattern":"D","legs":"X"},"bonus":1.4000000000000008},{"rt":4791.9000000003725,"stimulus":"bees-with-color/bee-A1SM.svg","response":1,"trial_type":"image-button-response","trial_index":79,"time_elapsed":689515,"internal_node_id":"0.0-4.0-0.36","subject_id":"5c10e5c5753adc0001590f2c","study_id":"60edd13110225f80f9f3709b","session_id":"6196c2504e41bed3e07f6654","condition":"full-information","relevant_dimensions":["antennae","pattern"],"bee_group":{"antennae":"A","wings":"X","pattern":"D","legs":"X"},"action":"avoid","summary":"bad-avoid","bonus":1.4000000000000008},{"rt":4949.9000000003725,"stimulus":"\n                    <p><b>Action: <em>avoid</em></b></p>\n                    <p>This is the bee that you just saw.</p>\n                    <img src=\"bees-with-color/bee-A1SM.svg\" width=\"200\">\n                    <p><span class=\"redText\">Bad choice,</span> the bee was friendly.<br>Your bonus pay is unchanged, and remains at $0.78.</p>\n            ","response":0,"trial_type":"html-button-response","trial_index":80,"time_elapsed":694470,"internal_node_id":"0.0-4.0-1.36","subject_id":"5c10e5c5753adc0001590f2c","study_id":"60edd13110225f80f9f3709b","session_id":"6196c2504e41bed3e07f6654","condition":"full-information","relevant_dimensions":["antennae","pattern"],"bee_group":{"antennae":"A","wings":"X","pattern":"D","legs":"X"},"bonus":1.4000000000000008},{"rt":2874.10000000149,"stimulus":"bees-with-color/bee-B2DF.svg","response":0,"trial_type":"image-button-response","trial_index":81,"time_elapsed":697351,"internal_node_id":"0.0-4.0-0.37","subject_id":"5c10e5c5753adc0001590f2c","study_id":"60edd13110225f80f9f3709b","session_id":"6196c2504e41bed3e07f6654","condition":"full-information","relevant_dimensions":["antennae","pattern"],"bee_group":{"antennae":"A","wings":"X","pattern":"D","legs":"X"},"action":"harvest","summary":"good-harvest","bonus":1.4000000000000008},{"rt":4168.5999999996275,"stimulus":"\n                    <p><b>Action: <em>harvest</em></b></p>\n                    <p>This is the bee that you just saw.</p>\n                    <img src=\"bees-with-color/bee-B2DF.svg\" width=\"200\">\n                    <p><span class=\"greenText\"><b>Successful harvest!</b></span><br>Your pay has increased by $0.02. Your bonus pay is now $0.80.</p>\n            ","response":0,"trial_type":"html-button-response","trial_index":82,"time_elapsed":701526,"internal_node_id":"0.0-4.0-1.37","subject_id":"5c10e5c5753adc0001590f2c","study_id":"60edd13110225f80f9f3709b","session_id":"6196c2504e41bed3e07f6654","condition":"full-information","relevant_dimensions":["antennae","pattern"],"bee_group":{"antennae":"A","wings":"X","pattern":"D","legs":"X"},"bonus":1.4000000000000008},{"rt":3884.800000000745,"stimulus":"bees-with-color/bee-B1SF.svg","response":1,"trial_type":"image-button-response","trial_index":83,"time_elapsed":705418,"internal_node_id":"0.0-4.0-0.38","subject_id":"5c10e5c5753adc0001590f2c","study_id":"60edd13110225f80f9f3709b","session_id":"6196c2504e41bed3e07f6654","condition":"full-information","relevant_dimensions":["antennae","pattern"],"bee_group":{"antennae":"A","wings":"X","pattern":"D","legs":"X"},"action":"avoid","summary":"bad-avoid","bonus":1.4000000000000008},{"rt":2464,"stimulus":"\n                    <p><b>Action: <em>avoid</em></b></p>\n                    <p>This is the bee that you just saw.</p>\n                    <img src=\"bees-with-color/bee-B1SF.svg\" width=\"200\">\n                    <p><span class=\"redText\">Bad choice,</span> the bee was friendly.<br>Your bonus pay is unchanged, and remains at $0.80.</p>\n            ","response":0,"trial_type":"html-button-response","trial_index":84,"time_elapsed":707888,"internal_node_id":"0.0-4.0-1.38","subject_id":"5c10e5c5753adc0001590f2c","study_id":"60edd13110225f80f9f3709b","session_id":"6196c2504e41bed3e07f6654","condition":"full-information","relevant_dimensions":["antennae","pattern"],"bee_group":{"antennae":"A","wings":"X","pattern":"D","legs":"X"},"bonus":1.4000000000000008},{"rt":3769.39999999851,"stimulus":"bees-with-color/bee-B2SF.svg","response":0,"trial_type":"image-button-response","trial_index":85,"time_elapsed":711664,"internal_node_id":"0.0-4.0-0.39","subject_id":"5c10e5c5753adc0001590f2c","study_id":"60edd13110225f80f9f3709b","session_id":"6196c2504e41bed3e07f6654","condition":"full-information","relevant_dimensions":["antennae","pattern"],"bee_group":{"antennae":"A","wings":"X","pattern":"D","legs":"X"},"action":"harvest","summary":"good-harvest","bonus":1.4000000000000008},{"rt":2248.0999999996275,"stimulus":"\n                    <p><b>Action: <em>harvest</em></b></p>\n                    <p>This is the bee that you just saw.</p>\n                    <img src=\"bees-with-color/bee-B2SF.svg\" width=\"200\">\n                    <p><span class=\"greenText\"><b>Successful harvest!</b></span><br>Your pay has increased by $0.02. Your bonus pay is now $0.82.</p>\n            ","response":0,"trial_type":"html-button-response","trial_index":86,"time_elapsed":713917,"internal_node_id":"0.0-4.0-1.39","subject_id":"5c10e5c5753adc0001590f2c","study_id":"60edd13110225f80f9f3709b","session_id":"6196c2504e41bed3e07f6654","condition":"full-information","relevant_dimensions":["antennae","pattern"],"bee_group":{"antennae":"A","wings":"X","pattern":"D","legs":"X"},"bonus":1.4000000000000008},{"rt":3345.9000000003725,"stimulus":"bees-with-color/bee-A1DF.svg","response":1,"trial_type":"image-button-response","trial_index":87,"time_elapsed":717270,"internal_node_id":"0.0-4.0-0.40","subject_id":"5c10e5c5753adc0001590f2c","study_id":"60edd13110225f80f9f3709b","session_id":"6196c2504e41bed3e07f6654","condition":"full-information","relevant_dimensions":["antennae","pattern"],"bee_group":{"antennae":"A","wings":"X","pattern":"D","legs":"X"},"action":"avoid","summary":"good-avoid","bonus":1.4000000000000008},{"rt":2672.5999999996275,"stimulus":"\n                    <p><b>Action: <em>avoid</em></b></p>\n                    <p>This is the bee that you just saw.</p>\n                    <img src=\"bees-with-color/bee-A1DF.svg\" width=\"200\">\n                    <p><span class=\"greenText\">Good choice!</span>  This bee would have stung you.<br>Your bonus pay is unchanged, and remains at $0.82.</p>\n            ","response":0,"trial_type":"html-button-response","trial_index":88,"time_elapsed":719946,"internal_node_id":"0.0-4.0-1.40","subject_id":"5c10e5c5753adc0001590f2c","study_id":"60edd13110225f80f9f3709b","session_id":"6196c2504e41bed3e07f6654","condition":"full-information","relevant_dimensions":["antennae","pattern"],"bee_group":{"antennae":"A","wings":"X","pattern":"D","legs":"X"},"bonus":1.4000000000000008},{"rt":3261.300000000745,"stimulus":"bees-with-color/bee-A2SF.svg","response":1,"trial_type":"image-button-response","trial_index":89,"time_elapsed":723214,"internal_node_id":"0.0-4.0-0.41","subject_id":"5c10e5c5753adc0001590f2c","study_id":"60edd13110225f80f9f3709b","session_id":"6196c2504e41bed3e07f6654","condition":"full-information","relevant_dimensions":["antennae","pattern"],"bee_group":{"antennae":"A","wings":"X","pattern":"D","legs":"X"},"action":"avoid","summary":"bad-avoid","bonus":1.4000000000000008},{"rt":2923.5999999996275,"stimulus":"\n                    <p><b>Action: <em>avoid</em></b></p>\n                    <p>This is the bee that you just saw.</p>\n                    <img src=\"bees-with-color/bee-A2SF.svg\" width=\"200\">\n                    <p><span class=\"redText\">Bad choice,</span> the bee was friendly.<br>Your bonus pay is unchanged, and remains at $0.82.</p>\n            ","response":0,"trial_type":"html-button-response","trial_index":90,"time_elapsed":726143,"internal_node_id":"0.0-4.0-1.41","subject_id":"5c10e5c5753adc0001590f2c","study_id":"60edd13110225f80f9f3709b","session_id":"6196c2504e41bed3e07f6654","condition":"full-information","relevant_dimensions":["antennae","pattern"],"bee_group":{"antennae":"A","wings":"X","pattern":"D","legs":"X"},"bonus":1.4000000000000008},{"rt":2610.199999999255,"stimulus":"bees-with-color/bee-A2SM.svg","response":1,"trial_type":"image-button-response","trial_index":91,"time_elapsed":728760,"internal_node_id":"0.0-4.0-0.42","subject_id":"5c10e5c5753adc0001590f2c","study_id":"60edd13110225f80f9f3709b","session_id":"6196c2504e41bed3e07f6654","condition":"full-information","relevant_dimensions":["antennae","pattern"],"bee_group":{"antennae":"A","wings":"X","pattern":"D","legs":"X"},"action":"avoid","summary":"bad-avoid","bonus":1.4000000000000008},{"rt":1331.5999999996275,"stimulus":"\n                    <p><b>Action: <em>avoid</em></b></p>\n                    <p>This is the bee that you just saw.</p>\n                    <img src=\"bees-with-color/bee-A2SM.svg\" width=\"200\">\n                    <p><span class=\"redText\">Bad choice,</span> the bee was friendly.<br>Your bonus pay is unchanged, and remains at $0.82.</p>\n            ","response":0,"trial_type":"html-button-response","trial_index":92,"time_elapsed":730096,"internal_node_id":"0.0-4.0-1.42","subject_id":"5c10e5c5753adc0001590f2c","study_id":"60edd13110225f80f9f3709b","session_id":"6196c2504e41bed3e07f6654","condition":"full-information","relevant_dimensions":["antennae","pattern"],"bee_group":{"antennae":"A","wings":"X","pattern":"D","legs":"X"},"bonus":1.4000000000000008},{"rt":3672.0999999996275,"stimulus":"bees-with-color/bee-B1DM.svg","response":0,"trial_type":"image-button-response","trial_index":93,"time_elapsed":733775,"internal_node_id":"0.0-4.0-0.43","subject_id":"5c10e5c5753adc0001590f2c","study_id":"60edd13110225f80f9f3709b","session_id":"6196c2504e41bed3e07f6654","condition":"full-information","relevant_dimensions":["antennae","pattern"],"bee_group":{"antennae":"A","wings":"X","pattern":"D","legs":"X"},"action":"harvest","summary":"good-harvest","bonus":1.4000000000000008},{"rt":2864.800000000745,"stimulus":"\n                    <p><b>Action: <em>harvest</em></b></p>\n                    <p>This is the bee that you just saw.</p>\n                    <img src=\"bees-with-color/bee-B1DM.svg\" width=\"200\">\n                    <p><span class=\"greenText\"><b>Successful harvest!</b></span><br>Your pay has increased by $0.02. Your bonus pay is now $0.84.</p>\n            ","response":0,"trial_type":"html-button-response","trial_index":94,"time_elapsed":736645,"internal_node_id":"0.0-4.0-1.43","subject_id":"5c10e5c5753adc0001590f2c","study_id":"60edd13110225f80f9f3709b","session_id":"6196c2504e41bed3e07f6654","condition":"full-information","relevant_dimensions":["antennae","pattern"],"bee_group":{"antennae":"A","wings":"X","pattern":"D","legs":"X"},"bonus":1.4000000000000008},{"rt":5949.300000000745,"stimulus":"bees-with-color/bee-A1SF.svg","response":1,"trial_type":"image-button-response","trial_index":95,"time_elapsed":742603,"internal_node_id":"0.0-4.0-0.44","subject_id":"5c10e5c5753adc0001590f2c","study_id":"60edd13110225f80f9f3709b","session_id":"6196c2504e41bed3e07f6654","condition":"full-information","relevant_dimensions":["antennae","pattern"],"bee_group":{"antennae":"A","wings":"X","pattern":"D","legs":"X"},"action":"avoid","summary":"bad-avoid","bonus":1.4000000000000008},{"rt":1656,"stimulus":"\n                    <p><b>Action: <em>avoid</em></b></p>\n                    <p>This is the bee that you just saw.</p>\n                    <img src=\"bees-with-color/bee-A1SF.svg\" width=\"200\">\n                    <p><span class=\"redText\">Bad choice,</span> the bee was friendly.<br>Your bonus pay is unchanged, and remains at $0.84.</p>\n            ","response":0,"trial_type":"html-button-response","trial_index":96,"time_elapsed":744264,"internal_node_id":"0.0-4.0-1.44","subject_id":"5c10e5c5753adc0001590f2c","study_id":"60edd13110225f80f9f3709b","session_id":"6196c2504e41bed3e07f6654","condition":"full-information","relevant_dimensions":["antennae","pattern"],"bee_group":{"antennae":"A","wings":"X","pattern":"D","legs":"X"},"bonus":1.4000000000000008},{"rt":2646.0999999996275,"stimulus":"bees-with-color/bee-B2DM.svg","response":0,"trial_type":"image-button-response","trial_index":97,"time_elapsed":746916,"internal_node_id":"0.0-4.0-0.45","subject_id":"5c10e5c5753adc0001590f2c","study_id":"60edd13110225f80f9f3709b","session_id":"6196c2504e41bed3e07f6654","condition":"full-information","relevant_dimensions":["antennae","pattern"],"bee_group":{"antennae":"A","wings":"X","pattern":"D","legs":"X"},"action":"harvest","summary":"good-harvest","bonus":1.4000000000000008},{"rt":1637.6000000014901,"stimulus":"\n                    <p><b>Action: <em>harvest</em></b></p>\n                    <p>This is the bee that you just saw.</p>\n                    <img src=\"bees-with-color/bee-B2DM.svg\" width=\"200\">\n                    <p><span class=\"greenText\"><b>Successful harvest!</b></span><br>Your pay has increased by $0.02. Your bonus pay is now $0.86.</p>\n            ","response":0,"trial_type":"html-button-response","trial_index":98,"time_elapsed":748556,"internal_node_id":"0.0-4.0-1.45","subject_id":"5c10e5c5753adc0001590f2c","study_id":"60edd13110225f80f9f3709b","session_id":"6196c2504e41bed3e07f6654","condition":"full-information","relevant_dimensions":["antennae","pattern"],"bee_group":{"antennae":"A","wings":"X","pattern":"D","legs":"X"},"bonus":1.4000000000000008},{"rt":5094.5,"stimulus":"bees-with-color/bee-A2DF.svg","response":1,"trial_type":"image-button-response","trial_index":99,"time_elapsed":753656,"internal_node_id":"0.0-4.0-0.46","subject_id":"5c10e5c5753adc0001590f2c","study_id":"60edd13110225f80f9f3709b","session_id":"6196c2504e41bed3e07f6654","condition":"full-information","relevant_dimensions":["antennae","pattern"],"bee_group":{"antennae":"A","wings":"X","pattern":"D","legs":"X"},"action":"avoid","summary":"good-avoid","bonus":1.4000000000000008},{"rt":5988.699999999255,"stimulus":"\n                    <p><b>Action: <em>avoid</em></b></p>\n                    <p>This is the bee that you just saw.</p>\n                    <img src=\"bees-with-color/bee-A2DF.svg\" width=\"200\">\n                    <p><span class=\"greenText\">Good choice!</span>  This bee would have stung you.<br>Your bonus pay is unchanged, and remains at $0.86.</p>\n            ","response":0,"trial_type":"html-button-response","trial_index":100,"time_elapsed":759650,"internal_node_id":"0.0-4.0-1.46","subject_id":"5c10e5c5753adc0001590f2c","study_id":"60edd13110225f80f9f3709b","session_id":"6196c2504e41bed3e07f6654","condition":"full-information","relevant_dimensions":["antennae","pattern"],"bee_group":{"antennae":"A","wings":"X","pattern":"D","legs":"X"},"bonus":1.4000000000000008},{"rt":3153.39999999851,"stimulus":"bees-with-color/bee-B1SM.svg","response":0,"trial_type":"image-button-response","trial_index":101,"time_elapsed":762809,"internal_node_id":"0.0-4.0-0.47","subject_id":"5c10e5c5753adc0001590f2c","study_id":"60edd13110225f80f9f3709b","session_id":"6196c2504e41bed3e07f6654","condition":"full-information","relevant_dimensions":["antennae","pattern"],"bee_group":{"antennae":"A","wings":"X","pattern":"D","legs":"X"},"action":"harvest","summary":"good-harvest","bonus":1.4000000000000008},{"rt":1690.9000000003725,"stimulus":"\n                    <p><b>Action: <em>harvest</em></b></p>\n                    <p>This is the bee that you just saw.</p>\n                    <img src=\"bees-with-color/bee-B1SM.svg\" width=\"200\">\n                    <p><span class=\"greenText\"><b>Successful harvest!</b></span><br>Your pay has increased by $0.02. Your bonus pay is now $0.88.</p>\n            ","response":0,"trial_type":"html-button-response","trial_index":102,"time_elapsed":764505,"internal_node_id":"0.0-4.0-1.47","subject_id":"5c10e5c5753adc0001590f2c","study_id":"60edd13110225f80f9f3709b","session_id":"6196c2504e41bed3e07f6654","condition":"full-information","relevant_dimensions":["antennae","pattern"],"bee_group":{"antennae":"A","wings":"X","pattern":"D","legs":"X"},"bonus":1.4000000000000008},{"rt":4032.699999999255,"stimulus":"bees-with-color/bee-B1DM.svg","response":0,"trial_type":"image-button-response","trial_index":103,"time_elapsed":768544,"internal_node_id":"0.0-4.0-0.48","subject_id":"5c10e5c5753adc0001590f2c","study_id":"60edd13110225f80f9f3709b","session_id":"6196c2504e41bed3e07f6654","condition":"full-information","relevant_dimensions":["antennae","pattern"],"bee_group":{"antennae":"A","wings":"X","pattern":"D","legs":"X"},"action":"harvest","summary":"good-harvest","bonus":1.4000000000000008},{"rt":1568.5999999996275,"stimulus":"\n                    <p><b>Action: <em>harvest</em></b></p>\n                    <p>This is the bee that you just saw.</p>\n                    <img src=\"bees-with-color/bee-B1DM.svg\" width=\"200\">\n                    <p><span class=\"greenText\"><b>Successful harvest!</b></span><br>Your pay has increased by $0.02. Your bonus pay is now $0.90.</p>\n            ","response":0,"trial_type":"html-button-response","trial_index":104,"time_elapsed":770115,"internal_node_id":"0.0-4.0-1.48","subject_id":"5c10e5c5753adc0001590f2c","study_id":"60edd13110225f80f9f3709b","session_id":"6196c2504e41bed3e07f6654","condition":"full-information","relevant_dimensions":["antennae","pattern"],"bee_group":{"antennae":"A","wings":"X","pattern":"D","legs":"X"},"bonus":1.4000000000000008},{"rt":7540.699999999255,"stimulus":"bees-with-color/bee-B2DF.svg","response":1,"trial_type":"image-button-response","trial_index":105,"time_elapsed":777663,"internal_node_id":"0.0-4.0-0.49","subject_id":"5c10e5c5753adc0001590f2c","study_id":"60edd13110225f80f9f3709b","session_id":"6196c2504e41bed3e07f6654","condition":"full-information","relevant_dimensions":["antennae","pattern"],"bee_group":{"antennae":"A","wings":"X","pattern":"D","legs":"X"},"action":"avoid","summary":"bad-avoid","bonus":1.4000000000000008},{"rt":1535.5,"stimulus":"\n                    <p><b>Action: <em>avoid</em></b></p>\n                    <p>This is the bee that you just saw.</p>\n                    <img src=\"bees-with-color/bee-B2DF.svg\" width=\"200\">\n                    <p><span class=\"redText\">Bad choice,</span> the bee was friendly.<br>Your bonus pay is unchanged, and remains at $0.90.</p>\n            ","response":0,"trial_type":"html-button-response","trial_index":106,"time_elapsed":779205,"internal_node_id":"0.0-4.0-1.49","subject_id":"5c10e5c5753adc0001590f2c","study_id":"60edd13110225f80f9f3709b","session_id":"6196c2504e41bed3e07f6654","condition":"full-information","relevant_dimensions":["antennae","pattern"],"bee_group":{"antennae":"A","wings":"X","pattern":"D","legs":"X"},"bonus":1.4000000000000008},{"rt":1981.5,"stimulus":"bees-with-color/bee-B1SM.svg","response":0,"trial_type":"image-button-response","trial_index":107,"time_elapsed":781194,"internal_node_id":"0.0-4.0-0.50","subject_id":"5c10e5c5753adc0001590f2c","study_id":"60edd13110225f80f9f3709b","session_id":"6196c2504e41bed3e07f6654","condition":"full-information","relevant_dimensions":["antennae","pattern"],"bee_group":{"antennae":"A","wings":"X","pattern":"D","legs":"X"},"action":"harvest","summary":"good-harvest","bonus":1.4000000000000008},{"rt":3368.5,"stimulus":"\n                    <p><b>Action: <em>harvest</em></b></p>\n                    <p>This is the bee that you just saw.</p>\n                    <img src=\"bees-with-color/bee-B1SM.svg\" width=\"200\">\n                    <p><span class=\"greenText\"><b>Successful harvest!</b></span><br>Your pay has increased by $0.02. Your bonus pay is now $0.92.</p>\n            ","response":0,"trial_type":"html-button-response","trial_index":108,"time_elapsed":784569,"internal_node_id":"0.0-4.0-1.50","subject_id":"5c10e5c5753adc0001590f2c","study_id":"60edd13110225f80f9f3709b","session_id":"6196c2504e41bed3e07f6654","condition":"full-information","relevant_dimensions":["antennae","pattern"],"bee_group":{"antennae":"A","wings":"X","pattern":"D","legs":"X"},"bonus":1.4000000000000008},{"rt":4155.699999999255,"stimulus":"bees-with-color/bee-A2DF.svg","response":1,"trial_type":"image-button-response","trial_index":109,"time_elapsed":788730,"internal_node_id":"0.0-4.0-0.51","subject_id":"5c10e5c5753adc0001590f2c","study_id":"60edd13110225f80f9f3709b","session_id":"6196c2504e41bed3e07f6654","condition":"full-information","relevant_dimensions":["antennae","pattern"],"bee_group":{"antennae":"A","wings":"X","pattern":"D","legs":"X"},"action":"avoid","summary":"good-avoid","bonus":1.4000000000000008},{"rt":3164.5,"stimulus":"\n                    <p><b>Action: <em>avoid</em></b></p>\n                    <p>This is the bee that you just saw.</p>\n                    <img src=\"bees-with-color/bee-A2DF.svg\" width=\"200\">\n                    <p><span class=\"greenText\">Good choice!</span>  This bee would have stung you.<br>Your bonus pay is unchanged, and remains at $0.92.</p>\n            ","response":0,"trial_type":"html-button-response","trial_index":110,"time_elapsed":791900,"internal_node_id":"0.0-4.0-1.51","subject_id":"5c10e5c5753adc0001590f2c","study_id":"60edd13110225f80f9f3709b","session_id":"6196c2504e41bed3e07f6654","condition":"full-information","relevant_dimensions":["antennae","pattern"],"bee_group":{"antennae":"A","wings":"X","pattern":"D","legs":"X"},"bonus":1.4000000000000008},{"rt":2464.0999999996275,"stimulus":"bees-with-color/bee-B1SF.svg","response":0,"trial_type":"image-button-response","trial_index":111,"time_elapsed":794369,"internal_node_id":"0.0-4.0-0.52","subject_id":"5c10e5c5753adc0001590f2c","study_id":"60edd13110225f80f9f3709b","session_id":"6196c2504e41bed3e07f6654","condition":"full-information","relevant_dimensions":["antennae","pattern"],"bee_group":{"antennae":"A","wings":"X","pattern":"D","legs":"X"},"action":"harvest","summary":"good-harvest","bonus":1.4000000000000008},{"rt":1988.0999999996275,"stimulus":"\n                    <p><b>Action: <em>harvest</em></b></p>\n                    <p>This is the bee that you just saw.</p>\n                    <img src=\"bees-with-color/bee-B1SF.svg\" width=\"200\">\n                    <p><span class=\"greenText\"><b>Successful harvest!</b></span><br>Your pay has increased by $0.02. Your bonus pay is now $0.94.</p>\n            ","response":0,"trial_type":"html-button-response","trial_index":112,"time_elapsed":796360,"internal_node_id":"0.0-4.0-1.52","subject_id":"5c10e5c5753adc0001590f2c","study_id":"60edd13110225f80f9f3709b","session_id":"6196c2504e41bed3e07f6654","condition":"full-information","relevant_dimensions":["antennae","pattern"],"bee_group":{"antennae":"A","wings":"X","pattern":"D","legs":"X"},"bonus":1.4000000000000008},{"rt":2118.5,"stimulus":"bees-with-color/bee-A1SF.svg","response":1,"trial_type":"image-button-response","trial_index":113,"time_elapsed":798485,"internal_node_id":"0.0-4.0-0.53","subject_id":"5c10e5c5753adc0001590f2c","study_id":"60edd13110225f80f9f3709b","session_id":"6196c2504e41bed3e07f6654","condition":"full-information","relevant_dimensions":["antennae","pattern"],"bee_group":{"antennae":"A","wings":"X","pattern":"D","legs":"X"},"action":"avoid","summary":"bad-avoid","bonus":1.4000000000000008},{"rt":4887,"stimulus":"\n                    <p><b>Action: <em>avoid</em></b></p>\n                    <p>This is the bee that you just saw.</p>\n                    <img src=\"bees-with-color/bee-A1SF.svg\" width=\"200\">\n                    <p><span class=\"redText\">Bad choice,</span> the bee was friendly.<br>Your bonus pay is unchanged, and remains at $0.94.</p>\n            ","response":0,"trial_type":"html-button-response","trial_index":114,"time_elapsed":803377,"internal_node_id":"0.0-4.0-1.53","subject_id":"5c10e5c5753adc0001590f2c","study_id":"60edd13110225f80f9f3709b","session_id":"6196c2504e41bed3e07f6654","condition":"full-information","relevant_dimensions":["antennae","pattern"],"bee_group":{"antennae":"A","wings":"X","pattern":"D","legs":"X"},"bonus":1.4000000000000008},{"rt":1852.6000000014901,"stimulus":"bees-with-color/bee-A2DM.svg","response":1,"trial_type":"image-button-response","trial_index":115,"time_elapsed":805236,"internal_node_id":"0.0-4.0-0.54","subject_id":"5c10e5c5753adc0001590f2c","study_id":"60edd13110225f80f9f3709b","session_id":"6196c2504e41bed3e07f6654","condition":"full-information","relevant_dimensions":["antennae","pattern"],"bee_group":{"antennae":"A","wings":"X","pattern":"D","legs":"X"},"action":"avoid","summary":"good-avoid","bonus":1.4000000000000008},{"rt":3067,"stimulus":"\n                    <p><b>Action: <em>avoid</em></b></p>\n                    <p>This is the bee that you just saw.</p>\n                    <img src=\"bees-with-color/bee-A2DM.svg\" width=\"200\">\n                    <p><span class=\"greenText\">Good choice!</span>  This bee would have stung you.<br>Your bonus pay is unchanged, and remains at $0.94.</p>\n            ","response":0,"trial_type":"html-button-response","trial_index":116,"time_elapsed":808309,"internal_node_id":"0.0-4.0-1.54","subject_id":"5c10e5c5753adc0001590f2c","study_id":"60edd13110225f80f9f3709b","session_id":"6196c2504e41bed3e07f6654","condition":"full-information","relevant_dimensions":["antennae","pattern"],"bee_group":{"antennae":"A","wings":"X","pattern":"D","legs":"X"},"bonus":1.4000000000000008},{"rt":1848.3999999985099,"stimulus":"bees-with-color/bee-B1DF.svg","response":0,"trial_type":"image-button-response","trial_index":117,"time_elapsed":810163,"internal_node_id":"0.0-4.0-0.55","subject_id":"5c10e5c5753adc0001590f2c","study_id":"60edd13110225f80f9f3709b","session_id":"6196c2504e41bed3e07f6654","condition":"full-information","relevant_dimensions":["antennae","pattern"],"bee_group":{"antennae":"A","wings":"X","pattern":"D","legs":"X"},"action":"harvest","summary":"good-harvest","bonus":1.4000000000000008},{"rt":1976.9000000003725,"stimulus":"\n                    <p><b>Action: <em>harvest</em></b></p>\n                    <p>This is the bee that you just saw.</p>\n                    <img src=\"bees-with-color/bee-B1DF.svg\" width=\"200\">\n                    <p><span class=\"greenText\"><b>Successful harvest!</b></span><br>Your pay has increased by $0.02. Your bonus pay is now $0.96.</p>\n            ","response":0,"trial_type":"html-button-response","trial_index":118,"time_elapsed":812143,"internal_node_id":"0.0-4.0-1.55","subject_id":"5c10e5c5753adc0001590f2c","study_id":"60edd13110225f80f9f3709b","session_id":"6196c2504e41bed3e07f6654","condition":"full-information","relevant_dimensions":["antennae","pattern"],"bee_group":{"antennae":"A","wings":"X","pattern":"D","legs":"X"},"bonus":1.4000000000000008},{"rt":5599.199999999255,"stimulus":"bees-with-color/bee-A1DF.svg","response":1,"trial_type":"image-button-response","trial_index":119,"time_elapsed":817750,"internal_node_id":"0.0-4.0-0.56","subject_id":"5c10e5c5753adc0001590f2c","study_id":"60edd13110225f80f9f3709b","session_id":"6196c2504e41bed3e07f6654","condition":"full-information","relevant_dimensions":["antennae","pattern"],"bee_group":{"antennae":"A","wings":"X","pattern":"D","legs":"X"},"action":"avoid","summary":"good-avoid","bonus":1.4000000000000008},{"rt":2006,"stimulus":"\n                    <p><b>Action: <em>avoid</em></b></p>\n                    <p>This is the bee that you just saw.</p>\n                    <img src=\"bees-with-color/bee-A1DF.svg\" width=\"200\">\n                    <p><span class=\"greenText\">Good choice!</span>  This bee would have stung you.<br>Your bonus pay is unchanged, and remains at $0.96.</p>\n            ","response":0,"trial_type":"html-button-response","trial_index":120,"time_elapsed":819762,"internal_node_id":"0.0-4.0-1.56","subject_id":"5c10e5c5753adc0001590f2c","study_id":"60edd13110225f80f9f3709b","session_id":"6196c2504e41bed3e07f6654","condition":"full-information","relevant_dimensions":["antennae","pattern"],"bee_group":{"antennae":"A","wings":"X","pattern":"D","legs":"X"},"bonus":1.4000000000000008},{"rt":5564.10000000149,"stimulus":"bees-with-color/bee-A2SM.svg","response":1,"trial_type":"image-button-response","trial_index":121,"time_elapsed":825334,"internal_node_id":"0.0-4.0-0.57","subject_id":"5c10e5c5753adc0001590f2c","study_id":"60edd13110225f80f9f3709b","session_id":"6196c2504e41bed3e07f6654","condition":"full-information","relevant_dimensions":["antennae","pattern"],"bee_group":{"antennae":"A","wings":"X","pattern":"D","legs":"X"},"action":"avoid","summary":"bad-avoid","bonus":1.4000000000000008},{"rt":1429.5999999996275,"stimulus":"\n                    <p><b>Action: <em>avoid</em></b></p>\n                    <p>This is the bee that you just saw.</p>\n                    <img src=\"bees-with-color/bee-A2SM.svg\" width=\"200\">\n                    <p><span class=\"redText\">Bad choice,</span> the bee was friendly.<br>Your bonus pay is unchanged, and remains at $0.96.</p>\n            ","response":0,"trial_type":"html-button-response","trial_index":122,"time_elapsed":826768,"internal_node_id":"0.0-4.0-1.57","subject_id":"5c10e5c5753adc0001590f2c","study_id":"60edd13110225f80f9f3709b","session_id":"6196c2504e41bed3e07f6654","condition":"full-information","relevant_dimensions":["antennae","pattern"],"bee_group":{"antennae":"A","wings":"X","pattern":"D","legs":"X"},"bonus":1.4000000000000008},{"rt":4117.200000001118,"stimulus":"bees-with-color/bee-B2SF.svg","response":0,"trial_type":"image-button-response","trial_index":123,"time_elapsed":830890,"internal_node_id":"0.0-4.0-0.58","subject_id":"5c10e5c5753adc0001590f2c","study_id":"60edd13110225f80f9f3709b","session_id":"6196c2504e41bed3e07f6654","condition":"full-information","relevant_dimensions":["antennae","pattern"],"bee_group":{"antennae":"A","wings":"X","pattern":"D","legs":"X"},"action":"harvest","summary":"good-harvest","bonus":1.4000000000000008},{"rt":1831.2999999988824,"stimulus":"\n                    <p><b>Action: <em>harvest</em></b></p>\n                    <p>This is the bee that you just saw.</p>\n                    <img src=\"bees-with-color/bee-B2SF.svg\" width=\"200\">\n                    <p><span class=\"greenText\"><b>Successful harvest!</b></span><br>Your pay has increased by $0.02. Your bonus pay is now $0.98.</p>\n            ","response":0,"trial_type":"html-button-response","trial_index":124,"time_elapsed":832724,"internal_node_id":"0.0-4.0-1.58","subject_id":"5c10e5c5753adc0001590f2c","study_id":"60edd13110225f80f9f3709b","session_id":"6196c2504e41bed3e07f6654","condition":"full-information","relevant_dimensions":["antennae","pattern"],"bee_group":{"antennae":"A","wings":"X","pattern":"D","legs":"X"},"bonus":1.4000000000000008},{"rt":4840.5,"stimulus":"bees-with-color/bee-A2SF.svg","response":0,"trial_type":"image-button-response","trial_index":125,"time_elapsed":837571,"internal_node_id":"0.0-4.0-0.59","subject_id":"5c10e5c5753adc0001590f2c","study_id":"60edd13110225f80f9f3709b","session_id":"6196c2504e41bed3e07f6654","condition":"full-information","relevant_dimensions":["antennae","pattern"],"bee_group":{"antennae":"A","wings":"X","pattern":"D","legs":"X"},"action":"harvest","summary":"good-harvest","bonus":1.4000000000000008},{"rt":2213.0999999996275,"stimulus":"\n                    <p><b>Action: <em>harvest</em></b></p>\n                    <p>This is the bee that you just saw.</p>\n                    <img src=\"bees-with-color/bee-A2SF.svg\" width=\"200\">\n                    <p><span class=\"greenText\"><b>Successful harvest!</b></span><br>Your pay has increased by $0.02. Your bonus pay is now $1.00.</p>\n            ","response":0,"trial_type":"html-button-response","trial_index":126,"time_elapsed":839789,"internal_node_id":"0.0-4.0-1.59","subject_id":"5c10e5c5753adc0001590f2c","study_id":"60edd13110225f80f9f3709b","session_id":"6196c2504e41bed3e07f6654","condition":"full-information","relevant_dimensions":["antennae","pattern"],"bee_group":{"antennae":"A","wings":"X","pattern":"D","legs":"X"},"bonus":1.4000000000000008},{"rt":5092.300000000745,"stimulus":"bees-with-color/bee-A1SM.svg","response":0,"trial_type":"image-button-response","trial_index":127,"time_elapsed":844887,"internal_node_id":"0.0-4.0-0.60","subject_id":"5c10e5c5753adc0001590f2c","study_id":"60edd13110225f80f9f3709b","session_id":"6196c2504e41bed3e07f6654","condition":"full-information","relevant_dimensions":["antennae","pattern"],"bee_group":{"antennae":"A","wings":"X","pattern":"D","legs":"X"},"action":"harvest","summary":"good-harvest","bonus":1.4000000000000008},{"rt":1372.2000000011176,"stimulus":"\n                    <p><b>Action: <em>harvest</em></b></p>\n                    <p>This is the bee that you just saw.</p>\n                    <img src=\"bees-with-color/bee-A1SM.svg\" width=\"200\">\n                    <p><span class=\"greenText\"><b>Successful harvest!</b></span><br>Your pay has increased by $0.02. Your bonus pay is now $1.02.</p>\n            ","response":0,"trial_type":"html-button-response","trial_index":128,"time_elapsed":846263,"internal_node_id":"0.0-4.0-1.60","subject_id":"5c10e5c5753adc0001590f2c","study_id":"60edd13110225f80f9f3709b","session_id":"6196c2504e41bed3e07f6654","condition":"full-information","relevant_dimensions":["antennae","pattern"],"bee_group":{"antennae":"A","wings":"X","pattern":"D","legs":"X"},"bonus":1.4000000000000008},{"rt":3061.7999999988824,"stimulus":"bees-with-color/bee-A1DM.svg","response":1,"trial_type":"image-button-response","trial_index":129,"time_elapsed":849331,"internal_node_id":"0.0-4.0-0.61","subject_id":"5c10e5c5753adc0001590f2c","study_id":"60edd13110225f80f9f3709b","session_id":"6196c2504e41bed3e07f6654","condition":"full-information","relevant_dimensions":["antennae","pattern"],"bee_group":{"antennae":"A","wings":"X","pattern":"D","legs":"X"},"action":"avoid","summary":"good-avoid","bonus":1.4000000000000008},{"rt":3339.5999999996275,"stimulus":"\n                    <p><b>Action: <em>avoid</em></b></p>\n                    <p>This is the bee that you just saw.</p>\n                    <img src=\"bees-with-color/bee-A1DM.svg\" width=\"200\">\n                    <p><span class=\"greenText\">Good choice!</span>  This bee would have stung you.<br>Your bonus pay is unchanged, and remains at $1.02.</p>\n            ","response":0,"trial_type":"html-button-response","trial_index":130,"time_elapsed":852676,"internal_node_id":"0.0-4.0-1.61","subject_id":"5c10e5c5753adc0001590f2c","study_id":"60edd13110225f80f9f3709b","session_id":"6196c2504e41bed3e07f6654","condition":"full-information","relevant_dimensions":["antennae","pattern"],"bee_group":{"antennae":"A","wings":"X","pattern":"D","legs":"X"},"bonus":1.4000000000000008},{"rt":6948.799999998882,"stimulus":"bees-with-color/bee-B2DM.svg","response":1,"trial_type":"image-button-response","trial_index":131,"time_elapsed":859631,"internal_node_id":"0.0-4.0-0.62","subject_id":"5c10e5c5753adc0001590f2c","study_id":"60edd13110225f80f9f3709b","session_id":"6196c2504e41bed3e07f6654","condition":"full-information","relevant_dimensions":["antennae","pattern"],"bee_group":{"antennae":"A","wings":"X","pattern":"D","legs":"X"},"action":"avoid","summary":"bad-avoid","bonus":1.4000000000000008},{"rt":1602.0999999996275,"stimulus":"\n                    <p><b>Action: <em>avoid</em></b></p>\n                    <p>This is the bee that you just saw.</p>\n                    <img src=\"bees-with-color/bee-B2DM.svg\" width=\"200\">\n                    <p><span class=\"redText\">Bad choice,</span> the bee was friendly.<br>Your bonus pay is unchanged, and remains at $1.02.</p>\n            ","response":0,"trial_type":"html-button-response","trial_index":132,"time_elapsed":861237,"internal_node_id":"0.0-4.0-1.62","subject_id":"5c10e5c5753adc0001590f2c","study_id":"60edd13110225f80f9f3709b","session_id":"6196c2504e41bed3e07f6654","condition":"full-information","relevant_dimensions":["antennae","pattern"],"bee_group":{"antennae":"A","wings":"X","pattern":"D","legs":"X"},"bonus":1.4000000000000008},{"rt":2861.699999999255,"stimulus":"bees-with-color/bee-B2SM.svg","response":0,"trial_type":"image-button-response","trial_index":133,"time_elapsed":864106,"internal_node_id":"0.0-4.0-0.63","subject_id":"5c10e5c5753adc0001590f2c","study_id":"60edd13110225f80f9f3709b","session_id":"6196c2504e41bed3e07f6654","condition":"full-information","relevant_dimensions":["antennae","pattern"],"bee_group":{"antennae":"A","wings":"X","pattern":"D","legs":"X"},"action":"harvest","summary":"good-harvest","bonus":1.4000000000000008},{"rt":2902.5999999996275,"stimulus":"\n                    <p><b>Action: <em>harvest</em></b></p>\n                    <p>This is the bee that you just saw.</p>\n                    <img src=\"bees-with-color/bee-B2SM.svg\" width=\"200\">\n                    <p><span class=\"greenText\"><b>Successful harvest!</b></span><br>Your pay has increased by $0.02. Your bonus pay is now $1.04.</p>\n            ","response":0,"trial_type":"html-button-response","trial_index":134,"time_elapsed":867013,"internal_node_id":"0.0-4.0-1.63","subject_id":"5c10e5c5753adc0001590f2c","study_id":"60edd13110225f80f9f3709b","session_id":"6196c2504e41bed3e07f6654","condition":"full-information","relevant_dimensions":["antennae","pattern"],"bee_group":{"antennae":"A","wings":"X","pattern":"D","legs":"X"},"bonus":1.4000000000000008},{"rt":11915.5,"stimulus":"You have completed the first part of this experiment.<br><br>You will now begin a shorter second part, in which you will receive no feedback.<br>The same rules regarding bonus pay apply.<br><br>Press any key to begin.","response":" ","trial_type":"html-keyboard-response","trial_index":135,"time_elapsed":878934,"internal_node_id":"0.0-5.0","subject_id":"5c10e5c5753adc0001590f2c","study_id":"60edd13110225f80f9f3709b","session_id":"6196c2504e41bed3e07f6654","condition":"full-information","relevant_dimensions":["antennae","pattern"],"bee_group":{"antennae":"A","wings":"X","pattern":"D","legs":"X"},"bonus":1.4000000000000008},{"rt":6230.10000000149,"stimulus":"bees-with-color/bee-B1SF.svg","response":0,"trial_type":"image-button-response","trial_index":136,"time_elapsed":885182,"internal_node_id":"0.0-6.0-0.0","subject_id":"5c10e5c5753adc0001590f2c","study_id":"60edd13110225f80f9f3709b","session_id":"6196c2504e41bed3e07f6654","condition":"full-information","relevant_dimensions":["antennae","pattern"],"bee_group":{"antennae":"A","wings":"X","pattern":"D","legs":"X"},"bonus":1.4000000000000008},{"rt":2989.5,"stimulus":"bees-with-color/bee-A1SF.svg","response":0,"trial_type":"image-button-response","trial_index":137,"time_elapsed":888181,"internal_node_id":"0.0-6.0-0.1","subject_id":"5c10e5c5753adc0001590f2c","study_id":"60edd13110225f80f9f3709b","session_id":"6196c2504e41bed3e07f6654","condition":"full-information","relevant_dimensions":["antennae","pattern"],"bee_group":{"antennae":"A","wings":"X","pattern":"D","legs":"X"},"bonus":1.4000000000000008},{"rt":2670.7000000011176,"stimulus":"bees-with-color/bee-A2DM.svg","response":1,"trial_type":"image-button-response","trial_index":138,"time_elapsed":890860,"internal_node_id":"0.0-6.0-0.2","subject_id":"5c10e5c5753adc0001590f2c","study_id":"60edd13110225f80f9f3709b","session_id":"6196c2504e41bed3e07f6654","condition":"full-information","relevant_dimensions":["antennae","pattern"],"bee_group":{"antennae":"A","wings":"X","pattern":"D","legs":"X"},"bonus":1.4000000000000008},{"rt":2906.5999999996275,"stimulus":"bees-with-color/bee-B1SM.svg","response":0,"trial_type":"image-button-response","trial_index":139,"time_elapsed":893775,"internal_node_id":"0.0-6.0-0.3","subject_id":"5c10e5c5753adc0001590f2c","study_id":"60edd13110225f80f9f3709b","session_id":"6196c2504e41bed3e07f6654","condition":"full-information","relevant_dimensions":["antennae","pattern"],"bee_group":{"antennae":"A","wings":"X","pattern":"D","legs":"X"},"bonus":1.4000000000000008},{"rt":6104.39999999851,"stimulus":"bees-with-color/bee-B2DF.svg","response":1,"trial_type":"image-button-response","trial_index":140,"time_elapsed":899890,"internal_node_id":"0.0-6.0-0.4","subject_id":"5c10e5c5753adc0001590f2c","study_id":"60edd13110225f80f9f3709b","session_id":"6196c2504e41bed3e07f6654","condition":"full-information","relevant_dimensions":["antennae","pattern"],"bee_group":{"antennae":"A","wings":"X","pattern":"D","legs":"X"},"bonus":1.4000000000000008},{"rt":2208.0999999996275,"stimulus":"bees-with-color/bee-A2DF.svg","response":1,"trial_type":"image-button-response","trial_index":141,"time_elapsed":902109,"internal_node_id":"0.0-6.0-0.5","subject_id":"5c10e5c5753adc0001590f2c","study_id":"60edd13110225f80f9f3709b","session_id":"6196c2504e41bed3e07f6654","condition":"full-information","relevant_dimensions":["antennae","pattern"],"bee_group":{"antennae":"A","wings":"X","pattern":"D","legs":"X"},"bonus":1.4000000000000008},{"rt":4534.700000001118,"stimulus":"bees-with-color/bee-B1DM.svg","response":1,"trial_type":"image-button-response","trial_index":142,"time_elapsed":906653,"internal_node_id":"0.0-6.0-0.6","subject_id":"5c10e5c5753adc0001590f2c","study_id":"60edd13110225f80f9f3709b","session_id":"6196c2504e41bed3e07f6654","condition":"full-information","relevant_dimensions":["antennae","pattern"],"bee_group":{"antennae":"A","wings":"X","pattern":"D","legs":"X"},"bonus":1.4000000000000008},{"rt":1895.5,"stimulus":"bees-with-color/bee-A1SM.svg","response":0,"trial_type":"image-button-response","trial_index":143,"time_elapsed":908559,"internal_node_id":"0.0-6.0-0.7","subject_id":"5c10e5c5753adc0001590f2c","study_id":"60edd13110225f80f9f3709b","session_id":"6196c2504e41bed3e07f6654","condition":"full-information","relevant_dimensions":["antennae","pattern"],"bee_group":{"antennae":"A","wings":"X","pattern":"D","legs":"X"},"bonus":1.4000000000000008},{"rt":2047.7999999988824,"stimulus":"bees-with-color/bee-B2DM.svg","response":1,"trial_type":"image-button-response","trial_index":144,"time_elapsed":910615,"internal_node_id":"0.0-6.0-0.8","subject_id":"5c10e5c5753adc0001590f2c","study_id":"60edd13110225f80f9f3709b","session_id":"6196c2504e41bed3e07f6654","condition":"full-information","relevant_dimensions":["antennae","pattern"],"bee_group":{"antennae":"A","wings":"X","pattern":"D","legs":"X"},"bonus":1.4000000000000008},{"rt":2627.800000000745,"stimulus":"bees-with-color/bee-B1DF.svg","response":1,"trial_type":"image-button-response","trial_index":145,"time_elapsed":913246,"internal_node_id":"0.0-6.0-0.9","subject_id":"5c10e5c5753adc0001590f2c","study_id":"60edd13110225f80f9f3709b","session_id":"6196c2504e41bed3e07f6654","condition":"full-information","relevant_dimensions":["antennae","pattern"],"bee_group":{"antennae":"A","wings":"X","pattern":"D","legs":"X"},"bonus":1.4000000000000008},{"rt":1486,"stimulus":"bees-with-color/bee-B2SM.svg","response":0,"trial_type":"image-button-response","trial_index":146,"time_elapsed":914740,"internal_node_id":"0.0-6.0-0.10","subject_id":"5c10e5c5753adc0001590f2c","study_id":"60edd13110225f80f9f3709b","session_id":"6196c2504e41bed3e07f6654","condition":"full-information","relevant_dimensions":["antennae","pattern"],"bee_group":{"antennae":"A","wings":"X","pattern":"D","legs":"X"},"bonus":1.4000000000000008},{"rt":2612,"stimulus":"bees-with-color/bee-B2SF.svg","response":0,"trial_type":"image-button-response","trial_index":147,"time_elapsed":917359,"internal_node_id":"0.0-6.0-0.11","subject_id":"5c10e5c5753adc0001590f2c","study_id":"60edd13110225f80f9f3709b","session_id":"6196c2504e41bed3e07f6654","condition":"full-information","relevant_dimensions":["antennae","pattern"],"bee_group":{"antennae":"A","wings":"X","pattern":"D","legs":"X"},"bonus":1.4000000000000008},{"rt":1765,"stimulus":"bees-with-color/bee-A1DF.svg","response":1,"trial_type":"image-button-response","trial_index":148,"time_elapsed":919132,"internal_node_id":"0.0-6.0-0.12","subject_id":"5c10e5c5753adc0001590f2c","study_id":"60edd13110225f80f9f3709b","session_id":"6196c2504e41bed3e07f6654","condition":"full-information","relevant_dimensions":["antennae","pattern"],"bee_group":{"antennae":"A","wings":"X","pattern":"D","legs":"X"},"bonus":1.4000000000000008},{"rt":2192.89999999851,"stimulus":"bees-with-color/bee-A2SM.svg","response":0,"trial_type":"image-button-response","trial_index":149,"time_elapsed":921332,"internal_node_id":"0.0-6.0-0.13","subject_id":"5c10e5c5753adc0001590f2c","study_id":"60edd13110225f80f9f3709b","session_id":"6196c2504e41bed3e07f6654","condition":"full-information","relevant_dimensions":["antennae","pattern"],"bee_group":{"antennae":"A","wings":"X","pattern":"D","legs":"X"},"bonus":1.4000000000000008},{"rt":3444,"stimulus":"bees-with-color/bee-A2SF.svg","response":0,"trial_type":"image-button-response","trial_index":150,"time_elapsed":924784,"internal_node_id":"0.0-6.0-0.14","subject_id":"5c10e5c5753adc0001590f2c","study_id":"60edd13110225f80f9f3709b","session_id":"6196c2504e41bed3e07f6654","condition":"full-information","relevant_dimensions":["antennae","pattern"],"bee_group":{"antennae":"A","wings":"X","pattern":"D","legs":"X"},"bonus":1.4000000000000008},{"rt":1925.2000000011176,"stimulus":"bees-with-color/bee-A1DM.svg","response":1,"trial_type":"image-button-response","trial_index":151,"time_elapsed":926716,"internal_node_id":"0.0-6.0-0.15","subject_id":"5c10e5c5753adc0001590f2c","study_id":"60edd13110225f80f9f3709b","session_id":"6196c2504e41bed3e07f6654","condition":"full-information","relevant_dimensions":["antennae","pattern"],"bee_group":{"antennae":"A","wings":"X","pattern":"D","legs":"X"},"bonus":1.4000000000000008},{"rt":9407.599999999627,"stimulus":"bees-with-color/bee-A2SF.svg","response":0,"trial_type":"image-button-response","trial_index":152,"time_elapsed":936131,"internal_node_id":"0.0-6.0-0.16","subject_id":"5c10e5c5753adc0001590f2c","study_id":"60edd13110225f80f9f3709b","session_id":"6196c2504e41bed3e07f6654","condition":"full-information","relevant_dimensions":["antennae","pattern"],"bee_group":{"antennae":"A","wings":"X","pattern":"D","legs":"X"},"bonus":1.4000000000000008},{"rt":1341.6000000014901,"stimulus":"bees-with-color/bee-B2DM.svg","response":1,"trial_type":"image-button-response","trial_index":153,"time_elapsed":937481,"internal_node_id":"0.0-6.0-0.17","subject_id":"5c10e5c5753adc0001590f2c","study_id":"60edd13110225f80f9f3709b","session_id":"6196c2504e41bed3e07f6654","condition":"full-information","relevant_dimensions":["antennae","pattern"],"bee_group":{"antennae":"A","wings":"X","pattern":"D","legs":"X"},"bonus":1.4000000000000008},{"rt":4842.5,"stimulus":"bees-with-color/bee-B1SF.svg","response":0,"trial_type":"image-button-response","trial_index":154,"time_elapsed":942330,"internal_node_id":"0.0-6.0-0.18","subject_id":"5c10e5c5753adc0001590f2c","study_id":"60edd13110225f80f9f3709b","session_id":"6196c2504e41bed3e07f6654","condition":"full-information","relevant_dimensions":["antennae","pattern"],"bee_group":{"antennae":"A","wings":"X","pattern":"D","legs":"X"},"bonus":1.4000000000000008},{"rt":1435.7999999988824,"stimulus":"bees-with-color/bee-A2DF.svg","response":1,"trial_type":"image-button-response","trial_index":155,"time_elapsed":943775,"internal_node_id":"0.0-6.0-0.19","subject_id":"5c10e5c5753adc0001590f2c","study_id":"60edd13110225f80f9f3709b","session_id":"6196c2504e41bed3e07f6654","condition":"full-information","relevant_dimensions":["antennae","pattern"],"bee_group":{"antennae":"A","wings":"X","pattern":"D","legs":"X"},"bonus":1.4000000000000008},{"rt":2960.4000000003725,"stimulus":"bees-with-color/bee-B1SM.svg","response":0,"trial_type":"image-button-response","trial_index":156,"time_elapsed":946741,"internal_node_id":"0.0-6.0-0.20","subject_id":"5c10e5c5753adc0001590f2c","study_id":"60edd13110225f80f9f3709b","session_id":"6196c2504e41bed3e07f6654","condition":"full-information","relevant_dimensions":["antennae","pattern"],"bee_group":{"antennae":"A","wings":"X","pattern":"D","legs":"X"},"bonus":1.4000000000000008},{"rt":2706.5999999996275,"stimulus":"bees-with-color/bee-A2DM.svg","response":1,"trial_type":"image-button