[{"success":true,"trial_type":"fullscreen","trial_index":0,"time_elapsed":2534,"internal_node_id":"0.0-0.0","subject_id":"60bfcf2d08b0aa1910719e26","study_id":"60edd13110225f80f9f3709b","session_id":"6196bc52a57ddbb009aa7f72","condition":"full-information","relevant_dimensions":["pattern","legs"],"bee_group":{"antennae":"X","wings":"X","pattern":"D","legs":"M"},"bonus":0.28000000000000114},{"success":true,"timeout":false,"failed_images":[],"failed_audio":[],"failed_video":[],"trial_type":"preload","trial_index":1,"time_elapsed":4399,"internal_node_id":"0.0-1.0","subject_id":"60bfcf2d08b0aa1910719e26","study_id":"60edd13110225f80f9f3709b","session_id":"6196bc52a57ddbb009aa7f72","condition":"full-information","relevant_dimensions":["pattern","legs"],"bee_group":{"antennae":"X","wings":"X","pattern":"D","legs":"M"},"bonus":0.28000000000000114},{"rt":2379,"stimulus":"Welcome! Press any key to begin.","response":" ","trial_type":"html-keyboard-response","trial_index":2,"time_elapsed":6780,"internal_node_id":"0.0-2.0","subject_id":"60bfcf2d08b0aa1910719e26","study_id":"60edd13110225f80f9f3709b","session_id":"6196bc52a57ddbb009aa7f72","condition":"full-information","relevant_dimensions":["pattern","legs"],"bee_group":{"antennae":"X","wings":"X","pattern":"D","legs":"M"},"bonus":0.28000000000000114},{"view_history":[{"page_index":0,"viewing_time":3479},{"page_index":1,"viewing_time":5860},{"page_index":2,"viewing_time":3990},{"page_index":3,"viewing_time":17779},{"page_index":4,"viewing_time":5679},{"page_index":5,"viewing_time":3782},{"page_index":6,"viewing_time":3628},{"page_index":7,"viewing_time":4271},{"page_index":8,"viewing_time":1593},{"page_index":9,"viewing_time":1294},{"page_index":10,"viewing_time":1632},{"page_index":11,"viewing_time":3939},{"page_index":12,"viewing_time":17414},{"page_index":13,"viewing_time":1711},{"page_index":14,"viewing_time":2748}],"rt":78799,"trial_type":"instructions","trial_index":3,"time_elapsed":85584,"internal_node_id":"0.0-3.0-0.0","subject_id":"60bfcf2d08b0aa1910719e26","study_id":"60edd13110225f80f9f3709b","session_id":"6196bc52a57ddbb009aa7f72","condition":"full-information","relevant_dimensions":["pattern","legs"],"bee_group":{"antennae":"X","wings":"X","pattern":"D","legs":"M"},"bonus":0.28000000000000114},{"rt":14017,"response":{"Q0":["Stripes or spots on body","Antennae or no antennae"]},"question_order":[0],"trial_type":"survey-multi-select","trial_index":4,"time_elapsed":99603,"internal_node_id":"0.0-3.0-1.0","subject_id":"60bfcf2d08b0aa1910719e26","study_id":"60edd13110225f80f9f3709b","session_id":"6196bc52a57ddbb009aa7f72","condition":"full-information","relevant_dimensions":["pattern","legs"],"bee_group":{"antennae":"X","wings":"X","pattern":"D","legs":"M"},"correct":false,"bonus":0.28000000000000114},{"rt":19850,"response":{"Q1":"No.","Q2":"Based on the four features of the bee.","Q3":"You learn if it was friendly or dangerous and alter your bonus."},"question_order":[0,1,2],"trial_type":"survey-multi-choice","trial_index":5,"time_elapsed":119455,"internal_node_id":"0.0-3.0-2.0","subject_id":"60bfcf2d08b0aa1910719e26","study_id":"60edd13110225f80f9f3709b","session_id":"6196bc52a57ddbb009aa7f72","condition":"full-information","relevant_dimensions":["pattern","legs"],"bee_group":{"antennae":"X","wings":"X","pattern":"D","legs":"M"},"correct":false,"bonus":0.28000000000000114},{"rt":2973,"stimulus":"<p>You did not answer all comprehension questions correctly.<br>Press <b>continue</b> to review the instructions again.</p>","response":0,"trial_type":"html-button-response","trial_index":6,"time_elapsed":122430,"internal_node_id":"0.0-3.0-3.0","subject_id":"60bfcf2d08b0aa1910719e26","study_id":"60edd13110225f80f9f3709b","session_id":"6196bc52a57ddbb009aa7f72","condition":"full-information","relevant_dimensions":["pattern","legs"],"bee_group":{"antennae":"X","wings":"X","pattern":"D","legs":"M"},"bonus":0.28000000000000114},{"view_history":[{"page_index":0,"viewing_time":1725},{"page_index":1,"viewing_time":4389},{"page_index":2,"viewing_time":4613},{"page_index":3,"viewing_time":3777},{"page_index":4,"viewing_time":7158},{"page_index":5,"viewing_time":1593},{"page_index":6,"viewing_time":1087},{"page_index":7,"viewing_time":4309},{"page_index":8,"viewing_time":534},{"page_index":9,"viewing_time":1232},{"page_index":8,"viewing_time":1179},{"page_index":9,"viewing_time":620},{"page_index":8,"viewing_time":872},{"page_index":9,"viewing_time":188},{"page_index":10,"viewing_time":407},{"page_index":9,"viewing_time":155},{"page_index":8,"viewing_time":1848},{"page_index":7,"viewing_time":1183},{"page_index":8,"viewing_time":424},{"page_index":9,"viewing_time":676},{"page_index":10,"viewing_time":1124},{"page_index":11,"viewing_time":943},{"page_index":12,"viewing_time":964},{"page_index":13,"viewing_time":1167},{"page_index":14,"viewing_time":446}],"rt":42613,"trial_type":"instructions","trial_index":7,"time_elapsed":165042,"internal_node_id":"0.0-3.0-4.0-0.0","subject_id":"60bfcf2d08b0aa1910719e26","study_id":"60edd13110225f80f9f3709b","session_id":"6196bc52a57ddbb009aa7f72","condition":"full-information","relevant_dimensions":["pattern","legs"],"bee_group":{"antennae":"X","wings":"X","pattern":"D","legs":"M"},"bonus":0.28000000000000114},{"rt":11075,"response":{"Q0":["Two or six legs","Stripes or spots on body","Single or double wings","Antennae or no antennae"]},"question_order":[0],"trial_type":"survey-multi-select","trial_index":8,"time_elapsed":176119,"internal_node_id":"0.0-3.0-4.0-1.0","subject_id":"60bfcf2d08b0aa1910719e26","study_id":"60edd13110225f80f9f3709b","session_id":"6196bc52a57ddbb009aa7f72","condition":"full-information","relevant_dimensions":["pattern","legs"],"bee_group":{"antennae":"X","wings":"X","pattern":"D","legs":"M"},"correct":true,"bonus":0.28000000000000114},{"rt":16637,"response":{"Q1":"No.","Q2":"Based on the four features of the bee.","Q3":"You learn if it was friendly or dangerous, but do not alter your bonus."},"question_order":[0,1,2],"trial_type":"survey-multi-choice","trial_index":9,"time_elapsed":192756,"internal_node_id":"0.0-3.0-4.0-2.0","subject_id":"60bfcf2d08b0aa1910719e26","study_id":"60edd13110225f80f9f3709b","session_id":"6196bc52a57ddbb009aa7f72","condition":"full-information","relevant_dimensions":["pattern","legs"],"bee_group":{"antennae":"X","wings":"X","pattern":"D","legs":"M"},"correct":true,"bonus":0.28000000000000114},{"rt":1152,"stimulus":"<p>Congrats, you got everything right<br>When you're ready, click the button below to continue to the experiment.</p>","response":0,"trial_type":"html-button-response","trial_index":10,"time_elapsed":193910,"internal_node_id":"0.0-3.0-4.0-3.0","subject_id":"60bfcf2d08b0aa1910719e26","study_id":"60edd13110225f80f9f3709b","session_id":"6196bc52a57ddbb009aa7f72","condition":"full-information","relevant_dimensions":["pattern","legs"],"bee_group":{"antennae":"X","wings":"X","pattern":"D","legs":"M"},"bonus":0.28000000000000114},{"rt":14614,"stimulus":"bees-with-color/bee-A1DF.svg","response":0,"trial_type":"image-button-response","trial_index":11,"time_elapsed":208526,"internal_node_id":"0.0-4.0-0.0","subject_id":"60bfcf2d08b0aa1910719e26","study_id":"60edd13110225f80f9f3709b","session_id":"6196bc52a57ddbb009aa7f72","condition":"full-information","relevant_dimensions":["pattern","legs"],"bee_group":{"antennae":"X","wings":"X","pattern":"D","legs":"M"},"action":"harvest","summary":"good-harvest","bonus":0.28000000000000114},{"rt":6219,"stimulus":"\n                    <p><b>Action: <em>harvest</em></b></p>\n                    <p>This is the bee that you just saw.</p>\n                    <img src=\"bees-with-color/bee-A1DF.svg\" width=\"200\">\n                    <p><span class=\"greenText\"><b>Successful harvest!</b></span><br>Your pay has increased by $0.02. Your bonus pay is now $0.56.</p>\n            ","response":0,"trial_type":"html-button-response","trial_index":12,"time_elapsed":214757,"internal_node_id":"0.0-4.0-1.0","subject_id":"60bfcf2d08b0aa1910719e26","study_id":"60edd13110225f80f9f3709b","session_id":"6196bc52a57ddbb009aa7f72","condition":"full-information","relevant_dimensions":["pattern","legs"],"bee_group":{"antennae":"X","wings":"X","pattern":"D","legs":"M"},"bonus":0.28000000000000114},{"rt":4088,"stimulus":"bees-with-color/bee-A1SM.svg","response":1,"trial_type":"image-button-response","trial_index":13,"time_elapsed":218846,"internal_node_id":"0.0-4.0-0.1","subject_id":"60bfcf2d08b0aa1910719e26","study_id":"60edd13110225f80f9f3709b","session_id":"6196bc52a57ddbb009aa7f72","condition":"full-information","relevant_dimensions":["pattern","legs"],"bee_group":{"antennae":"X","wings":"X","pattern":"D","legs":"M"},"action":"avoid","summary":"bad-avoid","bonus":0.28000000000000114},{"rt":5685,"stimulus":"\n                    <p><b>Action: <em>avoid</em></b></p>\n                    <p>This is the bee that you just saw.</p>\n                    <img src=\"bees-with-color/bee-A1SM.svg\" width=\"200\">\n                    <p><span class=\"redText\">Bad choice,</span> the bee was friendly.<br>Your bonus pay is unchanged, and remains at $0.56.</p>\n            ","response":0,"trial_type":"html-button-response","trial_index":14,"time_elapsed":224533,"internal_node_id":"0.0-4.0-1.1","subject_id":"60bfcf2d08b0aa1910719e26","study_id":"60edd13110225f80f9f3709b","session_id":"6196bc52a57ddbb009aa7f72","condition":"full-information","relevant_dimensions":["pattern","legs"],"bee_group":{"antennae":"X","wings":"X","pattern":"D","legs":"M"},"bonus":0.28000000000000114},{"rt":2678,"stimulus":"bees-with-color/bee-B2DM.svg","response":0,"trial_type":"image-button-response","trial_index":15,"time_elapsed":227212,"internal_node_id":"0.0-4.0-0.2","subject_id":"60bfcf2d08b0aa1910719e26","study_id":"60edd13110225f80f9f3709b","session_id":"6196bc52a57ddbb009aa7f72","condition":"full-information","relevant_dimensions":["pattern","legs"],"bee_group":{"antennae":"X","wings":"X","pattern":"D","legs":"M"},"action":"harvest","summary":"bad-harvest","bonus":0.28000000000000114},{"rt":4561,"stimulus":"\n                    <p><b>Action: <em>harvest</em></b></p>\n                    <p>This is the bee that you just saw.</p>\n                    <img src=\"bees-with-color/bee-B2DM.svg\" width=\"200\">\n                    <p><span class=\"redText\">Bad choice, the bee was angry.</span><br><b>You have been stung!</b><br>Your pay has been decreased by $0.10. Your bonus pay is now $0.46.</p>\n            ","response":0,"trial_type":"html-button-response","trial_index":16,"time_elapsed":231773,"internal_node_id":"0.0-4.0-1.2","subject_id":"60bfcf2d08b0aa1910719e26","study_id":"60edd13110225f80f9f3709b","session_id":"6196bc52a57ddbb009aa7f72","condition":"full-information","relevant_dimensions":["pattern","legs"],"bee_group":{"antennae":"X","wings":"X","pattern":"D","legs":"M"},"bonus":0.28000000000000114},{"rt":1207,"stimulus":"bees-with-color/bee-A2SM.svg","response":0,"trial_type":"image-button-response","trial_index":17,"time_elapsed":232982,"internal_node_id":"0.0-4.0-0.3","subject_id":"60bfcf2d08b0aa1910719e26","study_id":"60edd13110225f80f9f3709b","session_id":"6196bc52a57ddbb009aa7f72","condition":"full-information","relevant_dimensions":["pattern","legs"],"bee_group":{"antennae":"X","wings":"X","pattern":"D","legs":"M"},"action":"harvest","summary":"good-harvest","bonus":0.28000000000000114},{"rt":1136,"stimulus":"\n                    <p><b>Action: <em>harvest</em></b></p>\n                    <p>This is the bee that you just saw.</p>\n                    <img src=\"bees-with-color/bee-A2SM.svg\" width=\"200\">\n                    <p><span class=\"greenText\"><b>Successful harvest!</b></span><br>Your pay has increased by $0.02. Your bonus pay is now $0.48.</p>\n            ","response":0,"trial_type":"html-button-response","trial_index":18,"time_elapsed":234119,"internal_node_id":"0.0-4.0-1.3","subject_id":"60bfcf2d08b0aa1910719e26","study_id":"60edd13110225f80f9f3709b","session_id":"6196bc52a57ddbb009aa7f72","condition":"full-information","relevant_dimensions":["pattern","legs"],"bee_group":{"antennae":"X","wings":"X","pattern":"D","legs":"M"},"bonus":0.28000000000000114},{"rt":1660,"stimulus":"bees-with-color/bee-A1SF.svg","response":0,"trial_type":"image-button-response","trial_index":19,"time_elapsed":235780,"internal_node_id":"0.0-4.0-0.4","subject_id":"60bfcf2d08b0aa1910719e26","study_id":"60edd13110225f80f9f3709b","session_id":"6196bc52a57ddbb009aa7f72","condition":"full-information","relevant_dimensions":["pattern","legs"],"bee_group":{"antennae":"X","wings":"X","pattern":"D","legs":"M"},"action":"harvest","summary":"good-harvest","bonus":0.28000000000000114},{"rt":695,"stimulus":"\n                    <p><b>Action: <em>harvest</em></b></p>\n                    <p>This is the bee that you just saw.</p>\n                    <img src=\"bees-with-color/bee-A1SF.svg\" width=\"200\">\n                    <p><span class=\"greenText\"><b>Successful harvest!</b></span><br>Your pay has increased by $0.02. Your bonus pay is now $0.50.</p>\n            ","response":0,"trial_type":"html-button-response","trial_index":20,"time_elapsed":236476,"internal_node_id":"0.0-4.0-1.4","subject_id":"60bfcf2d08b0aa1910719e26","study_id":"60edd13110225f80f9f3709b","session_id":"6196bc52a57ddbb009aa7f72","condition":"full-information","relevant_dimensions":["pattern","legs"],"bee_group":{"antennae":"X","wings":"X","pattern":"D","legs":"M"},"bonus":0.28000000000000114},{"rt":1059,"stimulus":"bees-with-color/bee-B2DF.svg","response":1,"trial_type":"image-button-response","trial_index":21,"time_elapsed":237535,"internal_node_id":"0.0-4.0-0.5","subject_id":"60bfcf2d08b0aa1910719e26","study_id":"60edd13110225f80f9f3709b","session_id":"6196bc52a57ddbb009aa7f72","condition":"full-information","relevant_dimensions":["pattern","legs"],"bee_group":{"antennae":"X","wings":"X","pattern":"D","legs":"M"},"action":"avoid","summary":"bad-avoid","bonus":0.28000000000000114},{"rt":2223,"stimulus":"\n                    <p><b>Action: <em>avoid</em></b></p>\n                    <p>This is the bee that you just saw.</p>\n                    <img src=\"bees-with-color/bee-B2DF.svg\" width=\"200\">\n                    <p><span class=\"redText\">Bad choice,</span> the bee was friendly.<br>Your bonus pay is unchanged, and remains at $0.50.</p>\n            ","response":0,"trial_type":"html-button-response","trial_index":22,"time_elapsed":239759,"internal_node_id":"0.0-4.0-1.5","subject_id":"60bfcf2d08b0aa1910719e26","study_id":"60edd13110225f80f9f3709b","session_id":"6196bc52a57ddbb009aa7f72","condition":"full-information","relevant_dimensions":["pattern","legs"],"bee_group":{"antennae":"X","wings":"X","pattern":"D","legs":"M"},"bonus":0.28000000000000114},{"rt":1651,"stimulus":"bees-with-color/bee-B1DM.svg","response":0,"trial_type":"image-button-response","trial_index":23,"time_elapsed":241410,"internal_node_id":"0.0-4.0-0.6","subject_id":"60bfcf2d08b0aa1910719e26","study_id":"60edd13110225f80f9f3709b","session_id":"6196bc52a57ddbb009aa7f72","condition":"full-information","relevant_dimensions":["pattern","legs"],"bee_group":{"antennae":"X","wings":"X","pattern":"D","legs":"M"},"action":"harvest","summary":"bad-harvest","bonus":0.28000000000000114},{"rt":1563,"stimulus":"\n                    <p><b>Action: <em>harvest</em></b></p>\n                    <p>This is the bee that you just saw.</p>\n                    <img src=\"bees-with-color/bee-B1DM.svg\" width=\"200\">\n                    <p><span class=\"redText\">Bad choice, the bee was angry.</span><br><b>You have been stung!</b><br>Your pay has been decreased by $0.10. Your bonus pay is now $0.40.</p>\n            ","response":0,"trial_type":"html-button-response","trial_index":24,"time_elapsed":242975,"internal_node_id":"0.0-4.0-1.6","subject_id":"60bfcf2d08b0aa1910719e26","study_id":"60edd13110225f80f9f3709b","session_id":"6196bc52a57ddbb009aa7f72","condition":"full-information","relevant_dimensions":["pattern","legs"],"bee_group":{"antennae":"X","wings":"X","pattern":"D","legs":"M"},"bonus":0.28000000000000114},{"rt":826,"stimulus":"bees-with-color/bee-A2DF.svg","response":0,"trial_type":"image-button-response","trial_index":25,"time_elapsed":243802,"internal_node_id":"0.0-4.0-0.7","subject_id":"60bfcf2d08b0aa1910719e26","study_id":"60edd13110225f80f9f3709b","session_id":"6196bc52a57ddbb009aa7f72","condition":"full-information","relevant_dimensions":["pattern","legs"],"bee_group":{"antennae":"X","wings":"X","pattern":"D","legs":"M"},"action":"harvest","summary":"good-harvest","bonus":0.28000000000000114},{"rt":1422,"stimulus":"\n                    <p><b>Action: <em>harvest</em></b></p>\n                    <p>This is the bee that you just saw.</p>\n                    <img src=\"bees-with-color/bee-A2DF.svg\" width=\"200\">\n                    <p><span class=\"greenText\"><b>Successful harvest!</b></span><br>Your pay has increased by $0.02. Your bonus pay is now $0.42.</p>\n            ","response":0,"trial_type":"html-button-response","trial_index":26,"time_elapsed":245226,"internal_node_id":"0.0-4.0-1.7","subject_id":"60bfcf2d08b0aa1910719e26","study_id":"60edd13110225f80f9f3709b","session_id":"6196bc52a57ddbb009aa7f72","condition":"full-information","relevant_dimensions":["pattern","legs"],"bee_group":{"antennae":"X","wings":"X","pattern":"D","legs":"M"},"bonus":0.28000000000000114},{"rt":1586,"stimulus":"bees-with-color/bee-B1DF.svg","response":1,"trial_type":"image-button-response","trial_index":27,"time_elapsed":246813,"internal_node_id":"0.0-4.0-0.8","subject_id":"60bfcf2d08b0aa1910719e26","study_id":"60edd13110225f80f9f3709b","session_id":"6196bc52a57ddbb009aa7f72","condition":"full-information","relevant_dimensions":["pattern","legs"],"bee_group":{"antennae":"X","wings":"X","pattern":"D","legs":"M"},"action":"avoid","summary":"bad-avoid","bonus":0.28000000000000114},{"rt":838,"stimulus":"\n                    <p><b>Action: <em>avoid</em></b></p>\n                    <p>This is the bee that you just saw.</p>\n                    <img src=\"bees-with-color/bee-B1DF.svg\" width=\"200\">\n                    <p><span class=\"redText\">Bad choice,</span> the bee was friendly.<br>Your bonus pay is unchanged, and remains at $0.42.</p>\n            ","response":0,"trial_type":"html-button-response","trial_index":28,"time_elapsed":247652,"internal_node_id":"0.0-4.0-1.8","subject_id":"60bfcf2d08b0aa1910719e26","study_id":"60edd13110225f80f9f3709b","session_id":"6196bc52a57ddbb009aa7f72","condition":"full-information","relevant_dimensions":["pattern","legs"],"bee_group":{"antennae":"X","wings":"X","pattern":"D","legs":"M"},"bonus":0.28000000000000114},{"rt":788,"stimulus":"bees-with-color/bee-A2SF.svg","response":0,"trial_type":"image-button-response","trial_index":29,"time_elapsed":248441,"internal_node_id":"0.0-4.0-0.9","subject_id":"60bfcf2d08b0aa1910719e26","study_id":"60edd13110225f80f9f3709b","session_id":"6196bc52a57ddbb009aa7f72","condition":"full-information","relevant_dimensions":["pattern","legs"],"bee_group":{"antennae":"X","wings":"X","pattern":"D","legs":"M"},"action":"harvest","summary":"good-harvest","bonus":0.28000000000000114},{"rt":1376,"stimulus":"\n                    <p><b>Action: <em>harvest</em></b></p>\n                    <p>This is the bee that you just saw.</p>\n                    <img src=\"bees-with-color/bee-A2SF.svg\" width=\"200\">\n                    <p><span class=\"greenText\"><b>Successful harvest!</b></span><br>Your pay has increased by $0.02. Your bonus pay is now $0.44.</p>\n            ","response":0,"trial_type":"html-button-response","trial_index":30,"time_elapsed":249818,"internal_node_id":"0.0-4.0-1.9","subject_id":"60bfcf2d08b0aa1910719e26","study_id":"60edd13110225f80f9f3709b","session_id":"6196bc52a57ddbb009aa7f72","condition":"full-information","relevant_dimensions":["pattern","legs"],"bee_group":{"antennae":"X","wings":"X","pattern":"D","legs":"M"},"bonus":0.28000000000000114},{"rt":1369,"stimulus":"bees-with-color/bee-B2SM.svg","response":0,"trial_type":"image-button-response","trial_index":31,"time_elapsed":251188,"internal_node_id":"0.0-4.0-0.10","subject_id":"60bfcf2d08b0aa1910719e26","study_id":"60edd13110225f80f9f3709b","session_id":"6196bc52a57ddbb009aa7f72","condition":"full-information","relevant_dimensions":["pattern","legs"],"bee_group":{"antennae":"X","wings":"X","pattern":"D","legs":"M"},"action":"harvest","summary":"good-harvest","bonus":0.28000000000000114},{"rt":846,"stimulus":"\n                    <p><b>Action: <em>harvest</em></b></p>\n                    <p>This is the bee that you just saw.</p>\n                    <img src=\"bees-with-color/bee-B2SM.svg\" width=\"200\">\n                    <p><span class=\"greenText\"><b>Successful harvest!</b></span><br>Your pay has increased by $0.02. Your bonus pay is now $0.46.</p>\n            ","response":0,"trial_type":"html-button-response","trial_index":32,"time_elapsed":252035,"internal_node_id":"0.0-4.0-1.10","subject_id":"60bfcf2d08b0aa1910719e26","study_id":"60edd13110225f80f9f3709b","session_id":"6196bc52a57ddbb009aa7f72","condition":"full-information","relevant_dimensions":["pattern","legs"],"bee_group":{"antennae":"X","wings":"X","pattern":"D","legs":"M"},"bonus":0.28000000000000114},{"rt":1564,"stimulus":"bees-with-color/bee-B1SF.svg","response":1,"trial_type":"image-button-response","trial_index":33,"time_elapsed":253599,"internal_node_id":"0.0-4.0-0.11","subject_id":"60bfcf2d08b0aa1910719e26","study_id":"60edd13110225f80f9f3709b","session_id":"6196bc52a57ddbb009aa7f72","condition":"full-information","relevant_dimensions":["pattern","legs"],"bee_group":{"antennae":"X","wings":"X","pattern":"D","legs":"M"},"action":"avoid","summary":"bad-avoid","bonus":0.28000000000000114},{"rt":923,"stimulus":"\n                    <p><b>Action: <em>avoid</em></b></p>\n                    <p>This is the bee that you just saw.</p>\n                    <img src=\"bees-with-color/bee-B1SF.svg\" width=\"200\">\n                    <p><span class=\"redText\">Bad choice,</span> the bee was friendly.<br>Your bonus pay is unchanged, and remains at $0.46.</p>\n            ","response":0,"trial_type":"html-button-response","trial_index":34,"time_elapsed":254525,"internal_node_id":"0.0-4.0-1.11","subject_id":"60bfcf2d08b0aa1910719e26","study_id":"60edd13110225f80f9f3709b","session_id":"6196bc52a57ddbb009aa7f72","condition":"full-information","relevant_dimensions":["pattern","legs"],"bee_group":{"antennae":"X","wings":"X","pattern":"D","legs":"M"},"bonus":0.28000000000000114},{"rt":938,"stimulus":"bees-with-color/bee-B1SM.svg","response":0,"trial_type":"image-button-response","trial_index":35,"time_elapsed":255463,"internal_node_id":"0.0-4.0-0.12","subject_id":"60bfcf2d08b0aa1910719e26","study_id":"60edd13110225f80f9f3709b","session_id":"6196bc52a57ddbb009aa7f72","condition":"full-information","relevant_dimensions":["pattern","legs"],"bee_group":{"antennae":"X","wings":"X","pattern":"D","legs":"M"},"action":"harvest","summary":"good-harvest","bonus":0.28000000000000114},{"rt":852,"stimulus":"\n                    <p><b>Action: <em>harvest</em></b></p>\n                    <p>This is the bee that you just saw.</p>\n                    <img src=\"bees-with-color/bee-B1SM.svg\" width=\"200\">\n                    <p><span class=\"greenText\"><b>Successful harvest!</b></span><br>Your pay has increased by $0.02. Your bonus pay is now $0.48.</p>\n            ","response":0,"trial_type":"html-button-response","trial_index":36,"time_elapsed":256316,"internal_node_id":"0.0-4.0-1.12","subject_id":"60bfcf2d08b0aa1910719e26","study_id":"60edd13110225f80f9f3709b","session_id":"6196bc52a57ddbb009aa7f72","condition":"full-information","relevant_dimensions":["pattern","legs"],"bee_group":{"antennae":"X","wings":"X","pattern":"D","legs":"M"},"bonus":0.28000000000000114},{"rt":1042,"stimulus":"bees-with-color/bee-B2SF.svg","response":0,"trial_type":"image-button-response","trial_index":37,"time_elapsed":257358,"internal_node_id":"0.0-4.0-0.13","subject_id":"60bfcf2d08b0aa1910719e26","study_id":"60edd13110225f80f9f3709b","session_id":"6196bc52a57ddbb009aa7f72","condition":"full-information","relevant_dimensions":["pattern","legs"],"bee_group":{"antennae":"X","wings":"X","pattern":"D","legs":"M"},"action":"harvest","summary":"good-harvest","bonus":0.28000000000000114},{"rt":858,"stimulus":"\n                    <p><b>Action: <em>harvest</em></b></p>\n                    <p>This is the bee that you just saw.</p>\n                    <img src=\"bees-with-color/bee-B2SF.svg\" width=\"200\">\n                    <p><span class=\"greenText\"><b>Successful harvest!</b></span><br>Your pay has increased by $0.02. Your bonus pay is now $0.50.</p>\n            ","response":0,"trial_type":"html-button-response","trial_index":38,"time_elapsed":258218,"internal_node_id":"0.0-4.0-1.13","subject_id":"60bfcf2d08b0aa1910719e26","study_id":"60edd13110225f80f9f3709b","session_id":"6196bc52a57ddbb009aa7f72","condition":"full-information","relevant_dimensions":["pattern","legs"],"bee_group":{"antennae":"X","wings":"X","pattern":"D","legs":"M"},"bonus":0.28000000000000114},{"rt":748,"stimulus":"bees-with-color/bee-A1DM.svg","response":0,"trial_type":"image-button-response","trial_index":39,"time_elapsed":258966,"internal_node_id":"0.0-4.0-0.14","subject_id":"60bfcf2d08b0aa1910719e26","study_id":"60edd13110225f80f9f3709b","session_id":"6196bc52a57ddbb009aa7f72","condition":"full-information","relevant_dimensions":["pattern","legs"],"bee_group":{"antennae":"X","wings":"X","pattern":"D","legs":"M"},"action":"harvest","summary":"bad-harvest","bonus":0.28000000000000114},{"rt":1033,"stimulus":"\n                    <p><b>Action: <em>harvest</em></b></p>\n                    <p>This is the bee that you just saw.</p>\n                    <img src=\"bees-with-color/bee-A1DM.svg\" width=\"200\">\n                    <p><span class=\"redText\">Bad choice, the bee was angry.</span><br><b>You have been stung!</b><br>Your pay has been decreased by $0.10. Your bonus pay is now $0.40.</p>\n            ","response":0,"trial_type":"html-button-response","trial_index":40,"time_elapsed":259999,"internal_node_id":"0.0-4.0-1.14","subject_id":"60bfcf2d08b0aa1910719e26","study_id":"60edd13110225f80f9f3709b","session_id":"6196bc52a57ddbb009aa7f72","condition":"full-information","relevant_dimensions":["pattern","legs"],"bee_group":{"antennae":"X","wings":"X","pattern":"D","legs":"M"},"bonus":0.28000000000000114},{"rt":529,"stimulus":"bees-with-color/bee-A2DM.svg","response":0,"trial_type":"image-button-response","trial_index":41,"time_elapsed":260530,"internal_node_id":"0.0-4.0-0.15","subject_id":"60bfcf2d08b0aa1910719e26","study_id":"60edd13110225f80f9f3709b","session_id":"6196bc52a57ddbb009aa7f72","condition":"full-information","relevant_dimensions":["pattern","legs"],"bee_group":{"antennae":"X","wings":"X","pattern":"D","legs":"M"},"action":"harvest","summary":"bad-harvest","bonus":0.28000000000000114},{"rt":1164,"stimulus":"\n                    <p><b>Action: <em>harvest</em></b></p>\n                    <p>This is the bee that you just saw.</p>\n                    <img src=\"bees-with-color/bee-A2DM.svg\" width=\"200\">\n                    <p><span class=\"redText\">Bad choice, the bee was angry.</span><br><b>You have been stung!</b><br>Your pay has been decreased by $0.10. Your bonus pay is now $0.30.</p>\n            ","response":0,"trial_type":"html-button-response","trial_index":42,"time_elapsed":261695,"internal_node_id":"0.0-4.0-1.15","subject_id":"60bfcf2d08b0aa1910719e26","study_id":"60edd13110225f80f9f3709b","session_id":"6196bc52a57ddbb009aa7f72","condition":"full-information","relevant_dimensions":["pattern","legs"],"bee_group":{"antennae":"X","wings":"X","pattern":"D","legs":"M"},"bonus":0.28000000000000114},{"rt":1072,"stimulus":"bees-with-color/bee-B1DM.svg","response":1,"trial_type":"image-button-response","trial_index":43,"time_elapsed":262768,"internal_node_id":"0.0-4.0-0.16","subject_id":"60bfcf2d08b0aa1910719e26","study_id":"60edd13110225f80f9f3709b","session_id":"6196bc52a57ddbb009aa7f72","condition":"full-information","relevant_dimensions":["pattern","legs"],"bee_group":{"antennae":"X","wings":"X","pattern":"D","legs":"M"},"action":"avoid","summary":"good-avoid","bonus":0.28000000000000114},{"rt":669,"stimulus":"\n                    <p><b>Action: <em>avoid</em></b></p>\n                    <p>This is the bee that you just saw.</p>\n                    <img src=\"bees-with-color/bee-B1DM.svg\" width=\"200\">\n                    <p><span class=\"greenText\">Good choice!</span>  This bee would have stung you.<br>Your bonus pay is unchanged, and remains at $0.30.</p>\n            ","response":0,"trial_type":"html-button-response","trial_index":44,"time_elapsed":263437,"internal_node_id":"0.0-4.0-1.16","subject_id":"60bfcf2d08b0aa1910719e26","study_id":"60edd13110225f80f9f3709b","session_id":"6196bc52a57ddbb009aa7f72","condition":"full-information","relevant_dimensions":["pattern","legs"],"bee_group":{"antennae":"X","wings":"X","pattern":"D","legs":"M"},"bonus":0.28000000000000114},{"rt":749,"stimulus":"bees-with-color/bee-B2SF.svg","response":0,"trial_type":"image-button-response","trial_index":45,"time_elapsed":264189,"internal_node_id":"0.0-4.0-0.17","subject_id":"60bfcf2d08b0aa1910719e26","study_id":"60edd13110225f80f9f3709b","session_id":"6196bc52a57ddbb009aa7f72","condition":"full-information","relevant_dimensions":["pattern","legs"],"bee_group":{"antennae":"X","wings":"X","pattern":"D","legs":"M"},"action":"harvest","summary":"good-harvest","bonus":0.28000000000000114},{"rt":703,"stimulus":"\n                    <p><b>Action: <em>harvest</em></b></p>\n                    <p>This is the bee that you just saw.</p>\n                    <img src=\"bees-with-color/bee-B2SF.svg\" width=\"200\">\n                    <p><span class=\"greenText\"><b>Successful harvest!</b></span><br>Your pay has increased by $0.02. Your bonus pay is now $0.32.</p>\n            ","response":0,"trial_type":"html-button-response","trial_index":46,"time_elapsed":264893,"internal_node_id":"0.0-4.0-1.17","subject_id":"60bfcf2d08b0aa1910719e26","study_id":"60edd13110225f80f9f3709b","session_id":"6196bc52a57ddbb009aa7f72","condition":"full-information","relevant_dimensions":["pattern","legs"],"bee_group":{"antennae":"X","wings":"X","pattern":"D","legs":"M"},"bonus":0.28000000000000114},{"rt":1412,"stimulus":"bees-with-color/bee-A2DF.svg","response":0,"trial_type":"image-button-response","trial_index":47,"time_elapsed":266307,"internal_node_id":"0.0-4.0-0.18","subject_id":"60bfcf2d08b0aa1910719e26","study_id":"60edd13110225f80f9f3709b","session_id":"6196bc52a57ddbb009aa7f72","condition":"full-information","relevant_dimensions":["pattern","legs"],"bee_group":{"antennae":"X","wings":"X","pattern":"D","legs":"M"},"action":"harvest","summary":"good-harvest","bonus":0.28000000000000114},{"rt":595,"stimulus":"\n                    <p><b>Action: <em>harvest</em></b></p>\n                    <p>This is the bee that you just saw.</p>\n                    <img src=\"bees-with-color/bee-A2DF.svg\" width=\"200\">\n                    <p><span class=\"greenText\"><b>Successful harvest!</b></span><br>Your pay has increased by $0.02. Your bonus pay is now $0.34.</p>\n            ","response":0,"trial_type":"html-button-response","trial_index":48,"time_elapsed":266903,"internal_node_id":"0.0-4.0-1.18","subject_id":"60bfcf2d08b0aa1910719e26","study_id":"60edd13110225f80f9f3709b","session_id":"6196bc52a57ddbb009aa7f72","condition":"full-information","relevant_dimensions":["pattern","legs"],"bee_group":{"antennae":"X","wings":"X","pattern":"D","legs":"M"},"bonus":0.28000000000000114},{"rt":1139,"stimulus":"bees-with-color/bee-A2DM.svg","response":1,"trial_type":"image-button-response","trial_index":49,"time_elapsed":268043,"internal_node_id":"0.0-4.0-0.19","subject_id":"60bfcf2d08b0aa1910719e26","study_id":"60edd13110225f80f9f3709b","session_id":"6196bc52a57ddbb009aa7f72","condition":"full-information","relevant_dimensions":["pattern","legs"],"bee_group":{"antennae":"X","wings":"X","pattern":"D","legs":"M"},"action":"avoid","summary":"good-avoid","bonus":0.28000000000000114},{"rt":626,"stimulus":"\n                    <p><b>Action: <em>avoid</em></b></p>\n                    <p>This is the bee that you just saw.</p>\n                    <img src=\"bees-with-color/bee-A2DM.svg\" width=\"200\">\n                    <p><span class=\"greenText\">Good choice!</span>  This bee would have stung you.<br>Your bonus pay is unchanged, and remains at $0.34.</p>\n            ","response":0,"trial_type":"html-button-response","trial_index":50,"time_elapsed":268669,"internal_node_id":"0.0-4.0-1.19","subject_id":"60bfcf2d08b0aa1910719e26","study_id":"60edd13110225f80f9f3709b","session_id":"6196bc52a57ddbb009aa7f72","condition":"full-information","relevant_dimensions":["pattern","legs"],"bee_group":{"antennae":"X","wings":"X","pattern":"D","legs":"M"},"bonus":0.28000000000000114},{"rt":1360,"stimulus":"bees-with-color/bee-A1DF.svg","response":0,"trial_type":"image-button-response","trial_index":51,"time_elapsed":270030,"internal_node_id":"0.0-4.0-0.20","subject_id":"60bfcf2d08b0aa1910719e26","study_id":"60edd13110225f80f9f3709b","session_id":"6196bc52a57ddbb009aa7f72","condition":"full-information","relevant_dimensions":["pattern","legs"],"bee_group":{"antennae":"X","wings":"X","pattern":"D","legs":"M"},"action":"harvest","summary":"good-harvest","bonus":0.28000000000000114},{"rt":820,"stimulus":"\n                    <p><b>Action: <em>harvest</em></b></p>\n                    <p>This is the bee that you just saw.</p>\n                    <img src=\"bees-with-color/bee-A1DF.svg\" width=\"200\">\n                    <p><span class=\"greenText\"><b>Successful harvest!</b></span><br>Your pay has increased by $0.02. Your bonus pay is now $0.36.</p>\n            ","response":0,"trial_type":"html-button-response","trial_index":52,"time_elapsed":270851,"internal_node_id":"0.0-4.0-1.20","subject_id":"60bfcf2d08b0aa1910719e26","study_id":"60edd13110225f80f9f3709b","session_id":"6196bc52a57ddbb009aa7f72","condition":"full-information","relevant_dimensions":["pattern","legs"],"bee_group":{"antennae":"X","wings":"X","pattern":"D","legs":"M"},"bonus":0.28000000000000114},{"rt":1463,"stimulus":"bees-with-color/bee-A2SM.svg","response":0,"trial_type":"image-button-response","trial_index":53,"time_elapsed":272314,"internal_node_id":"0.0-4.0-0.21","subject_id":"60bfcf2d08b0aa1910719e26","study_id":"60edd13110225f80f9f3709b","session_id":"6196bc52a57ddbb009aa7f72","condition":"full-information","relevant_dimensions":["pattern","legs"],"bee_group":{"antennae":"X","wings":"X","pattern":"D","legs":"M"},"action":"harvest","summary":"good-harvest","bonus":0.28000000000000114},{"rt":666,"stimulus":"\n                    <p><b>Action: <em>harvest</em></b></p>\n                    <p>This is the bee that you just saw.</p>\n                    <img src=\"bees-with-color/bee-A2SM.svg\" width=\"200\">\n                    <p><span class=\"greenText\"><b>Successful harvest!</b></span><br>Your pay has increased by $0.02. Your bonus pay is now $0.38.</p>\n            ","response":0,"trial_type":"html-button-response","trial_index":54,"time_elapsed":272982,"internal_node_id":"0.0-4.0-1.21","subject_id":"60bfcf2d08b0aa1910719e26","study_id":"60edd13110225f80f9f3709b","session_id":"6196bc52a57ddbb009aa7f72","condition":"full-information","relevant_dimensions":["pattern","legs"],"bee_group":{"antennae":"X","wings":"X","pattern":"D","legs":"M"},"bonus":0.28000000000000114},{"rt":1179,"stimulus":"bees-with-color/bee-A1SM.svg","response":1,"trial_type":"image-button-response","trial_index":55,"time_elapsed":274163,"internal_node_id":"0.0-4.0-0.22","subject_id":"60bfcf2d08b0aa1910719e26","study_id":"60edd13110225f80f9f3709b","session_id":"6196bc52a57ddbb009aa7f72","condition":"full-information","relevant_dimensions":["pattern","legs"],"bee_group":{"antennae":"X","wings":"X","pattern":"D","legs":"M"},"action":"avoid","summary":"bad-avoid","bonus":0.28000000000000114},{"rt":625,"stimulus":"\n                    <p><b>Action: <em>avoid</em></b></p>\n                    <p>This is the bee that you just saw.</p>\n                    <img src=\"bees-with-color/bee-A1SM.svg\" width=\"200\">\n                    <p><span class=\"redText\">Bad choice,</span> the bee was friendly.<br>Your bonus pay is unchanged, and remains at $0.38.</p>\n            ","response":0,"trial_type":"html-button-response","trial_index":56,"time_elapsed":274789,"internal_node_id":"0.0-4.0-1.22","subject_id":"60bfcf2d08b0aa1910719e26","study_id":"60edd13110225f80f9f3709b","session_id":"6196bc52a57ddbb009aa7f72","condition":"full-information","relevant_dimensions":["pattern","legs"],"bee_group":{"antennae":"X","wings":"X","pattern":"D","legs":"M"},"bonus":0.28000000000000114},{"rt":1005,"stimulus":"bees-with-color/bee-B1SM.svg","response":0,"trial_type":"image-button-response","trial_index":57,"time_elapsed":275795,"internal_node_id":"0.0-4.0-0.23","subject_id":"60bfcf2d08b0aa1910719e26","study_id":"60edd13110225f80f9f3709b","session_id":"6196bc52a57ddbb009aa7f72","condition":"full-information","relevant_dimensions":["pattern","legs"],"bee_group":{"antennae":"X","wings":"X","pattern":"D","legs":"M"},"action":"harvest","summary":"good-harvest","bonus":0.28000000000000114},{"rt":916,"stimulus":"\n                    <p><b>Action: <em>harvest</em></b></p>\n                    <p>This is the bee that you just saw.</p>\n                    <img src=\"bees-with-color/bee-B1SM.svg\" width=\"200\">\n                    <p><span class=\"greenText\"><b>Successful harvest!</b></span><br>Your pay has increased by $0.02. Your bonus pay is now $0.40.</p>\n            ","response":0,"trial_type":"html-button-response","trial_index":58,"time_elapsed":276711,"internal_node_id":"0.0-4.0-1.23","subject_id":"60bfcf2d08b0aa1910719e26","study_id":"60edd13110225f80f9f3709b","session_id":"6196bc52a57ddbb009aa7f72","condition":"full-information","relevant_dimensions":["pattern","legs"],"bee_group":{"antennae":"X","wings":"X","pattern":"D","legs":"M"},"bonus":0.28000000000000114},{"rt":2556,"stimulus":"bees-with-color/bee-B1DF.svg","response":1,"trial_type":"image-button-response","trial_index":59,"time_elapsed":279268,"internal_node_id":"0.0-4.0-0.24","subject_id":"60bfcf2d08b0aa1910719e26","study_id":"60edd13110225f80f9f3709b","session_id":"6196bc52a57ddbb009aa7f72","condition":"full-information","relevant_dimensions":["pattern","legs"],"bee_group":{"antennae":"X","wings":"X","pattern":"D","legs":"M"},"action":"avoid","summary":"bad-avoid","bonus":0.28000000000000114},{"rt":671,"stimulus":"\n                    <p><b>Action: <em>avoid</em></b></p>\n                    <p>This is the bee that you just saw.</p>\n                    <img src=\"bees-with-color/bee-B1DF.svg\" width=\"200\">\n                    <p><span class=\"redText\">Bad choice,</span> the bee was friendly.<br>Your bonus pay is unchanged, and remains at $0.40.</p>\n            ","response":0,"trial_type":"html-button-response","trial_index":60,"time_elapsed":279940,"internal_node_id":"0.0-4.0-1.24","subject_id":"60bfcf2d08b0aa1910719e26","study_id":"60edd13110225f80f9f3709b","session_id":"6196bc52a57ddbb009aa7f72","condition":"full-information","relevant_dimensions":["pattern","legs"],"bee_group":{"antennae":"X","wings":"X","pattern":"D","legs":"M"},"bonus":0.28000000000000114},{"rt":639,"stimulus":"bees-with-color/bee-A2SF.svg","response":0,"trial_type":"image-button-response","trial_index":61,"time_elapsed":280579,"internal_node_id":"0.0-4.0-0.25","subject_id":"60bfcf2d08b0aa1910719e26","study_id":"60edd13110225f80f9f3709b","session_id":"6196bc52a57ddbb009aa7f72","condition":"full-information","relevant_dimensions":["pattern","legs"],"bee_group":{"antennae":"X","wings":"X","pattern":"D","legs":"M"},"action":"harvest","summary":"good-harvest","bonus":0.28000000000000114},{"rt":588,"stimulus":"\n                    <p><b>Action: <em>harvest</em></b></p>\n                    <p>This is the bee that you just saw.</p>\n                    <img src=\"bees-with-color/bee-A2SF.svg\" width=\"200\">\n                    <p><span class=\"greenText\"><b>Successful harvest!</b></span><br>Your pay has increased by $0.02. Your bonus pay is now $0.42.</p>\n            ","response":0,"trial_type":"html-button-response","trial_index":62,"time_elapsed":281167,"internal_node_id":"0.0-4.0-1.25","subject_id":"60bfcf2d08b0aa1910719e26","study_id":"60edd13110225f80f9f3709b","session_id":"6196bc52a57ddbb009aa7f72","condition":"full-information","relevant_dimensions":["pattern","legs"],"bee_group":{"antennae":"X","wings":"X","pattern":"D","legs":"M"},"bonus":0.28000000000000114},{"rt":743,"stimulus":"bees-with-color/bee-B2DM.svg","response":0,"trial_type":"image-button-response","trial_index":63,"time_elapsed":281912,"internal_node_id":"0.0-4.0-0.26","subject_id":"60bfcf2d08b0aa1910719e26","study_id":"60edd13110225f80f9f3709b","session_id":"6196bc52a57ddbb009aa7f72","condition":"full-information","relevant_dimensions":["pattern","legs"],"bee_group":{"antennae":"X","wings":"X","pattern":"D","legs":"M"},"action":"harvest","summary":"bad-harvest","bonus":0.28000000000000114},{"rt":796,"stimulus":"\n                    <p><b>Action: <em>harvest</em></b></p>\n                    <p>This is the bee that you just saw.</p>\n                    <img src=\"bees-with-color/bee-B2DM.svg\" width=\"200\">\n                    <p><span class=\"redText\">Bad choice, the bee was angry.</span><br><b>You have been stung!</b><br>Your pay has been decreased by $0.10. Your bonus pay is now $0.32.</p>\n            ","response":0,"trial_type":"html-button-response","trial_index":64,"time_elapsed":282708,"internal_node_id":"0.0-4.0-1.26","subject_id":"60bfcf2d08b0aa1910719e26","study_id":"60edd13110225f80f9f3709b","session_id":"6196bc52a57ddbb009aa7f72","condition":"full-information","relevant_dimensions":["pattern","legs"],"bee_group":{"antennae":"X","wings":"X","pattern":"D","legs":"M"},"bonus":0.28000000000000114},{"rt":1264,"stimulus":"bees-with-color/bee-B1SF.svg","response":0,"trial_type":"image-button-response","trial_index":65,"time_elapsed":283973,"internal_node_id":"0.0-4.0-0.27","subject_id":"60bfcf2d08b0aa1910719e26","study_id":"60edd13110225f80f9f3709b","session_id":"6196bc52a57ddbb009aa7f72","condition":"full-information","relevant_dimensions":["pattern","legs"],"bee_group":{"antennae":"X","wings":"X","pattern":"D","legs":"M"},"action":"harvest","summary":"good-harvest","bonus":0.28000000000000114},{"rt":733,"stimulus":"\n                    <p><b>Action: <em>harvest</em></b></p>\n                    <p>This is the bee that you just saw.</p>\n                    <img src=\"bees-with-color/bee-B1SF.svg\" width=\"200\">\n                    <p><span class=\"greenText\"><b>Successful harvest!</b></span><br>Your pay has increased by $0.02. Your bonus pay is now $0.34.</p>\n            ","response":0,"trial_type":"html-button-response","trial_index":66,"time_elapsed":284706,"internal_node_id":"0.0-4.0-1.27","subject_id":"60bfcf2d08b0aa1910719e26","study_id":"60edd13110225f80f9f3709b","session_id":"6196bc52a57ddbb009aa7f72","condition":"full-information","relevant_dimensions":["pattern","legs"],"bee_group":{"antennae":"X","wings":"X","pattern":"D","legs":"M"},"bonus":0.28000000000000114},{"rt":864,"stimulus":"bees-with-color/bee-B2SM.svg","response":0,"trial_type":"image-button-response","trial_index":67,"time_elapsed":285572,"internal_node_id":"0.0-4.0-0.28","subject_id":"60bfcf2d08b0aa1910719e26","study_id":"60edd13110225f80f9f3709b","session_id":"6196bc52a57ddbb009aa7f72","condition":"full-information","relevant_dimensions":["pattern","legs"],"bee_group":{"antennae":"X","wings":"X","pattern":"D","legs":"M"},"action":"harvest","summary":"good-harvest","bonus":0.28000000000000114},{"rt":627,"stimulus":"\n                    <p><b>Action: <em>harvest</em></b></p>\n                    <p>This is the bee that you just saw.</p>\n                    <img src=\"bees-with-color/bee-B2SM.svg\" width=\"200\">\n                    <p><span class=\"greenText\"><b>Successful harvest!</b></span><br>Your pay has increased by $0.02. Your bonus pay is now $0.36.</p>\n            ","response":0,"trial_type":"html-button-response","trial_index":68,"time_elapsed":286199,"internal_node_id":"0.0-4.0-1.28","subject_id":"60bfcf2d08b0aa1910719e26","study_id":"60edd13110225f80f9f3709b","session_id":"6196bc52a57ddbb009aa7f72","condition":"full-information","relevant_dimensions":["pattern","legs"],"bee_group":{"antennae":"X","wings":"X","pattern":"D","legs":"M"},"bonus":0.28000000000000114},{"rt":898,"stimulus":"bees-with-color/bee-A1SF.svg","response":0,"trial_type":"image-button-response","trial_index":69,"time_elapsed":287099,"internal_node_id":"0.0-4.0-0.29","subject_id":"60bfcf2d08b0aa1910719e26","study_id":"60edd13110225f80f9f3709b","session_id":"6196bc52a57ddbb009aa7f72","condition":"full-information","relevant_dimensions":["pattern","legs"],"bee_group":{"antennae":"X","wings":"X","pattern":"D","legs":"M"},"action":"harvest","summary":"good-harvest","bonus":0.28000000000000114},{"rt":773,"stimulus":"\n                    <p><b>Action: <em>harvest</em></b></p>\n                    <p>This is the bee that you just saw.</p>\n                    <img src=\"bees-with-color/bee-A1SF.svg\" width=\"200\">\n                    <p><span class=\"greenText\"><b>Successful harvest!</b></span><br>Your pay has increased by $0.02. Your bonus pay is now $0.38.</p>\n            ","response":0,"trial_type":"html-button-response","trial_index":70,"time_elapsed":287871,"internal_node_id":"0.0-4.0-1.29","subject_id":"60bfcf2d08b0aa1910719e26","study_id":"60edd13110225f80f9f3709b","session_id":"6196bc52a57ddbb009aa7f72","condition":"full-information","relevant_dimensions":["pattern","legs"],"bee_group":{"antennae":"X","wings":"X","pattern":"D","legs":"M"},"bonus":0.28000000000000114},{"rt":818,"stimulus":"bees-with-color/bee-A1DM.svg","response":1,"trial_type":"image-button-response","trial_index":71,"time_elapsed":288690,"internal_node_id":"0.0-4.0-0.30","subject_id":"60bfcf2d08b0aa1910719e26","study_id":"60edd13110225f80f9f3709b","session_id":"6196bc52a57ddbb009aa7f72","condition":"full-information","relevant_dimensions":["pattern","legs"],"bee_group":{"antennae":"X","wings":"X","pattern":"D","legs":"M"},"action":"avoid","summary":"good-avoid","bonus":0.28000000000000114},{"rt":538,"stimulus":"\n                    <p><b>Action: <em>avoid</em></b></p>\n                    <p>This is the bee that you just saw.</p>\n                    <img src=\"bees-with-color/bee-A1DM.svg\" width=\"200\">\n                    <p><span class=\"greenText\">Good choice!</span>  This bee would have stung you.<br>Your bonus pay is unchanged, and remains at $0.38.</p>\n            ","response":0,"trial_type":"html-button-response","trial_index":72,"time_elapsed":289229,"internal_node_id":"0.0-4.0-1.30","subject_id":"60bfcf2d08b0aa1910719e26","study_id":"60edd13110225f80f9f3709b","session_id":"6196bc52a57ddbb009aa7f72","condition":"full-information","relevant_dimensions":["pattern","legs"],"bee_group":{"antennae":"X","wings":"X","pattern":"D","legs":"M"},"bonus":0.28000000000000114},{"rt":913,"stimulus":"bees-with-color/bee-B2DF.svg","response":1,"trial_type":"image-button-response","trial_index":73,"time_elapsed":290143,"internal_node_id":"0.0-4.0-0.31","subject_id":"60bfcf2d08b0aa1910719e26","study_id":"60edd13110225f80f9f3709b","session_id":"6196bc52a57ddbb009aa7f72","condition":"full-information","relevant_dimensions":["pattern","legs"],"bee_group":{"antennae":"X","wings":"X","pattern":"D","legs":"M"},"action":"avoid","summary":"bad-avoid","bonus":0.28000000000000114},{"rt":654,"stimulus":"\n                    <p><b>Action: <em>avoid</em></b></p>\n                    <p>This is the bee that you just saw.</p>\n                    <img src=\"bees-with-color/bee-B2DF.svg\" width=\"200\">\n                    <p><span class=\"redText\">Bad choice,</span> the bee was friendly.<br>Your bonus pay is unchanged, and remains at $0.38.</p>\n            ","response":0,"trial_type":"html-button-response","trial_index":74,"time_elapsed":290799,"internal_node_id":"0.0-4.0-1.31","subject_id":"60bfcf2d08b0aa1910719e26","study_id":"60edd13110225f80f9f3709b","session_id":"6196bc52a57ddbb009aa7f72","condition":"full-information","relevant_dimensions":["pattern","legs"],"bee_group":{"antennae":"X","wings":"X","pattern":"D","legs":"M"},"bonus":0.28000000000000114},{"rt":2336,"stimulus":"bees-with-color/bee-B1DF.svg","response":1,"trial_type":"image-button-response","trial_index":75,"time_elapsed":293135,"internal_node_id":"0.0-4.0-0.32","subject_id":"60bfcf2d08b0aa1910719e26","study_id":"60edd13110225f80f9f3709b","session_id":"6196bc52a57ddbb009aa7f72","condition":"full-information","relevant_dimensions":["pattern","legs"],"bee_group":{"antennae":"X","wings":"X","pattern":"D","legs":"M"},"action":"avoid","summary":"bad-avoid","bonus":0.28000000000000114},{"rt":503,"stimulus":"\n                    <p><b>Action: <em>avoid</em></b></p>\n                    <p>This is the bee that you just saw.</p>\n                    <img src=\"bees-with-color/bee-B1DF.svg\" width=\"200\">\n                    <p><span class=\"redText\">Bad choice,</span> the bee was friendly.<br>Your bonus pay is unchanged, and remains at $0.38.</p>\n            ","response":0,"trial_type":"html-button-response","trial_index":76,"time_elapsed":293637,"internal_node_id":"0.0-4.0-1.32","subject_id":"60bfcf2d08b0aa1910719e26","study_id":"60edd13110225f80f9f3709b","session_id":"6196bc52a57ddbb009aa7f72","condition":"full-information","relevant_dimensions":["pattern","legs"],"bee_group":{"antennae":"X","wings":"X","pattern":"D","legs":"M"},"bonus":0.28000000000000114},{"rt":1233,"stimulus":"bees-with-color/bee-A2DM.svg","response":1,"trial_type":"image-button-response","trial_index":77,"time_elapsed":294870,"internal_node_id":"0.0-4.0-0.33","subject_id":"60bfcf2d08b0aa1910719e26","study_id":"60edd13110225f80f9f3709b","session_id":"6196bc52a57ddbb009aa7f72","condition":"full-information","relevant_dimensions":["pattern","legs"],"bee_group":{"antennae":"X","wings":"X","pattern":"D","legs":"M"},"action":"avoid","summary":"good-avoid","bonus":0.28000000000000114},{"rt":493,"stimulus":"\n                    <p><b>Action: <em>avoid</em></b></p>\n                    <p>This is the bee that you just saw.</p>\n                    <img src=\"bees-with-color/bee-A2DM.svg\" width=\"200\">\n                    <p><span class=\"greenText\">Good choice!</span>  This bee would have stung you.<br>Your bonus pay is unchanged, and remains at $0.38.</p>\n            ","response":0,"trial_type":"html-button-response","trial_index":78,"time_elapsed":295365,"internal_node_id":"0.0-4.0-1.33","subject_id":"60bfcf2d08b0aa1910719e26","study_id":"60edd13110225f80f9f3709b","session_id":"6196bc52a57ddbb009aa7f72","condition":"full-information","relevant_dimensions":["pattern","legs"],"bee_group":{"antennae":"X","wings":"X","pattern":"D","legs":"M"},"bonus":0.28000000000000114},{"rt":2224,"stimulus":"bees-with-color/bee-A1SM.svg","response":0,"trial_type":"image-button-response","trial_index":79,"time_elapsed":297590,"internal_node_id":"0.0-4.0-0.34","subject_id":"60bfcf2d08b0aa1910719e26","study_id":"60edd13110225f80f9f3709b","session_id":"6196bc52a57ddbb009aa7f72","condition":"full-information","relevant_dimensions":["pattern","legs"],"bee_group":{"antennae":"X","wings":"X","pattern":"D","legs":"M"},"action":"harvest","summary":"good-harvest","bonus":0.28000000000000114},{"rt":670,"stimulus":"\n                    <p><b>Action: <em>harvest</em></b></p>\n                    <p>This is the bee that you just saw.</p>\n                    <img src=\"bees-with-color/bee-A1SM.svg\" width=\"200\">\n                    <p><span class=\"greenText\"><b>Successful harvest!</b></span><br>Your pay has increased by $0.02. Your bonus pay is now $0.40.</p>\n            ","response":0,"trial_type":"html-button-response","trial_index":80,"time_elapsed":298260,"internal_node_id":"0.0-4.0-1.34","subject_id":"60bfcf2d08b0aa1910719e26","study_id":"60edd13110225f80f9f3709b","session_id":"6196bc52a57ddbb009aa7f72","condition":"full-information","relevant_dimensions":["pattern","legs"],"bee_group":{"antennae":"X","wings":"X","pattern":"D","legs":"M"},"bonus":0.28000000000000114},{"rt":2556,"stimulus":"bees-with-color/bee-B1DM.svg","response":1,"trial_type":"image-button-response","trial_index":81,"time_elapsed":300817,"internal_node_id":"0.0-4.0-0.35","subject_id":"60bfcf2d08b0aa1910719e26","study_id":"60edd13110225f80f9f3709b","session_id":"6196bc52a57ddbb009aa7f72","condition":"full-information","relevant_dimensions":["pattern","legs"],"bee_group":{"antennae":"X","wings":"X","pattern":"D","legs":"M"},"action":"avoid","summary":"good-avoid","bonus":0.28000000000000114},{"rt":2071,"stimulus":"\n                    <p><b>Action: <em>avoid</em></b></p>\n                    <p>This is the bee that you just saw.</p>\n                    <img src=\"bees-with-color/bee-B1DM.svg\" width=\"200\">\n                    <p><span class=\"greenText\">Good choice!</span>  This bee would have stung you.<br>Your bonus pay is unchanged, and remains at $0.40.</p>\n            ","response":0,"trial_type":"html-button-response","trial_index":82,"time_elapsed":302888,"internal_node_id":"0.0-4.0-1.35","subject_id":"60bfcf2d08b0aa1910719e26","study_id":"60edd13110225f80f9f3709b","session_id":"6196bc52a57ddbb009aa7f72","condition":"full-information","relevant_dimensions":["pattern","legs"],"bee_group":{"antennae":"X","wings":"X","pattern":"D","legs":"M"},"bonus":0.28000000000000114},{"rt":1640,"stimulus":"bees-with-color/bee-B2DF.svg","response":0,"trial_type":"image-button-response","trial_index":83,"time_elapsed":304529,"internal_node_id":"0.0-4.0-0.36","subject_id":"60bfcf2d08b0aa1910719e26","study_id":"60edd13110225f80f9f3709b","session_id":"6196bc52a57ddbb009aa7f72","condition":"full-information","relevant_dimensions":["pattern","legs"],"bee_group":{"antennae":"X","wings":"X","pattern":"D","legs":"M"},"action":"harvest","summary":"good-harvest","bonus":0.28000000000000114},{"rt":643,"stimulus":"\n                    <p><b>Action: <em>harvest</em></b></p>\n                    <p>This is the bee that you just saw.</p>\n                    <img src=\"bees-with-color/bee-B2DF.svg\" width=\"200\">\n                    <p><span class=\"greenText\"><b>Successful harvest!</b></span><br>Your pay has increased by $0.02. Your bonus pay is now $0.42.</p>\n            ","response":0,"trial_type":"html-button-response","trial_index":84,"time_elapsed":305173,"internal_node_id":"0.0-4.0-1.36","subject_id":"60bfcf2d08b0aa1910719e26","study_id":"60edd13110225f80f9f3709b","session_id":"6196bc52a57ddbb009aa7f72","condition":"full-information","relevant_dimensions":["pattern","legs"],"bee_group":{"antennae":"X","wings":"X","pattern":"D","legs":"M"},"bonus":0.28000000000000114},{"rt":1421,"stimulus":"bees-with-color/bee-A2DF.svg","response":0,"trial_type":"image-button-response","trial_index":85,"time_elapsed":306594,"internal_node_id":"0.0-4.0-0.37","subject_id":"60bfcf2d08b0aa1910719e26","study_id":"60edd13110225f80f9f3709b","session_id":"6196bc52a57ddbb009aa7f72","condition":"full-information","relevant_dimensions":["pattern","legs"],"bee_group":{"antennae":"X","wings":"X","pattern":"D","legs":"M"},"action":"harvest","summary":"good-harvest","bonus":0.28000000000000114},{"rt":585,"stimulus":"\n                    <p><b>Action: <em>harvest</em></b></p>\n                    <p>This is the bee that you just saw.</p>\n                    <img src=\"bees-with-color/bee-A2DF.svg\" width=\"200\">\n                    <p><span class=\"greenText\"><b>Successful harvest!</b></span><br>Your pay has increased by $0.02. Your bonus pay is now $0.44.</p>\n            ","response":0,"trial_type":"html-button-response","trial_index":86,"time_elapsed":307180,"internal_node_id":"0.0-4.0-1.37","subject_id":"60bfcf2d08b0aa1910719e26","study_id":"60edd13110225f80f9f3709b","session_id":"6196bc52a57ddbb009aa7f72","condition":"full-information","relevant_dimensions":["pattern","legs"],"bee_group":{"antennae":"X","wings":"X","pattern":"D","legs":"M"},"bonus":0.28000000000000114},{"rt":2139,"stimulus":"bees-with-color/bee-A2SM.svg","response":0,"trial_type":"image-button-response","trial_index":87,"time_elapsed":309319,"internal_node_id":"0.0-4.0-0.38","subject_id":"60bfcf2d08b0aa1910719e26","study_id":"60edd13110225f80f9f3709b","session_id":"6196bc52a57ddbb009aa7f72","condition":"full-information","relevant_dimensions":["pattern","legs"],"bee_group":{"antennae":"X","wings":"X","pattern":"D","legs":"M"},"action":"harvest","summary":"good-harvest","bonus":0.28000000000000114},{"rt":744,"stimulus":"\n                    <p><b>Action: <em>harvest</em></b></p>\n                    <p>This is the bee that you just saw.</p>\n                    <img src=\"bees-with-color/bee-A2SM.svg\" width=\"200\">\n                    <p><span class=\"greenText\"><b>Successful harvest!</b></span><br>Your pay has increased by $0.02. Your bonus pay is now $0.46.</p>\n            ","response":0,"trial_type":"html-button-response","trial_index":88,"time_elapsed":310063,"internal_node_id":"0.0-4.0-1.38","subject_id":"60bfcf2d08b0aa1910719e26","study_id":"60edd13110225f80f9f3709b","session_id":"6196bc52a57ddbb009aa7f72","condition":"full-information","relevant_dimensions":["pattern","legs"],"bee_group":{"antennae":"X","wings":"X","pattern":"D","legs":"M"},"bonus":0.28000000000000114},{"rt":3219,"stimulus":"bees-with-color/bee-A1DF.svg","response":1,"trial_type":"image-button-response","trial_index":89,"time_elapsed":313283,"internal_node_id":"0.0-4.0-0.39","subject_id":"60bfcf2d08b0aa1910719e26","study_id":"60edd13110225f80f9f3709b","session_id":"6196bc52a57ddbb009aa7f72","condition":"full-information","relevant_dimensions":["pattern","legs"],"bee_group":{"antennae":"X","wings":"X","pattern":"D","legs":"M"},"action":"avoid","summary":"bad-avoid","bonus":0.28000000000000114},{"rt":3084,"stimulus":"\n                    <p><b>Action: <em>avoid</em></b></p>\n                    <p>This is the bee that you just saw.</p>\n                    <img src=\"bees-with-color/bee-A1DF.svg\" width=\"200\">\n                    <p><span class=\"redText\">Bad choice,</span> the bee was friendly.<br>Your bonus pay is unchanged, and remains at $0.46.</p>\n            ","response":0,"trial_type":"html-button-response","trial_index":90,"time_elapsed":316369,"internal_node_id":"0.0-4.0-1.39","subject_id":"60bfcf2d08b0aa1910719e26","study_id":"60edd13110225f80f9f3709b","session_id":"6196bc52a57ddbb009aa7f72","condition":"full-information","relevant_dimensions":["pattern","legs"],"bee_group":{"antennae":"X","wings":"X","pattern":"D","legs":"M"},"bonus":0.28000000000000114},{"rt":561,"stimulus":"bees-with-color/bee-A1SF.svg","response":0,"trial_type":"image-button-response","trial_index":91,"time_elapsed":316934,"internal_node_id":"0.0-4.0-0.40","subject_id":"60bfcf2d08b0aa1910719e26","study_id":"60edd13110225f80f9f3709b","session_id":"6196bc52a57ddbb009aa7f72","condition":"full-information","relevant_dimensions":["pattern","legs"],"bee_group":{"antennae":"X","wings":"X","pattern":"D","legs":"M"},"action":"harvest","summary":"good-harvest","bonus":0.28000000000000114},{"rt":1471,"stimulus":"\n                    <p><b>Action: <em>harvest</em></b></p>\n                    <p>This is the bee that you just saw.</p>\n                    <img src=\"bees-with-color/bee-A1SF.svg\" width=\"200\">\n                    <p><span class=\"greenText\"><b>Successful harvest!</b></span><br>Your pay has increased by $0.02. Your bonus pay is now $0.48.</p>\n            ","response":0,"trial_type":"html-button-response","trial_index":92,"time_elapsed":318406,"internal_node_id":"0.0-4.0-1.40","subject_id":"60bfcf2d08b0aa1910719e26","study_id":"60edd13110225f80f9f3709b","session_id":"6196bc52a57ddbb009aa7f72","condition":"full-information","relevant_dimensions":["pattern","legs"],"bee_group":{"antennae":"X","wings":"X","pattern":"D","legs":"M"},"bonus":0.28000000000000114},{"rt":669,"stimulus":"bees-with-color/bee-A2SF.svg","response":0,"trial_type":"image-button-response","trial_index":93,"time_elapsed":319076,"internal_node_id":"0.0-4.0-0.41","subject_id":"60bfcf2d08b0aa1910719e26","study_id":"60edd13110225f80f9f3709b","session_id":"6196bc52a57ddbb009aa7f72","condition":"full-information","relevant_dimensions":["pattern","legs"],"bee_group":{"antennae":"X","wings":"X","pattern":"D","legs":"M"},"action":"harvest","summary":"good-harvest","bonus":0.28000000000000114},{"rt":763,"stimulus":"\n                    <p><b>Action: <em>harvest</em></b></p>\n                    <p>This is the bee that you just saw.</p>\n                    <img src=\"bees-with-color/bee-A2SF.svg\" width=\"200\">\n                    <p><span class=\"greenText\"><b>Successful harvest!</b></span><br>Your pay has increased by $0.02. Your bonus pay is now $0.50.</p>\n            ","response":0,"trial_type":"html-button-response","trial_index":94,"time_elapsed":319840,"internal_node_id":"0.0-4.0-1.41","subject_id":"60bfcf2d08b0aa1910719e26","study_id":"60edd13110225f80f9f3709b","session_id":"6196bc52a57ddbb009aa7f72","condition":"full-information","relevant_dimensions":["pattern","legs"],"bee_group":{"antennae":"X","wings":"X","pattern":"D","legs":"M"},"bonus":0.28000000000000114},{"rt":1020,"stimulus":"bees-with-color/bee-B1SF.svg","response":1,"trial_type":"image-button-response","trial_index":95,"time_elapsed":320861,"internal_node_id":"0.0-4.0-0.42","subject_id":"60bfcf2d08b0aa1910719e26","study_id":"60edd13110225f80f9f3709b","session_id":"6196bc52a57ddbb009aa7f72","condition":"full-information","relevant_dimensions":["pattern","legs"],"bee_group":{"antennae":"X","wings":"X","pattern":"D","legs":"M"},"action":"avoid","summary":"bad-avoid","bonus":0.28000000000000114},{"rt":711,"stimulus":"\n                    <p><b>Action: <em>avoid</em></b></p>\n                    <p>This is the bee that you just saw.</p>\n                    <img src=\"bees-with-color/bee-B1SF.svg\" width=\"200\">\n                    <p><span class=\"redText\">Bad choice,</span> the bee was friendly.<br>Your bonus pay is unchanged, and remains at $0.50.</p>\n            ","response":0,"trial_type":"html-button-response","trial_index":96,"time_elapsed":321573,"internal_node_id":"0.0-4.0-1.42","subject_id":"60bfcf2d08b0aa1910719e26","study_id":"60edd13110225f80f9f3709b","session_id":"6196bc52a57ddbb009aa7f72","condition":"full-information","relevant_dimensions":["pattern","legs"],"bee_group":{"antennae":"X","wings":"X","pattern":"D","legs":"M"},"bonus":0.28000000000000114},{"rt":1416,"stimulus":"bees-with-color/bee-B2SF.svg","response":0,"trial_type":"image-button-response","trial_index":97,"time_elapsed":322990,"internal_node_id":"0.0-4.0-0.43","subject_id":"60bfcf2d08b0aa1910719e26","study_id":"60edd13110225f80f9f3709b","session_id":"6196bc52a57ddbb009aa7f72","condition":"full-information","relevant_dimensions":["pattern","legs"],"bee_group":{"antennae":"X","wings":"X","pattern":"D","legs":"M"},"action":"harvest","summary":"good-harvest","bonus":0.28000000000000114},{"rt":599,"stimulus":"\n                    <p><b>Action: <em>harvest</em></b></p>\n                    <p>This is the bee that you just saw.</p>\n                    <img src=\"bees-with-color/bee-B2SF.svg\" width=\"200\">\n                    <p><span class=\"greenText\"><b>Successful harvest!</b></span><br>Your pay has increased by $0.02. Your bonus pay is now $0.52.</p>\n            ","response":0,"trial_type":"html-button-response","trial_index":98,"time_elapsed":323589,"internal_node_id":"0.0-4.0-1.43","subject_id":"60bfcf2d08b0aa1910719e26","study_id":"60edd13110225f80f9f3709b","session_id":"6196bc52a57ddbb009aa7f72","condition":"full-information","relevant_dimensions":["pattern","legs"],"bee_group":{"antennae":"X","wings":"X","pattern":"D","legs":"M"},"bonus":0.28000000000000114},{"rt":698,"stimulus":"bees-with-color/bee-B1SM.svg","response":0,"trial_type":"image-button-response","trial_index":99,"time_elapsed":324288,"internal_node_id":"0.0-4.0-0.44","subject_id":"60bfcf2d08b0aa1910719e26","study_id":"60edd13110225f80f9f3709b","session_id":"6196bc52a57ddbb009aa7f72","condition":"full-information","relevant_dimensions":["pattern","legs"],"bee_group":{"antennae":"X","wings":"X","pattern":"D","legs":"M"},"action":"harvest","summary":"good-harvest","bonus":0.28000000000000114},{"rt":1792,"stimulus":"\n                    <p><b>Action: <em>harvest</em></b></p>\n                    <p>This is the bee that you just saw.</p>\n                    <img src=\"bees-with-color/bee-B1SM.svg\" width=\"200\">\n                    <p><span class=\"greenText\"><b>Successful harvest!</b></span><br>Your pay has increased by $0.02. Your bonus pay is now $0.54.</p>\n            ","response":0,"trial_type":"html-button-response","trial_index":100,"time_elapsed":326081,"internal_node_id":"0.0-4.0-1.44","subject_id":"60bfcf2d08b0aa1910719e26","study_id":"60edd13110225f80f9f3709b","session_id":"6196bc52a57ddbb009aa7f72","condition":"full-information","relevant_dimensions":["pattern","legs"],"bee_group":{"antennae":"X","wings":"X","pattern":"D","legs":"M"},"bonus":0.28000000000000114},{"rt":1016,"stimulus":"bees-with-color/bee-B2DM.svg","response":1,"trial_type":"image-button-response","trial_index":101,"time_elapsed":327097,"internal_node_id":"0.0-4.0-0.45","subject_id":"60bfcf2d08b0aa1910719e26","study_id":"60edd13110225f80f9f3709b","session_id":"6196bc52a57ddbb009aa7f72","condition":"full-information","relevant_dimensions":["pattern","legs"],"bee_group":{"antennae":"X","wings":"X","pattern":"D","legs":"M"},"action":"avoid","summary":"good-avoid","bonus":0.28000000000000114},{"rt":632,"stimulus":"\n                    <p><b>Action: <em>avoid</em></b></p>\n                    <p>This is the bee that you just saw.</p>\n                    <img src=\"bees-with-color/bee-B2DM.svg\" width=\"200\">\n                    <p><span class=\"greenText\">Good choice!</span>  This bee would have stung you.<br>Your bonus pay is unchanged, and remains at $0.54.</p>\n            ","response":0,"trial_type":"html-button-response","trial_index":102,"time_elapsed":327732,"internal_node_id":"0.0-4.0-1.45","subject_id":"60bfcf2d08b0aa1910719e26","study_id":"60edd13110225f80f9f3709b","session_id":"6196bc52a57ddbb009aa7f72","condition":"full-information","relevant_dimensions":["pattern","legs"],"bee_group":{"antennae":"X","wings":"X","pattern":"D","legs":"M"},"bonus":0.28000000000000114},{"rt":548,"stimulus":"bees-with-color/bee-A1DM.svg","response":0,"trial_type":"image-button-response","trial_index":103,"time_elapsed":328282,"internal_node_id":"0.0-4.0-0.46","subject_id":"60bfcf2d08b0aa1910719e26","study_id":"60edd13110225f80f9f3709b","session_id":"6196bc52a57ddbb009aa7f72","condition":"full-information","relevant_dimensions":["pattern","legs"],"bee_group":{"antennae":"X","wings":"X","pattern":"D","legs":"M"},"action":"harvest","summary":"bad-harvest","bonus":0.28000000000000114},{"rt":884,"stimulus":"\n                    <p><b>Action: <em>harvest</em></b></p>\n                    <p>This is the bee that you just saw.</p>\n                    <img src=\"bees-with-color/bee-A1DM.svg\" width=\"200\">\n                    <p><span class=\"redText\">Bad choice, the bee was angry.</span><br><b>You have been stung!</b><br>Your pay has been decreased by $0.10. Your bonus pay is now $0.44.</p>\n            ","response":0,"trial_type":"html-button-response","trial_index":104,"time_elapsed":329169,"internal_node_id":"0.0-4.0-1.46","subject_id":"60bfcf2d08b0aa1910719e26","study_id":"60edd13110225f80f9f3709b","session_id":"6196bc52a57ddbb009aa7f72","condition":"full-information","relevant_dimensions":["pattern","legs"],"bee_group":{"antennae":"X","wings":"X","pattern":"D","legs":"M"},"bonus":0.28000000000000114},{"rt":970,"stimulus":"bees-with-color/bee-B2SM.svg","response":0,"trial_type":"image-button-response","trial_index":105,"time_elapsed":330139,"internal_node_id":"0.0-4.0-0.47","subject_id":"60bfcf2d08b0aa1910719e26","study_id":"60edd13110225f80f9f3709b","session_id":"6196bc52a57ddbb009aa7f72","condition":"full-information","relevant_dimensions":["pattern","legs"],"bee_group":{"antennae":"X","wings":"X","pattern":"D","legs":"M"},"action":"harvest","summary":"good-harvest","bonus":0.28000000000000114},{"rt":606,"stimulus":"\n                    <p><b>Action: <em>harvest</em></b></p>\n                    <p>This is the bee that you just saw.</p>\n                    <img src=\"bees-with-color/bee-B2SM.svg\" width=\"200\">\n                    <p><span class=\"greenText\"><b>Successful harvest!</b></span><br>Your pay has increased by $0.02. Your bonus pay is now $0.46.</p>\n            ","response":0,"trial_type":"html-button-response","trial_index":106,"time_elapsed":330746,"internal_node_id":"0.0-4.0-1.47","subject_id":"60bfcf2d08b0aa1910719e26","study_id":"60edd13110225f80f9f3709b","session_id":"6196bc52a57ddbb009aa7f72","condition":"full-information","relevant_dimensions":["pattern","legs"],"bee_group":{"antennae":"X","wings":"X","pattern":"D","legs":"M"},"bonus":0.28000000000000114},{"rt":1934,"stimulus":"bees-with-color/bee-A2DF.svg","response":0,"trial_type":"image-button-response","trial_index":107,"time_elapsed":332681,"internal_node_id":"0.0-4.0-0.48","subject_id":"60bfcf2d08b0aa1910719e26","study_id":"60edd13110225f80f9f3709b","session_id":"6196bc52a57ddbb009aa7f72","condition":"full-information","relevant_dimensions":["pattern","legs"],"bee_group":{"antennae":"X","wings":"X","pattern":"D","legs":"M"},"action":"harvest","summary":"good-harvest","bonus":0.28000000000000114},{"rt":511,"stimulus":"\n                    <p><b>Action: <em>harvest</em></b></p>\n                    <p>This is the bee that you just saw.</p>\n                    <img src=\"bees-with-color/bee-A2DF.svg\" width=\"200\">\n                    <p><span class=\"greenText\"><b>Successful harvest!</b></span><br>Your pay has increased by $0.02. Your bonus pay is now $0.48.</p>\n            ","response":0,"trial_type":"html-button-response","trial_index":108,"time_elapsed":333193,"internal_node_id":"0.0-4.0-1.48","subject_id":"60bfcf2d08b0aa1910719e26","study_id":"60edd13110225f80f9f3709b","session_id":"6196bc52a57ddbb009aa7f72","condition":"full-information","relevant_dimensions":["pattern","legs"],"bee_group":{"antennae":"X","wings":"X","pattern":"D","legs":"M"},"bonus":0.28000000000000114},{"rt":1074,"stimulus":"bees-with-color/bee-B1SF.svg","response":1,"trial_type":"image-button-response","trial_index":109,"time_elapsed":334267,"internal_node_id":"0.0-4.0-0.49","subject_id":"60bfcf2d08b0aa1910719e26","study_id":"60edd13110225f80f9f3709b","session_id":"6196bc52a57ddbb009aa7f72","condition":"full-information","relevant_dimensions":["pattern","legs"],"bee_group":{"antennae":"X","wings":"X","pattern":"D","legs":"M"},"action":"avoid","summary":"bad-avoid","bonus":0.28000000000000114},{"rt":550,"stimulus":"\n                    <p><b>Action: <em>avoid</em></b></p>\n                    <p>This is the bee that you just saw.</p>\n                    <img src=\"bees-with-color/bee-B1SF.svg\" width=\"200\">\n                    <p><span class=\"redText\">Bad choice,</span> the bee was friendly.<br>Your bonus pay is unchanged, and remains at $0.48.</p>\n            ","response":0,"trial_type":"html-button-response","trial_index":110,"time_elapsed":334819,"internal_node_id":"0.0-4.0-1.49","subject_id":"60bfcf2d08b0aa1910719e26","study_id":"60edd13110225f80f9f3709b","session_id":"6196bc52a57ddbb009aa7f72","condition":"full-information","relevant_dimensions":["pattern","legs"],"bee_group":{"antennae":"X","wings":"X","pattern":"D","legs":"M"},"bonus":0.28000000000000114},{"rt":697,"stimulus":"bees-with-color/bee-B2DM.svg","response":0,"trial_type":"image-button-response","trial_index":111,"time_elapsed":335517,"internal_node_id":"0.0-4.0-0.50","subject_id":"60bfcf2d08b0aa1910719e26","study_id":"60edd13110225f80f9f3709b","session_id":"6196bc52a57ddbb009aa7f72","condition":"full-information","relevant_dimensions":["pattern","legs"],"bee_group":{"antennae":"X","wings":"X","pattern":"D","legs":"M"},"action":"harvest","summary":"bad-harvest","bonus":0.28000000000000114},{"rt":667,"stimulus":"\n                    <p><b>Action: <em>harvest</em></b></p>\n                    <p>This is the bee that you just saw.</p>\n                    <img src=\"bees-with-color/bee-B2DM.svg\" width=\"200\">\n                    <p><span class=\"redText\">Bad choice, the bee was angry.</span><br><b>You have been stung!</b><br>Your pay has been decreased by $0.10. Your bonus pay is now $0.38.</p>\n            ","response":0,"trial_type":"html-button-response","trial_index":112,"time_elapsed":336184,"internal_node_id":"0.0-4.0-1.50","subject_id":"60bfcf2d08b0aa1910719e26","study_id":"60edd13110225f80f9f3709b","session_id":"6196bc52a57ddbb009aa7f72","condition":"full-information","relevant_dimensions":["pattern","legs"],"bee_group":{"antennae":"X","wings":"X","pattern":"D","legs":"M"},"bonus":0.28000000000000114},{"rt":612,"stimulus":"bees-with-color/bee-B1SM.svg","response":0,"trial_type":"image-button-response","trial_index":113,"time_elapsed":336797,"internal_node_id":"0.0-4.0-0.51","subject_id":"60bfcf2d08b0aa1910719e26","study_id":"60edd13110225f80f9f3709b","session_id":"6196bc52a57ddbb009aa7f72","condition":"full-information","relevant_dimensions":["pattern","legs"],"bee_group":{"antennae":"X","wings":"X","pattern":"D","legs":"M"},"action":"harvest","summary":"good-harvest","bonus":0.28000000000000114},{"rt":729,"stimulus":"\n                    <p><b>Action: <em>harvest</em></b></p>\n                    <p>This is the bee that you just saw.</p>\n                    <img src=\"bees-with-color/bee-B1SM.svg\" width=\"200\">\n                    <p><span class=\"greenText\"><b>Successful harvest!</b></span><br>Your pay has increased by $0.02. Your bonus pay is now $0.40.</p>\n            ","response":0,"trial_type":"html-button-response","trial_index":114,"time_elapsed":337528,"internal_node_id":"0.0-4.0-1.51","subject_id":"60bfcf2d08b0aa1910719e26","study_id":"60edd13110225f80f9f3709b","session_id":"6196bc52a57ddbb009aa7f72","condition":"full-information","relevant_dimensions":["pattern","legs"],"bee_group":{"antennae":"X","wings":"X","pattern":"D","legs":"M"},"bonus":0.28000000000000114},{"rt":3095,"stimulus":"bees-with-color/bee-A2SM.svg","response":0,"trial_type":"image-button-response","trial_index":115,"time_elapsed":340624,"internal_node_id":"0.0-4.0-0.52","subject_id":"60bfcf2d08b0aa1910719e26","study_id":"60edd13110225f80f9f3709b","session_id":"6196bc52a57ddbb009aa7f72","condition":"full-information","relevant_dimensions":["pattern","legs"],"bee_group":{"antennae":"X","wings":"X","pattern":"D","legs":"M"},"action":"harvest","summary":"good-harvest","bonus":0.28000000000000114},{"rt":443,"stimulus":"\n                    <p><b>Action: <em>harvest</em></b></p>\n                    <p>This is the bee that you just saw.</p>\n                    <img src=\"bees-with-color/bee-A2SM.svg\" width=\"200\">\n                    <p><span class=\"greenText\"><b>Successful harvest!</b></span><br>Your pay has increased by $0.02. Your bonus pay is now $0.42.</p>\n            ","response":0,"trial_type":"html-button-response","trial_index":116,"time_elapsed":341066,"internal_node_id":"0.0-4.0-1.52","subject_id":"60bfcf2d08b0aa1910719e26","study_id":"60edd13110225f80f9f3709b","session_id":"6196bc52a57ddbb009aa7f72","condition":"full-information","relevant_dimensions":["pattern","legs"],"bee_group":{"antennae":"X","wings":"X","pattern":"D","legs":"M"},"bonus":0.28000000000000114},{"rt":1012,"stimulus":"bees-with-color/bee-A2DM.svg","response":1,"trial_type":"image-button-response","trial_index":117,"time_elapsed":342078,"internal_node_id":"0.0-4.0-0.53","subject_id":"60bfcf2d08b0aa1910719e26","study_id":"60edd13110225f80f9f3709b","session_id":"6196bc52a57ddbb009aa7f72","condition":"full-information","relevant_dimensions":["pattern","legs"],"bee_group":{"antennae":"X","wings":"X","pattern":"D","legs":"M"},"action":"avoid","summary":"good-avoid","bonus":0.28000000000000114},{"rt":622,"stimulus":"\n                    <p><b>Action: <em>avoid</em></b></p>\n                    <p>This is the bee that you just saw.</p>\n                    <img src=\"bees-with-color/bee-A2DM.svg\" width=\"200\">\n                    <p><span class=\"greenText\">Good choice!</span>  This bee would have stung you.<br>Your bonus pay is unchanged, and remains at $0.42.</p>\n            ","response":0,"trial_type":"html-button-response","trial_index":118,"time_elapsed":342702,"internal_node_id":"0.0-4.0-1.53","subject_id":"60bfcf2d08b0aa1910719e26","study_id":"60edd13110225f80f9f3709b","session_id":"6196bc52a57ddbb009aa7f72","condition":"full-information","relevant_dimensions":["pattern","legs"],"bee_group":{"antennae":"X","wings":"X","pattern":"D","legs":"M"},"bonus":0.28000000000000114},{"rt":989,"stimulus":"bees-with-color/bee-A1SM.svg","response":0,"trial_type":"image-button-response","trial_index":119,"time_elapsed":343691,"internal_node_id":"0.0-4.0-0.54","subject_id":"60bfcf2d08b0aa1910719e26","study_id":"60edd13110225f80f9f3709b","session_id":"6196bc52a57ddbb009aa7f72","condition":"full-information","relevant_dimensions":["pattern","legs"],"bee_group":{"antennae":"X","wings":"X","pattern":"D","legs":"M"},"action":"harvest","summary":"good-harvest","bonus":0.28000000000000114},{"rt":488,"stimulus":"\n                    <p><b>Action: <em>harvest</em></b></p>\n                    <p>This is the bee that you just saw.</p>\n                    <img src=\"bees-with-color/bee-A1SM.svg\" width=\"200\">\n                    <p><span class=\"greenText\"><b>Successful harvest!</b></span><br>Your pay has increased by $0.02. Your bonus pay is now $0.44.</p>\n            ","response":0,"trial_type":"html-button-response","trial_index":120,"time_elapsed":344180,"internal_node_id":"0.0-4.0-1.54","subject_id":"60bfcf2d08b0aa1910719e26","study_id":"60edd13110225f80f9f3709b","session_id":"6196bc52a57ddbb009aa7f72","condition":"full-information","relevant_dimensions":["pattern","legs"],"bee_group":{"antennae":"X","wings":"X","pattern":"D","legs":"M"},"bonus":0.28000000000000114},{"rt":1347,"stimulus":"bees-with-color/bee-B1DF.svg","response":1,"trial_type":"image-button-response","trial_index":121,"time_elapsed":345529,"internal_node_id":"0.0-4.0-0.55","subject_id":"60bfcf2d08b0aa1910719e26","study_id":"60edd13110225f80f9f3709b","session_id":"6196bc52a57ddbb009aa7f72","condition":"full-information","relevant_dimensions":["pattern","legs"],"bee_group":{"antennae":"X","wings":"X","pattern":"D","legs":"M"},"action":"avoid","summary":"bad-avoid","bonus":0.28000000000000114},{"rt":532,"stimulus":"\n                    <p><b>Action: <em>avoid</em></b></p>\n                    <p>This is the bee that you just saw.</p>\n                    <img src=\"bees-with-color/bee-B1DF.svg\" width=\"200\">\n                    <p><span class=\"redText\">Bad choice,</span> the bee was friendly.<br>Your bonus pay is unchanged, and remains at $0.44.</p>\n            ","response":0,"trial_type":"html-button-response","trial_index":122,"time_elapsed":346062,"internal_node_id":"0.0-4.0-1.55","subject_id":"60bfcf2d08b0aa1910719e26","study_id":"60edd13110225f80f9f3709b","session_id":"6196bc52a57ddbb009aa7f72","condition":"full-information","relevant_dimensions":["pattern","legs"],"bee_group":{"antennae":"X","wings":"X","pattern":"D","legs":"M"},"bonus":0.28000000000000114},{"rt":989,"stimulus":"bees-with-color/bee-A2SF.svg","response":0,"trial_type":"image-button-response","trial_index":123,"time_elapsed":347051,"internal_node_id":"0.0-4.0-0.56","subject_id":"60bfcf2d08b0aa1910719e26","study_id":"60edd13110225f80f9f3709b","session_id":"6196bc52a57ddbb009aa7f72","condition":"full-information","relevant_dimensions":["pattern","legs"],"bee_group":{"antennae":"X","wings":"X","pattern":"D","legs":"M"},"action":"harvest","summary":"good-harvest","bonus":0.28000000000000114},{"rt":543,"stimulus":"\n                    <p><b>Action: <em>harvest</em></b></p>\n                    <p>This is the bee that you just saw.</p>\n                    <img src=\"bees-with-color/bee-A2SF.svg\" width=\"200\">\n                    <p><span class=\"greenText\"><b>Successful harvest!</b></span><br>Your pay has increased by $0.02. Your bonus pay is now $0.46.</p>\n            ","response":0,"trial_type":"html-button-response","trial_index":124,"time_elapsed":347595,"internal_node_id":"0.0-4.0-1.56","subject_id":"60bfcf2d08b0aa1910719e26","study_id":"60edd13110225f80f9f3709b","session_id":"6196bc52a57ddbb009aa7f72","condition":"full-information","relevant_dimensions":["pattern","legs"],"bee_group":{"antennae":"X","wings":"X","pattern":"D","legs":"M"},"bonus":0.28000000000000114},{"rt":936,"stimulus":"bees-with-color/bee-B2SF.svg","response":0,"trial_type":"image-button-response","trial_index":125,"time_elapsed":348531,"internal_node_id":"0.0-4.0-0.57","subject_id":"60bfcf2d08b0aa1910719e26","study_id":"60edd13110225f80f9f3709b","session_id":"6196bc52a57ddbb009aa7f72","condition":"full-information","relevant_dimensions":["pattern","legs"],"bee_group":{"antennae":"X","wings":"X","pattern":"D","legs":"M"},"action":"harvest","summary":"good-harvest","bonus":0.28000000000000114},{"rt":523,"stimulus":"\n                    <p><b>Action: <em>harvest</em></b></p>\n                    <p>This is the bee that you just saw.</p>\n                    <img src=\"bees-with-color/bee-B2SF.svg\" width=\"200\">\n                    <p><span class=\"greenText\"><b>Successful harvest!</b></span><br>Your pay has increased by $0.02. Your bonus pay is now $0.48.</p>\n            ","response":0,"trial_type":"html-button-response","trial_index":126,"time_elapsed":349055,"internal_node_id":"0.0-4.0-1.57","subject_id":"60bfcf2d08b0aa1910719e26","study_id":"60edd13110225f80f9f3709b","session_id":"6196bc52a57ddbb009aa7f72","condition":"full-information","relevant_dimensions":["pattern","legs"],"bee_group":{"antennae":"X","wings":"X","pattern":"D","legs":"M"},"bonus":0.28000000000000114},{"rt":951,"stimulus":"bees-with-color/bee-A1DM.svg","response":1,"trial_type":"image-button-response","trial_index":127,"time_elapsed":350007,"internal_node_id":"0.0-4.0-0.58","subject_id":"60bfcf2d08b0aa1910719e26","study_id":"60edd13110225f80f9f3709b","session_id":"6196bc52a57ddbb009aa7f72","condition":"full-information","relevant_dimensions":["pattern","legs"],"bee_group":{"antennae":"X","wings":"X","pattern":"D","legs":"M"},"action":"avoid","summary":"good-avoid","bonus":0.28000000000000114},{"rt":537,"stimulus":"\n                    <p><b>Action: <em>avoid</em></b></p>\n                    <p>This is the bee that you just saw.</p>\n                    <img src=\"bees-with-color/bee-A1DM.svg\" width=\"200\">\n                    <p><span class=\"greenText\">Good choice!</span>  This bee would have stung you.<br>Your bonus pay is unchanged, and remains at $0.48.</p>\n            ","response":0,"trial_type":"html-button-response","trial_index":128,"time_elapsed":350545,"internal_node_id":"0.0-4.0-1.58","subject_id":"60bfcf2d08b0aa1910719e26","study_id":"60edd13110225f80f9f3709b","session_id":"6196bc52a57ddbb009aa7f72","condition":"full-information","relevant_dimensions":["pattern","legs"],"bee_group":{"antennae":"X","wings":"X","pattern":"D","legs":"M"},"bonus":0.28000000000000114},{"rt":1529,"stimulus":"bees-with-color/bee-A1DF.svg","response":1,"trial_type":"image-button-response","trial_index":129,"time_elapsed":352073,"internal_node_id":"0.0-4.0-0.59","subject_id":"60bfcf2d08b0aa1910719e26","study_id":"60edd13110225f80f9f3709b","session_id":"6196bc52a57ddbb009aa7f72","condition":"full-information","relevant_dimensions":["pattern","legs"],"bee_group":{"antennae":"X","wings":"X","pattern":"D","legs":"M"},"action":"avoid","summary":"bad-avoid","bonus":0.28000000000000114},{"rt":522,"stimulus":"\n                    <p><b>Action: <em>avoid</em></b></p>\n                    <p>This is the bee that you just saw.</p>\n                    <img src=\"bees-with-color/bee-A1DF.svg\" width=\"200\">\n                    <p><span class=\"redText\">Bad choice,</span> the bee was friendly.<br>Your bonus pay is unchanged, and remains at $0.48.</p>\n            ","response":0,"trial_type":"html-button-response","trial_index":130,"time_elapsed":352597,"internal_node_id":"0.0-4.0-1.59","subject_id":"60bfcf2d08b0aa1910719e26","study_id":"60edd13110225f80f9f3709b","session_id":"6196bc52a57ddbb009aa7f72","condition":"full-information","relevant_dimensions":["pattern","legs"],"bee_group":{"antennae":"X","wings":"X","pattern":"D","legs":"M"},"bonus":0.28000000000000114},{"rt":841,"stimulus":"bees-with-color/bee-B2SM.svg","response":0,"trial_type":"image-button-response","trial_index":131,"time_elapsed":353439,"internal_node_id":"0.0-4.0-0.60","subject_id":"60bfcf2d08b0aa1910719e26","study_id":"60edd13110225f80f9f3709b","session_id":"6196bc52a57ddbb009aa7f72","condition":"full-information","relevant_dimensions":["pattern","legs"],"bee_group":{"antennae":"X","wings":"X","pattern":"D","legs":"M"},"action":"harvest","summary":"good-harvest","bonus":0.28000000000000114},{"rt":525,"stimulus":"\n                    <p><b>Action: <em>harvest</em></b></p>\n                    <p>This is the bee that you just saw.</p>\n                    <img src=\"bees-with-color/bee-B2SM.svg\" width=\"200\">\n                    <p><span class=\"greenText\"><b>Successful harvest!</b></span><br>Your pay has increased by $0.02. Your bonus pay is now $0.50.</p>\n            ","response":0,"trial_type":"html-button-response","trial_index":132,"time_elapsed":353965,"internal_node_id":"0.0-4.0-1.60","subject_id":"60bfcf2d08b0aa1910719e26","study_id":"60edd13110225f80f9f3709b","session_id":"6196bc52a57ddbb009aa7f72","condition":"full-information","relevant_dimensions":["pattern","legs"],"bee_group":{"antennae":"X","wings":"X","pattern":"D","legs":"M"},"bonus":0.28000000000000114},{"rt":1201,"stimulus":"bees-with-color/bee-B2DF.svg","response":1,"trial_type":"image-button-response","trial_index":133,"time_elapsed":355167,"internal_node_id":"0.0-4.0-0.61","subject_id":"60bfcf2d08b0aa1910719e26","study_id":"60edd13110225f80f9f3709b","session_id":"6196bc52a57ddbb009aa7f72","condition":"full-information","relevant_dimensions":["pattern","legs"],"bee_group":{"antennae":"X","wings":"X","pattern":"D","legs":"M"},"action":"avoid","summary":"bad-avoid","bonus":0.28000000000000114},{"rt":508,"stimulus":"\n                    <p><b>Action: <em>avoid</em></b></p>\n                    <p>This is the bee that you just saw.</p>\n                    <img src=\"bees-with-color/bee-B2DF.svg\" width=\"200\">\n                    <p><span class=\"redText\">Bad choice,</span> the bee was friendly.<br>Your bonus pay is unchanged, and remains at $0.50.</p>\n            ","response":0,"trial_type":"html-button-response","trial_index":134,"time_elapsed":355675,"internal_node_id":"0.0-4.0-1.61","subject_id":"60bfcf2d08b0aa1910719e26","study_id":"60edd13110225f80f9f3709b","session_id":"6196bc52a57ddbb009aa7f72","condition":"full-information","relevant_dimensions":["pattern","legs"],"bee_group":{"antennae":"X","wings":"X","pattern":"D","legs":"M"},"bonus":0.28000000000000114},{"rt":650,"stimulus":"bees-with-color/bee-B1DM.svg","response":0,"trial_type":"image-button-response","trial_index":135,"time_elapsed":356327,"internal_node_id":"0.0-4.0-0.62","subject_id":"60bfcf2d08b0aa1910719e26","study_id":"60edd13110225f80f9f3709b","session_id":"6196bc52a57ddbb009aa7f72","condition":"full-information","relevant_dimensions":["pattern","legs"],"bee_group":{"antennae":"X","wings":"X","pattern":"D","legs":"M"},"action":"harvest","summary":"bad-harvest","bonus":0.28000000000000114},{"rt":656,"stimulus":"\n                    <p><b>Action: <em>harvest</em></b></p>\n                    <p>This is the bee that you just saw.</p>\n                    <img src=\"bees-with-color/bee-B1DM.svg\" width=\"200\">\n                    <p><span class=\"redText\">Bad choice, the bee was angry.</span><br><b>You have been stung!</b><br>Your pay has been decreased by $0.10. Your bonus pay is now $0.40.</p>\n            ","response":0,"trial_type":"html-button-response","trial_index":136,"time_elapsed":356984,"internal_node_id":"0.0-4.0-1.62","subject_id":"60bfcf2d08b0aa1910719e26","study_id":"60edd13110225f80f9f3709b","session_id":"6196bc52a57ddbb009aa7f72","condition":"full-information","relevant_dimensions":["pattern","legs"],"bee_group":{"antennae":"X","wings":"X","pattern":"D","legs":"M"},"bonus":0.28000000000000114},{"rt":415,"stimulus":"bees-with-color/bee-A1SF.svg","response":0,"trial_type":"image-button-response","trial_index":137,"time_elapsed":357399,"internal_node_id":"0.0-4.0-0.63","subject_id":"60bfcf2d08b0aa1910719e26","study_id":"60edd13110225f80f9f3709b","session_id":"6196bc52a57ddbb009aa7f72","condition":"full-information","relevant_dimensions":["pattern","legs"],"bee_group":{"antennae":"X","wings":"X","pattern":"D","legs":"M"},"action":"harvest","summary":"good-harvest","bonus":0.28000000000000114},{"rt":684,"stimulus":"\n                    <p><b>Action: <em>harvest</em></b></p>\n                    <p>This is the bee that you just saw.</p>\n                    <img src=\"bees-with-color/bee-A1SF.svg\" width=\"200\">\n                    <p><span class=\"greenText\"><b>Successful harvest!</b></span><br>Your pay has increased by $0.02. Your bonus pay is now $0.42.</p>\n            ","response":0,"trial_type":"html-button-response","trial_index":138,"time_elapsed":358084,"internal_node_id":"0.0-4.0-1.63","subject_id":"60bfcf2d08b0aa1910719e26","study_id":"60edd13110225f80f9f3709b","session_id":"6196bc52a57ddbb009aa7f72","condition":"full-information","relevant_dimensions":["pattern","legs"],"bee_group":{"antennae":"X","wings":"X","pattern":"D","legs":"M"},"bonus":0.28000000000000114},{"rt":2808,"stimulus":"You have completed the first part of this experiment.<br><br>You will now begin a shorter second part, in which you will receive no feedback.<br>The same rules regarding bonus pay apply.<br><br>Press any key to begin.","response":"b","trial_type":"html-keyboard-response","trial_index":139,"time_elapsed":360893,"internal_node_id":"0.0-5.0","subject_id":"60bfcf2d08b0aa1910719e26","study_id":"60edd13110225f80f9f3709b","session_id":"6196bc52a57ddbb009aa7f72","condition":"full-information","relevant_dimensions":["pattern","legs"],"bee_group":{"antennae":"X","wings":"X","pattern":"D","legs":"M"},"bonus":0.28000000000000114},{"rt":2207,"stimulus":"bees-with-color/bee-B2DM.svg","response":0,"trial_type":"image-button-response","trial_index":140,"time_elapsed":363103,"internal_node_id":"0.0-6.0-0.0","subject_id":"60bfcf2d08b0aa1910719e26","study_id":"60edd13110225f80f9f3709b","session_id":"6196bc52a57ddbb009aa7f72","condition":"full-information","relevant_dimensions":["pattern","legs"],"bee_group":{"antennae":"X","wings":"X","pattern":"D","legs":"M"},"bonus":0.28000000000000114},{"rt":1669,"stimulus":"bees-with-color/bee-B2SF.svg","response":1,"trial_type":"image-button-response","trial_index":141,"time_elapsed":364772,"internal_node_id":"0.0-6.0-0.1","subject_id":"60bfcf2d08b0aa1910719e26","study_id":"60edd13110225f80f9f3709b","session_id":"6196bc52a57ddbb009aa7f72","condition":"full-information","relevant_dimensions":["pattern","legs"],"bee_group":{"antennae":"X","wings":"X","pattern":"D","legs":"M"},"bonus":0.28000000000000114},{"rt":546,"stimulus":"bees-with-color/bee-B1SM.svg","response":0,"trial_type":"image-button-response","trial_index":142,"time_elapsed":365320,"internal_node_id":"0.0-6.0-0.2","subject_id":"60bfcf2d08b0aa1910719e26","study_id":"60edd13110225f80f9f3709b","session_id":"6196bc52a57ddbb009aa7f72","condition":"full-information","relevant_dimensions":["pattern","legs"],"bee_group":{"antennae":"X","wings":"X","pattern":"D","legs":"M"},"bonus":0.28000000000000114},{"rt":1934,"stimulus":"bees-with-color/bee-B2DF.svg","response":0,"trial_type":"image-button-response","trial_index":143,"time_elapsed":367255,"internal_node_id":"0.0-6.0-0.3","subject_id":"60bfcf2d08b0aa1910719e26","study_id":"60edd13110225f80f9f3709b","session_id":"6196bc52a57ddbb009aa7f72","condition":"full-information","relevant_dimensions":["pattern","legs"],"bee_group":{"antennae":"X","wings":"X","pattern":"D","legs":"M"},"bonus":0.28000000000000114},{"rt":1485,"stimulus":"bees-with-color/bee-B1DM.svg","response":1,"trial_type":"image-button-response","trial_index":144,"time_elapsed":368741,"internal_node_id":"0.0-6.0-0.4","subject_id":"60bfcf2d08b0aa1910719e26","study_id":"60edd13110225f80f9f3709b","session_id":"6196bc52a57ddbb009aa7f72","condition":"full-information","relevant_dimensions":["pattern","legs"],"bee_group":{"antennae":"X","wings":"X","pattern":"D","legs":"M"},"bonus":0.28000000000000114},{"rt":6170,"stimulus":"bees-with-color/bee-A1SF.svg","response":1,"trial_type":"image-button-response","trial_index":145,"time_elapsed":374911,"internal_node_id":"0.0-6.0-0.5","subject_id":"60bfcf2d08b0aa1910719e26","study_id":"60edd13110225f80f9f3709b","session_id":"6196bc52a57ddbb009aa7f72","condition":"full-information","relevant_dimensions":["pattern","legs"],"bee_group":{"antennae":"X","wings":"X","pattern":"D","legs":"M"},"bonus":0.28000000000000114},{"rt":3416,"stimulus":"bees-with-color/bee-B1DF.svg","response":0,"trial_type":"image-button-response","trial_index":146,"time_elapsed":378329,"internal_node_id":"0.0-6.0-0.6","subject_id":"60bfcf2d08b0aa1910719e26","study_id":"60edd13110225f80f9f3709b","session_id":"6196bc52a57ddbb009aa7f72","condition":"full-information","relevant_dimensions":["pattern","legs"],"bee_group":{"antennae":"X","wings":"X","pattern":"D","legs":"M"},"bonus":0.28000000000000114},{"rt":3393,"stimulus":"bees-with-color/bee-A1DF.svg","response":0,"trial_type":"image-button-response","trial_index":147,"time_elapsed":381723,"internal_node_id":"0.0-6.0-0.7","subject_id":"60bfcf2d08b0aa1910719e26","study_id":"60edd13110225f80f9f3709b","session_id":"6196bc52a57ddbb009aa7f72","condition":"full-information","relevant_dimensions":["pattern","legs"],"bee_group":{"antennae":"X","wings":"X","pattern":"D","legs":"M"},"bonus":0.28000000000000114},{"rt":861,"stimulus":"bees-with-color/bee-A1SM.svg","response":0,"trial_type":"image-button-response","trial_index":148,"time_elapsed":382586,"internal_node_id":"0.0-6.0-0.8","subject_id":"60bfcf2d08b0aa1910719e26","study_id":"60edd13110225f80f9f3709b","session_id":"6196bc52a57ddbb009aa7f72","condition":"full-information","relevant_dimensions":["pattern","legs"],"bee_group":{"antennae":"X","wings":"X","pattern":"D","legs":"M"},"bonus":0.28000000000000114},{"rt":1787,"stimulus":"bees-with-color/bee-A1DM.svg","response":1,"trial_type":"image-button-response","trial_index":149,"time_elapsed":384374,"internal_node_id":"0.0-6.0-0.9","subject_id":"60bfcf2d08b0aa1910719e26","study_id":"60edd13110225f80f9f3709b","session_id":"6196bc52a57ddbb009aa7f72","condition":"full-information","relevant_dimensions":["pattern","legs"],"bee_group":{"antennae":"X","wings":"X","pattern":"D","legs":"M"},"bonus":0.28000000000000114},{"rt":2973,"stimulus":"bees-with-color/bee-A2SF.svg","response":1,"trial_type":"image-button-response","trial_index":150,"time_elapsed":387348,"internal_node_id":"0.0-6.0-0.10","subject_id":"60bfcf2d08b0aa1910719e26","study_id":"60edd13110225f80f9f3709b","session_id":"6196bc52a57ddbb009aa7f72","condition":"full-information","relevant_dimensions":["pattern","legs"],"bee_group":{"antennae":"X","wings":"X","pattern":"D","legs":"M"},"bonus":0.28000000000000114},{"rt":566,"stimulus":"bees-with-color/bee-A2DF.svg","response":1,"trial_type":"image-button-response","trial_index":151,"time_elapsed":387915,"internal_node_id":"0.0-6.0-0.11","subject_id":"60bfcf2d08b0aa1910719e26","study_id":"60edd13110225f80f9f3709b","session_id":"6196bc52a57ddbb009aa7f72","condition":"full-information","relevant_dimensions":["pattern","legs"],"bee_group":{"antennae":"X","wings":"X","pattern":"D","legs":"M"},"bonus":0.28000000000000114},{"rt":1270,"stimulus":"bees-with-color/bee-B1SF.svg","response":0,"trial_type":"image-button-response","trial_index":152,"time_elapsed":389187,"internal_node_id":"0.0-6.0-0.12","subject_id":"60bfcf2d08b0aa1910719e26","study_id":"60edd13110225f80f9f3709b","session_id":"6196bc52a57ddbb009aa7f72","condition":"full-information","relevant_dimensions":["pattern","legs"],"bee_group":{"antennae":"X","wings":"X","pattern":"D","legs":"M"},"bonus":0.28000000000000114},{"rt":2536,"stimulus":"bees-with-color/bee-A2DM.svg","response":0,"trial_type":"image-button-response","trial_index":153,"time_elapsed":391725,"internal_node_id":"0.0-6.0-0.13","subject_id":"60bfcf2d08b0aa1910719e26","study_id":"60edd13110225f80f9f3709b","session_id":"6196bc52a57ddbb009aa7f72","condition":"full-information","relevant_dimensions":["pattern","legs"],"bee_group":{"antennae":"X","wings":"X","pattern":"D","legs":"M"},"bonus":0.28000000000000114},{"rt":1653,"stimulus":"bees-with-color/bee-B2SM.svg","response":1,"trial_type":"image-button-response","trial_index":154,"time_elapsed":393380,"internal_node_id":"0.0-6.0-0.14","subject_id":"60bfcf2d08b0aa1910719e26","study_id":"60edd13110225f80f9f3709b","session_id":"6196bc52a57ddbb009aa7f72","condition":"full-information","relevant_dimensions":["pattern","legs"],"bee_group":{"antennae":"X","wings":"X","pattern":"D","legs":"M"},"bonus":0.28000000000000114},{"rt":622,"stimulus":"bees-with-color/bee-A2SM.svg","response":0,"trial_type":"image-button-response","trial_index":155,"time_elapsed":394004,"internal_node_id":"0.0-6.0-0.15","subject_id":"60bfcf2d08b0aa1910719e26","study_id":"60edd13110225f80f9f3709b","session_id":"6196bc52a57ddbb009aa7f72","condition":"full-information","relevant_dimensions":["pattern","legs"],"bee_group":{"antennae":"X","wings":"X","pattern":"D","legs":"M"},"bonus":0.28000000000000114},{"rt":1386,"stimulus":"bees-with-color/bee-A1DF.svg","response":1,"trial_type":"image-button-response","trial_index":156,"time_elapsed":395391,"internal_node_id":"0.0-6.0-0.16","subject_id":"60bfcf2d08b0aa1910719e26","study_id":"60edd13110225f80f9f3709b","session_id":"6196bc52a57ddbb009aa7f72","condition":"full-information","relevant_dimensions":["pattern","legs"],"bee_group":{"antennae":"X","wings":"X","pattern":"D","legs":"M"},"bonus":0.28000000000000114},{"rt":392,"stimulus":"bees-with-color/bee-B1DF.svg","response":0,"trial_type":"image-button-response","trial_index":157,"time_elapsed":395786,"internal_node_id":"0.0-6.0-0.17","subject_id":"60bfcf2d08b0aa1910719e26","study_id":"60edd13110225f80f9f3709b","session_id":"6196bc52a57ddbb009aa7f72","condition":"full-information","relevant_dimensions":["pattern","legs"],"bee_group":{"antennae":"X","wings":"X","pattern":"D","legs":"M"},"bonus":0.28000000000000114},{"rt":706,"stimulus":"bees-with-color/bee-B2DF.svg","response":0,"trial_type":"image-button-response","trial_index":158,"time_elapsed":396494,"internal_node_id":"0.0-6.0-0.18","subject_id":"60bfcf2d08b0aa1910719e26","study_id":"60edd13110225f80f9f3709b","session_id":"6196bc52a57ddbb009aa7f72","condition":"full-information","relevant_dimensions":["pattern","legs"],"bee_group":{"antennae":"X","wings":"X","pattern":"D","legs":"M"},"bonus":0.28000000000000114},{"rt":857,"stimulus":"