[{"success":true,"trial_type":"fullscreen","trial_index":0,"time_elapsed":503465,"internal_node_id":"0.0-0.0","subject_id":"613ab0960ff3efd039adf1e0","study_id":"6197b3f67c2b5cd3b6d9596a","session_id":"619beefc0b8e32c4e0b6a88a","condition":"full-information","relevant_dimensions":["wings","legs"],"bee_group":{"antennae":"X","wings":"2","pattern":"X","legs":"M"},"bonus":0.12000000000000001},{"success":true,"timeout":false,"failed_images":[],"failed_audio":[],"failed_video":[],"trial_type":"preload","trial_index":1,"time_elapsed":505298,"internal_node_id":"0.0-1.0","subject_id":"613ab0960ff3efd039adf1e0","study_id":"6197b3f67c2b5cd3b6d9596a","session_id":"619beefc0b8e32c4e0b6a88a","condition":"full-information","relevant_dimensions":["wings","legs"],"bee_group":{"antennae":"X","wings":"2","pattern":"X","legs":"M"},"bonus":0.12000000000000001},{"rt":3482.699999988079,"stimulus":"Welcome! Press any key to begin.","response":" ","trial_type":"html-keyboard-response","trial_index":2,"time_elapsed":508783,"internal_node_id":"0.0-2.0","subject_id":"613ab0960ff3efd039adf1e0","study_id":"6197b3f67c2b5cd3b6d9596a","session_id":"619beefc0b8e32c4e0b6a88a","condition":"full-information","relevant_dimensions":["wings","legs"],"bee_group":{"antennae":"X","wings":"2","pattern":"X","legs":"M"},"bonus":0.12000000000000001},{"view_history":[{"page_index":0,"viewing_time":46650.69999998808},{"page_index":1,"viewing_time":14543.5},{"page_index":2,"viewing_time":4824.200000047684},{"page_index":3,"viewing_time":10481},{"page_index":4,"viewing_time":4199},{"page_index":5,"viewing_time":4320},{"page_index":6,"viewing_time":6624},{"page_index":7,"viewing_time":6231.899999976158},{"page_index":8,"viewing_time":4896.199999988079},{"page_index":9,"viewing_time":2602.900000035763},{"page_index":10,"viewing_time":2494.599999964237},{"page_index":11,"viewing_time":6950.400000035763},{"page_index":12,"viewing_time":17527.69999998808},{"page_index":13,"viewing_time":1376.3999999761581},{"page_index":14,"viewing_time":2343.800000011921}],"rt":136067,"trial_type":"instructions","trial_index":3,"time_elapsed":644850,"internal_node_id":"0.0-3.0-0.0","subject_id":"613ab0960ff3efd039adf1e0","study_id":"6197b3f67c2b5cd3b6d9596a","session_id":"619beefc0b8e32c4e0b6a88a","condition":"full-information","relevant_dimensions":["wings","legs"],"bee_group":{"antennae":"X","wings":"2","pattern":"X","legs":"M"},"bonus":0.12000000000000001},{"rt":9679,"response":{"Q0":["Two or six legs","Stripes or spots on body","Single or double wings","Antennae or no antennae"]},"question_order":[0],"trial_type":"survey-multi-select","trial_index":4,"time_elapsed":654540,"internal_node_id":"0.0-3.0-1.0","subject_id":"613ab0960ff3efd039adf1e0","study_id":"6197b3f67c2b5cd3b6d9596a","session_id":"619beefc0b8e32c4e0b6a88a","condition":"full-information","relevant_dimensions":["wings","legs"],"bee_group":{"antennae":"X","wings":"2","pattern":"X","legs":"M"},"correct":true,"bonus":0.12000000000000001},{"rt":17570.100000023842,"response":{"Q1":"No.","Q2":"Based on the four features of the bee.","Q3":"You learn if it was friendly or dangerous, but do not alter your bonus."},"question_order":[0,1,2],"trial_type":"survey-multi-choice","trial_index":5,"time_elapsed":672124,"internal_node_id":"0.0-3.0-2.0","subject_id":"613ab0960ff3efd039adf1e0","study_id":"6197b3f67c2b5cd3b6d9596a","session_id":"619beefc0b8e32c4e0b6a88a","condition":"full-information","relevant_dimensions":["wings","legs"],"bee_group":{"antennae":"X","wings":"2","pattern":"X","legs":"M"},"correct":true,"bonus":0.12000000000000001},{"rt":2114.900000035763,"stimulus":"<p>Congrats, you got everything right<br>When you're ready, click the button below to continue to the experiment.</p>","response":0,"trial_type":"html-button-response","trial_index":6,"time_elapsed":674251,"internal_node_id":"0.0-3.0-3.0","subject_id":"613ab0960ff3efd039adf1e0","study_id":"6197b3f67c2b5cd3b6d9596a","session_id":"619beefc0b8e32c4e0b6a88a","condition":"full-information","relevant_dimensions":["wings","legs"],"bee_group":{"antennae":"X","wings":"2","pattern":"X","legs":"M"},"bonus":0.12000000000000001},{"rt":3129.300000011921,"stimulus":"bees-with-color/bee-B2DM.svg","response":0,"trial_type":"image-button-response","trial_index":7,"time_elapsed":677387,"internal_node_id":"0.0-4.0-0.0","subject_id":"613ab0960ff3efd039adf1e0","study_id":"6197b3f67c2b5cd3b6d9596a","session_id":"619beefc0b8e32c4e0b6a88a","condition":"full-information","relevant_dimensions":["wings","legs"],"bee_group":{"antennae":"X","wings":"2","pattern":"X","legs":"M"},"action":"harvest","summary":"bad-harvest","bonus":0.12000000000000001},{"rt":11385.600000023842,"stimulus":"\n                    <p><b>Action: <em>harvest</em></b></p>\n                    <p>This is the bee that you just saw.</p>\n                    <img src=\"bees-with-color/bee-B2DM.svg\" width=\"200\">\n                    <p><span class=\"redText\">Bad choice, the bee was angry.</span><br><b>You have been stung!</b><br>Your pay has been decreased by $0.10. Your bonus pay is now $0.44.</p>\n            ","response":0,"trial_type":"html-button-response","trial_index":8,"time_elapsed":688781,"internal_node_id":"0.0-4.0-1.0","subject_id":"613ab0960ff3efd039adf1e0","study_id":"6197b3f67c2b5cd3b6d9596a","session_id":"619beefc0b8e32c4e0b6a88a","condition":"full-information","relevant_dimensions":["wings","legs"],"bee_group":{"antennae":"X","wings":"2","pattern":"X","legs":"M"},"bonus":0.12000000000000001},{"rt":7457,"stimulus":"bees-with-color/bee-A2DF.svg","response":0,"trial_type":"image-button-response","trial_index":9,"time_elapsed":696244,"internal_node_id":"0.0-4.0-0.1","subject_id":"613ab0960ff3efd039adf1e0","study_id":"6197b3f67c2b5cd3b6d9596a","session_id":"619beefc0b8e32c4e0b6a88a","condition":"full-information","relevant_dimensions":["wings","legs"],"bee_group":{"antennae":"X","wings":"2","pattern":"X","legs":"M"},"action":"harvest","summary":"good-harvest","bonus":0.12000000000000001},{"rt":11923.400000035763,"stimulus":"\n                    <p><b>Action: <em>harvest</em></b></p>\n                    <p>This is the bee that you just saw.</p>\n                    <img src=\"bees-with-color/bee-A2DF.svg\" width=\"200\">\n                    <p><span class=\"greenText\"><b>Successful harvest!</b></span><br>Your pay has increased by $0.02. Your bonus pay is now $0.46.</p>\n            ","response":0,"trial_type":"html-button-response","trial_index":10,"time_elapsed":708172,"internal_node_id":"0.0-4.0-1.1","subject_id":"613ab0960ff3efd039adf1e0","study_id":"6197b3f67c2b5cd3b6d9596a","session_id":"619beefc0b8e32c4e0b6a88a","condition":"full-information","relevant_dimensions":["wings","legs"],"bee_group":{"antennae":"X","wings":"2","pattern":"X","legs":"M"},"bonus":0.12000000000000001},{"rt":2945.600000023842,"stimulus":"bees-with-color/bee-A1SF.svg","response":0,"trial_type":"image-button-response","trial_index":11,"time_elapsed":711124,"internal_node_id":"0.0-4.0-0.2","subject_id":"613ab0960ff3efd039adf1e0","study_id":"6197b3f67c2b5cd3b6d9596a","session_id":"619beefc0b8e32c4e0b6a88a","condition":"full-information","relevant_dimensions":["wings","legs"],"bee_group":{"antennae":"X","wings":"2","pattern":"X","legs":"M"},"action":"harvest","summary":"good-harvest","bonus":0.12000000000000001},{"rt":5496.600000023842,"stimulus":"\n                    <p><b>Action: <em>harvest</em></b></p>\n                    <p>This is the bee that you just saw.</p>\n                    <img src=\"bees-with-color/bee-A1SF.svg\" width=\"200\">\n                    <p><span class=\"greenText\"><b>Successful harvest!</b></span><br>Your pay has increased by $0.02. Your bonus pay is now $0.48.</p>\n            ","response":0,"trial_type":"html-button-response","trial_index":12,"time_elapsed":716628,"internal_node_id":"0.0-4.0-1.2","subject_id":"613ab0960ff3efd039adf1e0","study_id":"6197b3f67c2b5cd3b6d9596a","session_id":"619beefc0b8e32c4e0b6a88a","condition":"full-information","relevant_dimensions":["wings","legs"],"bee_group":{"antennae":"X","wings":"2","pattern":"X","legs":"M"},"bonus":0.12000000000000001},{"rt":12874.300000011921,"stimulus":"bees-with-color/bee-B1SF.svg","response":1,"trial_type":"image-button-response","trial_index":13,"time_elapsed":729509,"internal_node_id":"0.0-4.0-0.3","subject_id":"613ab0960ff3efd039adf1e0","study_id":"6197b3f67c2b5cd3b6d9596a","session_id":"619beefc0b8e32c4e0b6a88a","condition":"full-information","relevant_dimensions":["wings","legs"],"bee_group":{"antennae":"X","wings":"2","pattern":"X","legs":"M"},"action":"avoid","summary":"bad-avoid","bonus":0.12000000000000001},{"rt":13027.399999976158,"stimulus":"\n                    <p><b>Action: <em>avoid</em></b></p>\n                    <p>This is the bee that you just saw.</p>\n                    <img src=\"bees-with-color/bee-B1SF.svg\" width=\"200\">\n                    <p><span class=\"redText\">Bad choice,</span> the bee was friendly.<br>Your bonus pay is unchanged, and remains at $0.48.</p>\n            ","response":0,"trial_type":"html-button-response","trial_index":14,"time_elapsed":742540,"internal_node_id":"0.0-4.0-1.3","subject_id":"613ab0960ff3efd039adf1e0","study_id":"6197b3f67c2b5cd3b6d9596a","session_id":"619beefc0b8e32c4e0b6a88a","condition":"full-information","relevant_dimensions":["wings","legs"],"bee_group":{"antennae":"X","wings":"2","pattern":"X","legs":"M"},"bonus":0.12000000000000001},{"rt":1251.6000000238419,"stimulus":"bees-with-color/bee-A1DF.svg","response":0,"trial_type":"image-button-response","trial_index":15,"time_elapsed":743797,"internal_node_id":"0.0-4.0-0.4","subject_id":"613ab0960ff3efd039adf1e0","study_id":"6197b3f67c2b5cd3b6d9596a","session_id":"619beefc0b8e32c4e0b6a88a","condition":"full-information","relevant_dimensions":["wings","legs"],"bee_group":{"antennae":"X","wings":"2","pattern":"X","legs":"M"},"action":"harvest","summary":"good-harvest","bonus":0.12000000000000001},{"rt":4827.899999976158,"stimulus":"\n                    <p><b>Action: <em>harvest</em></b></p>\n                    <p>This is the bee that you just saw.</p>\n                    <img src=\"bees-with-color/bee-A1DF.svg\" width=\"200\">\n                    <p><span class=\"greenText\"><b>Successful harvest!</b></span><br>Your pay has increased by $0.02. Your bonus pay is now $0.50.</p>\n            ","response":0,"trial_type":"html-button-response","trial_index":16,"time_elapsed":748630,"internal_node_id":"0.0-4.0-1.4","subject_id":"613ab0960ff3efd039adf1e0","study_id":"6197b3f67c2b5cd3b6d9596a","session_id":"619beefc0b8e32c4e0b6a88a","condition":"full-information","relevant_dimensions":["wings","legs"],"bee_group":{"antennae":"X","wings":"2","pattern":"X","legs":"M"},"bonus":0.12000000000000001},{"rt":1561.3999999761581,"stimulus":"bees-with-color/bee-B1SM.svg","response":1,"trial_type":"image-button-response","trial_index":17,"time_elapsed":750197,"internal_node_id":"0.0-4.0-0.5","subject_id":"613ab0960ff3efd039adf1e0","study_id":"6197b3f67c2b5cd3b6d9596a","session_id":"619beefc0b8e32c4e0b6a88a","condition":"full-information","relevant_dimensions":["wings","legs"],"bee_group":{"antennae":"X","wings":"2","pattern":"X","legs":"M"},"action":"avoid","summary":"bad-avoid","bonus":0.12000000000000001},{"rt":35882.5,"stimulus":"\n                    <p><b>Action: <em>avoid</em></b></p>\n                    <p>This is the bee that you just saw.</p>\n                    <img src=\"bees-with-color/bee-B1SM.svg\" width=\"200\">\n                    <p><span class=\"redText\">Bad choice,</span> the bee was friendly.<br>Your bonus pay is unchanged, and remains at $0.50.</p>\n            ","response":0,"trial_type":"html-button-response","trial_index":18,"time_elapsed":786085,"internal_node_id":"0.0-4.0-1.5","subject_id":"613ab0960ff3efd039adf1e0","study_id":"6197b3f67c2b5cd3b6d9596a","session_id":"619beefc0b8e32c4e0b6a88a","condition":"full-information","relevant_dimensions":["wings","legs"],"bee_group":{"antennae":"X","wings":"2","pattern":"X","legs":"M"},"bonus":0.12000000000000001},{"rt":3376.099999964237,"stimulus":"bees-with-color/bee-B2SM.svg","response":0,"trial_type":"image-button-response","trial_index":19,"time_elapsed":789470,"internal_node_id":"0.0-4.0-0.6","subject_id":"613ab0960ff3efd039adf1e0","study_id":"6197b3f67c2b5cd3b6d9596a","session_id":"619beefc0b8e32c4e0b6a88a","condition":"full-information","relevant_dimensions":["wings","legs"],"bee_group":{"antennae":"X","wings":"2","pattern":"X","legs":"M"},"action":"harvest","summary":"bad-harvest","bonus":0.12000000000000001},{"rt":2377.300000011921,"stimulus":"\n                    <p><b>Action: <em>harvest</em></b></p>\n                    <p>This is the bee that you just saw.</p>\n                    <img src=\"bees-with-color/bee-B2SM.svg\" width=\"200\">\n                    <p><span class=\"redText\">Bad choice, the bee was angry.</span><br><b>You have been stung!</b><br>Your pay has been decreased by $0.10. Your bonus pay is now $0.40.</p>\n            ","response":0,"trial_type":"html-button-response","trial_index":20,"time_elapsed":791853,"internal_node_id":"0.0-4.0-1.6","subject_id":"613ab0960ff3efd039adf1e0","study_id":"6197b3f67c2b5cd3b6d9596a","session_id":"619beefc0b8e32c4e0b6a88a","condition":"full-information","relevant_dimensions":["wings","legs"],"bee_group":{"antennae":"X","wings":"2","pattern":"X","legs":"M"},"bonus":0.12000000000000001},{"rt":1009.6000000238419,"stimulus":"bees-with-color/bee-A2SF.svg","response":1,"trial_type":"image-button-response","trial_index":21,"time_elapsed":792869,"internal_node_id":"0.0-4.0-0.7","subject_id":"613ab0960ff3efd039adf1e0","study_id":"6197b3f67c2b5cd3b6d9596a","session_id":"619beefc0b8e32c4e0b6a88a","condition":"full-information","relevant_dimensions":["wings","legs"],"bee_group":{"antennae":"X","wings":"2","pattern":"X","legs":"M"},"action":"avoid","summary":"bad-avoid","bonus":0.12000000000000001},{"rt":681.5,"stimulus":"\n                    <p><b>Action: <em>avoid</em></b></p>\n                    <p>This is the bee that you just saw.</p>\n                    <img src=\"bees-with-color/bee-A2SF.svg\" width=\"200\">\n                    <p><span class=\"redText\">Bad choice,</span> the bee was friendly.<br>Your bonus pay is unchanged, and remains at $0.40.</p>\n            ","response":0,"trial_type":"html-button-response","trial_index":22,"time_elapsed":793556,"internal_node_id":"0.0-4.0-1.7","subject_id":"613ab0960ff3efd039adf1e0","study_id":"6197b3f67c2b5cd3b6d9596a","session_id":"619beefc0b8e32c4e0b6a88a","condition":"full-information","relevant_dimensions":["wings","legs"],"bee_group":{"antennae":"X","wings":"2","pattern":"X","legs":"M"},"bonus":0.12000000000000001},{"rt":499.5999999642372,"stimulus":"bees-with-color/bee-A2DM.svg","response":0,"trial_type":"image-button-response","trial_index":23,"time_elapsed":794060,"internal_node_id":"0.0-4.0-0.8","subject_id":"613ab0960ff3efd039adf1e0","study_id":"6197b3f67c2b5cd3b6d9596a","session_id":"619beefc0b8e32c4e0b6a88a","condition":"full-information","relevant_dimensions":["wings","legs"],"bee_group":{"antennae":"X","wings":"2","pattern":"X","legs":"M"},"action":"harvest","summary":"bad-harvest","bonus":0.12000000000000001},{"rt":779.1000000238419,"stimulus":"\n                    <p><b>Action: <em>harvest</em></b></p>\n                    <p>This is the bee that you just saw.</p>\n                    <img src=\"bees-with-color/bee-A2DM.svg\" width=\"200\">\n                    <p><span class=\"redText\">Bad choice, the bee was angry.</span><br><b>You have been stung!</b><br>Your pay has been decreased by $0.10. Your bonus pay is now $0.30.</p>\n            ","response":0,"trial_type":"html-button-response","trial_index":24,"time_elapsed":794845,"internal_node_id":"0.0-4.0-1.8","subject_id":"613ab0960ff3efd039adf1e0","study_id":"6197b3f67c2b5cd3b6d9596a","session_id":"619beefc0b8e32c4e0b6a88a","condition":"full-information","relevant_dimensions":["wings","legs"],"bee_group":{"antennae":"X","wings":"2","pattern":"X","legs":"M"},"bonus":0.12000000000000001},{"rt":428.60000002384186,"stimulus":"bees-with-color/bee-B2SF.svg","response":1,"trial_type":"image-button-response","trial_index":25,"time_elapsed":795278,"internal_node_id":"0.0-4.0-0.9","subject_id":"613ab0960ff3efd039adf1e0","study_id":"6197b3f67c2b5cd3b6d9596a","session_id":"619beefc0b8e32c4e0b6a88a","condition":"full-information","relevant_dimensions":["wings","legs"],"bee_group":{"antennae":"X","wings":"2","pattern":"X","legs":"M"},"action":"avoid","summary":"bad-avoid","bonus":0.12000000000000001},{"rt":610.3000000119209,"stimulus":"\n                    <p><b>Action: <em>avoid</em></b></p>\n                    <p>This is the bee that you just saw.</p>\n                    <img src=\"bees-with-color/bee-B2SF.svg\" width=\"200\">\n                    <p><span class=\"redText\">Bad choice,</span> the bee was friendly.<br>Your bonus pay is unchanged, and remains at $0.30.</p>\n            ","response":0,"trial_type":"html-button-response","trial_index":26,"time_elapsed":795893,"internal_node_id":"0.0-4.0-1.9","subject_id":"613ab0960ff3efd039adf1e0","study_id":"6197b3f67c2b5cd3b6d9596a","session_id":"619beefc0b8e32c4e0b6a88a","condition":"full-information","relevant_dimensions":["wings","legs"],"bee_group":{"antennae":"X","wings":"2","pattern":"X","legs":"M"},"bonus":0.12000000000000001},{"rt":483.39999997615814,"stimulus":"bees-with-color/bee-B1DF.svg","response":0,"trial_type":"image-button-response","trial_index":27,"time_elapsed":796380,"internal_node_id":"0.0-4.0-0.10","subject_id":"613ab0960ff3efd039adf1e0","study_id":"6197b3f67c2b5cd3b6d9596a","session_id":"619beefc0b8e32c4e0b6a88a","condition":"full-information","relevant_dimensions":["wings","legs"],"bee_group":{"antennae":"X","wings":"2","pattern":"X","legs":"M"},"action":"harvest","summary":"good-harvest","bonus":0.12000000000000001},{"rt":780.7999999523163,"stimulus":"\n                    <p><b>Action: <em>harvest</em></b></p>\n                    <p>This is the bee that you just saw.</p>\n                    <img src=\"bees-with-color/bee-B1DF.svg\" width=\"200\">\n                    <p><span class=\"greenText\"><b>Successful harvest!</b></span><br>Your pay has increased by $0.02. Your bonus pay is now $0.32.</p>\n            ","response":0,"trial_type":"html-button-response","trial_index":28,"time_elapsed":797164,"internal_node_id":"0.0-4.0-1.10","subject_id":"613ab0960ff3efd039adf1e0","study_id":"6197b3f67c2b5cd3b6d9596a","session_id":"619beefc0b8e32c4e0b6a88a","condition":"full-information","relevant_dimensions":["wings","legs"],"bee_group":{"antennae":"X","wings":"2","pattern":"X","legs":"M"},"bonus":0.12000000000000001},{"rt":404.80000001192093,"stimulus":"bees-with-color/bee-A1DM.svg","response":0,"trial_type":"image-button-response","trial_index":29,"time_elapsed":797572,"internal_node_id":"0.0-4.0-0.11","subject_id":"613ab0960ff3efd039adf1e0","study_id":"6197b3f67c2b5cd3b6d9596a","session_id":"619beefc0b8e32c4e0b6a88a","condition":"full-information","relevant_dimensions":["wings","legs"],"bee_group":{"antennae":"X","wings":"2","pattern":"X","legs":"M"},"action":"harvest","summary":"good-harvest","bonus":0.12000000000000001},{"rt":564.3000000119209,"stimulus":"\n                    <p><b>Action: <em>harvest</em></b></p>\n                    <p>This is the bee that you just saw.</p>\n                    <img src=\"bees-with-color/bee-A1DM.svg\" width=\"200\">\n                    <p><span class=\"greenText\"><b>Successful harvest!</b></span><br>Your pay has increased by $0.02. Your bonus pay is now $0.34.</p>\n            ","response":0,"trial_type":"html-button-response","trial_index":30,"time_elapsed":798141,"internal_node_id":"0.0-4.0-1.11","subject_id":"613ab0960ff3efd039adf1e0","study_id":"6197b3f67c2b5cd3b6d9596a","session_id":"619beefc0b8e32c4e0b6a88a","condition":"full-information","relevant_dimensions":["wings","legs"],"bee_group":{"antennae":"X","wings":"2","pattern":"X","legs":"M"},"bonus":0.12000000000000001},{"rt":435.80000001192093,"stimulus":"bees-with-color/bee-B2DF.svg","response":0,"trial_type":"image-button-response","trial_index":31,"time_elapsed":798581,"internal_node_id":"0.0-4.0-0.12","subject_id":"613ab0960ff3efd039adf1e0","study_id":"6197b3f67c2b5cd3b6d9596a","session_id":"619beefc0b8e32c4e0b6a88a","condition":"full-information","relevant_dimensions":["wings","legs"],"bee_group":{"antennae":"X","wings":"2","pattern":"X","legs":"M"},"action":"harvest","summary":"good-harvest","bonus":0.12000000000000001},{"rt":548.3000000119209,"stimulus":"\n                    <p><b>Action: <em>harvest</em></b></p>\n                    <p>This is the bee that you just saw.</p>\n                    <img src=\"bees-with-color/bee-B2DF.svg\" width=\"200\">\n                    <p><span class=\"greenText\"><b>Successful harvest!</b></span><br>Your pay has increased by $0.02. Your bonus pay is now $0.36.</p>\n            ","response":0,"trial_type":"html-button-response","trial_index":32,"time_elapsed":799132,"internal_node_id":"0.0-4.0-1.12","subject_id":"613ab0960ff3efd039adf1e0","study_id":"6197b3f67c2b5cd3b6d9596a","session_id":"619beefc0b8e32c4e0b6a88a","condition":"full-information","relevant_dimensions":["wings","legs"],"bee_group":{"antennae":"X","wings":"2","pattern":"X","legs":"M"},"bonus":0.12000000000000001},{"rt":420.69999998807907,"stimulus":"bees-with-color/bee-A2SM.svg","response":1,"trial_type":"image-button-response","trial_index":33,"time_elapsed":799557,"internal_node_id":"0.0-4.0-0.13","subject_id":"613ab0960ff3efd039adf1e0","study_id":"6197b3f67c2b5cd3b6d9596a","session_id":"619beefc0b8e32c4e0b6a88a","condition":"full-information","relevant_dimensions":["wings","legs"],"bee_group":{"antennae":"X","wings":"2","pattern":"X","legs":"M"},"action":"avoid","summary":"good-avoid","bonus":0.12000000000000001},{"rt":1259.7000000476837,"stimulus":"\n                    <p><b>Action: <em>avoid</em></b></p>\n                    <p>This is the bee that you just saw.</p>\n                    <img src=\"bees-with-color/bee-A2SM.svg\" width=\"200\">\n                    <p><span class=\"greenText\">Good choice!</span>  This bee would have stung you.<br>Your bonus pay is unchanged, and remains at $0.36.</p>\n            ","response":0,"trial_type":"html-button-response","trial_index":34,"time_elapsed":800807,"internal_node_id":"0.0-4.0-1.13","subject_id":"613ab0960ff3efd039adf1e0","study_id":"6197b3f67c2b5cd3b6d9596a","session_id":"619beefc0b8e32c4e0b6a88a","condition":"full-information","relevant_dimensions":["wings","legs"],"bee_group":{"antennae":"X","wings":"2","pattern":"X","legs":"M"},"bonus":0.12000000000000001},{"rt":563.8999999761581,"stimulus":"bees-with-color/bee-B1DM.svg","response":0,"trial_type":"image-button-response","trial_index":35,"time_elapsed":801376,"internal_node_id":"0.0-4.0-0.14","subject_id":"613ab0960ff3efd039adf1e0","study_id":"6197b3f67c2b5cd3b6d9596a","session_id":"619beefc0b8e32c4e0b6a88a","condition":"full-information","relevant_dimensions":["wings","legs"],"bee_group":{"antennae":"X","wings":"2","pattern":"X","legs":"M"},"action":"harvest","summary":"good-harvest","bonus":0.12000000000000001},{"rt":603.6999999880791,"stimulus":"\n                    <p><b>Action: <em>harvest</em></b></p>\n                    <p>This is the bee that you just saw.</p>\n                    <img src=\"bees-with-color/bee-B1DM.svg\" width=\"200\">\n                    <p><span class=\"greenText\"><b>Successful harvest!</b></span><br>Your pay has increased by $0.02. Your bonus pay is now $0.38.</p>\n            ","response":0,"trial_type":"html-button-response","trial_index":36,"time_elapsed":801983,"internal_node_id":"0.0-4.0-1.14","subject_id":"613ab0960ff3efd039adf1e0","study_id":"6197b3f67c2b5cd3b6d9596a","session_id":"619beefc0b8e32c4e0b6a88a","condition":"full-information","relevant_dimensions":["wings","legs"],"bee_group":{"antennae":"X","wings":"2","pattern":"X","legs":"M"},"bonus":0.12000000000000001},{"rt":389.60000002384186,"stimulus":"bees-with-color/bee-A1SM.svg","response":0,"trial_type":"image-button-response","trial_index":37,"time_elapsed":802376,"internal_node_id":"0.0-4.0-0.15","subject_id":"613ab0960ff3efd039adf1e0","study_id":"6197b3f67c2b5cd3b6d9596a","session_id":"619beefc0b8e32c4e0b6a88a","condition":"full-information","relevant_dimensions":["wings","legs"],"bee_group":{"antennae":"X","wings":"2","pattern":"X","legs":"M"},"action":"harvest","summary":"good-harvest","bonus":0.12000000000000001},{"rt":660,"stimulus":"\n                    <p><b>Action: <em>harvest</em></b></p>\n                    <p>This is the bee that you just saw.</p>\n                    <img src=\"bees-with-color/bee-A1SM.svg\" width=\"200\">\n                    <p><span class=\"greenText\"><b>Successful harvest!</b></span><br>Your pay has increased by $0.02. Your bonus pay is now $0.40.</p>\n            ","response":0,"trial_type":"html-button-response","trial_index":38,"time_elapsed":803040,"internal_node_id":"0.0-4.0-1.15","subject_id":"613ab0960ff3efd039adf1e0","study_id":"6197b3f67c2b5cd3b6d9596a","session_id":"619beefc0b8e32c4e0b6a88a","condition":"full-information","relevant_dimensions":["wings","legs"],"bee_group":{"antennae":"X","wings":"2","pattern":"X","legs":"M"},"bonus":0.12000000000000001},{"rt":515.1999999880791,"stimulus":"bees-with-color/bee-B1DM.svg","response":0,"trial_type":"image-button-response","trial_index":39,"time_elapsed":803559,"internal_node_id":"0.0-4.0-0.16","subject_id":"613ab0960ff3efd039adf1e0","study_id":"6197b3f67c2b5cd3b6d9596a","session_id":"619beefc0b8e32c4e0b6a88a","condition":"full-information","relevant_dimensions":["wings","legs"],"bee_group":{"antennae":"X","wings":"2","pattern":"X","legs":"M"},"action":"harvest","summary":"good-harvest","bonus":0.12000000000000001},{"rt":661.8999999761581,"stimulus":"\n                    <p><b>Action: <em>harvest</em></b></p>\n                    <p>This is the bee that you just saw.</p>\n                    <img src=\"bees-with-color/bee-B1DM.svg\" width=\"200\">\n                    <p><span class=\"greenText\"><b>Successful harvest!</b></span><br>Your pay has increased by $0.02. Your bonus pay is now $0.42.</p>\n            ","response":0,"trial_type":"html-button-response","trial_index":40,"time_elapsed":804225,"internal_node_id":"0.0-4.0-1.16","subject_id":"613ab0960ff3efd039adf1e0","study_id":"6197b3f67c2b5cd3b6d9596a","session_id":"619beefc0b8e32c4e0b6a88a","condition":"full-information","relevant_dimensions":["wings","legs"],"bee_group":{"antennae":"X","wings":"2","pattern":"X","legs":"M"},"bonus":0.12000000000000001},{"rt":739.3000000119209,"stimulus":"bees-with-color/bee-A1DM.svg","response":1,"trial_type":"image-button-response","trial_index":41,"time_elapsed":804968,"internal_node_id":"0.0-4.0-0.17","subject_id":"613ab0960ff3efd039adf1e0","study_id":"6197b3f67c2b5cd3b6d9596a","session_id":"619beefc0b8e32c4e0b6a88a","condition":"full-information","relevant_dimensions":["wings","legs"],"bee_group":{"antennae":"X","wings":"2","pattern":"X","legs":"M"},"action":"avoid","summary":"bad-avoid","bonus":0.12000000000000001},{"rt":1371.800000011921,"stimulus":"\n                    <p><b>Action: <em>avoid</em></b></p>\n                    <p>This is the bee that you just saw.</p>\n                    <img src=\"bees-with-color/bee-A1DM.svg\" width=\"200\">\n                    <p><span class=\"redText\">Bad choice,</span> the bee was friendly.<br>Your bonus pay is unchanged, and remains at $0.42.</p>\n            ","response":0,"trial_type":"html-button-response","trial_index":42,"time_elapsed":806344,"internal_node_id":"0.0-4.0-1.17","subject_id":"613ab0960ff3efd039adf1e0","study_id":"6197b3f67c2b5cd3b6d9596a","session_id":"619beefc0b8e32c4e0b6a88a","condition":"full-information","relevant_dimensions":["wings","legs"],"bee_group":{"antennae":"X","wings":"2","pattern":"X","legs":"M"},"bonus":0.12000000000000001},{"rt":726.6000000238419,"stimulus":"bees-with-color/bee-B2DM.svg","response":1,"trial_type":"image-button-response","trial_index":43,"time_elapsed":807074,"internal_node_id":"0.0-4.0-0.18","subject_id":"613ab0960ff3efd039adf1e0","study_id":"6197b3f67c2b5cd3b6d9596a","session_id":"619beefc0b8e32c4e0b6a88a","condition":"full-information","relevant_dimensions":["wings","legs"],"bee_group":{"antennae":"X","wings":"2","pattern":"X","legs":"M"},"action":"avoid","summary":"good-avoid","bonus":0.12000000000000001},{"rt":1010,"stimulus":"\n                    <p><b>Action: <em>avoid</em></b></p>\n                    <p>This is the bee that you just saw.</p>\n                    <img src=\"bees-with-color/bee-B2DM.svg\" width=\"200\">\n                    <p><span class=\"greenText\">Good choice!</span>  This bee would have stung you.<br>Your bonus pay is unchanged, and remains at $0.42.</p>\n            ","response":0,"trial_type":"html-button-response","trial_index":44,"time_elapsed":808088,"internal_node_id":"0.0-4.0-1.18","subject_id":"613ab0960ff3efd039adf1e0","study_id":"6197b3f67c2b5cd3b6d9596a","session_id":"619beefc0b8e32c4e0b6a88a","condition":"full-information","relevant_dimensions":["wings","legs"],"bee_group":{"antennae":"X","wings":"2","pattern":"X","legs":"M"},"bonus":0.12000000000000001},{"rt":613,"stimulus":"bees-with-color/bee-A1DF.svg","response":0,"trial_type":"image-button-response","trial_index":45,"time_elapsed":808703,"internal_node_id":"0.0-4.0-0.19","subject_id":"613ab0960ff3efd039adf1e0","study_id":"6197b3f67c2b5cd3b6d9596a","session_id":"619beefc0b8e32c4e0b6a88a","condition":"full-information","relevant_dimensions":["wings","legs"],"bee_group":{"antennae":"X","wings":"2","pattern":"X","legs":"M"},"action":"harvest","summary":"good-harvest","bonus":0.12000000000000001},{"rt":603.6000000238419,"stimulus":"\n                    <p><b>Action: <em>harvest</em></b></p>\n                    <p>This is the bee that you just saw.</p>\n                    <img src=\"bees-with-color/bee-A1DF.svg\" width=\"200\">\n                    <p><span class=\"greenText\"><b>Successful harvest!</b></span><br>Your pay has increased by $0.02. Your bonus pay is now $0.44.</p>\n            ","response":0,"trial_type":"html-button-response","trial_index":46,"time_elapsed":809310,"internal_node_id":"0.0-4.0-1.19","subject_id":"613ab0960ff3efd039adf1e0","study_id":"6197b3f67c2b5cd3b6d9596a","session_id":"619beefc0b8e32c4e0b6a88a","condition":"full-information","relevant_dimensions":["wings","legs"],"bee_group":{"antennae":"X","wings":"2","pattern":"X","legs":"M"},"bonus":0.12000000000000001},{"rt":456.7000000476837,"stimulus":"bees-with-color/bee-A2SM.svg","response":0,"trial_type":"image-button-response","trial_index":47,"time_elapsed":809768,"internal_node_id":"0.0-4.0-0.20","subject_id":"613ab0960ff3efd039adf1e0","study_id":"6197b3f67c2b5cd3b6d9596a","session_id":"619beefc0b8e32c4e0b6a88a","condition":"full-information","relevant_dimensions":["wings","legs"],"bee_group":{"antennae":"X","wings":"2","pattern":"X","legs":"M"},"action":"harvest","summary":"bad-harvest","bonus":0.12000000000000001},{"rt":483.30000001192093,"stimulus":"\n                    <p><b>Action: <em>harvest</em></b></p>\n                    <p>This is the bee that you just saw.</p>\n                    <img src=\"bees-with-color/bee-A2SM.svg\" width=\"200\">\n                    <p><span class=\"redText\">Bad choice, the bee was angry.</span><br><b>You have been stung!</b><br>Your pay has been decreased by $0.10. Your bonus pay is now $0.34.</p>\n            ","response":0,"trial_type":"html-button-response","trial_index":48,"time_elapsed":810255,"internal_node_id":"0.0-4.0-1.20","subject_id":"613ab0960ff3efd039adf1e0","study_id":"6197b3f67c2b5cd3b6d9596a","session_id":"619beefc0b8e32c4e0b6a88a","condition":"full-information","relevant_dimensions":["wings","legs"],"bee_group":{"antennae":"X","wings":"2","pattern":"X","legs":"M"},"bonus":0.12000000000000001},{"rt":437.4000000357628,"stimulus":"bees-with-color/bee-A1SM.svg","response":0,"trial_type":"image-button-response","trial_index":49,"time_elapsed":810695,"internal_node_id":"0.0-4.0-0.21","subject_id":"613ab0960ff3efd039adf1e0","study_id":"6197b3f67c2b5cd3b6d9596a","session_id":"619beefc0b8e32c4e0b6a88a","condition":"full-information","relevant_dimensions":["wings","legs"],"bee_group":{"antennae":"X","wings":"2","pattern":"X","legs":"M"},"action":"harvest","summary":"good-harvest","bonus":0.12000000000000001},{"rt":476.39999997615814,"stimulus":"\n                    <p><b>Action: <em>harvest</em></b></p>\n                    <p>This is the bee that you just saw.</p>\n                    <img src=\"bees-with-color/bee-A1SM.svg\" width=\"200\">\n                    <p><span class=\"greenText\"><b>Successful harvest!</b></span><br>Your pay has increased by $0.02. Your bonus pay is now $0.36.</p>\n            ","response":0,"trial_type":"html-button-response","trial_index":50,"time_elapsed":811175,"internal_node_id":"0.0-4.0-1.21","subject_id":"613ab0960ff3efd039adf1e0","study_id":"6197b3f67c2b5cd3b6d9596a","session_id":"619beefc0b8e32c4e0b6a88a","condition":"full-information","relevant_dimensions":["wings","legs"],"bee_group":{"antennae":"X","wings":"2","pattern":"X","legs":"M"},"bonus":0.12000000000000001},{"rt":829,"stimulus":"bees-with-color/bee-A1SF.svg","response":1,"trial_type":"image-button-response","trial_index":51,"time_elapsed":812007,"internal_node_id":"0.0-4.0-0.22","subject_id":"613ab0960ff3efd039adf1e0","study_id":"6197b3f67c2b5cd3b6d9596a","session_id":"619beefc0b8e32c4e0b6a88a","condition":"full-information","relevant_dimensions":["wings","legs"],"bee_group":{"antennae":"X","wings":"2","pattern":"X","legs":"M"},"action":"avoid","summary":"bad-avoid","bonus":0.12000000000000001},{"rt":438.10000002384186,"stimulus":"\n                    <p><b>Action: <em>avoid</em></b></p>\n                    <p>This is the bee that you just saw.</p>\n                    <img src=\"bees-with-color/bee-A1SF.svg\" width=\"200\">\n                    <p><span class=\"redText\">Bad choice,</span> the bee was friendly.<br>Your bonus pay is unchanged, and remains at $0.36.</p>\n            ","response":0,"trial_type":"html-button-response","trial_index":52,"time_elapsed":812449,"internal_node_id":"0.0-4.0-1.22","subject_id":"613ab0960ff3efd039adf1e0","study_id":"6197b3f67c2b5cd3b6d9596a","session_id":"619beefc0b8e32c4e0b6a88a","condition":"full-information","relevant_dimensions":["wings","legs"],"bee_group":{"antennae":"X","wings":"2","pattern":"X","legs":"M"},"bonus":0.12000000000000001},{"rt":435.19999998807907,"stimulus":"bees-with-color/bee-B1SF.svg","response":0,"trial_type":"image-button-response","trial_index":53,"time_elapsed":812887,"internal_node_id":"0.0-4.0-0.23","subject_id":"613ab0960ff3efd039adf1e0","study_id":"6197b3f67c2b5cd3b6d9596a","session_id":"619beefc0b8e32c4e0b6a88a","condition":"full-information","relevant_dimensions":["wings","legs"],"bee_group":{"antennae":"X","wings":"2","pattern":"X","legs":"M"},"action":"harvest","summary":"good-harvest","bonus":0.12000000000000001},{"rt":444.69999998807907,"stimulus":"\n                    <p><b>Action: <em>harvest</em></b></p>\n                    <p>This is the bee that you just saw.</p>\n                    <img src=\"bees-with-color/bee-B1SF.svg\" width=\"200\">\n                    <p><span class=\"greenText\"><b>Successful harvest!</b></span><br>Your pay has increased by $0.02. Your bonus pay is now $0.38.</p>\n            ","response":0,"trial_type":"html-button-response","trial_index":54,"time_elapsed":813335,"internal_node_id":"0.0-4.0-1.23","subject_id":"613ab0960ff3efd039adf1e0","study_id":"6197b3f67c2b5cd3b6d9596a","session_id":"619beefc0b8e32c4e0b6a88a","condition":"full-information","relevant_dimensions":["wings","legs"],"bee_group":{"antennae":"X","wings":"2","pattern":"X","legs":"M"},"bonus":0.12000000000000001},{"rt":564.8999999761581,"stimulus":"bees-with-color/bee-A2DM.svg","response":1,"trial_type":"image-button-response","trial_index":55,"time_elapsed":813904,"internal_node_id":"0.0-4.0-0.24","subject_id":"613ab0960ff3efd039adf1e0","study_id":"6197b3f67c2b5cd3b6d9596a","session_id":"619beefc0b8e32c4e0b6a88a","condition":"full-information","relevant_dimensions":["wings","legs"],"bee_group":{"antennae":"X","wings":"2","pattern":"X","legs":"M"},"action":"avoid","summary":"good-avoid","bonus":0.12000000000000001},{"rt":500.10000002384186,"stimulus":"\n                    <p><b>Action: <em>avoid</em></b></p>\n                    <p>This is the bee that you just saw.</p>\n                    <img src=\"bees-with-color/bee-A2DM.svg\" width=\"200\">\n                    <p><span class=\"greenText\">Good choice!</span>  This bee would have stung you.<br>Your bonus pay is unchanged, and remains at $0.38.</p>\n            ","response":0,"trial_type":"html-button-response","trial_index":56,"time_elapsed":814407,"internal_node_id":"0.0-4.0-1.24","subject_id":"613ab0960ff3efd039adf1e0","study_id":"6197b3f67c2b5cd3b6d9596a","session_id":"619beefc0b8e32c4e0b6a88a","condition":"full-information","relevant_dimensions":["wings","legs"],"bee_group":{"antennae":"X","wings":"2","pattern":"X","legs":"M"},"bonus":0.12000000000000001},{"rt":645,"stimulus":"bees-with-color/bee-B2SM.svg","response":0,"trial_type":"image-button-response","trial_index":57,"time_elapsed":815055,"internal_node_id":"0.0-4.0-0.25","subject_id":"613ab0960ff3efd039adf1e0","study_id":"6197b3f67c2b5cd3b6d9596a","session_id":"619beefc0b8e32c4e0b6a88a","condition":"full-information","relevant_dimensions":["wings","legs"],"bee_group":{"antennae":"X","wings":"2","pattern":"X","legs":"M"},"action":"harvest","summary":"bad-harvest","bonus":0.12000000000000001},{"rt":692.5,"stimulus":"\n                    <p><b>Action: <em>harvest</em></b></p>\n                    <p>This is the bee that you just saw.</p>\n                    <img src=\"bees-with-color/bee-B2SM.svg\" width=\"200\">\n                    <p><span class=\"redText\">Bad choice, the bee was angry.</span><br><b>You have been stung!</b><br>Your pay has been decreased by $0.10. Your bonus pay is now $0.28.</p>\n            ","response":0,"trial_type":"html-button-response","trial_index":58,"time_elapsed":815751,"internal_node_id":"0.0-4.0-1.25","subject_id":"613ab0960ff3efd039adf1e0","study_id":"6197b3f67c2b5cd3b6d9596a","session_id":"619beefc0b8e32c4e0b6a88a","condition":"full-information","relevant_dimensions":["wings","legs"],"bee_group":{"antennae":"X","wings":"2","pattern":"X","legs":"M"},"bonus":0.12000000000000001},{"rt":412.9000000357628,"stimulus":"bees-with-color/bee-B1SM.svg","response":0,"trial_type":"image-button-response","trial_index":59,"time_elapsed":816167,"internal_node_id":"0.0-4.0-0.26","subject_id":"613ab0960ff3efd039adf1e0","study_id":"6197b3f67c2b5cd3b6d9596a","session_id":"619beefc0b8e32c4e0b6a88a","condition":"full-information","relevant_dimensions":["wings","legs"],"bee_group":{"antennae":"X","wings":"2","pattern":"X","legs":"M"},"action":"harvest","summary":"good-harvest","bonus":0.12000000000000001},{"rt":564.5,"stimulus":"\n                    <p><b>Action: <em>harvest</em></b></p>\n                    <p>This is the bee that you just saw.</p>\n                    <img src=\"bees-with-color/bee-B1SM.svg\" width=\"200\">\n                    <p><span class=\"greenText\"><b>Successful harvest!</b></span><br>Your pay has increased by $0.02. Your bonus pay is now $0.30.</p>\n            ","response":0,"trial_type":"html-button-response","trial_index":60,"time_elapsed":816735,"internal_node_id":"0.0-4.0-1.26","subject_id":"613ab0960ff3efd039adf1e0","study_id":"6197b3f67c2b5cd3b6d9596a","session_id":"619beefc0b8e32c4e0b6a88a","condition":"full-information","relevant_dimensions":["wings","legs"],"bee_group":{"antennae":"X","wings":"2","pattern":"X","legs":"M"},"bonus":0.12000000000000001},{"rt":420.9000000357628,"stimulus":"bees-with-color/bee-A2SF.svg","response":0,"trial_type":"image-button-response","trial_index":61,"time_elapsed":817160,"internal_node_id":"0.0-4.0-0.27","subject_id":"613ab0960ff3efd039adf1e0","study_id":"6197b3f67c2b5cd3b6d9596a","session_id":"619beefc0b8e32c4e0b6a88a","condition":"full-information","relevant_dimensions":["wings","legs"],"bee_group":{"antennae":"X","wings":"2","pattern":"X","legs":"M"},"action":"harvest","summary":"good-harvest","bonus":0.12000000000000001},{"rt":548.1999999880791,"stimulus":"\n                    <p><b>Action: <em>harvest</em></b></p>\n                    <p>This is the bee that you just saw.</p>\n                    <img src=\"bees-with-color/bee-A2SF.svg\" width=\"200\">\n                    <p><span class=\"greenText\"><b>Successful harvest!</b></span><br>Your pay has increased by $0.02. Your bonus pay is now $0.32.</p>\n            ","response":0,"trial_type":"html-button-response","trial_index":62,"time_elapsed":817712,"internal_node_id":"0.0-4.0-1.27","subject_id":"613ab0960ff3efd039adf1e0","study_id":"6197b3f67c2b5cd3b6d9596a","session_id":"619beefc0b8e32c4e0b6a88a","condition":"full-information","relevant_dimensions":["wings","legs"],"bee_group":{"antennae":"X","wings":"2","pattern":"X","legs":"M"},"bonus":0.12000000000000001},{"rt":379.69999998807907,"stimulus":"bees-with-color/bee-A2DF.svg","response":0,"trial_type":"image-button-response","trial_index":63,"time_elapsed":818095,"internal_node_id":"0.0-4.0-0.28","subject_id":"613ab0960ff3efd039adf1e0","study_id":"6197b3f67c2b5cd3b6d9596a","session_id":"619beefc0b8e32c4e0b6a88a","condition":"full-information","relevant_dimensions":["wings","legs"],"bee_group":{"antennae":"X","wings":"2","pattern":"X","legs":"M"},"action":"harvest","summary":"good-harvest","bonus":0.12000000000000001},{"rt":564.5999999642372,"stimulus":"\n                    <p><b>Action: <em>harvest</em></b></p>\n                    <p>This is the bee that you just saw.</p>\n                    <img src=\"bees-with-color/bee-A2DF.svg\" width=\"200\">\n                    <p><span class=\"greenText\"><b>Successful harvest!</b></span><br>Your pay has increased by $0.02. Your bonus pay is now $0.34.</p>\n            ","response":0,"trial_type":"html-button-response","trial_index":64,"time_elapsed":818663,"internal_node_id":"0.0-4.0-1.28","subject_id":"613ab0960ff3efd039adf1e0","study_id":"6197b3f67c2b5cd3b6d9596a","session_id":"619beefc0b8e32c4e0b6a88a","condition":"full-information","relevant_dimensions":["wings","legs"],"bee_group":{"antennae":"X","wings":"2","pattern":"X","legs":"M"},"bonus":0.12000000000000001},{"rt":494.0999999642372,"stimulus":"bees-with-color/bee-B2DF.svg","response":0,"trial_type":"image-button-response","trial_index":65,"time_elapsed":819161,"internal_node_id":"0.0-4.0-0.29","subject_id":"613ab0960ff3efd039adf1e0","study_id":"6197b3f67c2b5cd3b6d9596a","session_id":"619beefc0b8e32c4e0b6a88a","condition":"full-information","relevant_dimensions":["wings","legs"],"bee_group":{"antennae":"X","wings":"2","pattern":"X","legs":"M"},"action":"harvest","summary":"good-harvest","bonus":0.12000000000000001},{"rt":539.0999999642372,"stimulus":"\n                    <p><b>Action: <em>harvest</em></b></p>\n                    <p>This is the bee that you just saw.</p>\n                    <img src=\"bees-with-color/bee-B2DF.svg\" width=\"200\">\n                    <p><span class=\"greenText\"><b>Successful harvest!</b></span><br>Your pay has increased by $0.02. Your bonus pay is now $0.36.</p>\n            ","response":0,"trial_type":"html-button-response","trial_index":66,"time_elapsed":819704,"internal_node_id":"0.0-4.0-1.29","subject_id":"613ab0960ff3efd039adf1e0","study_id":"6197b3f67c2b5cd3b6d9596a","session_id":"619beefc0b8e32c4e0b6a88a","condition":"full-information","relevant_dimensions":["wings","legs"],"bee_group":{"antennae":"X","wings":"2","pattern":"X","legs":"M"},"bonus":0.12000000000000001},{"rt":517.0999999642372,"stimulus":"bees-with-color/bee-B2SF.svg","response":1,"trial_type":"image-button-response","trial_index":67,"time_elapsed":820225,"internal_node_id":"0.0-4.0-0.30","subject_id":"613ab0960ff3efd039adf1e0","study_id":"6197b3f67c2b5cd3b6d9596a","session_id":"619beefc0b8e32c4e0b6a88a","condition":"full-information","relevant_dimensions":["wings","legs"],"bee_group":{"antennae":"X","wings":"2","pattern":"X","legs":"M"},"action":"avoid","summary":"bad-avoid","bonus":0.12000000000000001},{"rt":1018.1000000238419,"stimulus":"\n                    <p><b>Action: <em>avoid</em></b></p>\n                    <p>This is the bee that you just saw.</p>\n                    <img src=\"bees-with-color/bee-B2SF.svg\" width=\"200\">\n                    <p><span class=\"redText\">Bad choice,</span> the bee was friendly.<br>Your bonus pay is unchanged, and remains at $0.36.</p>\n            ","response":0,"trial_type":"html-button-response","trial_index":68,"time_elapsed":821248,"internal_node_id":"0.0-4.0-1.30","subject_id":"613ab0960ff3efd039adf1e0","study_id":"6197b3f67c2b5cd3b6d9596a","session_id":"619beefc0b8e32c4e0b6a88a","condition":"full-information","relevant_dimensions":["wings","legs"],"bee_group":{"antennae":"X","wings":"2","pattern":"X","legs":"M"},"bonus":0.12000000000000001},{"rt":364.7000000476837,"stimulus":"bees-with-color/bee-B1DF.svg","response":1,"trial_type":"image-button-response","trial_index":69,"time_elapsed":821616,"internal_node_id":"0.0-4.0-0.31","subject_id":"613ab0960ff3efd039adf1e0","study_id":"6197b3f67c2b5cd3b6d9596a","session_id":"619beefc0b8e32c4e0b6a88a","condition":"full-information","relevant_dimensions":["wings","legs"],"bee_group":{"antennae":"X","wings":"2","pattern":"X","legs":"M"},"action":"avoid","summary":"bad-avoid","bonus":0.12000000000000001},{"rt":741.6999999880791,"stimulus":"\n                    <p><b>Action: <em>avoid</em></b></p>\n                    <p>This is the bee that you just saw.</p>\n                    <img src=\"bees-with-color/bee-B1DF.svg\" width=\"200\">\n                    <p><span class=\"redText\">Bad choice,</span> the bee was friendly.<br>Your bonus pay is unchanged, and remains at $0.36.</p>\n            ","response":0,"trial_type":"html-button-response","trial_index":70,"time_elapsed":822361,"internal_node_id":"0.0-4.0-1.31","subject_id":"613ab0960ff3efd039adf1e0","study_id":"6197b3f67c2b5cd3b6d9596a","session_id":"619beefc0b8e32c4e0b6a88a","condition":"full-information","relevant_dimensions":["wings","legs"],"bee_group":{"antennae":"X","wings":"2","pattern":"X","legs":"M"},"bonus":0.12000000000000001},{"rt":467.80000001192093,"stimulus":"bees-with-color/bee-B1DF.svg","response":0,"trial_type":"image-button-response","trial_index":71,"time_elapsed":822831,"internal_node_id":"0.0-4.0-0.32","subject_id":"613ab0960ff3efd039adf1e0","study_id":"6197b3f67c2b5cd3b6d9596a","session_id":"619beefc0b8e32c4e0b6a88a","condition":"full-information","relevant_dimensions":["wings","legs"],"bee_group":{"antennae":"X","wings":"2","pattern":"X","legs":"M"},"action":"harvest","summary":"good-harvest","bonus":0.12000000000000001},{"rt":684.6999999880791,"stimulus":"\n                    <p><b>Action: <em>harvest</em></b></p>\n                    <p>This is the bee that you just saw.</p>\n                    <img src=\"bees-with-color/bee-B1DF.svg\" width=\"200\">\n                    <p><span class=\"greenText\"><b>Successful harvest!</b></span><br>Your pay has increased by $0.02. Your bonus pay is now $0.38.</p>\n            ","response":0,"trial_type":"html-button-response","trial_index":72,"time_elapsed":823520,"internal_node_id":"0.0-4.0-1.32","subject_id":"613ab0960ff3efd039adf1e0","study_id":"6197b3f67c2b5cd3b6d9596a","session_id":"619beefc0b8e32c4e0b6a88a","condition":"full-information","relevant_dimensions":["wings","legs"],"bee_group":{"antennae":"X","wings":"2","pattern":"X","legs":"M"},"bonus":0.12000000000000001},{"rt":516.5999999642372,"stimulus":"bees-with-color/bee-B1DM.svg","response":1,"trial_type":"image-button-response","trial_index":73,"time_elapsed":824040,"internal_node_id":"0.0-4.0-0.33","subject_id":"613ab0960ff3efd039adf1e0","study_id":"6197b3f67c2b5cd3b6d9596a","session_id":"619beefc0b8e32c4e0b6a88a","condition":"full-information","relevant_dimensions":["wings","legs"],"bee_group":{"antennae":"X","wings":"2","pattern":"X","legs":"M"},"action":"avoid","summary":"bad-avoid","bonus":0.12000000000000001},{"rt":733.5999999642372,"stimulus":"\n                    <p><b>Action: <em>avoid</em></b></p>\n                    <p>This is the bee that you just saw.</p>\n                    <img src=\"bees-with-color/bee-B1DM.svg\" width=\"200\">\n                    <p><span class=\"redText\">Bad choice,</span> the bee was friendly.<br>Your bonus pay is unchanged, and remains at $0.38.</p>\n            ","response":0,"trial_type":"html-button-response","trial_index":74,"time_elapsed":824777,"internal_node_id":"0.0-4.0-1.33","subject_id":"613ab0960ff3efd039adf1e0","study_id":"6197b3f67c2b5cd3b6d9596a","session_id":"619beefc0b8e32c4e0b6a88a","condition":"full-information","relevant_dimensions":["wings","legs"],"bee_group":{"antennae":"X","wings":"2","pattern":"X","legs":"M"},"bonus":0.12000000000000001},{"rt":435.5999999642372,"stimulus":"bees-with-color/bee-A2SM.svg","response":0,"trial_type":"image-button-response","trial_index":75,"time_elapsed":825215,"internal_node_id":"0.0-4.0-0.34","subject_id":"613ab0960ff3efd039adf1e0","study_id":"6197b3f67c2b5cd3b6d9596a","session_id":"619beefc0b8e32c4e0b6a88a","condition":"full-information","relevant_dimensions":["wings","legs"],"bee_group":{"antennae":"X","wings":"2","pattern":"X","legs":"M"},"action":"harvest","summary":"bad-harvest","bonus":0.12000000000000001},{"rt":788.6999999880791,"stimulus":"\n                    <p><b>Action: <em>harvest</em></b></p>\n                    <p>This is the bee that you just saw.</p>\n                    <img src=\"bees-with-color/bee-A2SM.svg\" width=\"200\">\n                    <p><span class=\"redText\">Bad choice, the bee was angry.</span><br><b>You have been stung!</b><br>Your pay has been decreased by $0.10. Your bonus pay is now $0.28.</p>\n            ","response":0,"trial_type":"html-button-response","trial_index":76,"time_elapsed":826008,"internal_node_id":"0.0-4.0-1.34","subject_id":"613ab0960ff3efd039adf1e0","study_id":"6197b3f67c2b5cd3b6d9596a","session_id":"619beefc0b8e32c4e0b6a88a","condition":"full-information","relevant_dimensions":["wings","legs"],"bee_group":{"antennae":"X","wings":"2","pattern":"X","legs":"M"},"bonus":0.12000000000000001},{"rt":676,"stimulus":"bees-with-color/bee-A1DF.svg","response":0,"trial_type":"image-button-response","trial_index":77,"time_elapsed":826687,"internal_node_id":"0.0-4.0-0.35","subject_id":"613ab0960ff3efd039adf1e0","study_id":"6197b3f67c2b5cd3b6d9596a","session_id":"619beefc0b8e32c4e0b6a88a","condition":"full-information","relevant_dimensions":["wings","legs"],"bee_group":{"antennae":"X","wings":"2","pattern":"X","legs":"M"},"action":"harvest","summary":"good-harvest","bonus":0.12000000000000001},{"rt":533.3000000119209,"stimulus":"\n                    <p><b>Action: <em>harvest</em></b></p>\n                    <p>This is the bee that you just saw.</p>\n                    <img src=\"bees-with-color/bee-A1DF.svg\" width=\"200\">\n                    <p><span class=\"greenText\"><b>Successful harvest!</b></span><br>Your pay has increased by $0.02. Your bonus pay is now $0.30.</p>\n            ","response":0,"trial_type":"html-button-response","trial_index":78,"time_elapsed":827224,"internal_node_id":"0.0-4.0-1.35","subject_id":"613ab0960ff3efd039adf1e0","study_id":"6197b3f67c2b5cd3b6d9596a","session_id":"619beefc0b8e32c4e0b6a88a","condition":"full-information","relevant_dimensions":["wings","legs"],"bee_group":{"antennae":"X","wings":"2","pattern":"X","legs":"M"},"bonus":0.12000000000000001},{"rt":428,"stimulus":"bees-with-color/bee-A2SF.svg","response":0,"trial_type":"image-button-response","trial_index":79,"time_elapsed":827655,"internal_node_id":"0.0-4.0-0.36","subject_id":"613ab0960ff3efd039adf1e0","study_id":"6197b3f67c2b5cd3b6d9596a","session_id":"619beefc0b8e32c4e0b6a88a","condition":"full-information","relevant_dimensions":["wings","legs"],"bee_group":{"antennae":"X","wings":"2","pattern":"X","legs":"M"},"action":"harvest","summary":"good-harvest","bonus":0.12000000000000001},{"rt":412.60000002384186,"stimulus":"\n                    <p><b>Action: <em>harvest</em></b></p>\n                    <p>This is the bee that you just saw.</p>\n                    <img src=\"bees-with-color/bee-A2SF.svg\" width=\"200\">\n                    <p><span class=\"greenText\"><b>Successful harvest!</b></span><br>Your pay has increased by $0.02. Your bonus pay is now $0.32.</p>\n            ","response":0,"trial_type":"html-button-response","trial_index":80,"time_elapsed":828072,"internal_node_id":"0.0-4.0-1.36","subject_id":"613ab0960ff3efd039adf1e0","study_id":"6197b3f67c2b5cd3b6d9596a","session_id":"619beefc0b8e32c4e0b6a88a","condition":"full-information","relevant_dimensions":["wings","legs"],"bee_group":{"antennae":"X","wings":"2","pattern":"X","legs":"M"},"bonus":0.12000000000000001},{"rt":444.30000001192093,"stimulus":"bees-with-color/bee-B2DF.svg","response":0,"trial_type":"image-button-response","trial_index":81,"time_elapsed":828519,"internal_node_id":"0.0-4.0-0.37","subject_id":"613ab0960ff3efd039adf1e0","study_id":"6197b3f67c2b5cd3b6d9596a","session_id":"619beefc0b8e32c4e0b6a88a","condition":"full-information","relevant_dimensions":["wings","legs"],"bee_group":{"antennae":"X","wings":"2","pattern":"X","legs":"M"},"action":"harvest","summary":"good-harvest","bonus":0.12000000000000001},{"rt":420.9000000357628,"stimulus":"\n                    <p><b>Action: <em>harvest</em></b></p>\n                    <p>This is the bee that you just saw.</p>\n                    <img src=\"bees-with-color/bee-B2DF.svg\" width=\"200\">\n                    <p><span class=\"greenText\"><b>Successful harvest!</b></span><br>Your pay has increased by $0.02. Your bonus pay is now $0.34.</p>\n            ","response":0,"trial_type":"html-button-response","trial_index":82,"time_elapsed":828944,"internal_node_id":"0.0-4.0-1.37","subject_id":"613ab0960ff3efd039adf1e0","study_id":"6197b3f67c2b5cd3b6d9596a","session_id":"619beefc0b8e32c4e0b6a88a","condition":"full-information","relevant_dimensions":["wings","legs"],"bee_group":{"antennae":"X","wings":"2","pattern":"X","legs":"M"},"bonus":0.12000000000000001},{"rt":395.30000001192093,"stimulus":"bees-with-color/bee-B2SM.svg","response":1,"trial_type":"image-button-response","trial_index":83,"time_elapsed":829343,"internal_node_id":"0.0-4.0-0.38","subject_id":"613ab0960ff3efd039adf1e0","study_id":"6197b3f67c2b5cd3b6d9596a","session_id":"619beefc0b8e32c4e0b6a88a","condition":"full-information","relevant_dimensions":["wings","legs"],"bee_group":{"antennae":"X","wings":"2","pattern":"X","legs":"M"},"action":"avoid","summary":"good-avoid","bonus":0.12000000000000001},{"rt":412.39999997615814,"stimulus":"\n                    <p><b>Action: <em>avoid</em></b></p>\n                    <p>This is the bee that you just saw.</p>\n                    <img src=\"bees-with-color/bee-B2SM.svg\" width=\"200\">\n                    <p><span class=\"greenText\">Good choice!</span>  This bee would have stung you.<br>Your bonus pay is unchanged, and remains at $0.34.</p>\n            ","response":0,"trial_type":"html-button-response","trial_index":84,"time_elapsed":829759,"internal_node_id":"0.0-4.0-1.38","subject_id":"613ab0960ff3efd039adf1e0","study_id":"6197b3f67c2b5cd3b6d9596a","session_id":"619beefc0b8e32c4e0b6a88a","condition":"full-information","relevant_dimensions":["wings","legs"],"bee_group":{"antennae":"X","wings":"2","pattern":"X","legs":"M"},"bonus":0.12000000000000001},{"rt":949,"stimulus":"bees-with-color/bee-B1SM.svg","response":0,"trial_type":"image-button-response","trial_index":85,"time_elapsed":830712,"internal_node_id":"0.0-4.0-0.39","subject_id":"613ab0960ff3efd039adf1e0","study_id":"6197b3f67c2b5cd3b6d9596a","session_id":"619beefc0b8e32c4e0b6a88a","condition":"full-information","relevant_dimensions":["wings","legs"],"bee_group":{"antennae":"X","wings":"2","pattern":"X","legs":"M"},"action":"harvest","summary":"good-harvest","bonus":0.12000000000000001},{"rt":595.5,"stimulus":"\n                    <p><b>Action: <em>harvest</em></b></p>\n                    <p>This is the bee that you just saw.</p>\n                    <img src=\"bees-with-color/bee-B1SM.svg\" width=\"200\">\n                    <p><span class=\"greenText\"><b>Successful harvest!</b></span><br>Your pay has increased by $0.02. Your bonus pay is now $0.36.</p>\n            ","response":0,"trial_type":"html-button-response","trial_index":86,"time_elapsed":831313,"internal_node_id":"0.0-4.0-1.39","subject_id":"613ab0960ff3efd039adf1e0","study_id":"6197b3f67c2b5cd3b6d9596a","session_id":"619beefc0b8e32c4e0b6a88a","condition":"full-information","relevant_dimensions":["wings","legs"],"bee_group":{"antennae":"X","wings":"2","pattern":"X","legs":"M"},"bonus":0.12000000000000001},{"rt":1091.0999999642372,"stimulus":"bees-with-color/bee-A1DM.svg","response":0,"trial_type":"image-button-response","trial_index":87,"time_elapsed":832408,"internal_node_id":"0.0-4.0-0.40","subject_id":"613ab0960ff3efd039adf1e0","study_id":"6197b3f67c2b5cd3b6d9596a","session_id":"619beefc0b8e32c4e0b6a88a","condition":"full-information","relevant_dimensions":["wings","legs"],"bee_group":{"antennae":"X","wings":"2","pattern":"X","legs":"M"},"action":"harvest","summary":"good-harvest","bonus":0.12000000000000001},{"rt":1651.699999988079,"stimulus":"\n                    <p><b>Action: <em>harvest</em></b></p>\n                    <p>This is the bee that you just saw.</p>\n                    <img src=\"bees-with-color/bee-A1DM.svg\" width=\"200\">\n                    <p><span class=\"greenText\"><b>Successful harvest!</b></span><br>Your pay has increased by $0.02. Your bonus pay is now $0.38.</p>\n            ","response":0,"trial_type":"html-button-response","trial_index":88,"time_elapsed":834063,"internal_node_id":"0.0-4.0-1.40","subject_id":"613ab0960ff3efd039adf1e0","study_id":"6197b3f67c2b5cd3b6d9596a","session_id":"619beefc0b8e32c4e0b6a88a","condition":"full-information","relevant_dimensions":["wings","legs"],"bee_group":{"antennae":"X","wings":"2","pattern":"X","legs":"M"},"bonus":0.12000000000000001},{"rt":429.0999999642372,"stimulus":"bees-with-color/bee-B2DM.svg","response":0,"trial_type":"image-button-response","trial_index":89,"time_elapsed":834496,"internal_node_id":"0.0-4.0-0.41","subject_id":"613ab0960ff3efd039adf1e0","study_id":"6197b3f67c2b5cd3b6d9596a","session_id":"619beefc0b8e32c4e0b6a88a","condition":"full-information","relevant_dimensions":["wings","legs"],"bee_group":{"antennae":"X","wings":"2","pattern":"X","legs":"M"},"action":"harvest","summary":"bad-harvest","bonus":0.12000000000000001},{"rt":1188.1000000238419,"stimulus":"\n                    <p><b>Action: <em>harvest</em></b></p>\n                    <p>This is the bee that you just saw.</p>\n                    <img src=\"bees-with-color/bee-B2DM.svg\" width=\"200\">\n                    <p><span class=\"redText\">Bad choice, the bee was angry.</span><br><b>You have been stung!</b><br>Your pay has been decreased by $0.10. Your bonus pay is now $0.28.</p>\n            ","response":0,"trial_type":"html-button-response","trial_index":90,"time_elapsed":835688,"internal_node_id":"0.0-4.0-1.41","subject_id":"613ab0960ff3efd039adf1e0","study_id":"6197b3f67c2b5cd3b6d9596a","session_id":"619beefc0b8e32c4e0b6a88a","condition":"full-information","relevant_dimensions":["wings","legs"],"bee_group":{"antennae":"X","wings":"2","pattern":"X","legs":"M"},"bonus":0.12000000000000001},{"rt":492.2999999523163,"stimulus":"bees-with-color/bee-A2DM.svg","response":1,"trial_type":"image-button-response","trial_index":91,"time_elapsed":836183,"internal_node_id":"0.0-4.0-0.42","subject_id":"613ab0960ff3efd039adf1e0","study_id":"6197b3f67c2b5cd3b6d9596a","session_id":"619beefc0b8e32c4e0b6a88a","condition":"full-information","relevant_dimensions":["wings","legs"],"bee_group":{"antennae":"X","wings":"2","pattern":"X","legs":"M"},"action":"avoid","summary":"good-avoid","bonus":0.12000000000000001},{"rt":470,"stimulus":"\n                    <p><b>Action: <em>avoid</em></b></p>\n                    <p>This is the bee that you just saw.</p>\n                    <img src=\"bees-with-color/bee-A2DM.svg\" width=\"200\">\n                    <p><span class=\"greenText\">Good choice!</span>  This bee would have stung you.<br>Your bonus pay is unchanged, and remains at $0.28.</p>\n            ","response":0,"trial_type":"html-button-response","trial_index":92,"time_elapsed":836657,"internal_node_id":"0.0-4.0-1.42","subject_id":"613ab0960ff3efd039adf1e0","study_id":"6197b3f67c2b5cd3b6d9596a","session_id":"619beefc0b8e32c4e0b6a88a","condition":"full-information","relevant_dimensions":["wings","legs"],"bee_group":{"antennae":"X","wings":"2","pattern":"X","legs":"M"},"bonus":0.12000000000000001},{"rt":434.5999999642372,"stimulus":"bees-with-color/bee-A2DF.svg","response":0,"trial_type":"image-button-response","trial_index":93,"time_elapsed":837095,"internal_node_id":"0.0-4.0-0.43","subject_id":"613ab0960ff3efd039adf1e0","study_id":"6197b3f67c2b5cd3b6d9596a","session_id":"619beefc0b8e32c4e0b6a88a","condition":"full-information","relevant_dimensions":["wings","legs"],"bee_group":{"antennae":"X","wings":"2","pattern":"X","legs":"M"},"action":"harvest","summary":"good-harvest","bonus":0.12000000000000001},{"rt":493.2999999523163,"stimulus":"\n                    <p><b>Action: <em>harvest</em></b></p>\n                    <p>This is the bee that you just saw.</p>\n                    <img src=\"bees-with-color/bee-A2DF.svg\" width=\"200\">\n                    <p><span class=\"greenText\"><b>Successful harvest!</b></span><br>Your pay has increased by $0.02. Your bonus pay is now $0.30.</p>\n            ","response":0,"trial_type":"html-button-response","trial_index":94,"time_elapsed":837592,"internal_node_id":"0.0-4.0-1.43","subject_id":"613ab0960ff3efd039adf1e0","study_id":"6197b3f67c2b5cd3b6d9596a","session_id":"619beefc0b8e32c4e0b6a88a","condition":"full-information","relevant_dimensions":["wings","legs"],"bee_group":{"antennae":"X","wings":"2","pattern":"X","legs":"M"},"bonus":0.12000000000000001},{"rt":708.9000000357628,"stimulus":"bees-with-color/bee-A1SM.svg","response":0,"trial_type":"image-button-response","trial_index":95,"time_elapsed":838303,"internal_node_id":"0.0-4.0-0.44","subject_id":"613ab0960ff3efd039adf1e0","study_id":"6197b3f67c2b5cd3b6d9596a","session_id":"619beefc0b8e32c4e0b6a88a","condition":"full-information","relevant_dimensions":["wings","legs"],"bee_group":{"antennae":"X","wings":"2","pattern":"X","legs":"M"},"action":"harvest","summary":"good-harvest","bonus":0.12000000000000001},{"rt":499.7000000476837,"stimulus":"\n                    <p><b>Action: <em>harvest</em></b></p>\n                    <p>This is the bee that you just saw.</p>\n                    <img src=\"bees-with-color/bee-A1SM.svg\" width=\"200\">\n                    <p><span class=\"greenText\"><b>Successful harvest!</b></span><br>Your pay has increased by $0.02. Your bonus pay is now $0.32.</p>\n            ","response":0,"trial_type":"html-button-response","trial_index":96,"time_elapsed":838807,"internal_node_id":"0.0-4.0-1.44","subject_id":"613ab0960ff3efd039adf1e0","study_id":"6197b3f67c2b5cd3b6d9596a","session_id":"619beefc0b8e32c4e0b6a88a","condition":"full-information","relevant_dimensions":["wings","legs"],"bee_group":{"antennae":"X","wings":"2","pattern":"X","legs":"M"},"bonus":0.12000000000000001},{"rt":708.8000000119209,"stimulus":"bees-with-color/bee-B1SF.svg","response":0,"trial_type":"image-button-response","trial_index":97,"time_elapsed":839519,"internal_node_id":"0.0-4.0-0.45","subject_id":"613ab0960ff3efd039adf1e0","study_id":"6197b3f67c2b5cd3b6d9596a","session_id":"619beefc0b8e32c4e0b6a88a","condition":"full-information","relevant_dimensions":["wings","legs"],"bee_group":{"antennae":"X","wings":"2","pattern":"X","legs":"M"},"action":"harvest","summary":"good-harvest","bonus":0.12000000000000001},{"rt":1619.800000011921,"stimulus":"\n                    <p><b>Action: <em>harvest</em></b></p>\n                    <p>This is the bee that you just saw.</p>\n                    <img src=\"bees-with-color/bee-B1SF.svg\" width=\"200\">\n                    <p><span class=\"greenText\"><b>Successful harvest!</b></span><br>Your pay has increased by $0.02. Your bonus pay is now $0.34.</p>\n            ","response":0,"trial_type":"html-button-response","trial_index":98,"time_elapsed":841143,"internal_node_id":"0.0-4.0-1.45","subject_id":"613ab0960ff3efd039adf1e0","study_id":"6197b3f67c2b5cd3b6d9596a","session_id":"619beefc0b8e32c4e0b6a88a","condition":"full-information","relevant_dimensions":["wings","legs"],"bee_group":{"antennae":"X","wings":"2","pattern":"X","legs":"M"},"bonus":0.12000000000000001},{"rt":541.3999999761581,"stimulus":"bees-with-color/bee-B2SF.svg","response":1,"trial_type":"image-button-response","trial_index":99,"time_elapsed":841688,"internal_node_id":"0.0-4.0-0.46","subject_id":"613ab0960ff3efd039adf1e0","study_id":"6197b3f67c2b5cd3b6d9596a","session_id":"619beefc0b8e32c4e0b6a88a","condition":"full-information","relevant_dimensions":["wings","legs"],"bee_group":{"antennae":"X","wings":"2","pattern":"X","legs":"M"},"action":"avoid","summary":"bad-avoid","bonus":0.12000000000000001},{"rt":884.1000000238419,"stimulus":"\n                    <p><b>Action: <em>avoid</em></b></p>\n                    <p>This is the bee that you just saw.</p>\n                    <img src=\"bees-with-color/bee-B2SF.svg\" width=\"200\">\n                    <p><span class=\"redText\">Bad choice,</span> the bee was friendly.<br>Your bonus pay is unchanged, and remains at $0.34.</p>\n            ","response":0,"trial_type":"html-button-response","trial_index":100,"time_elapsed":842575,"internal_node_id":"0.0-4.0-1.46","subject_id":"613ab0960ff3efd039adf1e0","study_id":"6197b3f67c2b5cd3b6d9596a","session_id":"619beefc0b8e32c4e0b6a88a","condition":"full-information","relevant_dimensions":["wings","legs"],"bee_group":{"antennae":"X","wings":"2","pattern":"X","legs":"M"},"bonus":0.12000000000000001},{"rt":549.1000000238419,"stimulus":"bees-with-color/bee-A1SF.svg","response":0,"trial_type":"image-button-response","trial_index":101,"time_elapsed":843127,"internal_node_id":"0.0-4.0-0.47","subject_id":"613ab0960ff3efd039adf1e0","study_id":"6197b3f67c2b5cd3b6d9596a","session_id":"619beefc0b8e32c4e0b6a88a","condition":"full-information","relevant_dimensions":["wings","legs"],"bee_group":{"antennae":"X","wings":"2","pattern":"X","legs":"M"},"action":"harvest","summary":"good-harvest","bonus":0.12000000000000001},{"rt":589.1000000238419,"stimulus":"\n                    <p><b>Action: <em>harvest</em></b></p>\n                    <p>This is the bee that you just saw.</p>\n                    <img src=\"bees-with-color/bee-A1SF.svg\" width=\"200\">\n                    <p><span class=\"greenText\"><b>Successful harvest!</b></span><br>Your pay has increased by $0.02. Your bonus pay is now $0.36.</p>\n            ","response":0,"trial_type":"html-button-response","trial_index":102,"time_elapsed":843720,"internal_node_id":"0.0-4.0-1.47","subject_id":"613ab0960ff3efd039adf1e0","study_id":"6197b3f67c2b5cd3b6d9596a","session_id":"619beefc0b8e32c4e0b6a88a","condition":"full-information","relevant_dimensions":["wings","legs"],"bee_group":{"antennae":"X","wings":"2","pattern":"X","legs":"M"},"bonus":0.12000000000000001},{"rt":483.80000001192093,"stimulus":"bees-with-color/bee-B2DF.svg","response":1,"trial_type":"image-button-response","trial_index":103,"time_elapsed":844207,"internal_node_id":"0.0-4.0-0.48","subject_id":"613ab0960ff3efd039adf1e0","study_id":"6197b3f67c2b5cd3b6d9596a","session_id":"619beefc0b8e32c4e0b6a88a","condition":"full-information","relevant_dimensions":["wings","legs"],"bee_group":{"antennae":"X","wings":"2","pattern":"X","legs":"M"},"action":"avoid","summary":"bad-avoid","bonus":0.12000000000000001},{"rt":828,"stimulus":"\n                    <p><b>Action: <em>avoid</em></b></p>\n                    <p>This is the bee that you just saw.</p>\n                    <img src=\"bees-with-color/bee-B2DF.svg\" width=\"200\">\n                    <p><span class=\"redText\">Bad choice,</span> the bee was friendly.<br>Your bonus pay is unchanged, and remains at $0.36.</p>\n            ","response":0,"trial_type":"html-button-response","trial_index":104,"time_elapsed":845039,"internal_node_id":"0.0-4.0-1.48","subject_id":"613ab0960ff3efd039adf1e0","study_id":"6197b3f67c2b5cd3b6d9596a","session_id":"619beefc0b8e32c4e0b6a88a","condition":"full-information","relevant_dimensions":["wings","legs"],"bee_group":{"antennae":"X","wings":"2","pattern":"X","legs":"M"},"bonus":0.12000000000000001},{"rt":460.39999997615814,"stimulus":"bees-with-color/bee-B1SM.svg","response":0,"trial_type":"image-button-response","trial_index":105,"time_elapsed":845503,"internal_node_id":"0.0-4.0-0.49","subject_id":"613ab0960ff3efd039adf1e0","study_id":"6197b3f67c2b5cd3b6d9596a","session_id":"619beefc0b8e32c4e0b6a88a","condition":"full-information","relevant_dimensions":["wings","legs"],"bee_group":{"antennae":"X","wings":"2","pattern":"X","legs":"M"},"action":"harvest","summary":"good-harvest","bonus":0.12000000000000001},{"rt":612.1999999880791,"stimulus":"\n                    <p><b>Action: <em>harvest</em></b></p>\n                    <p>This is the bee that you just saw.</p>\n                    <img src=\"bees-with-color/bee-B1SM.svg\" width=\"200\">\n                    <p><span class=\"greenText\"><b>Successful harvest!</b></span><br>Your pay has increased by $0.02. Your bonus pay is now $0.38.</p>\n            ","response":0,"trial_type":"html-button-response","trial_index":106,"time_elapsed":846119,"internal_node_id":"0.0-4.0-1.49","subject_id":"613ab0960ff3efd039adf1e0","study_id":"6197b3f67c2b5cd3b6d9596a","session_id":"619beefc0b8e32c4e0b6a88a","condition":"full-information","relevant_dimensions":["wings","legs"],"bee_group":{"antennae":"X","wings":"2","pattern":"X","legs":"M"},"bonus":0.12000000000000001},{"rt":444.5999999642372,"stimulus":"bees-with-color/bee-A1SM.svg","response":1,"trial_type":"image-button-response","trial_index":107,"time_elapsed":846567,"internal_node_id":"0.0-4.0-0.50","subject_id":"613ab0960ff3efd039adf1e0","study_id":"6197b3f67c2b5cd3b6d9596a","session_id":"619beefc0b8e32c4e0b6a88a","condition":"full-information","relevant_dimensions":["wings","legs"],"bee_group":{"antennae":"X","wings":"2","pattern":"X","legs":"M"},"action":"avoid","summary":"bad-avoid","bonus":0.12000000000000001},{"rt":708.6999999880791,"stimulus":"\n                    <p><b>Action: <em>avoid</em></b></p>\n                    <p>This is the bee that you just saw.</p>\n                    <img src=\"bees-with-color/bee-A1SM.svg\" width=\"200\">\n                    <p><span class=\"redText\">Bad choice,</span> the bee was friendly.<br>Your bonus pay is unchanged, and remains at $0.38.</p>\n            ","response":0,"trial_type":"html-button-response","trial_index":108,"time_elapsed":847281,"internal_node_id":"0.0-4.0-1.50","subject_id":"613ab0960ff3efd039adf1e0","study_id":"6197b3f67c2b5cd3b6d9596a","session_id":"619beefc0b8e32c4e0b6a88a","condition":"full-information","relevant_dimensions":["wings","legs"],"bee_group":{"antennae":"X","wings":"2","pattern":"X","legs":"M"},"bonus":0.12000000000000001},{"rt":427.2000000476837,"stimulus":"bees-with-color/bee-A2DF.svg","response":0,"trial_type":"image-button-response","trial_index":109,"time_elapsed":847712,"internal_node_id":"0.0-4.0-0.51","subject_id":"613ab0960ff3efd039adf1e0","study_id":"6197b3f67c2b5cd3b6d9596a","session_id":"619beefc0b8e32c4e0b6a88a","condition":"full-information","relevant_dimensions":["wings","legs"],"bee_group":{"antennae":"X","wings":"2","pattern":"X","legs":"M"},"action":"harvest","summary":"good-harvest","bonus":0.12000000000000001},{"rt":642.5,"stimulus":"\n                    <p><b>Action: <em>harvest</em></b></p>\n                    <p>This is the bee that you just saw.</p>\n                    <img src=\"bees-with-color/bee-A2DF.svg\" width=\"200\">\n                    <p><span class=\"greenText\"><b>Successful harvest!</b></span><br>Your pay has increased by $0.02. Your bonus pay is now $0.40.</p>\n            ","response":0,"trial_type":"html-button-response","trial_index":110,"time_elapsed":848360,"internal_node_id":"0.0-4.0-1.51","subject_id":"613ab0960ff3efd039adf1e0","study_id":"6197b3f67c2b5cd3b6d9596a","session_id":"619beefc0b8e32c4e0b6a88a","condition":"full-information","relevant_dimensions":["wings","legs"],"bee_group":{"antennae":"X","wings":"2","pattern":"X","legs":"M"},"bonus":0.12000000000000001},{"rt":411.30000001192093,"stimulus":"bees-with-color/bee-A1DM.svg","response":0,"trial_type":"image-button-response","trial_index":111,"time_elapsed":848775,"internal_node_id":"0.0-4.0-0.52","subject_id":"613ab0960ff3efd039adf1e0","study_id":"6197b3f67c2b5cd3b6d9596a","session_id":"619beefc0b8e32c4e0b6a88a","condition":"full-information","relevant_dimensions":["wings","legs"],"bee_group":{"antennae":"X","wings":"2","pattern":"X","legs":"M"},"action":"harvest","summary":"good-harvest","bonus":0.12000000000000001},{"rt":555.2999999523163,"stimulus":"\n                    <p><b>Action: <em>harvest</em></b></p>\n                    <p>This is the bee that you just saw.</p>\n                    <img src=\"bees-with-color/bee-A1DM.svg\" width=\"200\">\n                    <p><span class=\"greenText\"><b>Successful harvest!</b></span><br>Your pay has increased by $0.02. Your bonus pay is now $0.42.</p>\n            ","response":0,"trial_type":"html-button-response","trial_index":112,"time_elapsed":849335,"internal_node_id":"0.0-4.0-1.52","subject_id":"613ab0960ff3efd039adf1e0","study_id":"6197b3f67c2b5cd3b6d9596a","session_id":"619beefc0b8e32c4e0b6a88a","condition":"full-information","relevant_dimensions":["wings","legs"],"bee_group":{"antennae":"X","wings":"2","pattern":"X","legs":"M"},"bonus":0.12000000000000001},{"rt":396.7000000476837,"stimulus":"bees-with-color/bee-B2SF.svg","response":0,"trial_type":"image-button-response","trial_index":113,"time_elapsed":849736,"internal_node_id":"0.0-4.0-0.53","subject_id":"613ab0960ff3efd039adf1e0","study_id":"6197b3f67c2b5cd3b6d9596a","session_id":"619beefc0b8e32c4e0b6a88a","condition":"full-information","relevant_dimensions":["wings","legs"],"bee_group":{"antennae":"X","wings":"2","pattern":"X","legs":"M"},"action":"harvest","summary":"good-harvest","bonus":0.12000000000000001},{"rt":556.3999999761581,"stimulus":"\n                    <p><b>Action: <em>harvest</em></b></p>\n                    <p>This is the bee that you just saw.</p>\n                    <img src=\"bees-with-color/bee-B2SF.svg\" width=\"200\">\n                    <p><span class=\"greenText\"><b>Successful harvest!</b></span><br>Your pay has increased by $0.02. Your bonus pay is now $0.44.</p>\n            ","response":0,"trial_type":"html-button-response","trial_index":114,"time_elapsed":850296,"internal_node_id":"0.0-4.0-1.53","subject_id":"613ab0960ff3efd039adf1e0","study_id":"6197b3f67c2b5cd3b6d9596a","session_id":"619beefc0b8e32c4e0b6a88a","condition":"full-information","relevant_dimensions":["wings","legs"],"bee_group":{"antennae":"X","wings":"2","pattern":"X","legs":"M"},"bonus":0.12000000000000001},{"rt":499.89999997615814,"stimulus":"bees-with-color/bee-A2SM.svg","response":1,"trial_type":"image-button-response","trial_index":115,"time_elapsed":850800,"internal_node_id":"0.0-4.0-0.54","subject_id":"613ab0960ff3efd039adf1e0","study_id":"6197b3f67c2b5cd3b6d9596a","session_id":"619beefc0b8e32c4e0b6a88a","condition":"full-information","relevant_dimensions":["wings","legs"],"bee_group":{"antennae":"X","wings":"2","pattern":"X","legs":"M"},"action":"avoid","summary":"good-avoid","bonus":0.12000000000000001},{"rt":796,"stimulus":"\n                    <p><b>Action: <em>avoid</em></b></p>\n                    <p>This is the bee that you just saw.</p>\n                    <img src=\"bees-with-color/bee-A2SM.svg\" width=\"200\">\n                    <p><span class=\"greenText\">Good choice!</span>  This bee would have stung you.<br>Your bonus pay is unchanged, and remains at $0.44.</p>\n            ","response":0,"trial_type":"html-button-response","trial_index":116,"time_elapsed":851599,"internal_node_id":"0.0-4.0-1.54","subject_id":"613ab0960ff3efd039adf1e0","study_id":"6197b3f67c2b5cd3b6d9596a","session_id":"619beefc0b8e32c4e0b6a88a","condition":"full-information","relevant_dimensions":["wings","legs"],"bee_group":{"antennae":"X","wings":"2","pattern":"X","legs":"M"},"bonus":0.12000000000000001},{"rt":389,"stimulus":"bees-with-color/bee-A2DM.svg","response":0,"trial_type":"image-button-response","trial_index":117,"time_elapsed":851991,"internal_node_id":"0.0-4.0-0.55","subject_id":"613ab0960ff3efd039adf1e0","study_id":"6197b3f67c2b5cd3b6d9596a","session_id":"619beefc0b8e32c4e0b6a88a","condition":"full-information","relevant_dimensions":["wings","legs"],"bee_group":{"antennae":"X","wings":"2","pattern":"X","legs":"M"},"action":"harvest","summary":"bad-harvest","bonus":0.12000000000000001},{"rt":651.6999999880791,"stimulus":"\n                    <p><b>Action: <em>harvest</em></b></p>\n                    <p>This is the bee that you just saw.</p>\n                    <img src=\"bees-with-color/bee-A2DM.svg\" width=\"200\">\n                    <p><span class=\"redText\">Bad choice, the bee was angry.</span><br><b>You have been stung!</b><br>Your pay has been decreased by $0.10. Your bonus pay is now $0.34.</p>\n            ","response":0,"trial_type":"html-button-response","trial_index":118,"time_elapsed":852647,"internal_node_id":"0.0-4.0-1.55","subject_id":"613ab0960ff3efd039adf1e0","study_id":"6197b3f67c2b5cd3b6d9596a","session_id":"619beefc0b8e32c4e0b6a88a","condition":"full-information","relevant_dimensions":["wings","legs"],"bee_group":{"antennae":"X","wings":"2","pattern":"X","legs":"M"},"bonus":0.12000000000000001},{"rt":557.3000000119209,"stimulus":"bees-with-color/bee-A1DF.svg","response":1,"trial_type":"image-button-response","trial_index":119,"time_elapsed":853208,"internal_node_id":"0.0-4.0-0.56","subject_id":"613ab0960ff3efd039adf1e0","study_id":"6197b3f67c2b5cd3b6d9596a","session_id":"619beefc0b8e32c4e0b6a88a","condition":"full-information","relevant_dimensions":["wings","legs"],"bee_group":{"antennae":"X","wings":"2","pattern":"X","legs":"M"},"action":"avoid","summary":"bad-avoid","bonus":0.12000000000000001},{"rt":565.4000000357628,"stimulus":"\n                    <p><b>Action: <em>avoid</em></b></p>\n                    <p>This is the bee that you just saw.</p>\n                    <img src=\"bees-with-color/bee-A1DF.svg\" width=\"200\">\n                    <p><span class=\"redText\">Bad choice,</span> the bee was friendly.<br>Your bonus pay is unchanged, and remains at $0.34.</p>\n            ","response":0,"trial_type":"html-button-response","trial_index":120,"time_elapsed":853777,"internal_node_id":"0.0-4.0-1.56","subject_id":"613ab0960ff3efd039adf1e0","study_id":"6197b3f67c2b5cd3b6d9596a","session_id":"619beefc0b8e32c4e0b6a88a","condition":"full-information","relevant_dimensions":["wings","legs"],"bee_group":{"antennae":"X","wings":"2","pattern":"X","legs":"M"},"bonus":0.12000000000000001},{"rt":419.30000001192093,"stimulus":"bees-with-color/bee-B1DF.svg","response":0,"trial_type":"image-button-response","trial_index":121,"time_elapsed":854199,"internal_node_id":"0.0-4.0-0.57","subject_id":"613ab0960ff3efd039adf1e0","study_id":"6197b3f67c2b5cd3b6d9596a","session_id":"619beefc0b8e32c4e0b6a88a","condition":"full-information","relevant_dimensions":["wings","legs"],"bee_group":{"antennae":"X","wings":"2","pattern":"X","legs":"M"},"action":"harvest","summary":"good-harvest","bonus":0.12000000000000001},{"rt":492.30000001192093,"stimulus":"\n                    <p><b>Action: <em>harvest</em></b></p>\n                    <p>This is the bee that you just saw.</p>\n                    <img src=\"bees-with-color/bee-B1DF.svg\" width=\"200\">\n                    <p><span class=\"greenText\"><b>Successful harvest!</b></span><br>Your pay has increased by $0.02. Your bonus pay is now $0.36.</p>\n            ","response":0,"trial_type":"html-button-response","trial_index":122,"time_elapsed":854696,"internal_node_id":"0.0-4.0-1.57","subject_id":"613ab0960ff3efd039adf1e0","study_id":"6197b3f67c2b5cd3b6d9596a","session_id":"619beefc0b8e32c4e0b6a88a","condition":"full-information","relevant_dimensions":["wings","legs"],"bee_group":{"antennae":"X","wings":"2","pattern":"X","legs":"M"},"bonus":0.12000000000000001},{"rt":340.60000002384186,"stimulus":"bees-with-color/bee-B2DM.svg","response":0,"trial_type":"image-button-response","trial_index":123,"time_elapsed":855041,"internal_node_id":"0.0-4.0-0.58","subject_id":"613ab0960ff3efd039adf1e0","study_id":"6197b3f67c2b5cd3b6d9596a","session_id":"619beefc0b8e32c4e0b6a88a","condition":"full-information","relevant_dimensions":["wings","legs"],"bee_group":{"antennae":"X","wings":"2","pattern":"X","legs":"M"},"action":"harvest","summary":"bad-harvest","bonus":0.12000000000000001},{"rt":826.1999999880791,"stimulus":"\n                    <p><b>Action: <em>harvest</em></b></p>\n                    <p>This is the bee that you just saw.</p>\n                    <img src=\"bees-with-color/bee-B2DM.svg\" width=\"200\">\n                    <p><span class=\"redText\">Bad choice, the bee was angry.</span><br><b>You have been stung!</b><br>Your pay has been decreased by $0.10. Your bonus pay is now $0.26.</p>\n            ","response":0,"trial_type":"html-button-response","trial_index":124,"time_elapsed":855873,"internal_node_id":"0.0-4.0-1.58","subject_id":"613ab0960ff3efd039adf1e0","study_id":"6197b3f67c2b5cd3b6d9596a","session_id":"619beefc0b8e32c4e0b6a88a","condition":"full-information","relevant_dimensions":["wings","legs"],"bee_group":{"antennae":"X","wings":"2","pattern":"X","legs":"M"},"bonus":0.12000000000000001},{"rt":507.19999998807907,"stimulus":"bees-with-color/bee-B1DM.svg","response":1,"trial_type":"image-button-response","trial_index":125,"time_elapsed":856384,"internal_node_id":"0.0-4.0-0.59","subject_id":"613ab0960ff3efd039adf1e0","study_id":"6197b3f67c2b5cd3b6d9596a","session_id":"619beefc0b8e32c4e0b6a88a","condition":"full-information","relevant_dimensions":["wings","legs"],"bee_group":{"antennae":"X","wings":"2","pattern":"X","legs":"M"},"action":"avoid","summary":"bad-avoid","bonus":0.12000000000000001},{"rt":459.80000001192093,"stimulus":"\n                    <p><b>Action: <em>avoid</em></b></p>\n                    <p>This is the bee that you just saw.</p>\n                    <img src=\"bees-with-color/bee-B1DM.svg\" width=\"200\">\n                    <p><span class=\"redText\">Bad choice,</span> the bee was friendly.<br>Your bonus pay is unchanged, and remains at $0.26.</p>\n            ","response":0,"trial_type":"html-button-response","trial_index":126,"time_elapsed":856848,"internal_node_id":"0.0-4.0-1.59","subject_id":"613ab0960ff3efd039adf1e0","study_id":"6197b3f67c2b5cd3b6d9596a","session_id":"619beefc0b8e32c4e0b6a88a","condition":"full-information","relevant_dimensions":["wings","legs"],"bee_group":{"antennae":"X","wings":"2","pattern":"X","legs":"M"},"bonus":0.12000000000000001},{"rt":437.30000001192093,"stimulus":"bees-with-color/bee-B1SF.svg","response":0,"trial_type":"image-button-response","trial_index":127,"time_elapsed":857289,"internal_node_id":"0.0-4.0-0.60","subject_id":"613ab0960ff3efd039adf1e0","study_id":"6197b3f67c2b5cd3b6d9596a","session_id":"619beefc0b8e32c4e0b6a88a","condition":"full-information","relevant_dimensions":["wings","legs"],"bee_group":{"antennae":"X","wings":"2","pattern":"X","legs":"M"},"action":"harvest","summary":"good-harvest","bonus":0.12000000000000001},{"rt":643.1999999880791,"stimulus":"\n                    <p><b>Action: <em>harvest</em></b></p>\n                    <p>This is the bee that you just saw.</p>\n                    <img src=\"bees-with-color/bee-B1SF.svg\" width=\"200\">\n                    <p><span class=\"greenText\"><b>Successful harvest!</b></span><br>Your pay has increased by $0.02. Your bonus pay is now $0.28.</p>\n            ","response":0,"trial_type":"html-button-response","trial_index":128,"time_elapsed":857936,"internal_node_id":"0.0-4.0-1.60","subject_id":"613ab0960ff3efd039adf1e0","study_id":"6197b3f67c2b5cd3b6d9596a","session_id":"619beefc0b8e32c4e0b6a88a","condition":"full-information","relevant_dimensions":["wings","legs"],"bee_group":{"antennae":"X","wings":"2","pattern":"X","legs":"M"},"bonus":0.12000000000000001},{"rt":339.10000002384186,"stimulus":"bees-with-color/bee-A2SF.svg","response":0,"trial_type":"image-button-response","trial_index":129,"time_elapsed":858279,"internal_node_id":"0.0-4.0-0.61","subject_id":"613ab0960ff3efd039adf1e0","study_id":"6197b3f67c2b5cd3b6d9596a","session_id":"619beefc0b8e32c4e0b6a88a","condition":"full-information","relevant_dimensions":["wings","legs"],"bee_group":{"antennae":"X","wings":"2","pattern":"X","legs":"M"},"action":"harvest","summary":"good-harvest","bonus":0.12000000000000001},{"rt":540.5,"stimulus":"\n                    <p><b>Action: <em>harvest</em></b></p>\n                    <p>This is the bee that you just saw.</p>\n                    <img src=\"bees-with-color/bee-A2SF.svg\" width=\"200\">\n                    <p><span class=\"greenText\"><b>Successful harvest!</b></span><br>Your pay has increased by $0.02. Your bonus pay is now $0.30.</p>\n            ","response":0,"trial_type":"html-button-response","trial_index":130,"time_elapsed":858823,"internal_node_id":"0.0-4.0-1.61","subject_id":"613ab0960ff3efd039adf1e0","study_id":"6197b3f67c2b5cd3b6d9596a","session_id":"619beefc0b8e32c4e0b6a88a","condition":"full-information","relevant_dimensions":["wings","legs"],"bee_group":{"antennae":"X","wings":"2","pattern":"X","legs":"M"},"bonus":0.12000000000000001},{"rt":380.80000001192093,"stimulus":"bees-with-color/bee-B2SM.svg","response":0,"trial_type":"image-button-response","trial_index":131,"time_elapsed":859208,"internal_node_id":"0.0-4.0-0.62","subject_id":"613ab0960ff3efd039adf1e0","study_id":"6197b3f67c2b5cd3b6d9596a","session_id":"619beefc0b8e32c4e0b6a88a","condition":"full-information","relevant_dimensions":["wings","legs"],"bee_group":{"antennae":"X","wings":"2","pattern":"X","legs":"M"},"action":"harvest","summary":"bad-harvest","bonus":0.12000000000000001},{"rt":691.8000000119209,"stimulus":"\n                    <p><b>Action: <em>harvest</em></b></p>\n                    <p>This is the bee that you just saw.</p>\n                    <img src=\"bees-with-color/bee-B2SM.svg\" width=\"200\">\n                    <p><span class=\"redText\">Bad choice, the bee was angry.</span><br><b>You have been stung!</b><br>Your pay has been decreased by $0.10. Your bonus pay is now $0.20.</p>\n            ","response":0,"trial_type":"html-button-response","trial_index":132,"time_elapsed":859904,"internal_node_id":"0.0-4.0-1.62","subject_id":"613ab0960ff3efd039adf1e0","study_id":"6197b3f67c2b5cd3b6d9596a","session_id":"619beefc0b8e32c4e0b6a88a","condition":"full-information","relevant_dimensions":["wings","legs"],"bee_group":{"antennae":"X","wings":"2","pattern":"X","legs":"M"},"bonus":0.12000000000000001},{"rt":716.8000000119209,"stimulus":"bees-with-color/bee-A1SF.svg","response":1,"trial_type":"image-button-response","trial_index":133,"time_elapsed":860633,"internal_node_id":"0.0-4.0-0.63","subject_id":"613ab0960ff3efd039adf1e0","study_id":"6197b3f67c2b5cd3b6d9596a","session_id":"619beefc0b8e32c4e0b6a88a","condition":"full-information","relevant_dimensions":["wings","legs"],"bee_group":{"antennae":"X","wings":"2","pattern":"X","legs":"M"},"action":"avoid","summary":"bad-avoid","bonus":0.12000000000000001},{"rt":541.1999999880791,"stimulus":"\n                    <p><b>Action: <em>avoid</em></b></p>\n                    <p>This is the bee that you just saw.</p>\n                    <img src=\"bees-with-color/bee-A1SF.svg\" width=\"200\">\n                    <p><span class=\"redText\">Bad choice,</span> the bee was friendly.<br>Your bonus pay is unchanged, and remains at $0.20.</p>\n            ","response":0,"trial_type":"html-button-response","trial_index":134,"time_elapsed":861178,"internal_node_id":"0.0-4.0-1.63","subject_id":"613ab0960ff3efd039adf1e0","study_id":"6197b3f67c2b5cd3b6d9596a","session_id":"619beefc0b8e32c4e0b6a88a","condition":"full-information","relevant_dimensions":["wings","legs"],"bee_group":{"antennae":"X","wings":"2","pattern":"X","legs":"M"},"bonus":0.12000000000000001},{"rt":5265.399999976158,"stimulus":"You have completed the first part of this experiment.<br><br>You will now begin a shorter second part, in which you will receive no feedback.<br>The same rules regarding bonus pay apply.<br><br>Press any key to begin.","response":" ","trial_type":"html-keyboard-response","trial_index":135,"time_elapsed":866447,"internal_node_id":"0.0-5.0","subject_id":"613ab0960ff3efd039adf1e0","study_id":"6197b3f67c2b5cd3b6d9596a","session_id":"619beefc0b8e32c4e0b6a88a","condition":"full-information","relevant_dimensions":["wings","legs"],"bee_group":{"antennae":"X","wings":"2","pattern":"X","legs":"M"},"bonus":0.12000000000000001},{"rt":16806.200000047684,"stimulus":"bees-with-color/bee-A1DF.svg","response":0,"trial_type":"image-button-response","trial_index":136,"time_elapsed":883273,"internal_node_id":"0.0-6.0-0.0","subject_id":"613ab0960ff3efd039adf1e0","study_id":"6197b3f67c2b5cd3b6d9596a","session_id":"619beefc0b8e32c4e0b6a88a","condition":"full-information","relevant_dimensions":["wings","legs"],"bee_group":{"antennae":"X","wings":"2","pattern":"X","legs":"M"},"bonus":0.12000000000000001},{"rt":681.1999999880791,"stimulus":"bees-with-color/bee-B1SF.svg","response":1,"trial_type":"image-button-response","trial_index":137,"time_elapsed":883961,"internal_node_id":"0.0-6.0-0.1","subject_id":"613ab0960ff3efd039adf1e0","study_id":"6197b3f67c2b5cd3b6d9596a","session_id":"619beefc0b8e32c4e0b6a88a","condition":"full-information","relevant_dimensions":["wings","legs"],"bee_group":{"antennae":"X","wings":"2","pattern":"X","legs":"M"},"bonus":0.12000000000000001},{"rt":387,"stimulus":"bees-with-color/bee-B2DF.svg","response":0,"trial_type":"image-button-response","trial_index":138,"time_elapsed":884354,"internal_node_id":"0.0-6.0-0.2","subject_id":"613ab0960ff3efd039adf1e0","study_id":"6197b3f67c2b5cd3b6d9596a","session_id":"619beefc0b8e32c4e0b6a88a","condition":"full-information","relevant_dimensions":["wings","legs"],"bee_group":{"antennae":"X","wings":"2","pattern":"X","legs":"M"},"bonus":0.12000000000000001},{"rt":513.8999999761581,"stimulus":"bees-with-color/bee-B2SM.svg","response":0,"trial_type":"image-button-response","trial_index":139,"time_elapsed":884873,"internal_node_id":"0.0-6.0-0.3","subject_id":"613ab0960ff3efd039adf1e0","study_id":"6197b3f67c2b5cd3b6d9596a","session_id":"619beefc0b8e32c4e0b6a88a","condition":"full-information","relevant_dimensions":["wings","legs"],"bee_group":{"antennae":"X","wings":"2","pattern":"X","legs":"M"},"bonus":0.12000000000000001},{"rt":394.60000002384186,"stimulus":"bees-with-color/bee-B2SF.svg","response":1,"trial_type":"image-button-response","trial_index":140,"time_elapsed":885273,"internal_node_id":"0.0-6.0-0.4","subject_id":"613ab0960ff3efd039adf1e0","study_id":"6197b3f67c2b5cd3b6d9596a","session_id":"619beefc0b8e32c4e0b6a88a","condition":"full-information","relevant_dimensions":["wings","legs"],"bee_group":{"antennae":"X","wings":"2","pattern":"X","legs":"M"},"bonus":0.12000000000000001},{"rt":411,"stimulus":"bees-with-color/bee-A2DF.svg","response":0,"trial_type":"image-button-response","trial_index":141,"time_elapsed":885689,"internal_node_id":"0.0-6.0-0.5","subject_id":"613ab0960ff3efd039adf1e0","study_id":"6197b3f67c2b5cd3b6d9596a","session_id":"619beefc0b8e32c4e0b6a88a","condition":"full-information","relevant_dimensions":["wings","legs"],"bee_group":{"antennae":"X","wings":"2","pattern":"X","legs":"M"},"bonus":0.12000000000000001},{"rt":323.10000002384186,"stimulus":"bees-with-color/bee-A2SF.svg","response":1,"trial_type":"image-button-response","trial_index":142,"time_elapsed":886017,"internal_node_id":"0.0-6.0-0.6","subject_id":"613ab0960ff3efd039adf1e0","study_id":"6197b3f67c2b5cd3b6d9596a","session_id":"619beefc0b8e32c4e0b6a88a","condition":"full-information","relevant_dimensions":["wings","legs"],"bee_group":{"antennae":"X","wings":"2","pattern":"X","legs":"M"},"bonus":0.12000000000000001},{"rt":331,"stimulus":"bees-with-color/bee-B2DM.svg","response":0,"trial_type":"image-button-response","trial_index":143,"time_elapsed":886354,"internal_node_id":"0.0-6.0-0.7","subject_id":"613ab0960ff3efd039adf1e0","study_id":"6197b3f67c2b5cd3b6d9596a","session_id":"619beefc0b8e32c4e0b6a88a","condition":"full-information","relevant_dimensions":["wings","legs"],"bee_group":{"antennae":"X","wings":"2","pattern":"X","legs":"M"},"bonus":0.12000000000000001},{"rt":305.5,"stimulus":"bees-with-color/bee-A2SM.svg","response":1,"trial_type":"image-button-response","trial_index":144,"time_elapsed":886665,"internal_node_id":"0.0-6.0-0.8","subject_id":"613ab0960ff3efd039adf1e0","study_id":"6197b3f67c2b5cd3b6d9596a","session_id":"619beefc0b8e32c4e0b6a88a","condition":"full-information","relevant_dimensions":["wings","legs"],"bee_group":{"antennae":"X","wings":"2","pattern":"X","legs":"M"},"bonus":0.12000000000000001},{"rt":817.7000000476837,"stimulus":"bees-with-color/bee-B1SM.svg","response":0,"trial_type":"image-button-response","trial_index":145,"time_elapsed":887489,"internal_node_id":"0.0-6.0-0.9","subject_id":"613ab0960ff3efd039adf1e0","study_id":"6197b3f67c2b5cd3b6d9596a","session_id":"619beefc0b8e32c4e0b6a88a","condition":"full-information","relevant_dimensions":["wings","legs"],"bee_group":{"antennae":"X","wings":"2","pattern":"X","legs":"M"},"bonus":0.12000000000000001},{"rt":490.9000000357628,"stimulus":"bees-with-color/bee-B1DF.svg","response":1,"trial_type":"image-button-response","trial_index":146,"time_elapsed":887985,"internal_node_id":"0.0-6.0-0.10","subject_id":"613ab0960ff3efd039adf1e0","study_id":"6197b3f67c2b5cd3b6d9596a","session_id":"619beefc0b8e32c4e0b6a88a","condition":"full-information","relevant_dimensions":["wings","legs"],"bee_group":{"antennae":"X","wings":"2","pattern":"X","legs":"M"},"bonus":0.12000000000000001},{"rt":419.19999998807907,"stimulus":"bees-with-color/bee-A1SF.svg","response":0,"trial_type":"image-button-response","trial_index":147,"time_elapsed":888408,"internal_node_id":"0.0-6.0-0.11","subject_id":"613ab0960ff3efd039adf1e0","study_id":"6197b3f67c2b5cd3b6d9596a","session_id":"619beefc0b8e32c4e0b6a88a","condition":"full-information","relevant_dimensions":["wings","legs"],"bee_group":{"antennae":"X","wings":"2","pattern":"X","legs":"M"},"bonus":0.12000000000000001},{"rt":315.7000000476837,"stimulus":"bees-with-color/bee-A2DM.svg","response":1,"trial_type":"image-button-response","trial_index":148,"time_elapsed":888729,"internal_node_id":"0.0-6.0-0.12","subject_id":"613ab0960ff3efd039adf1e0","study_id":"6197b3f67c2b5cd3b6d9596a","session_id":"619beefc0b8e32c4e0b6a88a","condition":"full-information","relevant_dimensions":["wings","legs"],"bee_group":{"antennae":"X","wings":"2","pattern":"X","legs":"M"},"bonus":0.12000000000000001},{"rt":346.2000000476837,"stimulus":"bees-with-color/bee-B1DM.svg","response":0,"trial_type":"image-button-response","trial_index":149,"time_elapsed":889081,"internal_node_id":"0.0-6.0-0.13","subject_id":"613ab0960ff3efd039adf1e0","study_id":"6197b3f67c2b5cd3b6d9596a","session_id":"619beefc0b8e32c4e0b6a88a","condition":"full-information","relevant_dimensions":["wings","legs"],"bee_group":{"antennae":"X","wings":"2","pattern":"X","legs":"M"},"bonus":0.12000000000000001},{"rt":305.2000000476837,"stimulus":"bees-with-color/bee-A1DM.svg","response":1,"trial_type":"image-button-response","trial_index":150,"time_elapsed":889393,"internal_node_id":"0.0-6.0-0.14","subject_id":"613ab0960ff3efd039adf1e0","study_id":"6197b3f67c2b5cd3b6d9596a","session_id":"619beefc0b8e32c4e0b6a88a","condition":"full-information","relevant_dimensions":["wings","legs"],"bee_group":{"antennae":"X","wings":"2","pattern":"X","legs":"M"},"bonus":0.12000000000000001},{"rt":315.4000000357628,"stimulus":"bees-with-color/bee-A1SM.svg","response":0,"trial_type":"image-button-response","trial_index":151,"time_elapsed":889713,"internal_node_id":"0.0-6.0-0.15","subject_id":"613ab0960ff3efd039adf1e0","study_id":"6197b3f67c2b5cd3b6d9596a","session_id":"619beefc0b8e32c4e0b6a88a","condition":"full-information","relevant_dimensions":["wings","legs"],"bee_group":{"antennae":"X","wings":"2","pattern":"X","legs":"M"},"bonus":0.12000000000000001},{"rt":370.39999997615814,"stimulus":"bees-with-color/bee-A1DM.svg","response":1,"trial_type":"image-button-response","trial_index":152,"time_elapsed":890089,"internal_node_id":"0.0-6.0-0.16","subject_id":"613ab0960ff3efd039adf1e0","study_id":"6197b3f67c2b5cd3b6d9596a","session_id":"619beefc0b8e32c4e0b6a88a","condition":"full-information","relevant_dimensions":["wings","legs"],"bee_group":{"antennae":"X","wings":"2","pattern":"X","legs":"M"},"bonus":0.12000000000000001},{"rt":373.30000001192093,"stimulus":"bees-with-color/bee-B2DM.svg","response":0,"trial_type":"image-button-response","trial_index":153,"time_elapsed":890466,"internal_node_id":"0.0-6.0-0.17","subject_id":"613ab0960ff3efd039adf1e0","study_id":"6197b3f67c2b5cd3b6d9596a","session_id":"619beefc0b8e32c4e0b6a88a","condition":"full-information","relevant_dimensions":["wings","legs"],"bee_group":{"antennae":"X","wings":"2","pattern":"X","legs":"M"},"bonus":0.12000000000000001},{"rt":459.39999997615814,"stimulus":"bees-with-color/bee-B1DM.svg","response":1,"trial_type":"image-button-response","trial_index":154,"time_elapsed":890929,"internal_node_id":"0.0-6.0-0.18","subject_id":"613ab0960ff3efd039adf1e0","study_id":"6197b3f67c2b5cd3b6d9596a","session_id":"619beefc0b8e32c4e0b6a88a","condition":"full-information","relevant_dimensions":["wings","legs"],"bee_group":{"antennae":"X","wings":"2","pattern":"X","legs":"M"},"bonus":0.12000000000000001},{"rt":331.2999999523163,"stimulus":"bees-with-color/bee-B1DF.svg","response":1,"trial_type":"image-button-response","trial_index":155,"time_elapsed":891265,"internal_node_id":"0.0-6.0-0.19","subject_id":"613ab0960ff3efd039adf1e0","study_id":"6197b3f67c2b5cd3b6d9596a","session_id":"619beefc0b8e32c4e0b6a88a","condition":"full-information","relevant_dimensions":["wings","legs"],"bee_group":{"antennae":"X","wings":"2","pattern":"X","legs":"M"},"bonus":0.12000000000000001},{"rt":923.8999999761581,"stimulus":"bees-with-color/bee-A2SM.svg","response":0,"trial_type":"image-button-response","trial_index":156,"time_elapsed":892193,"internal_node_id":"0.0-6.0-0.20","subject_id":"613ab0960ff3efd039adf1e0","study_id":"6197b3f67c2b5cd3b6d9596a","session_id":"619beefc0b8e32c4e0b6a88a","condition":"full-information","relevant_dimensions":["wings","legs"],"bee_group":{"antennae":"X","wings":"2","pattern":"X","legs":"M"},"bonus":0.12000000000000001},{"rt":171.39999997615814,"stimulus":"bees-with-color/bee-A1SF.svg","response":0,"trial_type":"image-button-response","trial_index":157,"time_elapsed":892368,"internal_node_id":"0.0-6.0-0.21","subject_id":"613ab0960ff3efd039adf1e0","study_id":"6197b3f67c2b5cd3b6d9596a","session_id":"619beefc0b8e32c4e0b6a88a","condition":"full-information","relevant_dimensions":["wings","legs"],"bee_group":{"antennae":"X","wings":"2"