[{"success":true,"trial_type":"fullscreen","trial_index":0,"time_elapsed":7158,"internal_node_id":"0.0-0.0","subject_id":"5b8c8e7d0c740e00019d55c3","study_id":"6197b3f67c2b5cd3b6d9596a","session_id":"619be3194eda710dc9aa83b3","condition":"full-information","relevant_dimensions":["pattern","legs"],"bee_group":{"antennae":"X","wings":"X","pattern":"S","legs":"F"},"bonus":1.2400000000000013},{"success":true,"timeout":false,"failed_images":[],"failed_audio":[],"failed_video":[],"trial_type":"preload","trial_index":1,"time_elapsed":8702,"internal_node_id":"0.0-1.0","subject_id":"5b8c8e7d0c740e00019d55c3","study_id":"6197b3f67c2b5cd3b6d9596a","session_id":"619be3194eda710dc9aa83b3","condition":"full-information","relevant_dimensions":["pattern","legs"],"bee_group":{"antennae":"X","wings":"X","pattern":"S","legs":"F"},"bonus":1.2400000000000013},{"rt":19226.399999999994,"stimulus":"Welcome! Press any key to begin.","response":" ","trial_type":"html-keyboard-response","trial_index":2,"time_elapsed":27930,"internal_node_id":"0.0-2.0","subject_id":"5b8c8e7d0c740e00019d55c3","study_id":"6197b3f67c2b5cd3b6d9596a","session_id":"619be3194eda710dc9aa83b3","condition":"full-information","relevant_dimensions":["pattern","legs"],"bee_group":{"antennae":"X","wings":"X","pattern":"S","legs":"F"},"bonus":1.2400000000000013},{"view_history":[{"page_index":0,"viewing_time":5625.099999999977},{"page_index":1,"viewing_time":16007.300000000017},{"page_index":2,"viewing_time":20247.5},{"page_index":3,"viewing_time":12343.600000000006},{"page_index":4,"viewing_time":11759.799999999988},{"page_index":5,"viewing_time":6687.799999999988},{"page_index":6,"viewing_time":1488},{"page_index":5,"viewing_time":13335.600000000035},{"page_index":6,"viewing_time":18623.5},{"page_index":7,"viewing_time":27415.29999999999},{"page_index":8,"viewing_time":8375.799999999988},{"page_index":9,"viewing_time":5039.799999999988},{"page_index":10,"viewing_time":4263.799999999988},{"page_index":11,"viewing_time":18527.600000000035},{"page_index":12,"viewing_time":10743.599999999977},{"page_index":13,"viewing_time":1296.100000000035},{"page_index":14,"viewing_time":2159.899999999965}],"rt":183940.5,"trial_type":"instructions","trial_index":3,"time_elapsed":211875,"internal_node_id":"0.0-3.0-0.0","subject_id":"5b8c8e7d0c740e00019d55c3","study_id":"6197b3f67c2b5cd3b6d9596a","session_id":"619be3194eda710dc9aa83b3","condition":"full-information","relevant_dimensions":["pattern","legs"],"bee_group":{"antennae":"X","wings":"X","pattern":"S","legs":"F"},"bonus":1.2400000000000013},{"rt":13857.799999999988,"response":{"Q0":["Two or six legs","Stripes or spots on body","Single or double wings","Antennae or no antennae"]},"question_order":[0],"trial_type":"survey-multi-select","trial_index":4,"time_elapsed":225740,"internal_node_id":"0.0-3.0-1.0","subject_id":"5b8c8e7d0c740e00019d55c3","study_id":"6197b3f67c2b5cd3b6d9596a","session_id":"619be3194eda710dc9aa83b3","condition":"full-information","relevant_dimensions":["pattern","legs"],"bee_group":{"antennae":"X","wings":"X","pattern":"S","legs":"F"},"correct":true,"bonus":1.2400000000000013},{"rt":19363.800000000047,"response":{"Q1":"No.","Q2":"Based on the four features of the bee.","Q3":"You learn if it was friendly or dangerous, but do not alter your bonus."},"question_order":[0,1,2],"trial_type":"survey-multi-choice","trial_index":5,"time_elapsed":245107,"internal_node_id":"0.0-3.0-2.0","subject_id":"5b8c8e7d0c740e00019d55c3","study_id":"6197b3f67c2b5cd3b6d9596a","session_id":"619be3194eda710dc9aa83b3","condition":"full-information","relevant_dimensions":["pattern","legs"],"bee_group":{"antennae":"X","wings":"X","pattern":"S","legs":"F"},"correct":true,"bonus":1.2400000000000013},{"rt":2853.2999999999884,"stimulus":"<p>Congrats, you got everything right<br>When you're ready, click the button below to continue to the experiment.</p>","response":0,"trial_type":"html-button-response","trial_index":6,"time_elapsed":247963,"internal_node_id":"0.0-3.0-3.0","subject_id":"5b8c8e7d0c740e00019d55c3","study_id":"6197b3f67c2b5cd3b6d9596a","session_id":"619be3194eda710dc9aa83b3","condition":"full-information","relevant_dimensions":["pattern","legs"],"bee_group":{"antennae":"X","wings":"X","pattern":"S","legs":"F"},"bonus":1.2400000000000013},{"rt":6371.600000000035,"stimulus":"bees-with-color/bee-B2DF.svg","response":0,"trial_type":"image-button-response","trial_index":7,"time_elapsed":254340,"internal_node_id":"0.0-4.0-0.0","subject_id":"5b8c8e7d0c740e00019d55c3","study_id":"6197b3f67c2b5cd3b6d9596a","session_id":"619be3194eda710dc9aa83b3","condition":"full-information","relevant_dimensions":["pattern","legs"],"bee_group":{"antennae":"X","wings":"X","pattern":"S","legs":"F"},"action":"harvest","summary":"good-harvest","bonus":1.2400000000000013},{"rt":6443.400000000023,"stimulus":"\n                    <p><b>Action: <em>harvest</em></b></p>\n                    <p>This is the bee that you just saw.</p>\n                    <img src=\"bees-with-color/bee-B2DF.svg\" width=\"200\">\n                    <p><span class=\"greenText\"><b>Successful harvest!</b></span><br>Your pay has increased by $0.02. Your bonus pay is now $0.56.</p>\n            ","response":0,"trial_type":"html-button-response","trial_index":8,"time_elapsed":260787,"internal_node_id":"0.0-4.0-1.0","subject_id":"5b8c8e7d0c740e00019d55c3","study_id":"6197b3f67c2b5cd3b6d9596a","session_id":"619be3194eda710dc9aa83b3","condition":"full-information","relevant_dimensions":["pattern","legs"],"bee_group":{"antennae":"X","wings":"X","pattern":"S","legs":"F"},"bonus":1.2400000000000013},{"rt":8356.700000000012,"stimulus":"bees-with-color/bee-A1DM.svg","response":0,"trial_type":"image-button-response","trial_index":9,"time_elapsed":269147,"internal_node_id":"0.0-4.0-0.1","subject_id":"5b8c8e7d0c740e00019d55c3","study_id":"6197b3f67c2b5cd3b6d9596a","session_id":"619be3194eda710dc9aa83b3","condition":"full-information","relevant_dimensions":["pattern","legs"],"bee_group":{"antennae":"X","wings":"X","pattern":"S","legs":"F"},"action":"harvest","summary":"good-harvest","bonus":1.2400000000000013},{"rt":6420.700000000012,"stimulus":"\n                    <p><b>Action: <em>harvest</em></b></p>\n                    <p>This is the bee that you just saw.</p>\n                    <img src=\"bees-with-color/bee-A1DM.svg\" width=\"200\">\n                    <p><span class=\"greenText\"><b>Successful harvest!</b></span><br>Your pay has increased by $0.02. Your bonus pay is now $0.58.</p>\n            ","response":0,"trial_type":"html-button-response","trial_index":10,"time_elapsed":275571,"internal_node_id":"0.0-4.0-1.1","subject_id":"5b8c8e7d0c740e00019d55c3","study_id":"6197b3f67c2b5cd3b6d9596a","session_id":"619be3194eda710dc9aa83b3","condition":"full-information","relevant_dimensions":["pattern","legs"],"bee_group":{"antennae":"X","wings":"X","pattern":"S","legs":"F"},"bonus":1.2400000000000013},{"rt":4156.900000000023,"stimulus":"bees-with-color/bee-B1SF.svg","response":0,"trial_type":"image-button-response","trial_index":11,"time_elapsed":279731,"internal_node_id":"0.0-4.0-0.2","subject_id":"5b8c8e7d0c740e00019d55c3","study_id":"6197b3f67c2b5cd3b6d9596a","session_id":"619be3194eda710dc9aa83b3","condition":"full-information","relevant_dimensions":["pattern","legs"],"bee_group":{"antennae":"X","wings":"X","pattern":"S","legs":"F"},"action":"harvest","summary":"bad-harvest","bonus":1.2400000000000013},{"rt":1573.2000000000116,"stimulus":"\n                    <p><b>Action: <em>harvest</em></b></p>\n                    <p>This is the bee that you just saw.</p>\n                    <img src=\"bees-with-color/bee-B1SF.svg\" width=\"200\">\n                    <p><span class=\"redText\">Bad choice, the bee was angry.</span><br><b>You have been stung!</b><br>Your pay has been decreased by $0.10. Your bonus pay is now $0.48.</p>\n            ","response":0,"trial_type":"html-button-response","trial_index":12,"time_elapsed":281306,"internal_node_id":"0.0-4.0-1.2","subject_id":"5b8c8e7d0c740e00019d55c3","study_id":"6197b3f67c2b5cd3b6d9596a","session_id":"619be3194eda710dc9aa83b3","condition":"full-information","relevant_dimensions":["pattern","legs"],"bee_group":{"antennae":"X","wings":"X","pattern":"S","legs":"F"},"bonus":1.2400000000000013},{"rt":3549.5,"stimulus":"bees-with-color/bee-B2SM.svg","response":0,"trial_type":"image-button-response","trial_index":13,"time_elapsed":284858,"internal_node_id":"0.0-4.0-0.3","subject_id":"5b8c8e7d0c740e00019d55c3","study_id":"6197b3f67c2b5cd3b6d9596a","session_id":"619be3194eda710dc9aa83b3","condition":"full-information","relevant_dimensions":["pattern","legs"],"bee_group":{"antennae":"X","wings":"X","pattern":"S","legs":"F"},"action":"harvest","summary":"good-harvest","bonus":1.2400000000000013},{"rt":2990,"stimulus":"\n                    <p><b>Action: <em>harvest</em></b></p>\n                    <p>This is the bee that you just saw.</p>\n                    <img src=\"bees-with-color/bee-B2SM.svg\" width=\"200\">\n                    <p><span class=\"greenText\"><b>Successful harvest!</b></span><br>Your pay has increased by $0.02. Your bonus pay is now $0.50.</p>\n            ","response":0,"trial_type":"html-button-response","trial_index":14,"time_elapsed":287850,"internal_node_id":"0.0-4.0-1.3","subject_id":"5b8c8e7d0c740e00019d55c3","study_id":"6197b3f67c2b5cd3b6d9596a","session_id":"619be3194eda710dc9aa83b3","condition":"full-information","relevant_dimensions":["pattern","legs"],"bee_group":{"antennae":"X","wings":"X","pattern":"S","legs":"F"},"bonus":1.2400000000000013},{"rt":4965.299999999988,"stimulus":"bees-with-color/bee-A1DF.svg","response":0,"trial_type":"image-button-response","trial_index":15,"time_elapsed":292818,"internal_node_id":"0.0-4.0-0.4","subject_id":"5b8c8e7d0c740e00019d55c3","study_id":"6197b3f67c2b5cd3b6d9596a","session_id":"619be3194eda710dc9aa83b3","condition":"full-information","relevant_dimensions":["pattern","legs"],"bee_group":{"antennae":"X","wings":"X","pattern":"S","legs":"F"},"action":"harvest","summary":"good-harvest","bonus":1.2400000000000013},{"rt":2789.9000000000233,"stimulus":"\n                    <p><b>Action: <em>harvest</em></b></p>\n                    <p>This is the bee that you just saw.</p>\n                    <img src=\"bees-with-color/bee-A1DF.svg\" width=\"200\">\n                    <p><span class=\"greenText\"><b>Successful harvest!</b></span><br>Your pay has increased by $0.02. Your bonus pay is now $0.52.</p>\n            ","response":0,"trial_type":"html-button-response","trial_index":16,"time_elapsed":295610,"internal_node_id":"0.0-4.0-1.4","subject_id":"5b8c8e7d0c740e00019d55c3","study_id":"6197b3f67c2b5cd3b6d9596a","session_id":"619be3194eda710dc9aa83b3","condition":"full-information","relevant_dimensions":["pattern","legs"],"bee_group":{"antennae":"X","wings":"X","pattern":"S","legs":"F"},"bonus":1.2400000000000013},{"rt":1621.5,"stimulus":"bees-with-color/bee-A2SM.svg","response":1,"trial_type":"image-button-response","trial_index":17,"time_elapsed":297234,"internal_node_id":"0.0-4.0-0.5","subject_id":"5b8c8e7d0c740e00019d55c3","study_id":"6197b3f67c2b5cd3b6d9596a","session_id":"619be3194eda710dc9aa83b3","condition":"full-information","relevant_dimensions":["pattern","legs"],"bee_group":{"antennae":"X","wings":"X","pattern":"S","legs":"F"},"action":"avoid","summary":"bad-avoid","bonus":1.2400000000000013},{"rt":5773.599999999977,"stimulus":"\n                    <p><b>Action: <em>avoid</em></b></p>\n                    <p>This is the bee that you just saw.</p>\n                    <img src=\"bees-with-color/bee-A2SM.svg\" width=\"200\">\n                    <p><span class=\"redText\">Bad choice,</span> the bee was friendly.<br>Your bonus pay is unchanged, and remains at $0.52.</p>\n            ","response":0,"trial_type":"html-button-response","trial_index":18,"time_elapsed":303010,"internal_node_id":"0.0-4.0-1.5","subject_id":"5b8c8e7d0c740e00019d55c3","study_id":"6197b3f67c2b5cd3b6d9596a","session_id":"619be3194eda710dc9aa83b3","condition":"full-information","relevant_dimensions":["pattern","legs"],"bee_group":{"antennae":"X","wings":"X","pattern":"S","legs":"F"},"bonus":1.2400000000000013},{"rt":3381.2000000000116,"stimulus":"bees-with-color/bee-A2SF.svg","response":0,"trial_type":"image-button-response","trial_index":19,"time_elapsed":306394,"internal_node_id":"0.0-4.0-0.6","subject_id":"5b8c8e7d0c740e00019d55c3","study_id":"6197b3f67c2b5cd3b6d9596a","session_id":"619be3194eda710dc9aa83b3","condition":"full-information","relevant_dimensions":["pattern","legs"],"bee_group":{"antennae":"X","wings":"X","pattern":"S","legs":"F"},"action":"harvest","summary":"bad-harvest","bonus":1.2400000000000013},{"rt":8221.700000000012,"stimulus":"\n                    <p><b>Action: <em>harvest</em></b></p>\n                    <p>This is the bee that you just saw.</p>\n                    <img src=\"bees-with-color/bee-A2SF.svg\" width=\"200\">\n                    <p><span class=\"redText\">Bad choice, the bee was angry.</span><br><b>You have been stung!</b><br>Your pay has been decreased by $0.10. Your bonus pay is now $0.42.</p>\n            ","response":0,"trial_type":"html-button-response","trial_index":20,"time_elapsed":314619,"internal_node_id":"0.0-4.0-1.6","subject_id":"5b8c8e7d0c740e00019d55c3","study_id":"6197b3f67c2b5cd3b6d9596a","session_id":"619be3194eda710dc9aa83b3","condition":"full-information","relevant_dimensions":["pattern","legs"],"bee_group":{"antennae":"X","wings":"X","pattern":"S","legs":"F"},"bonus":1.2400000000000013},{"rt":1645.4000000000233,"stimulus":"bees-with-color/bee-B1SM.svg","response":0,"trial_type":"image-button-response","trial_index":21,"time_elapsed":316267,"internal_node_id":"0.0-4.0-0.7","subject_id":"5b8c8e7d0c740e00019d55c3","study_id":"6197b3f67c2b5cd3b6d9596a","session_id":"619be3194eda710dc9aa83b3","condition":"full-information","relevant_dimensions":["pattern","legs"],"bee_group":{"antennae":"X","wings":"X","pattern":"S","legs":"F"},"action":"harvest","summary":"good-harvest","bonus":1.2400000000000013},{"rt":2157.7000000000116,"stimulus":"\n                    <p><b>Action: <em>harvest</em></b></p>\n                    <p>This is the bee that you just saw.</p>\n                    <img src=\"bees-with-color/bee-B1SM.svg\" width=\"200\">\n                    <p><span class=\"greenText\"><b>Successful harvest!</b></span><br>Your pay has increased by $0.02. Your bonus pay is now $0.44.</p>\n            ","response":0,"trial_type":"html-button-response","trial_index":22,"time_elapsed":318426,"internal_node_id":"0.0-4.0-1.7","subject_id":"5b8c8e7d0c740e00019d55c3","study_id":"6197b3f67c2b5cd3b6d9596a","session_id":"619be3194eda710dc9aa83b3","condition":"full-information","relevant_dimensions":["pattern","legs"],"bee_group":{"antennae":"X","wings":"X","pattern":"S","legs":"F"},"bonus":1.2400000000000013},{"rt":5485.799999999988,"stimulus":"bees-with-color/bee-B1DF.svg","response":0,"trial_type":"image-button-response","trial_index":23,"time_elapsed":323914,"internal_node_id":"0.0-4.0-0.8","subject_id":"5b8c8e7d0c740e00019d55c3","study_id":"6197b3f67c2b5cd3b6d9596a","session_id":"619be3194eda710dc9aa83b3","condition":"full-information","relevant_dimensions":["pattern","legs"],"bee_group":{"antennae":"X","wings":"X","pattern":"S","legs":"F"},"action":"harvest","summary":"good-harvest","bonus":1.2400000000000013},{"rt":2573.600000000035,"stimulus":"\n                    <p><b>Action: <em>harvest</em></b></p>\n                    <p>This is the bee that you just saw.</p>\n                    <img src=\"bees-with-color/bee-B1DF.svg\" width=\"200\">\n                    <p><span class=\"greenText\"><b>Successful harvest!</b></span><br>Your pay has increased by $0.02. Your bonus pay is now $0.46.</p>\n            ","response":0,"trial_type":"html-button-response","trial_index":24,"time_elapsed":326490,"internal_node_id":"0.0-4.0-1.8","subject_id":"5b8c8e7d0c740e00019d55c3","study_id":"6197b3f67c2b5cd3b6d9596a","session_id":"619be3194eda710dc9aa83b3","condition":"full-information","relevant_dimensions":["pattern","legs"],"bee_group":{"antennae":"X","wings":"X","pattern":"S","legs":"F"},"bonus":1.2400000000000013},{"rt":4180.799999999988,"stimulus":"bees-with-color/bee-A1SM.svg","response":0,"trial_type":"image-button-response","trial_index":25,"time_elapsed":330674,"internal_node_id":"0.0-4.0-0.9","subject_id":"5b8c8e7d0c740e00019d55c3","study_id":"6197b3f67c2b5cd3b6d9596a","session_id":"619be3194eda710dc9aa83b3","condition":"full-information","relevant_dimensions":["pattern","legs"],"bee_group":{"antennae":"X","wings":"X","pattern":"S","legs":"F"},"action":"harvest","summary":"good-harvest","bonus":1.2400000000000013},{"rt":1605.5999999999767,"stimulus":"\n                    <p><b>Action: <em>harvest</em></b></p>\n                    <p>This is the bee that you just saw.</p>\n                    <img src=\"bees-with-color/bee-A1SM.svg\" width=\"200\">\n                    <p><span class=\"greenText\"><b>Successful harvest!</b></span><br>Your pay has increased by $0.02. Your bonus pay is now $0.48.</p>\n            ","response":0,"trial_type":"html-button-response","trial_index":26,"time_elapsed":332282,"internal_node_id":"0.0-4.0-1.9","subject_id":"5b8c8e7d0c740e00019d55c3","study_id":"6197b3f67c2b5cd3b6d9596a","session_id":"619be3194eda710dc9aa83b3","condition":"full-information","relevant_dimensions":["pattern","legs"],"bee_group":{"antennae":"X","wings":"X","pattern":"S","legs":"F"},"bonus":1.2400000000000013},{"rt":2173.4000000000233,"stimulus":"bees-with-color/bee-A2DM.svg","response":0,"trial_type":"image-button-response","trial_index":27,"time_elapsed":334458,"internal_node_id":"0.0-4.0-0.10","subject_id":"5b8c8e7d0c740e00019d55c3","study_id":"6197b3f67c2b5cd3b6d9596a","session_id":"619be3194eda710dc9aa83b3","condition":"full-information","relevant_dimensions":["pattern","legs"],"bee_group":{"antennae":"X","wings":"X","pattern":"S","legs":"F"},"action":"harvest","summary":"good-harvest","bonus":1.2400000000000013},{"rt":1517.5999999999767,"stimulus":"\n                    <p><b>Action: <em>harvest</em></b></p>\n                    <p>This is the bee that you just saw.</p>\n                    <img src=\"bees-with-color/bee-A2DM.svg\" width=\"200\">\n                    <p><span class=\"greenText\"><b>Successful harvest!</b></span><br>Your pay has increased by $0.02. Your bonus pay is now $0.50.</p>\n            ","response":0,"trial_type":"html-button-response","trial_index":28,"time_elapsed":335978,"internal_node_id":"0.0-4.0-1.10","subject_id":"5b8c8e7d0c740e00019d55c3","study_id":"6197b3f67c2b5cd3b6d9596a","session_id":"619be3194eda710dc9aa83b3","condition":"full-information","relevant_dimensions":["pattern","legs"],"bee_group":{"antennae":"X","wings":"X","pattern":"S","legs":"F"},"bonus":1.2400000000000013},{"rt":1669.2999999999884,"stimulus":"bees-with-color/bee-B2SF.svg","response":0,"trial_type":"image-button-response","trial_index":29,"time_elapsed":337650,"internal_node_id":"0.0-4.0-0.11","subject_id":"5b8c8e7d0c740e00019d55c3","study_id":"6197b3f67c2b5cd3b6d9596a","session_id":"619be3194eda710dc9aa83b3","condition":"full-information","relevant_dimensions":["pattern","legs"],"bee_group":{"antennae":"X","wings":"X","pattern":"S","legs":"F"},"action":"harvest","summary":"bad-harvest","bonus":1.2400000000000013},{"rt":6125.600000000035,"stimulus":"\n                    <p><b>Action: <em>harvest</em></b></p>\n                    <p>This is the bee that you just saw.</p>\n                    <img src=\"bees-with-color/bee-B2SF.svg\" width=\"200\">\n                    <p><span class=\"redText\">Bad choice, the bee was angry.</span><br><b>You have been stung!</b><br>Your pay has been decreased by $0.10. Your bonus pay is now $0.40.</p>\n            ","response":0,"trial_type":"html-button-response","trial_index":30,"time_elapsed":343778,"internal_node_id":"0.0-4.0-1.11","subject_id":"5b8c8e7d0c740e00019d55c3","study_id":"6197b3f67c2b5cd3b6d9596a","session_id":"619be3194eda710dc9aa83b3","condition":"full-information","relevant_dimensions":["pattern","legs"],"bee_group":{"antennae":"X","wings":"X","pattern":"S","legs":"F"},"bonus":1.2400000000000013},{"rt":1685.0999999999767,"stimulus":"bees-with-color/bee-A2DF.svg","response":0,"trial_type":"image-button-response","trial_index":31,"time_elapsed":345466,"internal_node_id":"0.0-4.0-0.12","subject_id":"5b8c8e7d0c740e00019d55c3","study_id":"6197b3f67c2b5cd3b6d9596a","session_id":"619be3194eda710dc9aa83b3","condition":"full-information","relevant_dimensions":["pattern","legs"],"bee_group":{"antennae":"X","wings":"X","pattern":"S","legs":"F"},"action":"harvest","summary":"good-harvest","bonus":1.2400000000000013},{"rt":797.5,"stimulus":"\n                    <p><b>Action: <em>harvest</em></b></p>\n                    <p>This is the bee that you just saw.</p>\n                    <img src=\"bees-with-color/bee-A2DF.svg\" width=\"200\">\n                    <p><span class=\"greenText\"><b>Successful harvest!</b></span><br>Your pay has increased by $0.02. Your bonus pay is now $0.42.</p>\n            ","response":0,"trial_type":"html-button-response","trial_index":32,"time_elapsed":346266,"internal_node_id":"0.0-4.0-1.12","subject_id":"5b8c8e7d0c740e00019d55c3","study_id":"6197b3f67c2b5cd3b6d9596a","session_id":"619be3194eda710dc9aa83b3","condition":"full-information","relevant_dimensions":["pattern","legs"],"bee_group":{"antennae":"X","wings":"X","pattern":"S","legs":"F"},"bonus":1.2400000000000013},{"rt":989.8999999999651,"stimulus":"bees-with-color/bee-B1DM.svg","response":0,"trial_type":"image-button-response","trial_index":33,"time_elapsed":347258,"internal_node_id":"0.0-4.0-0.13","subject_id":"5b8c8e7d0c740e00019d55c3","study_id":"6197b3f67c2b5cd3b6d9596a","session_id":"619be3194eda710dc9aa83b3","condition":"full-information","relevant_dimensions":["pattern","legs"],"bee_group":{"antennae":"X","wings":"X","pattern":"S","legs":"F"},"action":"harvest","summary":"good-harvest","bonus":1.2400000000000013},{"rt":773.5999999999767,"stimulus":"\n                    <p><b>Action: <em>harvest</em></b></p>\n                    <p>This is the bee that you just saw.</p>\n                    <img src=\"bees-with-color/bee-B1DM.svg\" width=\"200\">\n                    <p><span class=\"greenText\"><b>Successful harvest!</b></span><br>Your pay has increased by $0.02. Your bonus pay is now $0.44.</p>\n            ","response":0,"trial_type":"html-button-response","trial_index":34,"time_elapsed":348034,"internal_node_id":"0.0-4.0-1.13","subject_id":"5b8c8e7d0c740e00019d55c3","study_id":"6197b3f67c2b5cd3b6d9596a","session_id":"619be3194eda710dc9aa83b3","condition":"full-information","relevant_dimensions":["pattern","legs"],"bee_group":{"antennae":"X","wings":"X","pattern":"S","legs":"F"},"bonus":1.2400000000000013},{"rt":2501.7999999999884,"stimulus":"bees-with-color/bee-A1SF.svg","response":0,"trial_type":"image-button-response","trial_index":35,"time_elapsed":350537,"internal_node_id":"0.0-4.0-0.14","subject_id":"5b8c8e7d0c740e00019d55c3","study_id":"6197b3f67c2b5cd3b6d9596a","session_id":"619be3194eda710dc9aa83b3","condition":"full-information","relevant_dimensions":["pattern","legs"],"bee_group":{"antennae":"X","wings":"X","pattern":"S","legs":"F"},"action":"harvest","summary":"bad-harvest","bonus":1.2400000000000013},{"rt":1406.0999999999767,"stimulus":"\n                    <p><b>Action: <em>harvest</em></b></p>\n                    <p>This is the bee that you just saw.</p>\n                    <img src=\"bees-with-color/bee-A1SF.svg\" width=\"200\">\n                    <p><span class=\"redText\">Bad choice, the bee was angry.</span><br><b>You have been stung!</b><br>Your pay has been decreased by $0.10. Your bonus pay is now $0.34.</p>\n            ","response":0,"trial_type":"html-button-response","trial_index":36,"time_elapsed":351945,"internal_node_id":"0.0-4.0-1.14","subject_id":"5b8c8e7d0c740e00019d55c3","study_id":"6197b3f67c2b5cd3b6d9596a","session_id":"619be3194eda710dc9aa83b3","condition":"full-information","relevant_dimensions":["pattern","legs"],"bee_group":{"antennae":"X","wings":"X","pattern":"S","legs":"F"},"bonus":1.2400000000000013},{"rt":1837.7999999999884,"stimulus":"bees-with-color/bee-B2DM.svg","response":0,"trial_type":"image-button-response","trial_index":37,"time_elapsed":353785,"internal_node_id":"0.0-4.0-0.15","subject_id":"5b8c8e7d0c740e00019d55c3","study_id":"6197b3f67c2b5cd3b6d9596a","session_id":"619be3194eda710dc9aa83b3","condition":"full-information","relevant_dimensions":["pattern","legs"],"bee_group":{"antennae":"X","wings":"X","pattern":"S","legs":"F"},"action":"harvest","summary":"good-harvest","bonus":1.2400000000000013},{"rt":822,"stimulus":"\n                    <p><b>Action: <em>harvest</em></b></p>\n                    <p>This is the bee that you just saw.</p>\n                    <img src=\"bees-with-color/bee-B2DM.svg\" width=\"200\">\n                    <p><span class=\"greenText\"><b>Successful harvest!</b></span><br>Your pay has increased by $0.02. Your bonus pay is now $0.36.</p>\n            ","response":0,"trial_type":"html-button-response","trial_index":38,"time_elapsed":354609,"internal_node_id":"0.0-4.0-1.15","subject_id":"5b8c8e7d0c740e00019d55c3","study_id":"6197b3f67c2b5cd3b6d9596a","session_id":"619be3194eda710dc9aa83b3","condition":"full-information","relevant_dimensions":["pattern","legs"],"bee_group":{"antennae":"X","wings":"X","pattern":"S","legs":"F"},"bonus":1.2400000000000013},{"rt":1302.2000000000698,"stimulus":"bees-with-color/bee-B1SM.svg","response":0,"trial_type":"image-button-response","trial_index":39,"time_elapsed":355913,"internal_node_id":"0.0-4.0-0.16","subject_id":"5b8c8e7d0c740e00019d55c3","study_id":"6197b3f67c2b5cd3b6d9596a","session_id":"619be3194eda710dc9aa83b3","condition":"full-information","relevant_dimensions":["pattern","legs"],"bee_group":{"antennae":"X","wings":"X","pattern":"S","legs":"F"},"action":"harvest","summary":"good-harvest","bonus":1.2400000000000013},{"rt":686.2000000000698,"stimulus":"\n                    <p><b>Action: <em>harvest</em></b></p>\n                    <p>This is the bee that you just saw.</p>\n                    <img src=\"bees-with-color/bee-B1SM.svg\" width=\"200\">\n                    <p><span class=\"greenText\"><b>Successful harvest!</b></span><br>Your pay has increased by $0.02. Your bonus pay is now $0.38.</p>\n            ","response":0,"trial_type":"html-button-response","trial_index":40,"time_elapsed":356601,"internal_node_id":"0.0-4.0-1.16","subject_id":"5b8c8e7d0c740e00019d55c3","study_id":"6197b3f67c2b5cd3b6d9596a","session_id":"619be3194eda710dc9aa83b3","condition":"full-information","relevant_dimensions":["pattern","legs"],"bee_group":{"antennae":"X","wings":"X","pattern":"S","legs":"F"},"bonus":1.2400000000000013},{"rt":822.4000000000233,"stimulus":"bees-with-color/bee-A1DM.svg","response":0,"trial_type":"image-button-response","trial_index":41,"time_elapsed":357425,"internal_node_id":"0.0-4.0-0.17","subject_id":"5b8c8e7d0c740e00019d55c3","study_id":"6197b3f67c2b5cd3b6d9596a","session_id":"619be3194eda710dc9aa83b3","condition":"full-information","relevant_dimensions":["pattern","legs"],"bee_group":{"antennae":"X","wings":"X","pattern":"S","legs":"F"},"action":"harvest","summary":"good-harvest","bonus":1.2400000000000013},{"rt":822.2000000000698,"stimulus":"\n                    <p><b>Action: <em>harvest</em></b></p>\n                    <p>This is the bee that you just saw.</p>\n                    <img src=\"bees-with-color/bee-A1DM.svg\" width=\"200\">\n                    <p><span class=\"greenText\"><b>Successful harvest!</b></span><br>Your pay has increased by $0.02. Your bonus pay is now $0.40.</p>\n            ","response":0,"trial_type":"html-button-response","trial_index":42,"time_elapsed":358249,"internal_node_id":"0.0-4.0-1.17","subject_id":"5b8c8e7d0c740e00019d55c3","study_id":"6197b3f67c2b5cd3b6d9596a","session_id":"619be3194eda710dc9aa83b3","condition":"full-information","relevant_dimensions":["pattern","legs"],"bee_group":{"antennae":"X","wings":"X","pattern":"S","legs":"F"},"bonus":1.2400000000000013},{"rt":870.3000000000466,"stimulus":"bees-with-color/bee-A1DF.svg","response":1,"trial_type":"image-button-response","trial_index":43,"time_elapsed":359121,"internal_node_id":"0.0-4.0-0.18","subject_id":"5b8c8e7d0c740e00019d55c3","study_id":"6197b3f67c2b5cd3b6d9596a","session_id":"619be3194eda710dc9aa83b3","condition":"full-information","relevant_dimensions":["pattern","legs"],"bee_group":{"antennae":"X","wings":"X","pattern":"S","legs":"F"},"action":"avoid","summary":"bad-avoid","bonus":1.2400000000000013},{"rt":1398,"stimulus":"\n                    <p><b>Action: <em>avoid</em></b></p>\n                    <p>This is the bee that you just saw.</p>\n                    <img src=\"bees-with-color/bee-A1DF.svg\" width=\"200\">\n                    <p><span class=\"redText\">Bad choice,</span> the bee was friendly.<br>Your bonus pay is unchanged, and remains at $0.40.</p>\n            ","response":0,"trial_type":"html-button-response","trial_index":44,"time_elapsed":360521,"internal_node_id":"0.0-4.0-1.18","subject_id":"5b8c8e7d0c740e00019d55c3","study_id":"6197b3f67c2b5cd3b6d9596a","session_id":"619be3194eda710dc9aa83b3","condition":"full-information","relevant_dimensions":["pattern","legs"],"bee_group":{"antennae":"X","wings":"X","pattern":"S","legs":"F"},"bonus":1.2400000000000013},{"rt":1238.2999999999302,"stimulus":"bees-with-color/bee-A2SM.svg","response":0,"trial_type":"image-button-response","trial_index":45,"time_elapsed":361761,"internal_node_id":"0.0-4.0-0.19","subject_id":"5b8c8e7d0c740e00019d55c3","study_id":"6197b3f67c2b5cd3b6d9596a","session_id":"619be3194eda710dc9aa83b3","condition":"full-information","relevant_dimensions":["pattern","legs"],"bee_group":{"antennae":"X","wings":"X","pattern":"S","legs":"F"},"action":"harvest","summary":"good-harvest","bonus":1.2400000000000013},{"rt":1118.0999999999767,"stimulus":"\n                    <p><b>Action: <em>harvest</em></b></p>\n                    <p>This is the bee that you just saw.</p>\n                    <img src=\"bees-with-color/bee-A2SM.svg\" width=\"200\">\n                    <p><span class=\"greenText\"><b>Successful harvest!</b></span><br>Your pay has increased by $0.02. Your bonus pay is now $0.42.</p>\n            ","response":0,"trial_type":"html-button-response","trial_index":46,"time_elapsed":362881,"internal_node_id":"0.0-4.0-1.19","subject_id":"5b8c8e7d0c740e00019d55c3","study_id":"6197b3f67c2b5cd3b6d9596a","session_id":"619be3194eda710dc9aa83b3","condition":"full-information","relevant_dimensions":["pattern","legs"],"bee_group":{"antennae":"X","wings":"X","pattern":"S","legs":"F"},"bonus":1.2400000000000013},{"rt":1270.2999999999302,"stimulus":"bees-with-color/bee-A1SM.svg","response":0,"trial_type":"image-button-response","trial_index":47,"time_elapsed":364153,"internal_node_id":"0.0-4.0-0.20","subject_id":"5b8c8e7d0c740e00019d55c3","study_id":"6197b3f67c2b5cd3b6d9596a","session_id":"619be3194eda710dc9aa83b3","condition":"full-information","relevant_dimensions":["pattern","legs"],"bee_group":{"antennae":"X","wings":"X","pattern":"S","legs":"F"},"action":"harvest","summary":"good-harvest","bonus":1.2400000000000013},{"rt":717.9000000000233,"stimulus":"\n                    <p><b>Action: <em>harvest</em></b></p>\n                    <p>This is the bee that you just saw.</p>\n                    <img src=\"bees-with-color/bee-A1SM.svg\" width=\"200\">\n                    <p><span class=\"greenText\"><b>Successful harvest!</b></span><br>Your pay has increased by $0.02. Your bonus pay is now $0.44.</p>\n            ","response":0,"trial_type":"html-button-response","trial_index":48,"time_elapsed":364873,"internal_node_id":"0.0-4.0-1.20","subject_id":"5b8c8e7d0c740e00019d55c3","study_id":"6197b3f67c2b5cd3b6d9596a","session_id":"619be3194eda710dc9aa83b3","condition":"full-information","relevant_dimensions":["pattern","legs"],"bee_group":{"antennae":"X","wings":"X","pattern":"S","legs":"F"},"bonus":1.2400000000000013},{"rt":1030.4000000000233,"stimulus":"bees-with-color/bee-A2DM.svg","response":0,"trial_type":"image-button-response","trial_index":49,"time_elapsed":365905,"internal_node_id":"0.0-4.0-0.21","subject_id":"5b8c8e7d0c740e00019d55c3","study_id":"6197b3f67c2b5cd3b6d9596a","session_id":"619be3194eda710dc9aa83b3","condition":"full-information","relevant_dimensions":["pattern","legs"],"bee_group":{"antennae":"X","wings":"X","pattern":"S","legs":"F"},"action":"harvest","summary":"good-harvest","bonus":1.2400000000000013},{"rt":670,"stimulus":"\n                    <p><b>Action: <em>harvest</em></b></p>\n                    <p>This is the bee that you just saw.</p>\n                    <img src=\"bees-with-color/bee-A2DM.svg\" width=\"200\">\n                    <p><span class=\"greenText\"><b>Successful harvest!</b></span><br>Your pay has increased by $0.02. Your bonus pay is now $0.46.</p>\n            ","response":0,"trial_type":"html-button-response","trial_index":50,"time_elapsed":366577,"internal_node_id":"0.0-4.0-1.21","subject_id":"5b8c8e7d0c740e00019d55c3","study_id":"6197b3f67c2b5cd3b6d9596a","session_id":"619be3194eda710dc9aa83b3","condition":"full-information","relevant_dimensions":["pattern","legs"],"bee_group":{"antennae":"X","wings":"X","pattern":"S","legs":"F"},"bonus":1.2400000000000013},{"rt":1214.2999999999302,"stimulus":"bees-with-color/bee-B2SF.svg","response":1,"trial_type":"image-button-response","trial_index":51,"time_elapsed":367793,"internal_node_id":"0.0-4.0-0.22","subject_id":"5b8c8e7d0c740e00019d55c3","study_id":"6197b3f67c2b5cd3b6d9596a","session_id":"619be3194eda710dc9aa83b3","condition":"full-information","relevant_dimensions":["pattern","legs"],"bee_group":{"antennae":"X","wings":"X","pattern":"S","legs":"F"},"action":"avoid","summary":"good-avoid","bonus":1.2400000000000013},{"rt":1310,"stimulus":"\n                    <p><b>Action: <em>avoid</em></b></p>\n                    <p>This is the bee that you just saw.</p>\n                    <img src=\"bees-with-color/bee-B2SF.svg\" width=\"200\">\n                    <p><span class=\"greenText\">Good choice!</span>  This bee would have stung you.<br>Your bonus pay is unchanged, and remains at $0.46.</p>\n            ","response":0,"trial_type":"html-button-response","trial_index":52,"time_elapsed":369105,"internal_node_id":"0.0-4.0-1.22","subject_id":"5b8c8e7d0c740e00019d55c3","study_id":"6197b3f67c2b5cd3b6d9596a","session_id":"619be3194eda710dc9aa83b3","condition":"full-information","relevant_dimensions":["pattern","legs"],"bee_group":{"antennae":"X","wings":"X","pattern":"S","legs":"F"},"bonus":1.2400000000000013},{"rt":1670.0999999999767,"stimulus":"bees-with-color/bee-A2SF.svg","response":1,"trial_type":"image-button-response","trial_index":53,"time_elapsed":370778,"internal_node_id":"0.0-4.0-0.23","subject_id":"5b8c8e7d0c740e00019d55c3","study_id":"6197b3f67c2b5cd3b6d9596a","session_id":"619be3194eda710dc9aa83b3","condition":"full-information","relevant_dimensions":["pattern","legs"],"bee_group":{"antennae":"X","wings":"X","pattern":"S","legs":"F"},"action":"avoid","summary":"good-avoid","bonus":1.2400000000000013},{"rt":2157.8000000000466,"stimulus":"\n                    <p><b>Action: <em>avoid</em></b></p>\n                    <p>This is the bee that you just saw.</p>\n                    <img src=\"bees-with-color/bee-A2SF.svg\" width=\"200\">\n                    <p><span class=\"greenText\">Good choice!</span>  This bee would have stung you.<br>Your bonus pay is unchanged, and remains at $0.46.</p>\n            ","response":0,"trial_type":"html-button-response","trial_index":54,"time_elapsed":372938,"internal_node_id":"0.0-4.0-1.23","subject_id":"5b8c8e7d0c740e00019d55c3","study_id":"6197b3f67c2b5cd3b6d9596a","session_id":"619be3194eda710dc9aa83b3","condition":"full-information","relevant_dimensions":["pattern","legs"],"bee_group":{"antennae":"X","wings":"X","pattern":"S","legs":"F"},"bonus":1.2400000000000013},{"rt":1093.4000000000233,"stimulus":"bees-with-color/bee-B2DM.svg","response":0,"trial_type":"image-button-response","trial_index":55,"time_elapsed":374034,"internal_node_id":"0.0-4.0-0.24","subject_id":"5b8c8e7d0c740e00019d55c3","study_id":"6197b3f67c2b5cd3b6d9596a","session_id":"619be3194eda710dc9aa83b3","condition":"full-information","relevant_dimensions":["pattern","legs"],"bee_group":{"antennae":"X","wings":"X","pattern":"S","legs":"F"},"action":"harvest","summary":"good-harvest","bonus":1.2400000000000013},{"rt":749.7000000000698,"stimulus":"\n                    <p><b>Action: <em>harvest</em></b></p>\n                    <p>This is the bee that you just saw.</p>\n                    <img src=\"bees-with-color/bee-B2DM.svg\" width=\"200\">\n                    <p><span class=\"greenText\"><b>Successful harvest!</b></span><br>Your pay has increased by $0.02. Your bonus pay is now $0.48.</p>\n            ","response":0,"trial_type":"html-button-response","trial_index":56,"time_elapsed":374786,"internal_node_id":"0.0-4.0-1.24","subject_id":"5b8c8e7d0c740e00019d55c3","study_id":"6197b3f67c2b5cd3b6d9596a","session_id":"619be3194eda710dc9aa83b3","condition":"full-information","relevant_dimensions":["pattern","legs"],"bee_group":{"antennae":"X","wings":"X","pattern":"S","legs":"F"},"bonus":1.2400000000000013},{"rt":5862,"stimulus":"bees-with-color/bee-B2DF.svg","response":0,"trial_type":"image-button-response","trial_index":57,"time_elapsed":380650,"internal_node_id":"0.0-4.0-0.25","subject_id":"5b8c8e7d0c740e00019d55c3","study_id":"6197b3f67c2b5cd3b6d9596a","session_id":"619be3194eda710dc9aa83b3","condition":"full-information","relevant_dimensions":["pattern","legs"],"bee_group":{"antennae":"X","wings":"X","pattern":"S","legs":"F"},"action":"harvest","summary":"good-harvest","bonus":1.2400000000000013},{"rt":1221.6999999999534,"stimulus":"\n                    <p><b>Action: <em>harvest</em></b></p>\n                    <p>This is the bee that you just saw.</p>\n                    <img src=\"bees-with-color/bee-B2DF.svg\" width=\"200\">\n                    <p><span class=\"greenText\"><b>Successful harvest!</b></span><br>Your pay has increased by $0.02. Your bonus pay is now $0.50.</p>\n            ","response":0,"trial_type":"html-button-response","trial_index":58,"time_elapsed":381874,"internal_node_id":"0.0-4.0-1.25","subject_id":"5b8c8e7d0c740e00019d55c3","study_id":"6197b3f67c2b5cd3b6d9596a","session_id":"619be3194eda710dc9aa83b3","condition":"full-information","relevant_dimensions":["pattern","legs"],"bee_group":{"antennae":"X","wings":"X","pattern":"S","legs":"F"},"bonus":1.2400000000000013},{"rt":3821.0999999999767,"stimulus":"bees-with-color/bee-B1DM.svg","response":0,"trial_type":"image-button-response","trial_index":59,"time_elapsed":385698,"internal_node_id":"0.0-4.0-0.26","subject_id":"5b8c8e7d0c740e00019d55c3","study_id":"6197b3f67c2b5cd3b6d9596a","session_id":"619be3194eda710dc9aa83b3","condition":"full-information","relevant_dimensions":["pattern","legs"],"bee_group":{"antennae":"X","wings":"X","pattern":"S","legs":"F"},"action":"harvest","summary":"good-harvest","bonus":1.2400000000000013},{"rt":1021.5999999999767,"stimulus":"\n                    <p><b>Action: <em>harvest</em></b></p>\n                    <p>This is the bee that you just saw.</p>\n                    <img src=\"bees-with-color/bee-B1DM.svg\" width=\"200\">\n                    <p><span class=\"greenText\"><b>Successful harvest!</b></span><br>Your pay has increased by $0.02. Your bonus pay is now $0.52.</p>\n            ","response":0,"trial_type":"html-button-response","trial_index":60,"time_elapsed":386722,"internal_node_id":"0.0-4.0-1.26","subject_id":"5b8c8e7d0c740e00019d55c3","study_id":"6197b3f67c2b5cd3b6d9596a","session_id":"619be3194eda710dc9aa83b3","condition":"full-information","relevant_dimensions":["pattern","legs"],"bee_group":{"antennae":"X","wings":"X","pattern":"S","legs":"F"},"bonus":1.2400000000000013},{"rt":1741.4000000000233,"stimulus":"bees-with-color/bee-B1DF.svg","response":0,"trial_type":"image-button-response","trial_index":61,"time_elapsed":388466,"internal_node_id":"0.0-4.0-0.27","subject_id":"5b8c8e7d0c740e00019d55c3","study_id":"6197b3f67c2b5cd3b6d9596a","session_id":"619be3194eda710dc9aa83b3","condition":"full-information","relevant_dimensions":["pattern","legs"],"bee_group":{"antennae":"X","wings":"X","pattern":"S","legs":"F"},"action":"harvest","summary":"good-harvest","bonus":1.2400000000000013},{"rt":1133.5999999999767,"stimulus":"\n                    <p><b>Action: <em>harvest</em></b></p>\n                    <p>This is the bee that you just saw.</p>\n                    <img src=\"bees-with-color/bee-B1DF.svg\" width=\"200\">\n                    <p><span class=\"greenText\"><b>Successful harvest!</b></span><br>Your pay has increased by $0.02. Your bonus pay is now $0.54.</p>\n            ","response":0,"trial_type":"html-button-response","trial_index":62,"time_elapsed":389602,"internal_node_id":"0.0-4.0-1.27","subject_id":"5b8c8e7d0c740e00019d55c3","study_id":"6197b3f67c2b5cd3b6d9596a","session_id":"619be3194eda710dc9aa83b3","condition":"full-information","relevant_dimensions":["pattern","legs"],"bee_group":{"antennae":"X","wings":"X","pattern":"S","legs":"F"},"bonus":1.2400000000000013},{"rt":2341.9000000000233,"stimulus":"bees-with-color/bee-B1SF.svg","response":1,"trial_type":"image-button-response","trial_index":63,"time_elapsed":391946,"internal_node_id":"0.0-4.0-0.28","subject_id":"5b8c8e7d0c740e00019d55c3","study_id":"6197b3f67c2b5cd3b6d9596a","session_id":"619be3194eda710dc9aa83b3","condition":"full-information","relevant_dimensions":["pattern","legs"],"bee_group":{"antennae":"X","wings":"X","pattern":"S","legs":"F"},"action":"avoid","summary":"good-avoid","bonus":1.2400000000000013},{"rt":1333.5,"stimulus":"\n                    <p><b>Action: <em>avoid</em></b></p>\n                    <p>This is the bee that you just saw.</p>\n                    <img src=\"bees-with-color/bee-B1SF.svg\" width=\"200\">\n                    <p><span class=\"greenText\">Good choice!</span>  This bee would have stung you.<br>Your bonus pay is unchanged, and remains at $0.54.</p>\n            ","response":0,"trial_type":"html-button-response","trial_index":64,"time_elapsed":393282,"internal_node_id":"0.0-4.0-1.28","subject_id":"5b8c8e7d0c740e00019d55c3","study_id":"6197b3f67c2b5cd3b6d9596a","session_id":"619be3194eda710dc9aa83b3","condition":"full-information","relevant_dimensions":["pattern","legs"],"bee_group":{"antennae":"X","wings":"X","pattern":"S","legs":"F"},"bonus":1.2400000000000013},{"rt":1837.3000000000466,"stimulus":"bees-with-color/bee-A1SF.svg","response":1,"trial_type":"image-button-response","trial_index":65,"time_elapsed":395122,"internal_node_id":"0.0-4.0-0.29","subject_id":"5b8c8e7d0c740e00019d55c3","study_id":"6197b3f67c2b5cd3b6d9596a","session_id":"619be3194eda710dc9aa83b3","condition":"full-information","relevant_dimensions":["pattern","legs"],"bee_group":{"antennae":"X","wings":"X","pattern":"S","legs":"F"},"action":"avoid","summary":"good-avoid","bonus":1.2400000000000013},{"rt":909.5,"stimulus":"\n                    <p><b>Action: <em>avoid</em></b></p>\n                    <p>This is the bee that you just saw.</p>\n                    <img src=\"bees-with-color/bee-A1SF.svg\" width=\"200\">\n                    <p><span class=\"greenText\">Good choice!</span>  This bee would have stung you.<br>Your bonus pay is unchanged, and remains at $0.54.</p>\n            ","response":0,"trial_type":"html-button-response","trial_index":66,"time_elapsed":396034,"internal_node_id":"0.0-4.0-1.29","subject_id":"5b8c8e7d0c740e00019d55c3","study_id":"6197b3f67c2b5cd3b6d9596a","session_id":"619be3194eda710dc9aa83b3","condition":"full-information","relevant_dimensions":["pattern","legs"],"bee_group":{"antennae":"X","wings":"X","pattern":"S","legs":"F"},"bonus":1.2400000000000013},{"rt":781.3000000000466,"stimulus":"bees-with-color/bee-A2DF.svg","response":0,"trial_type":"image-button-response","trial_index":67,"time_elapsed":396817,"internal_node_id":"0.0-4.0-0.30","subject_id":"5b8c8e7d0c740e00019d55c3","study_id":"6197b3f67c2b5cd3b6d9596a","session_id":"619be3194eda710dc9aa83b3","condition":"full-information","relevant_dimensions":["pattern","legs"],"bee_group":{"antennae":"X","wings":"X","pattern":"S","legs":"F"},"action":"harvest","summary":"good-harvest","bonus":1.2400000000000013},{"rt":1110.0999999999767,"stimulus":"\n                    <p><b>Action: <em>harvest</em></b></p>\n                    <p>This is the bee that you just saw.</p>\n                    <img src=\"bees-with-color/bee-A2DF.svg\" width=\"200\">\n                    <p><span class=\"greenText\"><b>Successful harvest!</b></span><br>Your pay has increased by $0.02. Your bonus pay is now $0.56.</p>\n            ","response":0,"trial_type":"html-button-response","trial_index":68,"time_elapsed":397929,"internal_node_id":"0.0-4.0-1.30","subject_id":"5b8c8e7d0c740e00019d55c3","study_id":"6197b3f67c2b5cd3b6d9596a","session_id":"619be3194eda710dc9aa83b3","condition":"full-information","relevant_dimensions":["pattern","legs"],"bee_group":{"antennae":"X","wings":"X","pattern":"S","legs":"F"},"bonus":1.2400000000000013},{"rt":1486.2999999999302,"stimulus":"bees-with-color/bee-B2SM.svg","response":0,"trial_type":"image-button-response","trial_index":69,"time_elapsed":399417,"internal_node_id":"0.0-4.0-0.31","subject_id":"5b8c8e7d0c740e00019d55c3","study_id":"6197b3f67c2b5cd3b6d9596a","session_id":"619be3194eda710dc9aa83b3","condition":"full-information","relevant_dimensions":["pattern","legs"],"bee_group":{"antennae":"X","wings":"X","pattern":"S","legs":"F"},"action":"harvest","summary":"good-harvest","bonus":1.2400000000000013},{"rt":806.2999999999302,"stimulus":"\n                    <p><b>Action: <em>harvest</em></b></p>\n                    <p>This is the bee that you just saw.</p>\n                    <img src=\"bees-with-color/bee-B2SM.svg\" width=\"200\">\n                    <p><span class=\"greenText\"><b>Successful harvest!</b></span><br>Your pay has increased by $0.02. Your bonus pay is now $0.58.</p>\n            ","response":0,"trial_type":"html-button-response","trial_index":70,"time_elapsed":400225,"internal_node_id":"0.0-4.0-1.31","subject_id":"5b8c8e7d0c740e00019d55c3","study_id":"6197b3f67c2b5cd3b6d9596a","session_id":"619be3194eda710dc9aa83b3","condition":"full-information","relevant_dimensions":["pattern","legs"],"bee_group":{"antennae":"X","wings":"X","pattern":"S","legs":"F"},"bonus":1.2400000000000013},{"rt":2054.29999999993,"stimulus":"bees-with-color/bee-B2DM.svg","response":0,"trial_type":"image-button-response","trial_index":71,"time_elapsed":402281,"internal_node_id":"0.0-4.0-0.32","subject_id":"5b8c8e7d0c740e00019d55c3","study_id":"6197b3f67c2b5cd3b6d9596a","session_id":"619be3194eda710dc9aa83b3","condition":"full-information","relevant_dimensions":["pattern","legs"],"bee_group":{"antennae":"X","wings":"X","pattern":"S","legs":"F"},"action":"harvest","summary":"good-harvest","bonus":1.2400000000000013},{"rt":806.1999999999534,"stimulus":"\n                    <p><b>Action: <em>harvest</em></b></p>\n                    <p>This is the bee that you just saw.</p>\n                    <img src=\"bees-with-color/bee-B2DM.svg\" width=\"200\">\n                    <p><span class=\"greenText\"><b>Successful harvest!</b></span><br>Your pay has increased by $0.02. Your bonus pay is now $0.60.</p>\n            ","response":0,"trial_type":"html-button-response","trial_index":72,"time_elapsed":403089,"internal_node_id":"0.0-4.0-1.32","subject_id":"5b8c8e7d0c740e00019d55c3","study_id":"6197b3f67c2b5cd3b6d9596a","session_id":"619be3194eda710dc9aa83b3","condition":"full-information","relevant_dimensions":["pattern","legs"],"bee_group":{"antennae":"X","wings":"X","pattern":"S","legs":"F"},"bonus":1.2400000000000013},{"rt":2382.1999999999534,"stimulus":"bees-with-color/bee-A1DF.svg","response":0,"trial_type":"image-button-response","trial_index":73,"time_elapsed":405473,"internal_node_id":"0.0-4.0-0.33","subject_id":"5b8c8e7d0c740e00019d55c3","study_id":"6197b3f67c2b5cd3b6d9596a","session_id":"619be3194eda710dc9aa83b3","condition":"full-information","relevant_dimensions":["pattern","legs"],"bee_group":{"antennae":"X","wings":"X","pattern":"S","legs":"F"},"action":"harvest","summary":"good-harvest","bonus":1.2400000000000013},{"rt":750,"stimulus":"\n                    <p><b>Action: <em>harvest</em></b></p>\n                    <p>This is the bee that you just saw.</p>\n                    <img src=\"bees-with-color/bee-A1DF.svg\" width=\"200\">\n                    <p><span class=\"greenText\"><b>Successful harvest!</b></span><br>Your pay has increased by $0.02. Your bonus pay is now $0.62.</p>\n            ","response":0,"trial_type":"html-button-response","trial_index":74,"time_elapsed":406225,"internal_node_id":"0.0-4.0-1.33","subject_id":"5b8c8e7d0c740e00019d55c3","study_id":"6197b3f67c2b5cd3b6d9596a","session_id":"619be3194eda710dc9aa83b3","condition":"full-information","relevant_dimensions":["pattern","legs"],"bee_group":{"antennae":"X","wings":"X","pattern":"S","legs":"F"},"bonus":1.2400000000000013},{"rt":2925.6999999999534,"stimulus":"bees-with-color/bee-B2DF.svg","response":0,"trial_type":"image-button-response","trial_index":75,"time_elapsed":409153,"internal_node_id":"0.0-4.0-0.34","subject_id":"5b8c8e7d0c740e00019d55c3","study_id":"6197b3f67c2b5cd3b6d9596a","session_id":"619be3194eda710dc9aa83b3","condition":"full-information","relevant_dimensions":["pattern","legs"],"bee_group":{"antennae":"X","wings":"X","pattern":"S","legs":"F"},"action":"harvest","summary":"good-harvest","bonus":1.2400000000000013},{"rt":766.0999999999767,"stimulus":"\n                    <p><b>Action: <em>harvest</em></b></p>\n                    <p>This is the bee that you just saw.</p>\n                    <img src=\"bees-with-color/bee-B2DF.svg\" width=\"200\">\n                    <p><span class=\"greenText\"><b>Successful harvest!</b></span><br>Your pay has increased by $0.02. Your bonus pay is now $0.64.</p>\n            ","response":0,"trial_type":"html-button-response","trial_index":76,"time_elapsed":409921,"internal_node_id":"0.0-4.0-1.34","subject_id":"5b8c8e7d0c740e00019d55c3","study_id":"6197b3f67c2b5cd3b6d9596a","session_id":"619be3194eda710dc9aa83b3","condition":"full-information","relevant_dimensions":["pattern","legs"],"bee_group":{"antennae":"X","wings":"X","pattern":"S","legs":"F"},"bonus":1.2400000000000013},{"rt":1269.7000000000698,"stimulus":"bees-with-color/bee-A2SM.svg","response":0,"trial_type":"image-button-response","trial_index":77,"time_elapsed":411193,"internal_node_id":"0.0-4.0-0.35","subject_id":"5b8c8e7d0c740e00019d55c3","study_id":"6197b3f67c2b5cd3b6d9596a","session_id":"619be3194eda710dc9aa83b3","condition":"full-information","relevant_dimensions":["pattern","legs"],"bee_group":{"antennae":"X","wings":"X","pattern":"S","legs":"F"},"action":"harvest","summary":"good-harvest","bonus":1.2400000000000013},{"rt":606.0999999999767,"stimulus":"\n                    <p><b>Action: <em>harvest</em></b></p>\n                    <p>This is the bee that you just saw.</p>\n                    <img src=\"bees-with-color/bee-A2SM.svg\" width=\"200\">\n                    <p><span class=\"greenText\"><b>Successful harvest!</b></span><br>Your pay has increased by $0.02. Your bonus pay is now $0.66.</p>\n            ","response":0,"trial_type":"html-button-response","trial_index":78,"time_elapsed":411801,"internal_node_id":"0.0-4.0-1.35","subject_id":"5b8c8e7d0c740e00019d55c3","study_id":"6197b3f67c2b5cd3b6d9596a","session_id":"619be3194eda710dc9aa83b3","condition":"full-information","relevant_dimensions":["pattern","legs"],"bee_group":{"antennae":"X","wings":"X","pattern":"S","legs":"F"},"bonus":1.2400000000000013},{"rt":1382.4000000000233,"stimulus":"bees-with-color/bee-A2SF.svg","response":1,"trial_type":"image-button-response","trial_index":79,"time_elapsed":413185,"internal_node_id":"0.0-4.0-0.36","subject_id":"5b8c8e7d0c740e00019d55c3","study_id":"6197b3f67c2b5cd3b6d9596a","session_id":"619be3194eda710dc9aa83b3","condition":"full-information","relevant_dimensions":["pattern","legs"],"bee_group":{"antennae":"X","wings":"X","pattern":"S","legs":"F"},"action":"avoid","summary":"good-avoid","bonus":1.2400000000000013},{"rt":670,"stimulus":"\n                    <p><b>Action: <em>avoid</em></b></p>\n                    <p>This is the bee that you just saw.</p>\n                    <img src=\"bees-with-color/bee-A2SF.svg\" width=\"200\">\n                    <p><span class=\"greenText\">Good choice!</span>  This bee would have stung you.<br>Your bonus pay is unchanged, and remains at $0.66.</p>\n            ","response":0,"trial_type":"html-button-response","trial_index":80,"time_elapsed":413857,"internal_node_id":"0.0-4.0-1.36","subject_id":"5b8c8e7d0c740e00019d55c3","study_id":"6197b3f67c2b5cd3b6d9596a","session_id":"619be3194eda710dc9aa83b3","condition":"full-information","relevant_dimensions":["pattern","legs"],"bee_group":{"antennae":"X","wings":"X","pattern":"S","legs":"F"},"bonus":1.2400000000000013},{"rt":4230.29999999993,"stimulus":"bees-with-color/bee-A1SF.svg","response":0,"trial_type":"image-button-response","trial_index":81,"time_elapsed":418089,"internal_node_id":"0.0-4.0-0.37","subject_id":"5b8c8e7d0c740e00019d55c3","study_id":"6197b3f67c2b5cd3b6d9596a","session_id":"619be3194eda710dc9aa83b3","condition":"full-information","relevant_dimensions":["pattern","legs"],"bee_group":{"antennae":"X","wings":"X","pattern":"S","legs":"F"},"action":"harvest","summary":"bad-harvest","bonus":1.2400000000000013},{"rt":1421.7999999999302,"stimulus":"\n                    <p><b>Action: <em>harvest</em></b></p>\n                    <p>This is the bee that you just saw.</p>\n                    <img src=\"bees-with-color/bee-A1SF.svg\" width=\"200\">\n                    <p><span class=\"redText\">Bad choice, the bee was angry.</span><br><b>You have been stung!</b><br>Your pay has been decreased by $0.10. Your bonus pay is now $0.56.</p>\n            ","response":0,"trial_type":"html-button-response","trial_index":82,"time_elapsed":419513,"internal_node_id":"0.0-4.0-1.37","subject_id":"5b8c8e7d0c740e00019d55c3","study_id":"6197b3f67c2b5cd3b6d9596a","session_id":"619be3194eda710dc9aa83b3","condition":"full-information","relevant_dimensions":["pattern","legs"],"bee_group":{"antennae":"X","wings":"X","pattern":"S","legs":"F"},"bonus":1.2400000000000013},{"rt":1493.4000000000233,"stimulus":"bees-with-color/bee-A2DF.svg","response":0,"trial_type":"image-button-response","trial_index":83,"time_elapsed":421009,"internal_node_id":"0.0-4.0-0.38","subject_id":"5b8c8e7d0c740e00019d55c3","study_id":"6197b3f67c2b5cd3b6d9596a","session_id":"619be3194eda710dc9aa83b3","condition":"full-information","relevant_dimensions":["pattern","legs"],"bee_group":{"antennae":"X","wings":"X","pattern":"S","legs":"F"},"action":"harvest","summary":"good-harvest","bonus":1.2400000000000013},{"rt":1301.9000000000233,"stimulus":"\n                    <p><b>Action: <em>harvest</em></b></p>\n                    <p>This is the bee that you just saw.</p>\n                    <img src=\"bees-with-color/bee-A2DF.svg\" width=\"200\">\n                    <p><span class=\"greenText\"><b>Successful harvest!</b></span><br>Your pay has increased by $0.02. Your bonus pay is now $0.58.</p>\n            ","response":0,"trial_type":"html-button-response","trial_index":84,"time_elapsed":422313,"internal_node_id":"0.0-4.0-1.38","subject_id":"5b8c8e7d0c740e00019d55c3","study_id":"6197b3f67c2b5cd3b6d9596a","session_id":"619be3194eda710dc9aa83b3","condition":"full-information","relevant_dimensions":["pattern","legs"],"bee_group":{"antennae":"X","wings":"X","pattern":"S","legs":"F"},"bonus":1.2400000000000013},{"rt":1613.5,"stimulus":"bees-with-color/bee-A1DM.svg","response":0,"trial_type":"image-button-response","trial_index":85,"time_elapsed":423929,"internal_node_id":"0.0-4.0-0.39","subject_id":"5b8c8e7d0c740e00019d55c3","study_id":"6197b3f67c2b5cd3b6d9596a","session_id":"619be3194eda710dc9aa83b3","condition":"full-information","relevant_dimensions":["pattern","legs"],"bee_group":{"antennae":"X","wings":"X","pattern":"S","legs":"F"},"action":"harvest","summary":"good-harvest","bonus":1.2400000000000013},{"rt":693.8000000000466,"stimulus":"\n                    <p><b>Action: <em>harvest</em></b></p>\n                    <p>This is the bee that you just saw.</p>\n                    <img src=\"bees-with-color/bee-A1DM.svg\" width=\"200\">\n                    <p><span class=\"greenText\"><b>Successful harvest!</b></span><br>Your pay has increased by $0.02. Your bonus pay is now $0.60.</p>\n            ","response":0,"trial_type":"html-button-response","trial_index":86,"time_elapsed":424625,"internal_node_id":"0.0-4.0-1.39","subject_id":"5b8c8e7d0c740e00019d55c3","study_id":"6197b3f67c2b5cd3b6d9596a","session_id":"619be3194eda710dc9aa83b3","condition":"full-information","relevant_dimensions":["pattern","legs"],"bee_group":{"antennae":"X","wings":"X","pattern":"S","legs":"F"},"bonus":1.2400000000000013},{"rt":1534.0999999999767,"stimulus":"bees-with-color/bee-B1SM.svg","response":0,"trial_type":"image-button-response","trial_index":87,"time_elapsed":426161,"internal_node_id":"0.0-4.0-0.40","subject_id":"5b8c8e7d0c740e00019d55c3","study_id":"6197b3f67c2b5cd3b6d9596a","session_id":"619be3194eda710dc9aa83b3","condition":"full-information","relevant_dimensions":["pattern","legs"],"bee_group":{"antennae":"X","wings":"X","pattern":"S","legs":"F"},"action":"harvest","summary":"good-harvest","bonus":1.2400000000000013},{"rt":709.9000000000233,"stimulus":"\n                    <p><b>Action: <em>harvest</em></b></p>\n                    <p>This is the bee that you just saw.</p>\n                    <img src=\"bees-with-color/bee-B1SM.svg\" width=\"200\">\n                    <p><span class=\"greenText\"><b>Successful harvest!</b></span><br>Your pay has increased by $0.02. Your bonus pay is now $0.62.</p>\n            ","response":0,"trial_type":"html-button-response","trial_index":88,"time_elapsed":426873,"internal_node_id":"0.0-4.0-1.40","subject_id":"5b8c8e7d0c740e00019d55c3","study_id":"6197b3f67c2b5cd3b6d9596a","session_id":"619be3194eda710dc9aa83b3","condition":"full-information","relevant_dimensions":["pattern","legs"],"bee_group":{"antennae":"X","wings":"X","pattern":"S","legs":"F"},"bonus":1.2400000000000013},{"rt":2662.0999999999767,"stimulus":"bees-with-color/bee-B1SF.svg","response":0,"trial_type":"image-button-response","trial_index":89,"time_elapsed":429538,"internal_node_id":"0.0-4.0-0.41","subject_id":"5b8c8e7d0c740e00019d55c3","study_id":"6197b3f67c2b5cd3b6d9596a","session_id":"619be3194eda710dc9aa83b3","condition":"full-information","relevant_dimensions":["pattern","legs"],"bee_group":{"antennae":"X","wings":"X","pattern":"S","legs":"F"},"action":"harvest","summary":"bad-harvest","bonus":1.2400000000000013},{"rt":1373.5999999999767,"stimulus":"\n                    <p><b>Action: <em>harvest</em></b></p>\n                    <p>This is the bee that you just saw.</p>\n                    <img src=\"bees-with-color/bee-B1SF.svg\" width=\"200\">\n                    <p><span class=\"redText\">Bad choice, the bee was angry.</span><br><b>You have been stung!</b><br>Your pay has been decreased by $0.10. Your bonus pay is now $0.52.</p>\n            ","response":0,"trial_type":"html-button-response","trial_index":90,"time_elapsed":430914,"internal_node_id":"0.0-4.0-1.41","subject_id":"5b8c8e7d0c740e00019d55c3","study_id":"6197b3f67c2b5cd3b6d9596a","session_id":"619be3194eda710dc9aa83b3","condition":"full-information","relevant_dimensions":["pattern","legs"],"bee_group":{"antennae":"X","wings":"X","pattern":"S","legs":"F"},"bonus":1.2400000000000013},{"rt":1653.2000000000698,"stimulus":"bees-with-color/bee-A1SM.svg","response":0,"trial_type":"image-button-response","trial_index":91,"time_elapsed":432570,"internal_node_id":"0.0-4.0-0.42","subject_id":"5b8c8e7d0c740e00019d55c3","study_id":"6197b3f67c2b5cd3b6d9596a","session_id":"619be3194eda710dc9aa83b3","condition":"full-information","relevant_dimensions":["pattern","legs"],"bee_group":{"antennae":"X","wings":"X","pattern":"S","legs":"F"},"action":"harvest","summary":"good-harvest","bonus":1.2400000000000013},{"rt":717.8000000000466,"stimulus":"\n                    <p><b>Action: <em>harvest</em></b></p>\n                    <p>This is the bee that you just saw.</p>\n                    <img src=\"bees-with-color/bee-A1SM.svg\" width=\"200\">\n                    <p><span class=\"greenText\"><b>Successful harvest!</b></span><br>Your pay has increased by $0.02. Your bonus pay is now $0.54.</p>\n            ","response":0,"trial_type":"html-button-response","trial_index":92,"time_elapsed":433290,"internal_node_id":"0.0-4.0-1.42","subject_id":"5b8c8e7d0c740e00019d55c3","study_id":"6197b3f67c2b5cd3b6d9596a","session_id":"619be3194eda710dc9aa83b3","condition":"full-information","relevant_dimensions":["pattern","legs"],"bee_group":{"antennae":"X","wings":"X","pattern":"S","legs":"F"},"bonus":1.2400000000000013},{"rt":1062.1000000000931,"stimulus":"bees-with-color/bee-B1DF.svg","response":0,"trial_type":"image-button-response","trial_index":93,"time_elapsed":434354,"internal_node_id":"0.0-4.0-0.43","subject_id":"5b8c8e7d0c740e00019d55c3","study_id":"6197b3f67c2b5cd3b6d9596a","session_id":"619be3194eda710dc9aa83b3","condition":"full-information","relevant_dimensions":["pattern","legs"],"bee_group":{"antennae":"X","wings":"X","pattern":"S","legs":"F"},"action":"harvest","summary":"good-harvest","bonus":1.2400000000000013},{"rt":685.9000000000233,"stimulus":"\n                    <p><b>Action: <em>harvest</em></b></p>\n                    <p>This is the bee that you just saw.</p>\n                    <img src=\"bees-with-color/bee-B1DF.svg\" width=\"200\">\n                    <p><span class=\"greenText\"><b>Successful harvest!</b></span><br>Your pay has increased by $0.02. Your bonus pay is now $0.56.</p>\n            ","response":0,"trial_type":"html-button-response","trial_index":94,"time_elapsed":435042,"internal_node_id":"0.0-4.0-1.43","subject_id":"5b8c8e7d0c740e00019d55c3","study_id":"6197b3f67c2b5cd3b6d9596a","session_id":"619be3194eda710dc9aa83b3","condition":"full-information","relevant_dimensions":["pattern","legs"],"bee_group":{"antennae":"X","wings":"X","pattern":"S","legs":"F"},"bonus":1.2400000000000013},{"rt":806.0999999999767,"stimulus":"bees-with-color/bee-A2DM.svg","response":0,"trial_type":"image-button-response","trial_index":95,"time_elapsed":435850,"internal_node_id":"0.0-4.0-0.44","subject_id":"5b8c8e7d0c740e00019d55c3","study_id":"6197b3f67c2b5cd3b6d9596a","session_id":"619be3194eda710dc9aa83b3","condition":"full-information","relevant_dimensions":["pattern","legs"],"bee_group":{"antennae":"X","wings":"X","pattern":"S","legs":"F"},"action":"harvest","summary":"good-harvest","bonus":1.2400000000000013},{"rt":645.7999999999302,"stimulus":"\n                    <p><b>Action: <em>harvest</em></b></p>\n                    <p>This is the bee that you just saw.</p>\n                    <img src=\"bees-with-color/bee-A2DM.svg\" width=\"200\">\n                    <p><span class=\"greenText\"><b>Successful harvest!</b></span><br>Your pay has increased by $0.02. Your bonus pay is now $0.58.</p>\n            ","response":0,"trial_type":"html-button-response","trial_index":96,"time_elapsed":436498,"internal_node_id":"0.0-4.0-1.44","subject_id":"5b8c8e7d0c740e00019d55c3","study_id":"6197b3f67c2b5cd3b6d9596a","session_id":"619be3194eda710dc9aa83b3","condition":"full-information","relevant_dimensions":["pattern","legs"],"bee_group":{"antennae":"X","wings":"X","pattern":"S","legs":"F"},"bonus":1.2400000000000013},{"rt":1941.9000000000233,"stimulus":"bees-with-color/bee-B1DM.svg","response":0,"trial_type":"image-button-response","trial_index":97,"time_elapsed":438441,"internal_node_id":"0.0-4.0-0.45","subject_id":"5b8c8e7d0c740e00019d55c3","study_id":"6197b3f67c2b5cd3b6d9596a","session_id":"619be3194eda710dc9aa83b3","condition":"full-information","relevant_dimensions":["pattern","legs"],"bee_group":{"antennae":"X","wings":"X","pattern":"S","legs":"F"},"action":"harvest","summary":"good-harvest","bonus":1.2400000000000013},{"rt":677.5999999999767,"stimulus":"\n                    <p><b>Action: <em>harvest</em></b></p>\n                    <p>This is the bee that you just saw.</p>\n                    <img src=\"bees-with-color/bee-B1DM.svg\" width=\"200\">\n                    <p><span class=\"greenText\"><b>Successful harvest!</b></span><br>Your pay has increased by $0.02. Your bonus pay is now $0.60.</p>\n            ","response":0,"trial_type":"html-button-response","trial_index":98,"time_elapsed":439121,"internal_node_id":"0.0-4.0-1.45","subject_id":"5b8c8e7d0c740e00019d55c3","study_id":"6197b3f67c2b5cd3b6d9596a","session_id":"619be3194eda710dc9aa83b3","condition":"full-information","relevant_dimensions":["pattern","legs"],"bee_group":{"antennae":"X","wings":"X","pattern":"S","legs":"F"},"bonus":1.2400000000000013},{"rt":862,"stimulus":"bees-with-color/bee-B2SF.svg","response":1,"trial_type":"image-button-response","trial_index":99,"time_elapsed":439985,"internal_node_id":"0.0-4.0-0.46","subject_id":"5b8c8e7d0c740e00019d55c3","study_id":"6197b3f67c2b5cd3b6d9596a","session_id":"619be3194eda710dc9aa83b3","condition":"full-information","relevant_dimensions":["pattern","legs"],"bee_group":{"antennae":"X","wings":"X","pattern":"S","legs":"F"},"action":"avoid","summary":"good-avoid","bonus":1.2400000000000013},{"rt":581.6999999999534,"stimulus":"\n                    <p><b>Action: <em>avoid</em></b></p>\n                    <p>This is the bee that you just saw.</p>\n                    <img src=\"bees-with-color/bee-B2SF.svg\" width=\"200\">\n                    <p><span class=\"greenText\">Good choice!</span>  This bee would have stung you.<br>Your bonus pay is unchanged, and remains at $0.60.</p>\n            ","response":0,"trial_type":"html-button-response","trial_index":100,"time_elapsed":440569,"internal_node_id":"0.0-4.0-1.46","subject_id":"5b8c8e7d0c740e00019d55c3","study_id":"6197b3f67c2b5cd3b6d9596a","session_id":"619be3194eda710dc9aa83b3","condition":"full-information","relevant_dimensions":["pattern","legs"],"bee_group":{"antennae":"X","wings":"X","pattern":"S","legs":"F"},"bonus":1.2400000000000013},{"rt":1286.0999999999767,"stimulus":"bees-with-color/bee-B2SM.svg","response":0,"trial_type":"image-button-response","trial_index":101,"time_elapsed":441857,"internal_node_id":"0.0-4.0-0.47","subject_id":"5b8c8e7d0c740e00019d55c3","study_id":"6197b3f67c2b5cd3b6d9596a","session_id":"619be3194eda710dc9aa83b3","condition":"full-information","relevant_dimensions":["pattern","legs"],"bee_group":{"antennae":"X","wings":"X","pattern":"S","legs":"F"},"action":"harvest","summary":"good-harvest","bonus":1.2400000000000013},{"rt":645.6999999999534,"stimulus":"\n                    <p><b>Action: <em>harvest</em></b></p>\n                    <p>This is the bee that you just saw.</p>\n                    <img src=\"bees-with-color/bee-B2SM.svg\" width=\"200\">\n                    <p><span class=\"greenText\"><b>Successful harvest!</b></span><br>Your pay has increased by $0.02. Your bonus pay is now $0.62.</p>\n            ","response":0,"trial_type":"html-button-response","trial_index":102,"time_elapsed":442505,"internal_node_id":"0.0-4.0-1.47","subject_id":"5b8c8e7d0c740e00019d55c3","study_id":"6197b3f67c2b5cd3b6d9596a","session_id":"619be3194eda710dc9aa83b3","condition":"full-information","relevant_dimensions":["pattern","legs"],"bee_group":{"antennae":"X","wings":"X","pattern":"S","legs":"F"},"bonus":1.2400000000000013},{"rt":1438,"stimulus":"bees-with-color/bee-A1SF.svg","response":1,"trial_type":"image-button-response","trial_index":103,"time_elapsed":443945,"internal_node_id":"0.0-4.0-0.48","subject_id":"5b8c8e7d0c740e00019d55c3","study_id":"6197b3f67c2b5cd3b6d9596a","session_id":"619be3194eda710dc9aa83b3","condition":"full-information","relevant_dimensions":["pattern","legs"],"bee_group":{"antennae":"X","wings":"X","pattern":"S","legs":"F"},"action":"avoid","summary":"good-avoid","bonus":1.2400000000000013},{"rt":565.5999999999767,"stimulus":"\n                    <p><b>Action: <em>avoid</em></b></p>\n                    <p>This is the bee that you just saw.</p>\n                    <img src=\"bees-with-color/bee-A1SF.svg\" width=\"200\">\n                    <p><span class=\"greenText\">Good choice!</span>  This bee would have stung you.<br>Your bonus pay is unchanged, and remains at $0.62.</p>\n            ","response":0,"trial_type":"html-button-response","trial_index":104,"time_elapsed":444513,"internal_node_id":"0.0-4.0-1.48","subject_id":"5b8c8e7d0c740e00019d55c3","study_id":"6197b3f67c2b5cd3b6d9596a","session_id":"619be3194eda710dc9aa83b3","condition":"full-information","relevant_dimensions":["pattern","legs"],"bee_group":{"antennae":"X","wings":"X","pattern":"S","legs":"F"},"bonus":1.2400000000000013},{"rt":1494,"stimulus":"bees-with-color/bee-B2DF.svg","response":0,"trial_type":"image-button-response","trial_index":105,"time_elapsed":446009,"internal_node_id":"0.0-4.0-0.49","subject_id":"5b8c8e7d0c740e00019d55c3","study_id":"6197b3f67c2b5cd3b6d9596a","session_id":"619be3194eda710dc9aa83b3","condition":"full-information","relevant_dimensions":["pattern","legs"],"bee_group":{"antennae":"X","wings":"X","pattern":"S","legs":"F"},"action":"harvest","summary":"good-harvest","bonus":1.2400000000000013},{"rt":773.5999999999767,"stimulus":"\n                    <p><b>Action: <em>harvest</em></b></p>\n                    <p>This is the bee that you just saw.</p>\n                    <img src=\"bees-with-color/bee-B2DF.svg\" width=\"200\">\n                    <p><span class=\"greenText\"><b>Successful harvest!</b></span><br>Your pay has increased by $0.02. Your bonus pay is now $0.64.</p>\n            ","response":0,"trial_type":"html-button-response","trial_index":106,"time_elapsed":446785,"internal_node_id":"0.0-4.0-1.49","subject_id":"5b8c8e7d0c740e00019d55c3","study_id":"6197b3f67c2b5cd3b6d9596a","session_id":"619be3194eda710dc9aa83b3","condition":"full-information","relevant_dimensions":["pattern","legs"],"bee_group":{"antennae":"X","wings":"X","pattern":"S","legs":"F"},"bonus":1.2400000000000013},{"rt":1726.5,"stimulus":"bees-with-color/bee-A1DF.svg","response":0,"trial_type":"image-button-response","trial_index":107,"time_elapsed":448513,"internal_node_id":"0.0-4.0-0.50","subject_id":"5b8c8e7d0c740e00019d55c3","study_id":"6197b3f67c2b5cd3b6d9596a","session_id":"619be3194eda710dc9aa83b3","condition":"full-information","relevant_dimensions":["pattern","legs"],"bee_group":{"antennae":"X","wings":"X","pattern":"S","legs":"F"},"action":"harvest","summary":"good-harvest","bonus":1.2400000000000013},{"rt":638.2000000000698,"stimulus":"\n                    <p><b>Action: <em>harvest</em></b></p>\n                    <p>This is the bee that you just saw.</p>\n                    <img src=\"bees-with-color/bee-A1DF.svg\" width=\"200\">\n                    <p><span class=\"greenText\"><b>Successful harvest!</b></span><br>Your pay has increased by $0.02. Your bonus pay is now $0.66.</p>\n            ","response":0,"trial_type":"html-button-response","trial_index":108,"time_elapsed":449153,"internal_node_id":"0.0-4.0-1.50","subject_id":"5b8c8e7d0c740e00019d55c3","study_id":"6197b3f67c2b5cd3b6d9596a","session_id":"619be3194eda710dc9aa83b3","condition":"full-information","relevant_dimensions":["pattern","legs"],"bee_group":{"antennae":"X","wings":"X","pattern":"S","legs":"F"},"bonus":1.2400000000000013},{"rt":1062.4000000000233,"stimulus":"bees-with-color/bee-A2SM.svg","response":0,"trial_type":"image-button-response","trial_index":109,"time_elapsed":450217,"internal_node_id":"0.0-4.0-0.51","subject_id":"5b8c8e7d0c740e00019d55c3","study_id":"6197b3f67c2b5cd3b6d9596a","session_id":"619be3194eda710dc9aa83b3","condition":"full-information","relevant_dimensions":["pattern","legs"],"bee_group":{"antennae":"X","wings":"X","pattern":"S","legs":"F"},"action":"harvest","summary":"good-harvest","bonus":1.2400000000000013},{"rt":606.3000000000466,"stimulus":"\n                    <p><b>Action: <em>harvest</em></b></p>\n                    <p>This is the bee that you just saw.</p>\n                    <img src=\"bees-with-color/bee-A2SM.svg\" width=\"200\">\n                    <p><span class=\"greenText\"><b>Successful harvest!</b></span><br>Your pay has increased by $0.02. Your bonus pay is now $0.68.</p>\n            ","response":0,"trial_type":"html-button-response","trial_index":110,"time_elapsed":450825,"internal_node_id":"0.0-4.0-1.51","subject_id":"5b8c8e7d0c740e00019d55c3","study_id":"6197b3f67c2b5cd3b6d9596a","session_id":"619be3194eda710dc9aa83b3","condition":"full-information","relevant_dimensions":["pattern","legs"],"bee_group":{"antennae":"X","wings":"X","pattern":"S","legs":"F"},"bonus":1.2400000000000013},{"rt":1622.2999999999302,"stimulus":"bees-with-color/bee-A1SM.svg","response":0,"trial_type":"image-button-response","trial_index":111,"time_elapsed":452449,"internal_node_id":"0.0-4.0-0.52","subject_id":"5b8c8e7d0c740e00019d55c3","study_id":"6197b3f67c2b5cd3b6d9596a","session_id":"619be3194eda710dc9aa83b3","condition":"full-information","relevant_dimensions":["pattern","legs"],"bee_group":{"antennae":"X","wings":"X","pattern":"S","legs":"F"},"action":"harvest","summary":"good-harvest","bonus":1.2400000000000013},{"rt":558.1999999999534,"stimulus":"\n                    <p><b>Action: <em>harvest</em></b></p>\n                    <p>This is the bee that you just saw.</p>\n                    <img src=\"bees-with-color/bee-A1SM.svg\" width=\"200\">\n                    <p><span class=\"greenText\"><b>Successful harvest!</b></span><br>Your pay has increased by $0.02. Your bonus pay is now $0.70.</p>\n            ","response":0,"trial_type":"html-button-response","trial_index":112,"time_elapsed":453009,"internal_node_id":"0.0-4.0-1.52","subject_id":"5b8c8e7d0c740e00019d55c3","study_id":"6197b3f67c2b5cd3b6d9596a","session_id":"619be3194eda710dc9aa83b3","condition":"full-information","relevant_dimensions":["pattern","legs"],"bee_group":{"antennae":"X","wings":"X","pattern":"S","legs":"F"},"bonus":1.2400000000000013},{"rt":1302.3999999999069,"stimulus":"bees-with-color/bee-B1DF.svg","response":1,"trial_type":"image-button-response","trial_index":113,"time_elapsed":454313,"internal_node_id":"0.0-4.0-0.53","subject_id":"5b8c8e7d0c740e00019d55c3","study_id":"6197b3f67c2b5cd3b6d9596a","session_id":"619be3194eda710dc9aa83b3","condition":"full-information","relevant_dimensions":["pattern","legs"],"bee_group":{"antennae":"X","wings":"X","pattern":"S","legs":"F"},"action":"avoid","summary":"bad-avoid","bonus":1.2400000000000013},{"rt":662.1999999999534,"stimulus":"\n                    <p><b>Action: <em>avoid</em></b></p>\n                    <p>This is the bee that you just saw.</p>\n                    <img src=\"bees-with-color/bee-B1DF.svg\" width=\"200\">\n                    <p><span class=\"redText\">Bad choice,</span> the bee was friendly.<br>Your bonus pay is unchanged, and remains at $0.70.</p>\n            ","response":0,"trial_type":"html-button-response","trial_index":114,"time_elapsed":454977,"internal_node_id":"0.0-4.0-1.53","subject_id":"5b8c8e7d0c740e00019d55c3","study_id":"6197b3f67c2b5cd3b6d9596a","session_id":"619be3194eda710dc9aa83b3","condition":"full-information","relevant_dimensions":["pattern","legs"],"bee_group":{"antennae":"X","wings":"X","pattern":"S","legs":"F"},"bonus":1.2400000000000013},{"rt":2550.399999999907,"stimulus":"bees-with-color/bee-B1SM.svg","response":1,"trial_type":"image-button-response","trial_index":115,"time_elapsed":457529,"internal_node_id":"0.0-4.0-0.54","subject_id":"5b8c8e7d0c740e00019d55c3","study_id":"6197b3f67c2b5cd3b6d9596a","session_id":"619be3194eda710dc9aa83b3","condition":"full-information","relevant_dimensions":["pattern","legs"],"bee_group":{"antennae":"X","wings":"X","pattern":"S","legs":"F"},"action":"avoid","summary":"bad-avoid","bonus":1.2400000000000013},{"rt":1006,"stimulus":"\n                    <p><b>Action: <em>avoid</em></b></p>\n                    <p>This is the bee that you just saw.</p>\n                    <img src=\"bees-with-color/bee-B1SM.svg\" width=\"200\">\n                    <p><span class=\"redText\">Bad choice,</span> the bee was friendly.<br>Your bonus pay is unchanged, and remains at $0.70.</p>\n            ","response":0,"trial_type":"html-button-response","trial_index":116,"time_elapsed":458537,"internal_node_id":"0.0-4.0-1.54","subject_id":"5b8c8e7d0c740e00019d55c3","study_id":"6197b3f67c2b5cd3b6d9596a","session_id":"619be3194eda710dc9aa83b3","condition":"full-information","relevant_dimensions":["pattern","legs"],"bee_group":{"antennae":"X","wings":"X","pattern":"S","legs":"F"},"bonus":1.2400000000000013},{"rt":1773.6999999999534,"stimulus":"bees-with-color/bee-A2SF.svg","response":1,"trial_type":"image-button-response","trial_index":117,"time_elapsed":460313,"internal_node_id":"0.0-4.0-0.55","subject_id":"5b8c8e7d0c740e00019d55c3","study_id":"6197b3f67c2b5cd3b6d9596a","session_id":"619be3194eda710dc9aa83b3","condition":"full-information","relevant_dimensions":["pattern","legs"],"bee_group":{"antennae":"X","wings":"X","pattern":"S","legs":"F"},"action":"avoid","summary":"good-avoid","bonus":1.2400000000000013},{"rt":742,"stimulus":"\n                    <p><b>Action: <em>avoid</em></b></p>\n                    <p>This is the bee that you just saw.</p>\n                    <img src=\"bees-with-color/bee-A2SF.svg\" width=\"200\">\n                    <p><span class=\"greenText\">Good choice!</span>  This bee would have stung you.<br>Your bonus pay is unchanged, and remains at $0.70.</p>\n            ","response":0,"trial_type":"html-button-response","trial_index":118,"time_elapsed":461057,"internal_node_id":"0.0-4.0-1.55","subject_id":"5b8c8e7d0c740e00019d55c3","study_id":"6197b3f67c2b5cd3b6d9596a","session_id":"619be3194eda710dc9aa83b3","condition":"full-information","relevant_dimensions":["pattern","legs"],"bee_group":{"antennae":"X","wings":"X","pattern":"S","legs":"F"},"bonus":1.2400000000000013},{"rt":1158.3000000000466,"stimulus":"bees-with-color/bee-A2DM.svg","response":0,"trial_type":"image-button-response","trial_index":119,"time_elapsed":462217,"internal_node_id":"0.0-4.0-0.56","subject_id":"5b8c8e7d0c740e00019d55c3","study_id":"6197b3f67c2b5cd3b6d9596a","session_id":"619be3194eda710dc9aa83b3","condition":"full-information","relevant_dimensions":["pattern","legs"],"bee_group":{"antennae":"X","wings":"X","pattern":"S","legs":"F"},"action":"harvest","summary":"good-harvest","bonus":1.2400000000000013},{"rt":622.0999999999767,"stimulus":"\n                    <p><b>Action: <em>harvest</em></b></p>\n                    <p>This is the bee that you just saw.</p>\n                    <img src=\"bees-with-color/bee-A2DM.svg\" width=\"200\">\n                    <p><span class=\"greenText\"><b>Successful harvest!</b></span><br>Your pay has increased by $0.02. Your bonus pay is now $0.72.</p>\n            ","response":0,"trial_type":"html-button-response","trial_index":120,"time_elapsed":462841,"internal_node_id":"0.0-4.0-1.56","subject_id":"5b8c8e7d0c740e00019d55c3","study_id":"6197b3f67c2b5cd3b6d9596a","session_id":"619be3194eda710dc9aa83b3","condition":"full-information","relevant_dimensions":["pattern","legs"],"bee_group":{"antennae":"X","wings":"X","pattern":"S","legs":"F"},"bonus":1.2400000000000013},{"rt":1358.4000000000233,"stimulus":"bees-with-color/bee-B2DM.svg","response":0,"trial_type":"image-button-response","trial_index":121,"time_elapsed":464201,"internal_node_id":"0.0-4.0-0.57","subject_id":"5b8c8e7d0c740e00019d55c3","study_id":"6197b3f67c2b5cd3b6d9596a","session_id":"619be3194eda710dc9aa83b3","condition":"full-information","relevant_dimensions":["pattern","legs"],"bee_group":{"antennae":"X","wings":"X","pattern":"S","legs":"F"},"action":"harvest","summary":"good-harvest","bonus":1.2400000000000013},{"rt":910,"stimulus":"\n                    <p><b>Action: <em>harvest</em></b></p>\n                    <p>This is the bee that you just saw.</p>\n                    <img src=\"bees-with-color/bee-B2DM.svg\" width=\"200\">\n                    <p><span class=\"greenText\"><b>Successful harvest!</b></span><br>Your pay has increased by $0.02. Your bonus pay is now $0.74.</p>\n            ","response":0,"trial_type":"html-button-response","trial_index":122,"time_elapsed":465113,"internal_node_id":"0.0-4.0-1.57","subject_id":"5b8c8e7d0c740e00019d55c3","study_id":"6197b3f67c2b5cd3b6d9596a","session_id":"619be3194eda710dc9aa83b3","condition":"full-information","relevant_dimensions":["pattern","legs"],"bee_group":{"antennae":"X","wings":"X","pattern":"S","legs":"F"},"bonus":1.2400000000000013},{"rt":1590.3000000000466,"stimulus":"bees-with-color/bee-A1DM.svg","response":0,"trial_type":"image-button-response","trial_index":123,"time_elapsed":466705,"internal_node_id":"0.0-4.0-0.58","subject_id":"5b8c8e7d0c740e00019d55c3","study_id":"6197b3f67c2b5cd3b6d9596a","session_id":"619be3194eda710dc9aa83b3","condition":"full-information","relevant_dimensions":["pattern","legs"],"bee_group":{"antennae":"X","wings":"X","pattern":"S","legs":"F"},"action":"harvest","summary":"good-harvest","bonus":1.2400000000000013},{"rt":614,"stimulus":"\n                    <p><b>Action: <em>harvest</em></b></p>\n                    <p>This is the bee that you just saw.</p>\n                    <img src=\"bees-with-color/bee-A1DM.svg\" width=\"200\">\n                    <p><span class=\"greenText\"><b>Successful harvest!</b></span><br>Your pay has increased by $0.02. Your bonus pay is now $0.76.</p>\n            ","response":0,"trial_type":"html-button-response","trial_index":124,"time_elapsed":467321,"internal_node_id":"0.0-4.0-1.58","subject_id":"5b8c8e7d0c740e00019d55c3","study_id":"6197b3f67c2b5cd3b6d9596a","session_id":"619be3194eda710dc9aa83b3","condition":"full-information","relevant_dimensions":["pattern","legs"],"bee_group":{"antennae":"X","wings":"X","pattern":"S","legs":"F"},"bonus":1.2400000000000013},{"rt":2094.20000000007,"stimulus":"bees-with-color/bee-B1DM.svg","response":0,"trial_type":"image-button-response","trial_index":125,"time_elapsed":469417,"internal_node_id":"0.0-4.0-0.59","subject_id":"5b8c8e7d0c740e00019d55c3","study_id":"6197b3f67c2b5cd3b6d9596a","session_id":"619be3194eda710dc9aa83b3","condition":"full-information","relevant_dimensions":["pattern","legs"],"bee_group":{"antennae":"X","wings":"X","pattern":"S","legs":"F"},"action":"harvest","summary":"good-harvest","bonus":1.2400000000000013},{"rt":893.7999999999302,"stimulus":"\n                    <p><b>Action: <em>harvest</em></b></p>\n                    <p>This is the bee that you just saw.</p>\n                    <img src=\"bees-with-color/bee-B1DM.svg\" width=\"200\">\n                    <p><span class=\"greenText\"><b>Successful harvest!</b></span><br>Your pay has increased by $0.02. Your bonus pay is now $0.78.</p>\n            ","response":0,"trial_type":"html-button-response","trial_index":126,"time_elapsed":470313,"internal_node_id":"0.0-4.0-1.59","subject_id":"5b8c8e7d0c740e00019d55c3","study_id":"6197b3f67c2b5cd3b6d9596a","session_id":"619be3194eda710dc9aa83b3","condition":"full-information","relevant_dimensions":["pattern","legs"],"bee_group":{"antennae":"X","wings":"X","pattern":"S","legs":"F"},"bonus":1.2400000000000013},{"rt":1293.6000000000931,"stimulus":"bees-with-color/bee-B2SF.svg","response":1,"trial_type":"image-button-response","trial_index":127,"time_elapsed":471609,"internal_node_id":"0.0-4.0-0.60","subject_id":"5b8c8e7d0c740e00019d55c3","study_id":"6197b3f67c2b5cd3b6d9596a","session_id":"619be3194eda710dc9aa83b3","condition":"full-information","relevant_dimensions":["pattern","legs"],"bee_group":{"antennae":"X","wings":"X","pattern":"S","legs":"F"},"action":"avoid","summary":"good-avoid","bonus":1.2400000000000013},{"rt":973.5999999999767,"stimulus":"\n                    <p><b>Action: <em>avoid</em></b></p>\n                    <p>This is the bee that you just saw.</p>\n                    <img src=\"bees-with-color/bee-B2SF.svg\" width=\"200\">\n                    <p><span class=\"greenText\">Good choice!</span>  This bee would have stung you.<br>Your bonus pay is unchanged, and remains at $0.78.</p>\n            ","response":0,"trial_type":"html-button-response","trial_index":128,"time_elapsed":472584,"internal_node_id":"0.0-4.0-1.60","subject_id":"5b8c8e7d0c740e00019d55c3","study_id":"6197b3f67c2b5cd3b6d9596a","session_id":"619be3194eda710dc9aa83b3","condition":"full-information","relevant_dimensions":["pattern","legs"],"bee_group":{"antennae":"X","wings":"X","pattern":"S","legs":"F"},"bonus":1.2400000000000013},{"rt":1606.1999999999534,"stimulus":"bees-with-color/bee-B2SM.svg","response":0,"trial_type":"image-button-response","trial_index":129,"time_elapsed":474192,"internal_node_id":"0.0-4.0-0.61","subject_id":"5b8c8e7d0c740e00019d55c3","study_id":"6197b3f67c2b5cd3b6d9596a","session_id":"619be3194eda710dc9aa83b3","condition":"full-information","relevant_dimensions":["pattern","legs"],"bee_group":{"antennae":"X","wings":"X","pattern":"S","legs":"F"},"action":"harvest","summary":"good-harvest","bonus":1.2400000000000013},{"rt":685.6999999999534,"stimulus":"\n                    <p><b>Action: <em>harvest</em></b></p>\n                    <p>This is the bee that you just saw.</p>\n                    <img src=\"bees-with-color/bee-B2SM.svg\" width=\"200\">\n                    <p><span class=\"greenText\"><b>Successful harvest!</b></span><br>Your pay has increased by $0.02. Your bonus pay is now $0.80.</p>\n            ","response":0,"trial_type":"html-button-response","trial_index":130,"time_elapsed":474880,"internal_node_id":"0.0-4.0-1.61","subject_id":"5b8c8e7d0c740e00019d55c3","study_id":"6197b3f67c2b5cd3b6d9596a","session_id":"619be3194eda710dc9aa83b3","condition":"full-information","relevant_dimensions":["pattern","legs"],"bee_group":{"antennae":"X","wings":"X","pattern":"S","legs":"F"},"bonus":1.2400000000000013},{"rt":1662.0999999999767,"stimulus":"bees-with-color/bee-B1SF.svg","response":1,"trial_type":"image-button-response","trial_index":131,"time_elapsed":476544,"internal_node_id":"0.0-4.0-0.62","subject_id":"5b8c8e7d0c740e00019d55c3","study_id":"6197b3f67c2b5cd3b6d9596a","session_id":"619be3194eda710dc9aa83b3","condition":"full-information","relevant_dimensions":["pattern","legs"],"bee_group":{"antennae":"X","wings":"X","pattern":"S","legs":"F"},"action":"avoid","summary":"good-avoid","bonus":1.2400000000000013},{"rt":661.7999999999302,"stimulus":"\n                    <p><b>Action: <em>avoid</em></b></p>\n                    <p>This is the bee that you just saw.</p>\n                    <img src=\"bees-with-color/bee-B1SF.svg\" width=\"200\">\n                    <p><span class=\"greenText\">Good choice!</span>  This bee would have stung you.<br>Your bonus pay is unchanged, and remains at $0.80.</p>\n            ","response":0,"trial_type":"html-button-response","trial_index":132,"time_elapsed":477208,"internal_node_id":"0.0-4.0-1.62","subject_id":"5b8c8e7d0c740e00019d55c3","study_id":"6197b3f67c2b5cd3b6d9596a","session_id":"619be3194eda710dc9aa83b3","condition":"full-information","relevant_dimensions":["pattern","legs"],"bee_group":{"antennae":"X","wings":"X","pattern":"S","legs":"F"},"bonus":1.2400000000000013},{"rt":3478.0999999999767,"stimulus":"bees-with-color/bee-A2DF.svg","response":0,"trial_type":"image-button-response","trial_index":133,"time_elapsed":480688,"internal_node_id":"0.0-4.0-0.63","subject_id":"5b8c8e7d0c740e00019d55c3","study_id":"6197b3f67c2b5cd3b6d9596a","session_id":"619be3194eda710dc9aa83b3","condition":"full-information","relevant_dimensions":["pattern","legs"],"bee_group":{"antennae":"X","wings":"X","pattern":"S","legs":"F"},"action":"harvest","summary":"good-harvest","bonus":1.2400000000000013},{"rt":597.8000000000466,"stimulus":"\n                    <p><b>Action: <em>harvest</em></b></p>\n                    <p>This is the bee that you just saw.</p>\n                    <img src=\"bees-with-color/bee-A2DF.svg\" width=\"200\">\n                    <p><span class=\"greenText\"><b>Successful harvest!</b></span><br>Your pay has increased by $0.02. Your bonus pay is now $0.82.</p>\n            ","response":0,"trial_type":"html-button-response","trial_index":134,"time_elapsed":481288,"internal_node_id":"0.0-4.0-1.63","subject_id":"5b8c8e7d0c740e00019d55c3","study_id":"6197b3f67c2b5cd3b6d9596a","session_id":"619be3194eda710dc9aa83b3","condition":"full-information","relevant_dimensions":["pattern","legs"],"bee_group":{"antennae":"X","wings":"X","pattern":"S","legs":"F"},"bonus":1.2400000000000013},{"rt":7514.5,"stimulus":"You have completed the first part of this experiment.<br><br>You will now begin a shorter second part, in which you will receive no feedback.<br>The same rules regarding bonus pay apply.<br><br>Press any key to begin.","response":" ","trial_type":"html-keyboard-response","trial_index":135,"time_elapsed":488805,"internal_node_id":"0.0-5.0","subject_id":"5b8c8e7d0c740e00019d55c3","study_id":"6197b3f67c2b5cd3b6d9596a","session_id":"619be3194eda710dc9aa83b3","condition":"full-information","relevant_dimensions":["pattern","legs"],"bee_group":{"antennae":"X","wings":"X","pattern":"S","legs":"F"},"bonus":1.2400000000000013},{"rt":2305.5,"stimulus":"bees-with-color/bee-B1DM.svg","response":0,"trial_type":"image-button-response","trial_index":136,"time_elapsed":491122,"internal_node_id":"0.0-6.0-0.0","subject_id":"5b8c8e7d0c740e00019d55c3","study_id":"6197b3f67c2b5cd3b6d9596a","session_id":"619be3194eda710dc9aa83b3","condition":"full-information","relevant_dimensions":["pattern","legs"],"bee_group":{"antennae":"X","wings":"X","pattern":"S","legs":"F"},"bonus":1.2400000000000013},{"rt":1428.6999999999534,"stimulus":"bees-with-color/bee-B2SM.svg","response":1,"trial_type":"image-button-response","trial_index":137,"time_elapsed":492554,"internal_node_id":"0.0-6.0-0.1","subject_id":"5b8c8e7d0c740e00019d55c3","study_id":"6197b3f67c2b5cd3b6d9596a","session_id":"619be3194eda710dc9aa83b3","condition":"full-information","relevant_dimensions":["pattern","legs"],"bee_group":{"antennae":"X","wings":"X","pattern":"S","legs":"F"},"bonus":1.2400000000000013},{"rt":1180.8999999999069,"stimulus":"bees-with-color/bee-A2DM.svg","response":0,"trial_type":"image-button-response","trial_index":138,"time_elapsed":493738,"internal_node_id":"0.0-6.0-0.2","subject_id":"5b8c8e7d0c740e00019d55c3","study_id":"6197b3f67c2b5cd3b6d9596a","session_id":"619be3194eda710dc9aa83b3","condition":"full-information","relevant_dimensions":["pattern","legs"],"bee_group":{"antennae":"X","wings":"X","pattern":"S","legs":"F"},"bonus":1.2400000000000013},{"rt":2020.7999999999302,"stimulus":"bees-with-color/bee-B1SM.svg","response":0,"trial_type":"image-button-response","trial_index":139,"time_elapsed":495762,"internal_node_id":"0.0-6.0-0.3","subject_id":"5b8c8e7d0c740e00019d55c3","study_id":"6197b3f67c2b5cd3b6d9596a","session_id":"619be3194eda710dc9aa83b3","condition":"full-information","relevant_dimensions":["pattern","legs"],"bee_group":{"antennae":"X","wings":"X","pattern":"S","legs":"F"},"bonus":1.2400000000000013},{"rt":1180.9000000000233,"stimulus":"bees-with-color/bee-A2SF.svg","response":1,"trial_type":"image-button-response","trial_index":140,"time_elapsed":496946,"internal_node_id":"0.0-6.0-0.4","subject_id":"5b8c8e7d0c740e00019d55c3","study_id":"6197b3f67c2b5cd3b6d9596a","session_id":"619be3194eda710dc9aa83b3","condition":"full-information","relevant_dimensions":["pattern","legs"],"bee_group":{"antennae":"X","wings":"X","pattern":"S","legs":"F"},"bonus":1.2400000000000013},{"rt":1084.9000000000233,"stimulus":"bees-with-color/bee-B2SF.svg","response":1,"trial_type":"image-button-response","trial_index":141,"time_elapsed":498034,"internal_node_id":"0.0-6.0-0.5","subject_id":"5b8c8e7d0c740e00019d55c3","study_id":"6197b3f67c2b5cd3b6d9596a","session_id":"619be3194eda710dc9aa83b3","condition":"full-information","relevant_dimensions":["pattern","legs"],"bee_group":{"antennae":"X","wings":"X","pattern":"S","legs":"F"},"bonus":1.2400000000000013},{"rt":2028.8000000000466,"stimulus":"bees-with-color/bee-B2DF.svg","response":0,"trial_type":"image-button-response","trial_index":142,"time_elapsed":500066,"internal_node_id":"0.0-6.0-0.6","subject_id":"5b8c8e7d0c740e00019d55c3","study_id":"6197b3f67c2b5cd3b6d9596a","session_id":"619be3194eda710dc9aa83b3","condition":"full-information","relevant_dimensions":["pattern","legs"],"bee_group":{"antennae":"X","wings":"X","pattern":"S","legs":"F"},"bonus":1.2400000000000013},{"rt":724.9000000000233,"stimulus":"bees-with-color/bee-B2DM.svg","response":0,"trial_type":"image-button-response","trial_index":143,"time_elapsed":500794,"internal_node_id":"0.0-6.0-0.7","subject_id":"5b8c8e7d0c740e00019d55c3","study_id":"6197b3f67c2b5cd3b6d9596a","session_id":"619be3194eda710dc9aa83b3","condition":"full-information","relevant_dimensions":["pattern","legs"],"bee_group":{"antennae":"X","wings":"X","pattern":"S","legs":"F"},"bonus":1.2400000000000013},{"rt":1124.9000000000233,"stimulus":"bees-with-color/bee-A1DF.svg","response":0,"trial_type":"image-button-response","trial_index":144,"time_elapsed":501922,"internal_node_id":"0.0-6.0-0.8","subject_id":"5b8c8e7d0c740e00019d55c3","study_id":"6197b3f67c2b5cd3b6d9596a","session_id":"619be3194eda710dc9aa83b3","condition":"full-information","relevant_dimensions":["pattern","legs"],"bee_group":{"antennae":"X","wings":"X","pattern":"S","legs":"F"},"bonus":1.2400000000000013},{"rt":1396.7000000000698,"stimulus":"bees-with-color/bee-A1SM.svg","response":0,"trial_type":"image-button-response","trial_index":145,"time_elapsed":503322,"internal_node_id":"0.0-6.0-0.9","subject_id":"5b8c8e7d0c740e00019d55c3","study_id":"6197b3f67c2b5cd3b6d9596a","session_id":"619be3194eda710dc9aa83b3","condition":"full-information","relevant_dimensions":["pattern","legs"],"bee_group":{"antennae":"X","wings":"X","pattern":"S","legs":"F"},"bonus":1.2400000000000013},{"rt":1157.4000000000233,"stimulus":"bees-with-color/bee-B1DF.svg","response":0,"trial_type":"image-button-response","trial_index":146,"time_elapsed":504482,"internal_node_id":"0.0-6.0-0.10","subject_id":"5b8c8e7d0c740e00019d55c3","study_id":"6197b3f67c2b5cd3b6d9596a","session_id":"619be3194eda710dc9aa83b3","condition":"full-information","relevant_dimensions":["pattern","legs"],"bee_group":{"antennae":"X","wings":"X","pattern":"S","legs":"F"},"bonus":1.2400000000000013},{"rt":1253.4000000000233,"stimulus":"bees-with-color/bee-B1SF.svg","response":1,"trial_type":"image-button-response","trial_index":147,"time_elapsed":505738,"internal_node_id":"0.0-6.0-0.11","subject_id":"5b8c8e7d0c740e00019d55c3","study_id":"6197b3f67c2b5cd3b6d9596a","session_id":"619be3194eda710dc9aa83b3","condition":"full-information","relevant_dimensions":["pattern","legs"],"bee_group":{"antennae":"X","wings":"X","pattern":"S","legs":"F"},"bonus":1.2400000000000013},{"rt":4293,"stimulus":"bees-with-color/bee-A2DF.svg","response":0,"trial_type":"image-button-response","trial_index":148,"time_elapsed":510033,"internal_node_id":"0.0-6.0-0.12","subject_id":"5b8c8e7d0c740e00019d55c3","study_id":"6197b3f67c2b5cd3b6d9596a","session_id":"619be3194eda710dc9aa83b3","condition":"full-information","relevant_dimensions":["pattern","legs"],"bee_group":{"antennae":"X","wings":"X","pattern":"S","legs":"F"},"bonus":1.2400000000000013},{"rt":868.7999999999302,"stimulus":"bees-with-color/bee-A1DM.svg","response":0,"trial_type":"image-button-response","trial_index":149,"time_elapsed":510905,"internal_node_id":"0.0-6.0-0.13","subject_id":"5b8c8e7d0c740e00019d55c3","study_id":"6197b3f67c2b5cd3b6d9596a","session_id":"619be3194eda710dc9aa83b3","condition":"full-information","relevant_dimensions":["pattern","legs"],"bee_group":{"antennae":"X","wings":"X","pattern":"S","legs":"F"},"bonus":1.2400000000000013},{"rt":1037.3999999999069,"stimulus":"bees-with-color/bee-A1SF.svg","response":1,"trial_type":"image-button-response","trial_index":150,"time_elapsed":511945,"internal_node_id":"0.0-6.0-0.14","subject_id":"5b8c8e7d0c740e00019d55c3","study_id":"6197b3f67c2b5cd3b6d9596a","session_id":"619be3194eda710dc9aa83b3","condition":"full-information","relevant_dimensions":["pattern","legs"],"bee_group":{"antennae":"X","wings":"X","pattern":"S","legs":"F"},"bonus":1.2400000000000013},{"rt":1189.1999999999534,"stimulus":"bees-with-color/bee-A2SM.svg","response":0,"trial_type":"image-button-response","trial_index":151,"time_elapsed":513137,"internal_node_id":"0.0-6.0-0.15","subject_id":"5b8c8e7d0c740e00019d55c3","study_id":"6197b3f67c2b5cd3b6d9596a","session_id":"619be3194eda710dc9aa83b3","condition":"full-information","relevant_dimensions":["pattern","legs"],"bee_group":{"antennae":"X","wings":"X","pattern":"S","legs":"F"},"bonus":1.2400000000000013},{"rt":1581.9000000000233,"stimulus":"bees-with-color/bee-A2SF.svg","response":1,"trial_type":"image-button-response","trial_index":152,"time_elapsed":514721,"internal_node_id":"0.0-6.0-0.16","subject_id":"5b8c8e7d0c740e00019d55c3","study_id":"6197b3f67c2b5cd3b6d9596a","session_id":"619be3194eda710dc9aa83b3","condition":"full-information","relevant_dimensions":["pattern","legs"],"bee_group":{"antennae":"X","wings":"X","pattern":"S","legs":"F"},"bonus":1.2400000000000013},{"rt":1013.8000000000466,"stimulus":"bees-with-color/bee-A1DM.svg","response":0,"trial_type":"image-button-response","trial_index":153,"time_elapsed":515737,"internal_node_id":"0.0-6.0-0.17","subject_id":"5b8c8e7d0c740e00019d55c3","study_id":"6197b3f67c2b5cd3b6d9596a","session_id":"619be3194eda710dc9aa83b3","condition":"full-information","relevant_dimensions":["pattern","legs"],"bee_group":{"antennae":"X","wings":"X","pattern":"S","legs":"F"},"bonus":1.2400000000000013},{"rt":981.8000000000466,"stimulus":"bees-with-color/bee-B2DF.svg","response":0,"trial_type":"image-button-response","trial_index":154,"time_elapsed":516721,"internal_node_id":"0.0-6.0-0.18","subject_id":"5b8c8e7d0c740e00019d55c3","study_id":"6197b3f67c2b5cd3b6d9596a","session_id":"619be3194eda710dc9aa83b3","condition":"full-information","relevant_dimensions":["pattern","legs"],"bee_group":{"antennae":"X","wings":"X","pattern":"S","legs":"F"},"bonus":1.2400000000000013},{"rt":757.7000000000698,"stimulus":"bees-with-color/bee-A2DM.svg","response":0,"trial_type":"image-button-response","trial_index":155,"time_elapsed":517481,"internal_node_id":"0.0-6.0-0.19","subject_id":"5b8c8e7d0c740e00019d55c3","study_id":"6197b3f67c2b5cd3b6d9596a","session_id":"619be3194eda710dc9aa83b3","condition":"full-information","relevant_dimensions":["pattern","legs"],"bee_group":{"antennae":"X","wings":"X","pattern":"S","legs":"F"},"bonus":1.2400000000000013},{"rt":1381.9000000000233,"stimulus":"bees-with-color/bee-B1SM.svg","response":0,"trial_type":"image-button-response","trial_index":156,"time_elapsed":518865,"internal_node_id":"0.0-6.0-0.20","subject_id":"5b8c8e7d0c740e00019d55c3","study_id":"6197b3f67c2b5cd3b6d9596a","session_id":"619be3194eda710dc9aa83b3","condition":"full-information","relevant_dimensions":["pattern","legs"],"bee_group":{"antennae":"X","wings":"X","pattern":"S","legs":"F"},"bonus":1.2400000000000013},{"rt":1213.9000000000233,"stimulus":"bees-with-color/bee-B2SF.svg","response":1,"trial_type":"ima