[{"success":true,"trial_type":"fullscreen","trial_index":0,"time_elapsed":1818,"internal_node_id":"0.0-0.0","subject_id":"614f6ba261f9a73728ca8fb8","study_id":"60edd13110225f80f9f3709b","session_id":"6196c4a8424c7662daee0e0a","condition":"contingent","relevant_dimensions":["antennae","wings"],"bee_group":{"antennae":"B","wings":"2","pattern":"X","legs":"X"},"bonus":0.9400000000000008},{"success":true,"timeout":false,"failed_images":[],"failed_audio":[],"failed_video":[],"trial_type":"preload","trial_index":1,"time_elapsed":1875,"internal_node_id":"0.0-1.0","subject_id":"614f6ba261f9a73728ca8fb8","study_id":"60edd13110225f80f9f3709b","session_id":"6196c4a8424c7662daee0e0a","condition":"contingent","relevant_dimensions":["antennae","wings"],"bee_group":{"antennae":"B","wings":"2","pattern":"X","legs":"X"},"bonus":0.9400000000000008},{"rt":1085.5999999977648,"stimulus":"Welcome! Press any key to begin.","response":"enter","trial_type":"html-keyboard-response","trial_index":2,"time_elapsed":2962,"internal_node_id":"0.0-2.0","subject_id":"614f6ba261f9a73728ca8fb8","study_id":"60edd13110225f80f9f3709b","session_id":"6196c4a8424c7662daee0e0a","condition":"contingent","relevant_dimensions":["antennae","wings"],"bee_group":{"antennae":"B","wings":"2","pattern":"X","legs":"X"},"bonus":0.9400000000000008},{"view_history":[{"page_index":0,"viewing_time":765.8999999985099},{"page_index":1,"viewing_time":552.1000000014901},{"page_index":2,"viewing_time":1015.6999999992549},{"page_index":3,"viewing_time":472.19999999925494},{"page_index":4,"viewing_time":856.5},{"page_index":5,"viewing_time":1223.300000000745},{"page_index":6,"viewing_time":1944.199999999255},{"page_index":7,"viewing_time":951.8999999985099},{"page_index":8,"viewing_time":120},{"page_index":9,"viewing_time":144},{"page_index":10,"viewing_time":304},{"page_index":11,"viewing_time":600},{"page_index":12,"viewing_time":888.1000000014901},{"page_index":13,"viewing_time":568.1000000014901},{"page_index":14,"viewing_time":895.6999999992549}],"rt":11302,"trial_type":"instructions","trial_index":3,"time_elapsed":14264,"internal_node_id":"0.0-3.0-0.0","subject_id":"614f6ba261f9a73728ca8fb8","study_id":"60edd13110225f80f9f3709b","session_id":"6196c4a8424c7662daee0e0a","condition":"contingent","relevant_dimensions":["antennae","wings"],"bee_group":{"antennae":"B","wings":"2","pattern":"X","legs":"X"},"bonus":0.9400000000000008},{"rt":7516.699999999255,"response":{"Q0":["Two or six legs","Stripes or spots on body","Single or double wings","Antennae or no antennae"]},"question_order":[0],"trial_type":"survey-multi-select","trial_index":4,"time_elapsed":21785,"internal_node_id":"0.0-3.0-1.0","subject_id":"614f6ba261f9a73728ca8fb8","study_id":"60edd13110225f80f9f3709b","session_id":"6196c4a8424c7662daee0e0a","condition":"contingent","relevant_dimensions":["antennae","wings"],"bee_group":{"antennae":"B","wings":"2","pattern":"X","legs":"X"},"correct":true,"bonus":0.9400000000000008},{"rt":17266.60000000149,"response":{"Q1":"Yes.","Q2":"Based on the four features of the bee.","Q3":"You learn if it was friendly or dangerous, but do not alter your bonus."},"question_order":[0,1,2],"trial_type":"survey-multi-choice","trial_index":5,"time_elapsed":39057,"internal_node_id":"0.0-3.0-2.0","subject_id":"614f6ba261f9a73728ca8fb8","study_id":"60edd13110225f80f9f3709b","session_id":"6196c4a8424c7662daee0e0a","condition":"contingent","relevant_dimensions":["antennae","wings"],"bee_group":{"antennae":"B","wings":"2","pattern":"X","legs":"X"},"correct":false,"bonus":0.9400000000000008},{"rt":1483.800000000745,"stimulus":"<p>You did not answer all comprehension questions correctly.<br>Press <b>continue</b> to review the instructions again.</p>","response":0,"trial_type":"html-button-response","trial_index":6,"time_elapsed":40544,"internal_node_id":"0.0-3.0-3.0","subject_id":"614f6ba261f9a73728ca8fb8","study_id":"60edd13110225f80f9f3709b","session_id":"6196c4a8424c7662daee0e0a","condition":"contingent","relevant_dimensions":["antennae","wings"],"bee_group":{"antennae":"B","wings":"2","pattern":"X","legs":"X"},"bonus":0.9400000000000008},{"view_history":[{"page_index":0,"viewing_time":558.8999999985099},{"page_index":1,"viewing_time":9111.800000000745},{"page_index":2,"viewing_time":4952.099999997765},{"page_index":3,"viewing_time":4551.900000002235},{"page_index":4,"viewing_time":9632},{"page_index":5,"viewing_time":1880},{"page_index":6,"viewing_time":1207.8999999985099},{"page_index":7,"viewing_time":832.1000000014901},{"page_index":8,"viewing_time":136.09999999776483},{"page_index":9,"viewing_time":167.80000000074506},{"page_index":10,"viewing_time":192.19999999925494},{"page_index":11,"viewing_time":567.9000000022352},{"page_index":12,"viewing_time":1376.5999999977648},{"page_index":11,"viewing_time":1391.4000000022352},{"page_index":12,"viewing_time":720.0999999977648},{"page_index":11,"viewing_time":543.9000000022352},{"page_index":12,"viewing_time":415.8999999985099},{"page_index":13,"viewing_time":672.1000000014901},{"page_index":14,"viewing_time":656.0999999977648}],"rt":39567,"trial_type":"instructions","trial_index":7,"time_elapsed":80112,"internal_node_id":"0.0-3.0-4.0-0.0","subject_id":"614f6ba261f9a73728ca8fb8","study_id":"60edd13110225f80f9f3709b","session_id":"6196c4a8424c7662daee0e0a","condition":"contingent","relevant_dimensions":["antennae","wings"],"bee_group":{"antennae":"B","wings":"2","pattern":"X","legs":"X"},"bonus":0.9400000000000008},{"rt":7618.60000000149,"response":{"Q0":["Two or six legs","Stripes or spots on body","Single or double wings","Antennae or no antennae"]},"question_order":[0],"trial_type":"survey-multi-select","trial_index":8,"time_elapsed":87737,"internal_node_id":"0.0-3.0-4.0-1.0","subject_id":"614f6ba261f9a73728ca8fb8","study_id":"60edd13110225f80f9f3709b","session_id":"6196c4a8424c7662daee0e0a","condition":"contingent","relevant_dimensions":["antennae","wings"],"bee_group":{"antennae":"B","wings":"2","pattern":"X","legs":"X"},"correct":true,"bonus":0.9400000000000008},{"rt":6875.89999999851,"response":{"Q1":"No.","Q2":"Based on the four features of the bee.","Q3":"You do not learn if it was friendly or dangerous, and do not alter your bonus."},"question_order":[0,1,2],"trial_type":"survey-multi-choice","trial_index":9,"time_elapsed":94617,"internal_node_id":"0.0-3.0-4.0-2.0","subject_id":"614f6ba261f9a73728ca8fb8","study_id":"60edd13110225f80f9f3709b","session_id":"6196c4a8424c7662daee0e0a","condition":"contingent","relevant_dimensions":["antennae","wings"],"bee_group":{"antennae":"B","wings":"2","pattern":"X","legs":"X"},"correct":true,"bonus":0.9400000000000008},{"rt":2580.10000000149,"stimulus":"<p>Congrats, you got everything right<br>When you're ready, click the button below to continue to the experiment.</p>","response":0,"trial_type":"html-button-response","trial_index":10,"time_elapsed":97200,"internal_node_id":"0.0-3.0-4.0-3.0","subject_id":"614f6ba261f9a73728ca8fb8","study_id":"60edd13110225f80f9f3709b","session_id":"6196c4a8424c7662daee0e0a","condition":"contingent","relevant_dimensions":["antennae","wings"],"bee_group":{"antennae":"B","wings":"2","pattern":"X","legs":"X"},"bonus":0.9400000000000008},{"rt":2982,"stimulus":"bees-with-color/bee-B2SF.svg","response":0,"trial_type":"image-button-response","trial_index":11,"time_elapsed":100184,"internal_node_id":"0.0-4.0-0.0","subject_id":"614f6ba261f9a73728ca8fb8","study_id":"60edd13110225f80f9f3709b","session_id":"6196c4a8424c7662daee0e0a","condition":"contingent","relevant_dimensions":["antennae","wings"],"bee_group":{"antennae":"B","wings":"2","pattern":"X","legs":"X"},"action":"harvest","summary":"bad-harvest","bonus":0.9400000000000008},{"rt":19038,"stimulus":"\n                    <p><b>Action: <em>harvest</em></b></p>\n                    <p>This is the bee that you just saw.</p>\n                    <img src=\"bees-with-color/bee-B2SF.svg\" width=\"200\">\n                    <p><span class=\"redText\">Bad choice, the bee was angry.</span><br><b>You have been stung!</b><br>Your pay has been decreased by $0.10. Your bonus pay is now $0.44.</p>\n            ","response":0,"trial_type":"html-button-response","trial_index":12,"time_elapsed":119225,"internal_node_id":"0.0-4.0-1.0","subject_id":"614f6ba261f9a73728ca8fb8","study_id":"60edd13110225f80f9f3709b","session_id":"6196c4a8424c7662daee0e0a","condition":"contingent","relevant_dimensions":["antennae","wings"],"bee_group":{"antennae":"B","wings":"2","pattern":"X","legs":"X"},"bonus":0.9400000000000008},{"rt":3501.5,"stimulus":"bees-with-color/bee-B1SF.svg","response":0,"trial_type":"image-button-response","trial_index":13,"time_elapsed":122728,"internal_node_id":"0.0-4.0-0.1","subject_id":"614f6ba261f9a73728ca8fb8","study_id":"60edd13110225f80f9f3709b","session_id":"6196c4a8424c7662daee0e0a","condition":"contingent","relevant_dimensions":["antennae","wings"],"bee_group":{"antennae":"B","wings":"2","pattern":"X","legs":"X"},"action":"harvest","summary":"good-harvest","bonus":0.9400000000000008},{"rt":5855,"stimulus":"\n                    <p><b>Action: <em>harvest</em></b></p>\n                    <p>This is the bee that you just saw.</p>\n                    <img src=\"bees-with-color/bee-B1SF.svg\" width=\"200\">\n                    <p><span class=\"greenText\"><b>Successful harvest!</b></span><br>Your pay has increased by $0.02. Your bonus pay is now $0.46.</p>\n            ","response":0,"trial_type":"html-button-response","trial_index":14,"time_elapsed":128585,"internal_node_id":"0.0-4.0-1.1","subject_id":"614f6ba261f9a73728ca8fb8","study_id":"60edd13110225f80f9f3709b","session_id":"6196c4a8424c7662daee0e0a","condition":"contingent","relevant_dimensions":["antennae","wings"],"bee_group":{"antennae":"B","wings":"2","pattern":"X","legs":"X"},"bonus":0.9400000000000008},{"rt":4213.300000000745,"stimulus":"bees-with-color/bee-B1DM.svg","response":0,"trial_type":"image-button-response","trial_index":15,"time_elapsed":132800,"internal_node_id":"0.0-4.0-0.2","subject_id":"614f6ba261f9a73728ca8fb8","study_id":"60edd13110225f80f9f3709b","session_id":"6196c4a8424c7662daee0e0a","condition":"contingent","relevant_dimensions":["antennae","wings"],"bee_group":{"antennae":"B","wings":"2","pattern":"X","legs":"X"},"action":"harvest","summary":"good-harvest","bonus":0.9400000000000008},{"rt":4254.099999997765,"stimulus":"\n                    <p><b>Action: <em>harvest</em></b></p>\n                    <p>This is the bee that you just saw.</p>\n                    <img src=\"bees-with-color/bee-B1DM.svg\" width=\"200\">\n                    <p><span class=\"greenText\"><b>Successful harvest!</b></span><br>Your pay has increased by $0.02. Your bonus pay is now $0.48.</p>\n            ","response":0,"trial_type":"html-button-response","trial_index":16,"time_elapsed":137056,"internal_node_id":"0.0-4.0-1.2","subject_id":"614f6ba261f9a73728ca8fb8","study_id":"60edd13110225f80f9f3709b","session_id":"6196c4a8424c7662daee0e0a","condition":"contingent","relevant_dimensions":["antennae","wings"],"bee_group":{"antennae":"B","wings":"2","pattern":"X","legs":"X"},"bonus":0.9400000000000008},{"rt":7725.89999999851,"stimulus":"bees-with-color/bee-B1DF.svg","response":1,"trial_type":"image-button-response","trial_index":17,"time_elapsed":144784,"internal_node_id":"0.0-4.0-0.3","subject_id":"614f6ba261f9a73728ca8fb8","study_id":"60edd13110225f80f9f3709b","session_id":"6196c4a8424c7662daee0e0a","condition":"contingent","relevant_dimensions":["antennae","wings"],"bee_group":{"antennae":"B","wings":"2","pattern":"X","legs":"X"},"action":"avoid","summary":"bad-avoid","bonus":0.9400000000000008},{"rt":3318.2999999970198,"stimulus":"\n                    <p><b>Action: <em>avoid</em></b></p>\n                    <p>This is the bee that you just saw.</p>\n                    <img src=\"bees-with-color/bee-B1DF.svg\" width=\"200\">\n                    <p><br>Your bonus pay is unchanged, and remains at $0.48.</p>\n            ","response":0,"trial_type":"html-button-response","trial_index":18,"time_elapsed":148104,"internal_node_id":"0.0-4.0-1.3","subject_id":"614f6ba261f9a73728ca8fb8","study_id":"60edd13110225f80f9f3709b","session_id":"6196c4a8424c7662daee0e0a","condition":"contingent","relevant_dimensions":["antennae","wings"],"bee_group":{"antennae":"B","wings":"2","pattern":"X","legs":"X"},"bonus":0.9400000000000008},{"rt":7645.800000000745,"stimulus":"bees-with-color/bee-B2DM.svg","response":0,"trial_type":"image-button-response","trial_index":19,"time_elapsed":155752,"internal_node_id":"0.0-4.0-0.4","subject_id":"614f6ba261f9a73728ca8fb8","study_id":"60edd13110225f80f9f3709b","session_id":"6196c4a8424c7662daee0e0a","condition":"contingent","relevant_dimensions":["antennae","wings"],"bee_group":{"antennae":"B","wings":"2","pattern":"X","legs":"X"},"action":"harvest","summary":"bad-harvest","bonus":0.9400000000000008},{"rt":39142.5,"stimulus":"\n                    <p><b>Action: <em>harvest</em></b></p>\n                    <p>This is the bee that you just saw.</p>\n                    <img src=\"bees-with-color/bee-B2DM.svg\" width=\"200\">\n                    <p><span class=\"redText\">Bad choice, the bee was angry.</span><br><b>You have been stung!</b><br>Your pay has been decreased by $0.10. Your bonus pay is now $0.38.</p>\n            ","response":0,"trial_type":"html-button-response","trial_index":20,"time_elapsed":194896,"internal_node_id":"0.0-4.0-1.4","subject_id":"614f6ba261f9a73728ca8fb8","study_id":"60edd13110225f80f9f3709b","session_id":"6196c4a8424c7662daee0e0a","condition":"contingent","relevant_dimensions":["antennae","wings"],"bee_group":{"antennae":"B","wings":"2","pattern":"X","legs":"X"},"bonus":0.9400000000000008},{"rt":10102.60000000149,"stimulus":"bees-with-color/bee-B1SM.svg","response":1,"trial_type":"image-button-response","trial_index":21,"time_elapsed":205000,"internal_node_id":"0.0-4.0-0.5","subject_id":"614f6ba261f9a73728ca8fb8","study_id":"60edd13110225f80f9f3709b","session_id":"6196c4a8424c7662daee0e0a","condition":"contingent","relevant_dimensions":["antennae","wings"],"bee_group":{"antennae":"B","wings":"2","pattern":"X","legs":"X"},"action":"avoid","summary":"bad-avoid","bonus":0.9400000000000008},{"rt":726.8000000007451,"stimulus":"\n                    <p><b>Action: <em>avoid</em></b></p>\n                    <p>This is the bee that you just saw.</p>\n                    <img src=\"bees-with-color/bee-B1SM.svg\" width=\"200\">\n                    <p><br>Your bonus pay is unchanged, and remains at $0.38.</p>\n            ","response":0,"trial_type":"html-button-response","trial_index":22,"time_elapsed":205728,"internal_node_id":"0.0-4.0-1.5","subject_id":"614f6ba261f9a73728ca8fb8","study_id":"60edd13110225f80f9f3709b","session_id":"6196c4a8424c7662daee0e0a","condition":"contingent","relevant_dimensions":["antennae","wings"],"bee_group":{"antennae":"B","wings":"2","pattern":"X","legs":"X"},"bonus":0.9400000000000008},{"rt":4725.70000000298,"stimulus":"bees-with-color/bee-A1DM.svg","response":0,"trial_type":"image-button-response","trial_index":23,"time_elapsed":210456,"internal_node_id":"0.0-4.0-0.6","subject_id":"614f6ba261f9a73728ca8fb8","study_id":"60edd13110225f80f9f3709b","session_id":"6196c4a8424c7662daee0e0a","condition":"contingent","relevant_dimensions":["antennae","wings"],"bee_group":{"antennae":"B","wings":"2","pattern":"X","legs":"X"},"action":"harvest","summary":"good-harvest","bonus":0.9400000000000008},{"rt":566.8000000007451,"stimulus":"\n                    <p><b>Action: <em>harvest</em></b></p>\n                    <p>This is the bee that you just saw.</p>\n                    <img src=\"bees-with-color/bee-A1DM.svg\" width=\"200\">\n                    <p><span class=\"greenText\"><b>Successful harvest!</b></span><br>Your pay has increased by $0.02. Your bonus pay is now $0.40.</p>\n            ","response":0,"trial_type":"html-button-response","trial_index":24,"time_elapsed":211024,"internal_node_id":"0.0-4.0-1.6","subject_id":"614f6ba261f9a73728ca8fb8","study_id":"60edd13110225f80f9f3709b","session_id":"6196c4a8424c7662daee0e0a","condition":"contingent","relevant_dimensions":["antennae","wings"],"bee_group":{"antennae":"B","wings":"2","pattern":"X","legs":"X"},"bonus":0.9400000000000008},{"rt":1989.8999999985099,"stimulus":"bees-with-color/bee-A2DM.svg","response":1,"trial_type":"image-button-response","trial_index":25,"time_elapsed":213016,"internal_node_id":"0.0-4.0-0.7","subject_id":"614f6ba261f9a73728ca8fb8","study_id":"60edd13110225f80f9f3709b","session_id":"6196c4a8424c7662daee0e0a","condition":"contingent","relevant_dimensions":["antennae","wings"],"bee_group":{"antennae":"B","wings":"2","pattern":"X","legs":"X"},"action":"avoid","summary":"bad-avoid","bonus":0.9400000000000008},{"rt":598.5999999977648,"stimulus":"\n                    <p><b>Action: <em>avoid</em></b></p>\n                    <p>This is the bee that you just saw.</p>\n                    <img src=\"bees-with-color/bee-A2DM.svg\" width=\"200\">\n                    <p><br>Your bonus pay is unchanged, and remains at $0.40.</p>\n            ","response":0,"trial_type":"html-button-response","trial_index":26,"time_elapsed":213616,"internal_node_id":"0.0-4.0-1.7","subject_id":"614f6ba261f9a73728ca8fb8","study_id":"60edd13110225f80f9f3709b","session_id":"6196c4a8424c7662daee0e0a","condition":"contingent","relevant_dimensions":["antennae","wings"],"bee_group":{"antennae":"B","wings":"2","pattern":"X","legs":"X"},"bonus":0.9400000000000008},{"rt":5262.599999997765,"stimulus":"bees-with-color/bee-A2SF.svg","response":1,"trial_type":"image-button-response","trial_index":27,"time_elapsed":218880,"internal_node_id":"0.0-4.0-0.8","subject_id":"614f6ba261f9a73728ca8fb8","study_id":"60edd13110225f80f9f3709b","session_id":"6196c4a8424c7662daee0e0a","condition":"contingent","relevant_dimensions":["antennae","wings"],"bee_group":{"antennae":"B","wings":"2","pattern":"X","legs":"X"},"action":"avoid","summary":"bad-avoid","bonus":0.9400000000000008},{"rt":486,"stimulus":"\n                    <p><b>Action: <em>avoid</em></b></p>\n                    <p>This is the bee that you just saw.</p>\n                    <img src=\"bees-with-color/bee-A2SF.svg\" width=\"200\">\n                    <p><br>Your bonus pay is unchanged, and remains at $0.40.</p>\n            ","response":0,"trial_type":"html-button-response","trial_index":28,"time_elapsed":219368,"internal_node_id":"0.0-4.0-1.8","subject_id":"614f6ba261f9a73728ca8fb8","study_id":"60edd13110225f80f9f3709b","session_id":"6196c4a8424c7662daee0e0a","condition":"contingent","relevant_dimensions":["antennae","wings"],"bee_group":{"antennae":"B","wings":"2","pattern":"X","legs":"X"},"bonus":0.9400000000000008},{"rt":8214,"stimulus":"bees-with-color/bee-A2DF.svg","response":0,"trial_type":"image-button-response","trial_index":29,"time_elapsed":227584,"internal_node_id":"0.0-4.0-0.9","subject_id":"614f6ba261f9a73728ca8fb8","study_id":"60edd13110225f80f9f3709b","session_id":"6196c4a8424c7662daee0e0a","condition":"contingent","relevant_dimensions":["antennae","wings"],"bee_group":{"antennae":"B","wings":"2","pattern":"X","legs":"X"},"action":"harvest","summary":"good-harvest","bonus":0.9400000000000008},{"rt":4862.60000000149,"stimulus":"\n                    <p><b>Action: <em>harvest</em></b></p>\n                    <p>This is the bee that you just saw.</p>\n                    <img src=\"bees-with-color/bee-A2DF.svg\" width=\"200\">\n                    <p><span class=\"greenText\"><b>Successful harvest!</b></span><br>Your pay has increased by $0.02. Your bonus pay is now $0.42.</p>\n            ","response":0,"trial_type":"html-button-response","trial_index":30,"time_elapsed":232448,"internal_node_id":"0.0-4.0-1.9","subject_id":"614f6ba261f9a73728ca8fb8","study_id":"60edd13110225f80f9f3709b","session_id":"6196c4a8424c7662daee0e0a","condition":"contingent","relevant_dimensions":["antennae","wings"],"bee_group":{"antennae":"B","wings":"2","pattern":"X","legs":"X"},"bonus":0.9400000000000008},{"rt":8333.89999999851,"stimulus":"bees-with-color/bee-A1SF.svg","response":0,"trial_type":"image-button-response","trial_index":31,"time_elapsed":240784,"internal_node_id":"0.0-4.0-0.10","subject_id":"614f6ba261f9a73728ca8fb8","study_id":"60edd13110225f80f9f3709b","session_id":"6196c4a8424c7662daee0e0a","condition":"contingent","relevant_dimensions":["antennae","wings"],"bee_group":{"antennae":"B","wings":"2","pattern":"X","legs":"X"},"action":"harvest","summary":"good-harvest","bonus":0.9400000000000008},{"rt":766.8000000007451,"stimulus":"\n                    <p><b>Action: <em>harvest</em></b></p>\n                    <p>This is the bee that you just saw.</p>\n                    <img src=\"bees-with-color/bee-A1SF.svg\" width=\"200\">\n                    <p><span class=\"greenText\"><b>Successful harvest!</b></span><br>Your pay has increased by $0.02. Your bonus pay is now $0.44.</p>\n            ","response":0,"trial_type":"html-button-response","trial_index":32,"time_elapsed":241552,"internal_node_id":"0.0-4.0-1.10","subject_id":"614f6ba261f9a73728ca8fb8","study_id":"60edd13110225f80f9f3709b","session_id":"6196c4a8424c7662daee0e0a","condition":"contingent","relevant_dimensions":["antennae","wings"],"bee_group":{"antennae":"B","wings":"2","pattern":"X","legs":"X"},"bonus":0.9400000000000008},{"rt":9501.800000000745,"stimulus":"bees-with-color/bee-A2SM.svg","response":0,"trial_type":"image-button-response","trial_index":33,"time_elapsed":251056,"internal_node_id":"0.0-4.0-0.11","subject_id":"614f6ba261f9a73728ca8fb8","study_id":"60edd13110225f80f9f3709b","session_id":"6196c4a8424c7662daee0e0a","condition":"contingent","relevant_dimensions":["antennae","wings"],"bee_group":{"antennae":"B","wings":"2","pattern":"X","legs":"X"},"action":"harvest","summary":"good-harvest","bonus":0.9400000000000008},{"rt":4982.300000000745,"stimulus":"\n                    <p><b>Action: <em>harvest</em></b></p>\n                    <p>This is the bee that you just saw.</p>\n                    <img src=\"bees-with-color/bee-A2SM.svg\" width=\"200\">\n                    <p><span class=\"greenText\"><b>Successful harvest!</b></span><br>Your pay has increased by $0.02. Your bonus pay is now $0.46.</p>\n            ","response":0,"trial_type":"html-button-response","trial_index":34,"time_elapsed":256041,"internal_node_id":"0.0-4.0-1.11","subject_id":"614f6ba261f9a73728ca8fb8","study_id":"60edd13110225f80f9f3709b","session_id":"6196c4a8424c7662daee0e0a","condition":"contingent","relevant_dimensions":["antennae","wings"],"bee_group":{"antennae":"B","wings":"2","pattern":"X","legs":"X"},"bonus":0.9400000000000008},{"rt":27661.800000000745,"stimulus":"bees-with-color/bee-A1DF.svg","response":0,"trial_type":"image-button-response","trial_index":35,"time_elapsed":283704,"internal_node_id":"0.0-4.0-0.12","subject_id":"614f6ba261f9a73728ca8fb8","study_id":"60edd13110225f80f9f3709b","session_id":"6196c4a8424c7662daee0e0a","condition":"contingent","relevant_dimensions":["antennae","wings"],"bee_group":{"antennae":"B","wings":"2","pattern":"X","legs":"X"},"action":"harvest","summary":"good-harvest","bonus":0.9400000000000008},{"rt":4511.10000000149,"stimulus":"\n                    <p><b>Action: <em>harvest</em></b></p>\n                    <p>This is the bee that you just saw.</p>\n                    <img src=\"bees-with-color/bee-A1DF.svg\" width=\"200\">\n                    <p><span class=\"greenText\"><b>Successful harvest!</b></span><br>Your pay has increased by $0.02. Your bonus pay is now $0.48.</p>\n            ","response":0,"trial_type":"html-button-response","trial_index":36,"time_elapsed":288216,"internal_node_id":"0.0-4.0-1.12","subject_id":"614f6ba261f9a73728ca8fb8","study_id":"60edd13110225f80f9f3709b","session_id":"6196c4a8424c7662daee0e0a","condition":"contingent","relevant_dimensions":["antennae","wings"],"bee_group":{"antennae":"B","wings":"2","pattern":"X","legs":"X"},"bonus":0.9400000000000008},{"rt":5654.5,"stimulus":"bees-with-color/bee-B2DF.svg","response":0,"trial_type":"image-button-response","trial_index":37,"time_elapsed":293873,"internal_node_id":"0.0-4.0-0.13","subject_id":"614f6ba261f9a73728ca8fb8","study_id":"60edd13110225f80f9f3709b","session_id":"6196c4a8424c7662daee0e0a","condition":"contingent","relevant_dimensions":["antennae","wings"],"bee_group":{"antennae":"B","wings":"2","pattern":"X","legs":"X"},"action":"harvest","summary":"bad-harvest","bonus":0.9400000000000008},{"rt":22366.599999997765,"stimulus":"\n                    <p><b>Action: <em>harvest</em></b></p>\n                    <p>This is the bee that you just saw.</p>\n                    <img src=\"bees-with-color/bee-B2DF.svg\" width=\"200\">\n                    <p><span class=\"redText\">Bad choice, the bee was angry.</span><br><b>You have been stung!</b><br>Your pay has been decreased by $0.10. Your bonus pay is now $0.38.</p>\n            ","response":0,"trial_type":"html-button-response","trial_index":38,"time_elapsed":316240,"internal_node_id":"0.0-4.0-1.13","subject_id":"614f6ba261f9a73728ca8fb8","study_id":"60edd13110225f80f9f3709b","session_id":"6196c4a8424c7662daee0e0a","condition":"contingent","relevant_dimensions":["antennae","wings"],"bee_group":{"antennae":"B","wings":"2","pattern":"X","legs":"X"},"bonus":0.9400000000000008},{"rt":14725.699999999255,"stimulus":"bees-with-color/bee-A1SM.svg","response":1,"trial_type":"image-button-response","trial_index":39,"time_elapsed":330968,"internal_node_id":"0.0-4.0-0.14","subject_id":"614f6ba261f9a73728ca8fb8","study_id":"60edd13110225f80f9f3709b","session_id":"6196c4a8424c7662daee0e0a","condition":"contingent","relevant_dimensions":["antennae","wings"],"bee_group":{"antennae":"B","wings":"2","pattern":"X","legs":"X"},"action":"avoid","summary":"bad-avoid","bonus":0.9400000000000008},{"rt":582.9000000022352,"stimulus":"\n                    <p><b>Action: <em>avoid</em></b></p>\n                    <p>This is the bee that you just saw.</p>\n                    <img src=\"bees-with-color/bee-A1SM.svg\" width=\"200\">\n                    <p><br>Your bonus pay is unchanged, and remains at $0.38.</p>\n            ","response":0,"trial_type":"html-button-response","trial_index":40,"time_elapsed":331552,"internal_node_id":"0.0-4.0-1.14","subject_id":"614f6ba261f9a73728ca8fb8","study_id":"60edd13110225f80f9f3709b","session_id":"6196c4a8424c7662daee0e0a","condition":"contingent","relevant_dimensions":["antennae","wings"],"bee_group":{"antennae":"B","wings":"2","pattern":"X","legs":"X"},"bonus":0.9400000000000008},{"rt":14349.79999999702,"stimulus":"bees-with-color/bee-B2SM.svg","response":1,"trial_type":"image-button-response","trial_index":41,"time_elapsed":345904,"internal_node_id":"0.0-4.0-0.15","subject_id":"614f6ba261f9a73728ca8fb8","study_id":"60edd13110225f80f9f3709b","session_id":"6196c4a8424c7662daee0e0a","condition":"contingent","relevant_dimensions":["antennae","wings"],"bee_group":{"antennae":"B","wings":"2","pattern":"X","legs":"X"},"action":"avoid","summary":"good-avoid","bonus":0.9400000000000008},{"rt":686.5999999977648,"stimulus":"\n                    <p><b>Action: <em>avoid</em></b></p>\n                    <p>This is the bee that you just saw.</p>\n                    <img src=\"bees-with-color/bee-B2SM.svg\" width=\"200\">\n                    <p><br>Your bonus pay is unchanged, and remains at $0.38.</p>\n            ","response":0,"trial_type":"html-button-response","trial_index":42,"time_elapsed":346592,"internal_node_id":"0.0-4.0-1.15","subject_id":"614f6ba261f9a73728ca8fb8","study_id":"60edd13110225f80f9f3709b","session_id":"6196c4a8424c7662daee0e0a","condition":"contingent","relevant_dimensions":["antennae","wings"],"bee_group":{"antennae":"B","wings":"2","pattern":"X","legs":"X"},"bonus":0.9400000000000008},{"rt":12942.10000000149,"stimulus":"bees-with-color/bee-A2SF.svg","response":0,"trial_type":"image-button-response","trial_index":43,"time_elapsed":359536,"internal_node_id":"0.0-4.0-0.16","subject_id":"614f6ba261f9a73728ca8fb8","study_id":"60edd13110225f80f9f3709b","session_id":"6196c4a8424c7662daee0e0a","condition":"contingent","relevant_dimensions":["antennae","wings"],"bee_group":{"antennae":"B","wings":"2","pattern":"X","legs":"X"},"action":"harvest","summary":"good-harvest","bonus":0.9400000000000008},{"rt":4398.300000000745,"stimulus":"\n                    <p><b>Action: <em>harvest</em></b></p>\n                    <p>This is the bee that you just saw.</p>\n                    <img src=\"bees-with-color/bee-A2SF.svg\" width=\"200\">\n                    <p><span class=\"greenText\"><b>Successful harvest!</b></span><br>Your pay has increased by $0.02. Your bonus pay is now $0.40.</p>\n            ","response":0,"trial_type":"html-button-response","trial_index":44,"time_elapsed":363936,"internal_node_id":"0.0-4.0-1.16","subject_id":"614f6ba261f9a73728ca8fb8","study_id":"60edd13110225f80f9f3709b","session_id":"6196c4a8424c7662daee0e0a","condition":"contingent","relevant_dimensions":["antennae","wings"],"bee_group":{"antennae":"B","wings":"2","pattern":"X","legs":"X"},"bonus":0.9400000000000008},{"rt":9062.300000000745,"stimulus":"bees-with-color/bee-A1DF.svg","response":0,"trial_type":"image-button-response","trial_index":45,"time_elapsed":373000,"internal_node_id":"0.0-4.0-0.17","subject_id":"614f6ba261f9a73728ca8fb8","study_id":"60edd13110225f80f9f3709b","session_id":"6196c4a8424c7662daee0e0a","condition":"contingent","relevant_dimensions":["antennae","wings"],"bee_group":{"antennae":"B","wings":"2","pattern":"X","legs":"X"},"action":"harvest","summary":"good-harvest","bonus":0.9400000000000008},{"rt":4286.10000000149,"stimulus":"\n                    <p><b>Action: <em>harvest</em></b></p>\n                    <p>This is the bee that you just saw.</p>\n                    <img src=\"bees-with-color/bee-A1DF.svg\" width=\"200\">\n                    <p><span class=\"greenText\"><b>Successful harvest!</b></span><br>Your pay has increased by $0.02. Your bonus pay is now $0.42.</p>\n            ","response":0,"trial_type":"html-button-response","trial_index":46,"time_elapsed":377288,"internal_node_id":"0.0-4.0-1.17","subject_id":"614f6ba261f9a73728ca8fb8","study_id":"60edd13110225f80f9f3709b","session_id":"6196c4a8424c7662daee0e0a","condition":"contingent","relevant_dimensions":["antennae","wings"],"bee_group":{"antennae":"B","wings":"2","pattern":"X","legs":"X"},"bonus":0.9400000000000008},{"rt":9502.60000000149,"stimulus":"bees-with-color/bee-B2DM.svg","response":1,"trial_type":"image-button-response","trial_index":47,"time_elapsed":386792,"internal_node_id":"0.0-4.0-0.18","subject_id":"614f6ba261f9a73728ca8fb8","study_id":"60edd13110225f80f9f3709b","session_id":"6196c4a8424c7662daee0e0a","condition":"contingent","relevant_dimensions":["antennae","wings"],"bee_group":{"antennae":"B","wings":"2","pattern":"X","legs":"X"},"action":"avoid","summary":"good-avoid","bonus":0.9400000000000008},{"rt":894.8000000007451,"stimulus":"\n                    <p><b>Action: <em>avoid</em></b></p>\n                    <p>This is the bee that you just saw.</p>\n                    <img src=\"bees-with-color/bee-B2DM.svg\" width=\"200\">\n                    <p><br>Your bonus pay is unchanged, and remains at $0.42.</p>\n            ","response":0,"trial_type":"html-button-response","trial_index":48,"time_elapsed":387688,"internal_node_id":"0.0-4.0-1.18","subject_id":"614f6ba261f9a73728ca8fb8","study_id":"60edd13110225f80f9f3709b","session_id":"6196c4a8424c7662daee0e0a","condition":"contingent","relevant_dimensions":["antennae","wings"],"bee_group":{"antennae":"B","wings":"2","pattern":"X","legs":"X"},"bonus":0.9400000000000008},{"rt":8262.300000000745,"stimulus":"bees-with-color/bee-A2DF.svg","response":0,"trial_type":"image-button-response","trial_index":49,"time_elapsed":395952,"internal_node_id":"0.0-4.0-0.19","subject_id":"614f6ba261f9a73728ca8fb8","study_id":"60edd13110225f80f9f3709b","session_id":"6196c4a8424c7662daee0e0a","condition":"contingent","relevant_dimensions":["antennae","wings"],"bee_group":{"antennae":"B","wings":"2","pattern":"X","legs":"X"},"action":"harvest","summary":"good-harvest","bonus":0.9400000000000008},{"rt":598.9000000022352,"stimulus":"\n                    <p><b>Action: <em>harvest</em></b></p>\n                    <p>This is the bee that you just saw.</p>\n                    <img src=\"bees-with-color/bee-A2DF.svg\" width=\"200\">\n                    <p><span class=\"greenText\"><b>Successful harvest!</b></span><br>Your pay has increased by $0.02. Your bonus pay is now $0.44.</p>\n            ","response":0,"trial_type":"html-button-response","trial_index":50,"time_elapsed":396552,"internal_node_id":"0.0-4.0-1.19","subject_id":"614f6ba261f9a73728ca8fb8","study_id":"60edd13110225f80f9f3709b","session_id":"6196c4a8424c7662daee0e0a","condition":"contingent","relevant_dimensions":["antennae","wings"],"bee_group":{"antennae":"B","wings":"2","pattern":"X","legs":"X"},"bonus":0.9400000000000008},{"rt":11542.5,"stimulus":"bees-with-color/bee-B1SM.svg","response":1,"trial_type":"image-button-response","trial_index":51,"time_elapsed":408096,"internal_node_id":"0.0-4.0-0.20","subject_id":"614f6ba261f9a73728ca8fb8","study_id":"60edd13110225f80f9f3709b","session_id":"6196c4a8424c7662daee0e0a","condition":"contingent","relevant_dimensions":["antennae","wings"],"bee_group":{"antennae":"B","wings":"2","pattern":"X","legs":"X"},"action":"avoid","summary":"bad-avoid","bonus":0.9400000000000008},{"rt":694.8000000007451,"stimulus":"\n                    <p><b>Action: <em>avoid</em></b></p>\n                    <p>This is the bee that you just saw.</p>\n                    <img src=\"bees-with-color/bee-B1SM.svg\" width=\"200\">\n                    <p><br>Your bonus pay is unchanged, and remains at $0.44.</p>\n            ","response":0,"trial_type":"html-button-response","trial_index":52,"time_elapsed":408792,"internal_node_id":"0.0-4.0-1.20","subject_id":"614f6ba261f9a73728ca8fb8","study_id":"60edd13110225f80f9f3709b","session_id":"6196c4a8424c7662daee0e0a","condition":"contingent","relevant_dimensions":["antennae","wings"],"bee_group":{"antennae":"B","wings":"2","pattern":"X","legs":"X"},"bonus":0.9400000000000008},{"rt":4966.300000000745,"stimulus":"bees-with-color/bee-B2DF.svg","response":1,"trial_type":"image-button-response","trial_index":53,"time_elapsed":413760,"internal_node_id":"0.0-4.0-0.21","subject_id":"614f6ba261f9a73728ca8fb8","study_id":"60edd13110225f80f9f3709b","session_id":"6196c4a8424c7662daee0e0a","condition":"contingent","relevant_dimensions":["antennae","wings"],"bee_group":{"antennae":"B","wings":"2","pattern":"X","legs":"X"},"action":"avoid","summary":"good-avoid","bonus":0.9400000000000008},{"rt":438.19999999925494,"stimulus":"\n                    <p><b>Action: <em>avoid</em></b></p>\n                    <p>This is the bee that you just saw.</p>\n                    <img src=\"bees-with-color/bee-B2DF.svg\" width=\"200\">\n                    <p><br>Your bonus pay is unchanged, and remains at $0.44.</p>\n            ","response":0,"trial_type":"html-button-response","trial_index":54,"time_elapsed":414201,"internal_node_id":"0.0-4.0-1.21","subject_id":"614f6ba261f9a73728ca8fb8","study_id":"60edd13110225f80f9f3709b","session_id":"6196c4a8424c7662daee0e0a","condition":"contingent","relevant_dimensions":["antennae","wings"],"bee_group":{"antennae":"B","wings":"2","pattern":"X","legs":"X"},"bonus":0.9400000000000008},{"rt":9605.900000002235,"stimulus":"bees-with-color/bee-A1SM.svg","response":1,"trial_type":"image-button-response","trial_index":55,"time_elapsed":423808,"internal_node_id":"0.0-4.0-0.22","subject_id":"614f6ba261f9a73728ca8fb8","study_id":"60edd13110225f80f9f3709b","session_id":"6196c4a8424c7662daee0e0a","condition":"contingent","relevant_dimensions":["antennae","wings"],"bee_group":{"antennae":"B","wings":"2","pattern":"X","legs":"X"},"action":"avoid","summary":"bad-avoid","bonus":0.9400000000000008},{"rt":790.8000000007451,"stimulus":"\n                    <p><b>Action: <em>avoid</em></b></p>\n                    <p>This is the bee that you just saw.</p>\n                    <img src=\"bees-with-color/bee-A1SM.svg\" width=\"200\">\n                    <p><br>Your bonus pay is unchanged, and remains at $0.44.</p>\n            ","response":0,"trial_type":"html-button-response","trial_index":56,"time_elapsed":424600,"internal_node_id":"0.0-4.0-1.22","subject_id":"614f6ba261f9a73728ca8fb8","study_id":"60edd13110225f80f9f3709b","session_id":"6196c4a8424c7662daee0e0a","condition":"contingent","relevant_dimensions":["antennae","wings"],"bee_group":{"antennae":"B","wings":"2","pattern":"X","legs":"X"},"bonus":0.9400000000000008},{"rt":13438.199999999255,"stimulus":"bees-with-color/bee-B1DF.svg","response":0,"trial_type":"image-button-response","trial_index":57,"time_elapsed":438040,"internal_node_id":"0.0-4.0-0.23","subject_id":"614f6ba261f9a73728ca8fb8","study_id":"60edd13110225f80f9f3709b","session_id":"6196c4a8424c7662daee0e0a","condition":"contingent","relevant_dimensions":["antennae","wings"],"bee_group":{"antennae":"B","wings":"2","pattern":"X","legs":"X"},"action":"harvest","summary":"good-harvest","bonus":0.9400000000000008},{"rt":4038.10000000149,"stimulus":"\n                    <p><b>Action: <em>harvest</em></b></p>\n                    <p>This is the bee that you just saw.</p>\n                    <img src=\"bees-with-color/bee-B1DF.svg\" width=\"200\">\n                    <p><span class=\"greenText\"><b>Successful harvest!</b></span><br>Your pay has increased by $0.02. Your bonus pay is now $0.46.</p>\n            ","response":0,"trial_type":"html-button-response","trial_index":58,"time_elapsed":442080,"internal_node_id":"0.0-4.0-1.23","subject_id":"614f6ba261f9a73728ca8fb8","study_id":"60edd13110225f80f9f3709b","session_id":"6196c4a8424c7662daee0e0a","condition":"contingent","relevant_dimensions":["antennae","wings"],"bee_group":{"antennae":"B","wings":"2","pattern":"X","legs":"X"},"bonus":0.9400000000000008},{"rt":9454.099999997765,"stimulus":"bees-with-color/bee-A2SM.svg","response":0,"trial_type":"image-button-response","trial_index":59,"time_elapsed":451536,"internal_node_id":"0.0-4.0-0.24","subject_id":"614f6ba261f9a73728ca8fb8","study_id":"60edd13110225f80f9f3709b","session_id":"6196c4a8424c7662daee0e0a","condition":"contingent","relevant_dimensions":["antennae","wings"],"bee_group":{"antennae":"B","wings":"2","pattern":"X","legs":"X"},"action":"harvest","summary":"good-harvest","bonus":0.9400000000000008},{"rt":695.0999999977648,"stimulus":"\n                    <p><b>Action: <em>harvest</em></b></p>\n                    <p>This is the bee that you just saw.</p>\n                    <img src=\"bees-with-color/bee-A2SM.svg\" width=\"200\">\n                    <p><span class=\"greenText\"><b>Successful harvest!</b></span><br>Your pay has increased by $0.02. Your bonus pay is now $0.48.</p>\n            ","response":0,"trial_type":"html-button-response","trial_index":60,"time_elapsed":452232,"internal_node_id":"0.0-4.0-1.24","subject_id":"614f6ba261f9a73728ca8fb8","study_id":"60edd13110225f80f9f3709b","session_id":"6196c4a8424c7662daee0e0a","condition":"contingent","relevant_dimensions":["antennae","wings"],"bee_group":{"antennae":"B","wings":"2","pattern":"X","legs":"X"},"bonus":0.9400000000000008},{"rt":22246.39999999851,"stimulus":"bees-with-color/bee-A2DM.svg","response":0,"trial_type":"image-button-response","trial_index":61,"time_elapsed":474480,"internal_node_id":"0.0-4.0-0.25","subject_id":"614f6ba261f9a73728ca8fb8","study_id":"60edd13110225f80f9f3709b","session_id":"6196c4a8424c7662daee0e0a","condition":"contingent","relevant_dimensions":["antennae","wings"],"bee_group":{"antennae":"B","wings":"2","pattern":"X","legs":"X"},"action":"harvest","summary":"good-harvest","bonus":0.9400000000000008},{"rt":4454.900000002235,"stimulus":"\n                    <p><b>Action: <em>harvest</em></b></p>\n                    <p>This is the bee that you just saw.</p>\n                    <img src=\"bees-with-color/bee-A2DM.svg\" width=\"200\">\n                    <p><span class=\"greenText\"><b>Successful harvest!</b></span><br>Your pay has increased by $0.02. Your bonus pay is now $0.50.</p>\n            ","response":0,"trial_type":"html-button-response","trial_index":62,"time_elapsed":478936,"internal_node_id":"0.0-4.0-1.25","subject_id":"614f6ba261f9a73728ca8fb8","study_id":"60edd13110225f80f9f3709b","session_id":"6196c4a8424c7662daee0e0a","condition":"contingent","relevant_dimensions":["antennae","wings"],"bee_group":{"antennae":"B","wings":"2","pattern":"X","legs":"X"},"bonus":0.9400000000000008},{"rt":17470.199999999255,"stimulus":"bees-with-color/bee-B2SF.svg","response":1,"trial_type":"image-button-response","trial_index":63,"time_elapsed":496407,"internal_node_id":"0.0-4.0-0.26","subject_id":"614f6ba261f9a73728ca8fb8","study_id":"60edd13110225f80f9f3709b","session_id":"6196c4a8424c7662daee0e0a","condition":"contingent","relevant_dimensions":["antennae","wings"],"bee_group":{"antennae":"B","wings":"2","pattern":"X","legs":"X"},"action":"avoid","summary":"good-avoid","bonus":0.9400000000000008},{"rt":494.9000000022352,"stimulus":"\n                    <p><b>Action: <em>avoid</em></b></p>\n                    <p>This is the bee that you just saw.</p>\n                    <img src=\"bees-with-color/bee-B2SF.svg\" width=\"200\">\n                    <p><br>Your bonus pay is unchanged, and remains at $0.50.</p>\n            ","response":0,"trial_type":"html-button-response","trial_index":64,"time_elapsed":496904,"internal_node_id":"0.0-4.0-1.26","subject_id":"614f6ba261f9a73728ca8fb8","study_id":"60edd13110225f80f9f3709b","session_id":"6196c4a8424c7662daee0e0a","condition":"contingent","relevant_dimensions":["antennae","wings"],"bee_group":{"antennae":"B","wings":"2","pattern":"X","legs":"X"},"bonus":0.9400000000000008},{"rt":6358.5,"stimulus":"bees-with-color/bee-A1SF.svg","response":1,"trial_type":"image-button-response","trial_index":65,"time_elapsed":503264,"internal_node_id":"0.0-4.0-0.27","subject_id":"614f6ba261f9a73728ca8fb8","study_id":"60edd13110225f80f9f3709b","session_id":"6196c4a8424c7662daee0e0a","condition":"contingent","relevant_dimensions":["antennae","wings"],"bee_group":{"antennae":"B","wings":"2","pattern":"X","legs":"X"},"action":"avoid","summary":"bad-avoid","bonus":0.9400000000000008},{"rt":454.4000000022352,"stimulus":"\n                    <p><b>Action: <em>avoid</em></b></p>\n                    <p>This is the bee that you just saw.</p>\n                    <img src=\"bees-with-color/bee-A1SF.svg\" width=\"200\">\n                    <p><br>Your bonus pay is unchanged, and remains at $0.50.</p>\n            ","response":0,"trial_type":"html-button-response","trial_index":66,"time_elapsed":503720,"internal_node_id":"0.0-4.0-1.27","subject_id":"614f6ba261f9a73728ca8fb8","study_id":"60edd13110225f80f9f3709b","session_id":"6196c4a8424c7662daee0e0a","condition":"contingent","relevant_dimensions":["antennae","wings"],"bee_group":{"antennae":"B","wings":"2","pattern":"X","legs":"X"},"bonus":0.9400000000000008},{"rt":3046.39999999851,"stimulus":"bees-with-color/bee-B1SF.svg","response":0,"trial_type":"image-button-response","trial_index":67,"time_elapsed":506768,"internal_node_id":"0.0-4.0-0.28","subject_id":"614f6ba261f9a73728ca8fb8","study_id":"60edd13110225f80f9f3709b","session_id":"6196c4a8424c7662daee0e0a","condition":"contingent","relevant_dimensions":["antennae","wings"],"bee_group":{"antennae":"B","wings":"2","pattern":"X","legs":"X"},"action":"harvest","summary":"good-harvest","bonus":0.9400000000000008},{"rt":1238.5999999977648,"stimulus":"\n                    <p><b>Action: <em>harvest</em></b></p>\n                    <p>This is the bee that you just saw.</p>\n                    <img src=\"bees-with-color/bee-B1SF.svg\" width=\"200\">\n                    <p><span class=\"greenText\"><b>Successful harvest!</b></span><br>Your pay has increased by $0.02. Your bonus pay is now $0.52.</p>\n            ","response":0,"trial_type":"html-button-response","trial_index":68,"time_elapsed":508008,"internal_node_id":"0.0-4.0-1.28","subject_id":"614f6ba261f9a73728ca8fb8","study_id":"60edd13110225f80f9f3709b","session_id":"6196c4a8424c7662daee0e0a","condition":"contingent","relevant_dimensions":["antennae","wings"],"bee_group":{"antennae":"B","wings":"2","pattern":"X","legs":"X"},"bonus":0.9400000000000008},{"rt":14310.400000002235,"stimulus":"bees-with-color/bee-A1DM.svg","response":1,"trial_type":"image-button-response","trial_index":69,"time_elapsed":522320,"internal_node_id":"0.0-4.0-0.29","subject_id":"614f6ba261f9a73728ca8fb8","study_id":"60edd13110225f80f9f3709b","session_id":"6196c4a8424c7662daee0e0a","condition":"contingent","relevant_dimensions":["antennae","wings"],"bee_group":{"antennae":"B","wings":"2","pattern":"X","legs":"X"},"action":"avoid","summary":"bad-avoid","bonus":0.9400000000000008},{"rt":678.7000000029802,"stimulus":"\n                    <p><b>Action: <em>avoid</em></b></p>\n                    <p>This is the bee that you just saw.</p>\n                    <img src=\"bees-with-color/bee-A1DM.svg\" width=\"200\">\n                    <p><br>Your bonus pay is unchanged, and remains at $0.52.</p>\n            ","response":0,"trial_type":"html-button-response","trial_index":70,"time_elapsed":523000,"internal_node_id":"0.0-4.0-1.29","subject_id":"614f6ba261f9a73728ca8fb8","study_id":"60edd13110225f80f9f3709b","session_id":"6196c4a8424c7662daee0e0a","condition":"contingent","relevant_dimensions":["antennae","wings"],"bee_group":{"antennae":"B","wings":"2","pattern":"X","legs":"X"},"bonus":0.9400000000000008},{"rt":16638.60000000149,"stimulus":"bees-with-color/bee-B1DM.svg","response":0,"trial_type":"image-button-response","trial_index":71,"time_elapsed":539640,"internal_node_id":"0.0-4.0-0.30","subject_id":"614f6ba261f9a73728ca8fb8","study_id":"60edd13110225f80f9f3709b","session_id":"6196c4a8424c7662daee0e0a","condition":"contingent","relevant_dimensions":["antennae","wings"],"bee_group":{"antennae":"B","wings":"2","pattern":"X","legs":"X"},"action":"harvest","summary":"good-harvest","bonus":0.9400000000000008},{"rt":742.7000000029802,"stimulus":"\n                    <p><b>Action: <em>harvest</em></b></p>\n                    <p>This is the bee that you just saw.</p>\n                    <img src=\"bees-with-color/bee-B1DM.svg\" width=\"200\">\n                    <p><span class=\"greenText\"><b>Successful harvest!</b></span><br>Your pay has increased by $0.02. Your bonus pay is now $0.54.</p>\n            ","response":0,"trial_type":"html-button-response","trial_index":72,"time_elapsed":540384,"internal_node_id":"0.0-4.0-1.30","subject_id":"614f6ba261f9a73728ca8fb8","study_id":"60edd13110225f80f9f3709b","session_id":"6196c4a8424c7662daee0e0a","condition":"contingent","relevant_dimensions":["antennae","wings"],"bee_group":{"antennae":"B","wings":"2","pattern":"X","legs":"X"},"bonus":0.9400000000000008},{"rt":9654.10000000149,"stimulus":"bees-with-color/bee-B2SM.svg","response":1,"trial_type":"image-button-response","trial_index":73,"time_elapsed":550040,"internal_node_id":"0.0-4.0-0.31","subject_id":"614f6ba261f9a73728ca8fb8","study_id":"60edd13110225f80f9f3709b","session_id":"6196c4a8424c7662daee0e0a","condition":"contingent","relevant_dimensions":["antennae","wings"],"bee_group":{"antennae":"B","wings":"2","pattern":"X","legs":"X"},"action":"avoid","summary":"good-avoid","bonus":0.9400000000000008},{"rt":966.1999999992549,"stimulus":"\n                    <p><b>Action: <em>avoid</em></b></p>\n                    <p>This is the bee that you just saw.</p>\n                    <img src=\"bees-with-color/bee-B2SM.svg\" width=\"200\">\n                    <p><br>Your bonus pay is unchanged, and remains at $0.54.</p>\n            ","response":0,"trial_type":"html-button-response","trial_index":74,"time_elapsed":551008,"internal_node_id":"0.0-4.0-1.31","subject_id":"614f6ba261f9a73728ca8fb8","study_id":"60edd13110225f80f9f3709b","session_id":"6196c4a8424c7662daee0e0a","condition":"contingent","relevant_dimensions":["antennae","wings"],"bee_group":{"antennae":"B","wings":"2","pattern":"X","legs":"X"},"bonus":0.9400000000000008},{"rt":9878.199999999255,"stimulus":"bees-with-color/bee-B2SF.svg","response":1,"trial_type":"image-button-response","trial_index":75,"time_elapsed":560888,"internal_node_id":"0.0-4.0-0.32","subject_id":"614f6ba261f9a73728ca8fb8","study_id":"60edd13110225f80f9f3709b","session_id":"6196c4a8424c7662daee0e0a","condition":"contingent","relevant_dimensions":["antennae","wings"],"bee_group":{"antennae":"B","wings":"2","pattern":"X","legs":"X"},"action":"avoid","summary":"good-avoid","bonus":0.9400000000000008},{"rt":478.5,"stimulus":"\n                    <p><b>Action: <em>avoid</em></b></p>\n                    <p>This is the bee that you just saw.</p>\n                    <img src=\"bees-with-color/bee-B2SF.svg\" width=\"200\">\n                    <p><br>Your bonus pay is unchanged, and remains at $0.54.</p>\n            ","response":0,"trial_type":"html-button-response","trial_index":76,"time_elapsed":561368,"internal_node_id":"0.0-4.0-1.32","subject_id":"614f6ba261f9a73728ca8fb8","study_id":"60edd13110225f80f9f3709b","session_id":"6196c4a8424c7662daee0e0a","condition":"contingent","relevant_dimensions":["antennae","wings"],"bee_group":{"antennae":"B","wings":"2","pattern":"X","legs":"X"},"bonus":0.9400000000000008},{"rt":14230.199999999255,"stimulus":"bees-with-color/bee-B2DM.svg","response":1,"trial_type":"image-button-response","trial_index":77,"time_elapsed":575600,"internal_node_id":"0.0-4.0-0.33","subject_id":"614f6ba261f9a73728ca8fb8","study_id":"60edd13110225f80f9f3709b","session_id":"6196c4a8424c7662daee0e0a","condition":"contingent","relevant_dimensions":["antennae","wings"],"bee_group":{"antennae":"B","wings":"2","pattern":"X","legs":"X"},"action":"avoid","summary":"good-avoid","bonus":0.9400000000000008},{"rt":734.5,"stimulus":"\n                    <p><b>Action: <em>avoid</em></b></p>\n                    <p>This is the bee that you just saw.</p>\n                    <img src=\"bees-with-color/bee-B2DM.svg\" width=\"200\">\n                    <p><br>Your bonus pay is unchanged, and remains at $0.54.</p>\n            ","response":0,"trial_type":"html-button-response","trial_index":78,"time_elapsed":576336,"internal_node_id":"0.0-4.0-1.33","subject_id":"614f6ba261f9a73728ca8fb8","study_id":"60edd13110225f80f9f3709b","session_id":"6196c4a8424c7662daee0e0a","condition":"contingent","relevant_dimensions":["antennae","wings"],"bee_group":{"antennae":"B","wings":"2","pattern":"X","legs":"X"},"bonus":0.9400000000000008},{"rt":13046.199999999255,"stimulus":"bees-with-color/bee-A2DF.svg","response":0,"trial_type":"image-button-response","trial_index":79,"time_elapsed":589383,"internal_node_id":"0.0-4.0-0.34","subject_id":"614f6ba261f9a73728ca8fb8","study_id":"60edd13110225f80f9f3709b","session_id":"6196c4a8424c7662daee0e0a","condition":"contingent","relevant_dimensions":["antennae","wings"],"bee_group":{"antennae":"B","wings":"2","pattern":"X","legs":"X"},"action":"harvest","summary":"good-harvest","bonus":0.9400000000000008},{"rt":574.9000000022352,"stimulus":"\n                    <p><b>Action: <em>harvest</em></b></p>\n                    <p>This is the bee that you just saw.</p>\n                    <img src=\"bees-with-color/bee-A2DF.svg\" width=\"200\">\n                    <p><span class=\"greenText\"><b>Successful harvest!</b></span><br>Your pay has increased by $0.02. Your bonus pay is now $0.56.</p>\n            ","response":0,"trial_type":"html-button-response","trial_index":80,"time_elapsed":589960,"internal_node_id":"0.0-4.0-1.34","subject_id":"614f6ba261f9a73728ca8fb8","study_id":"60edd13110225f80f9f3709b","session_id":"6196c4a8424c7662daee0e0a","condition":"contingent","relevant_dimensions":["antennae","wings"],"bee_group":{"antennae":"B","wings":"2","pattern":"X","legs":"X"},"bonus":0.9400000000000008},{"rt":8070.20000000298,"stimulus":"bees-with-color/bee-B1SM.svg","response":1,"trial_type":"image-button-response","trial_index":81,"time_elapsed":598032,"internal_node_id":"0.0-4.0-0.35","subject_id":"614f6ba261f9a73728ca8fb8","study_id":"60edd13110225f80f9f3709b","session_id":"6196c4a8424c7662daee0e0a","condition":"contingent","relevant_dimensions":["antennae","wings"],"bee_group":{"antennae":"B","wings":"2","pattern":"X","legs":"X"},"action":"avoid","summary":"bad-avoid","bonus":0.9400000000000008},{"rt":789.0999999977648,"stimulus":"\n                    <p><b>Action: <em>avoid</em></b></p>\n                    <p>This is the bee that you just saw.</p>\n                    <img src=\"bees-with-color/bee-B1SM.svg\" width=\"200\">\n                    <p><br>Your bonus pay is unchanged, and remains at $0.56.</p>\n            ","response":0,"trial_type":"html-button-response","trial_index":82,"time_elapsed":598822,"internal_node_id":"0.0-4.0-1.35","subject_id":"614f6ba261f9a73728ca8fb8","study_id":"60edd13110225f80f9f3709b","session_id":"6196c4a8424c7662daee0e0a","condition":"contingent","relevant_dimensions":["antennae","wings"],"bee_group":{"antennae":"B","wings":"2","pattern":"X","legs":"X"},"bonus":0.9400000000000008},{"rt":8358.29999999702,"stimulus":"bees-with-color/bee-B1DF.svg","response":1,"trial_type":"image-button-response","trial_index":83,"time_elapsed":607183,"internal_node_id":"0.0-4.0-0.36","subject_id":"614f6ba261f9a73728ca8fb8","study_id":"60edd13110225f80f9f3709b","session_id":"6196c4a8424c7662daee0e0a","condition":"contingent","relevant_dimensions":["antennae","wings"],"bee_group":{"antennae":"B","wings":"2","pattern":"X","legs":"X"},"action":"avoid","summary":"bad-avoid","bonus":0.9400000000000008},{"rt":638.7999999970198,"stimulus":"\n                    <p><b>Action: <em>avoid</em></b></p>\n                    <p>This is the bee that you just saw.</p>\n                    <img src=\"bees-with-color/bee-B1DF.svg\" width=\"200\">\n                    <p><br>Your bonus pay is unchanged, and remains at $0.56.</p>\n            ","response":0,"trial_type":"html-button-response","trial_index":84,"time_elapsed":607823,"internal_node_id":"0.0-4.0-1.36","subject_id":"614f6ba261f9a73728ca8fb8","study_id":"60edd13110225f80f9f3709b","session_id":"6196c4a8424c7662daee0e0a","condition":"contingent","relevant_dimensions":["antennae","wings"],"bee_group":{"antennae":"B","wings":"2","pattern":"X","legs":"X"},"bonus":0.9400000000000008},{"rt":21006.699999999255,"stimulus":"bees-with-color/bee-B1DM.svg","response":0,"trial_type":"image-button-response","trial_index":85,"time_elapsed":628832,"internal_node_id":"0.0-4.0-0.37","subject_id":"614f6ba261f9a73728ca8fb8","study_id":"60edd13110225f80f9f3709b","session_id":"6196c4a8424c7662daee0e0a","condition":"contingent","relevant_dimensions":["antennae","wings"],"bee_group":{"antennae":"B","wings":"2","pattern":"X","legs":"X"},"action":"harvest","summary":"good-harvest","bonus":0.9400000000000008},{"rt":774.4000000022352,"stimulus":"\n                    <p><b>Action: <em>harvest</em></b></p>\n                    <p>This is the bee that you just saw.</p>\n                    <img src=\"bees-with-color/bee-B1DM.svg\" width=\"200\">\n                    <p><span class=\"greenText\"><b>Successful harvest!</b></span><br>Your pay has increased by $0.02. Your bonus pay is now $0.58.</p>\n            ","response":0,"trial_type":"html-button-response","trial_index":86,"time_elapsed":629607,"internal_node_id":"0.0-4.0-1.37","subject_id":"614f6ba261f9a73728ca8fb8","study_id":"60edd13110225f80f9f3709b","session_id":"6196c4a8424c7662daee0e0a","condition":"contingent","relevant_dimensions":["antennae","wings"],"bee_group":{"antennae":"B","wings":"2","pattern":"X","legs":"X"},"bonus":0.9400000000000008},{"rt":15566.099999997765,"stimulus":"bees-with-color/bee-A1SF.svg","response":1,"trial_type":"image-button-response","trial_index":87,"time_elapsed":645175,"internal_node_id":"0.0-4.0-0.38","subject_id":"614f6ba261f9a73728ca8fb8","study_id":"60edd13110225f80f9f3709b","session_id":"6196c4a8424c7662daee0e0a","condition":"contingent","relevant_dimensions":["antennae","wings"],"bee_group":{"antennae":"B","wings":"2","pattern":"X","legs":"X"},"action":"avoid","summary":"bad-avoid","bonus":0.9400000000000008},{"rt":518.8000000007451,"stimulus":"\n                    <p><b>Action: <em>avoid</em></b></p>\n                    <p>This is the bee that you just saw.</p>\n                    <img src=\"bees-with-color/bee-A1SF.svg\" width=\"200\">\n                    <p><br>Your bonus pay is unchanged, and remains at $0.58.</p>\n            ","response":0,"trial_type":"html-button-response","trial_index":88,"time_elapsed":645695,"internal_node_id":"0.0-4.0-1.38","subject_id":"614f6ba261f9a73728ca8fb8","study_id":"60edd13110225f80f9f3709b","session_id":"6196c4a8424c7662daee0e0a","condition":"contingent","relevant_dimensions":["antennae","wings"],"bee_group":{"antennae":"B","wings":"2","pattern":"X","legs":"X"},"bonus":0.9400000000000008},{"rt":10830.300000000745,"stimulus":"bees-with-color/bee-A1DF.svg","response":0,"trial_type":"image-button-response","trial_index":89,"time_elapsed":656527,"internal_node_id":"0.0-4.0-0.39","subject_id":"614f6ba261f9a73728ca8fb8","study_id":"60edd13110225f80f9f3709b","session_id":"6196c4a8424c7662daee0e0a","condition":"contingent","relevant_dimensions":["antennae","wings"],"bee_group":{"antennae":"B","wings":"2","pattern":"X","legs":"X"},"action":"harvest","summary":"good-harvest","bonus":0.9400000000000008},{"rt":869.9000000022352,"stimulus":"\n                    <p><b>Action: <em>harvest</em></b></p>\n                    <p>This is the bee that you just saw.</p>\n                    <img src=\"bees-with-color/bee-A1DF.svg\" width=\"200\">\n                    <p><span class=\"greenText\"><b>Successful harvest!</b></span><br>Your pay has increased by $0.02. Your bonus pay is now $0.60.</p>\n            ","response":0,"trial_type":"html-button-response","trial_index":90,"time_elapsed":657399,"internal_node_id":"0.0-4.0-1.39","subject_id":"614f6ba261f9a73728ca8fb8","study_id":"60edd13110225f80f9f3709b","session_id":"6196c4a8424c7662daee0e0a","condition":"contingent","relevant_dimensions":["antennae","wings"],"bee_group":{"antennae":"B","wings":"2","pattern":"X","legs":"X"},"bonus":0.9400000000000008},{"rt":8214.400000002235,"stimulus":"bees-with-color/bee-B1SF.svg","response":1,"trial_type":"image-button-response","trial_index":91,"time_elapsed":665615,"internal_node_id":"0.0-4.0-0.40","subject_id":"614f6ba261f9a73728ca8fb8","study_id":"60edd13110225f80f9f3709b","session_id":"6196c4a8424c7662daee0e0a","condition":"contingent","relevant_dimensions":["antennae","wings"],"bee_group":{"antennae":"B","wings":"2","pattern":"X","legs":"X"},"action":"avoid","summary":"bad-avoid","bonus":0.9400000000000008},{"rt":470.4000000022352,"stimulus":"\n                    <p><b>Action: <em>avoid</em></b></p>\n                    <p>This is the bee that you just saw.</p>\n                    <img src=\"bees-with-color/bee-B1SF.svg\" width=\"200\">\n                    <p><br>Your bonus pay is unchanged, and remains at $0.60.</p>\n            ","response":0,"trial_type":"html-button-response","trial_index":92,"time_elapsed":666087,"internal_node_id":"0.0-4.0-1.40","subject_id":"614f6ba261f9a73728ca8fb8","study_id":"60edd13110225f80f9f3709b","session_id":"6196c4a8424c7662daee0e0a","condition":"contingent","relevant_dimensions":["antennae","wings"],"bee_group":{"antennae":"B","wings":"2","pattern":"X","legs":"X"},"bonus":0.9400000000000008},{"rt":7302.300000000745,"stimulus":"bees-with-color/bee-A2SF.svg","response":0,"trial_type":"image-button-response","trial_index":93,"time_elapsed":673391,"internal_node_id":"0.0-4.0-0.41","subject_id":"614f6ba261f9a73728ca8fb8","study_id":"60edd13110225f80f9f3709b","session_id":"6196c4a8424c7662daee0e0a","condition":"contingent","relevant_dimensions":["antennae","wings"],"bee_group":{"antennae":"B","wings":"2","pattern":"X","legs":"X"},"action":"harvest","summary":"good-harvest","bonus":0.9400000000000008},{"rt":958.5,"stimulus":"\n                    <p><b>Action: <em>harvest</em></b></p>\n                    <p>This is the bee that you just saw.</p>\n                    <img src=\"bees-with-color/bee-A2SF.svg\" width=\"200\">\n                    <p><span class=\"greenText\"><b>Successful harvest!</b></span><br>Your pay has increased by $0.02. Your bonus pay is now $0.62.</p>\n            ","response":0,"trial_type":"html-button-response","trial_index":94,"time_elapsed":674351,"internal_node_id":"0.0-4.0-1.41","subject_id":"614f6ba261f9a73728ca8fb8","study_id":"60edd13110225f80f9f3709b","session_id":"6196c4a8424c7662daee0e0a","condition":"contingent","relevant_dimensions":["antennae","wings"],"bee_group":{"antennae":"B","wings":"2","pattern":"X","legs":"X"},"bonus":0.9400000000000008},{"rt":11134.199999999255,"stimulus":"bees-with-color/bee-A2DM.svg","response":1,"trial_type":"image-button-response","trial_index":95,"time_elapsed":685488,"internal_node_id":"0.0-4.0-0.42","subject_id":"614f6ba261f9a73728ca8fb8","study_id":"60edd13110225f80f9f3709b","session_id":"6196c4a8424c7662daee0e0a","condition":"contingent","relevant_dimensions":["antennae","wings"],"bee_group":{"antennae":"B","wings":"2","pattern":"X","legs":"X"},"action":"avoid","summary":"bad-avoid","bonus":0.9400000000000008},{"rt":606.6000000014901,"stimulus":"\n                    <p><b>Action: <em>avoid</em></b></p>\n                    <p>This is the bee that you just saw.</p>\n                    <img src=\"bees-with-color/bee-A2DM.svg\" width=\"200\">\n                    <p><br>Your bonus pay is unchanged, and remains at $0.62.</p>\n            ","response":0,"trial_type":"html-button-response","trial_index":96,"time_elapsed":686096,"internal_node_id":"0.0-4.0-1.42","subject_id":"614f6ba261f9a73728ca8fb8","study_id":"60edd13110225f80f9f3709b","session_id":"6196c4a8424c7662daee0e0a","condition":"contingent","relevant_dimensions":["antennae","wings"],"bee_group":{"antennae":"B","wings":"2","pattern":"X","legs":"X"},"bonus":0.9400000000000008},{"rt":11366.699999999255,"stimulus":"bees-with-color/bee-A1DM.svg","response":1,"trial_type":"image-button-response","trial_index":97,"time_elapsed":697464,"internal_node_id":"0.0-4.0-0.43","subject_id":"614f6ba261f9a73728ca8fb8","study_id":"60edd13110225f80f9f3709b","session_id":"6196c4a8424c7662daee0e0a","condition":"contingent","relevant_dimensions":["antennae","wings"],"bee_group":{"antennae":"B","wings":"2","pattern":"X","legs":"X"},"action":"avoid","summary":"bad-avoid","bonus":0.9400000000000008},{"rt":502.80000000074506,"stimulus":"\n                    <p><b>Action: <em>avoid</em></b></p>\n                    <p>This is the bee that you just saw.</p>\n                    <img src=\"bees-with-color/bee-A1DM.svg\" width=\"200\">\n                    <p><br>Your bonus pay is unchanged, and remains at $0.62.</p>\n            ","response":0,"trial_type":"html-button-response","trial_index":98,"time_elapsed":697968,"internal_node_id":"0.0-4.0-1.43","subject_id":"614f6ba261f9a73728ca8fb8","study_id":"60edd13110225f80f9f3709b","session_id":"6196c4a8424c7662daee0e0a","condition":"contingent","relevant_dimensions":["antennae","wings"],"bee_group":{"antennae":"B","wings":"2","pattern":"X","legs":"X"},"bonus":0.9400000000000008},{"rt":10046.5,"stimulus":"bees-with-color/bee-A2SM.svg","response":0,"trial_type":"image-button-response","trial_index":99,"time_elapsed":708016,"internal_node_id":"0.0-4.0-0.44","subject_id":"614f6ba261f9a73728ca8fb8","study_id":"60edd13110225f80f9f3709b","session_id":"6196c4a8424c7662daee0e0a","condition":"contingent","relevant_dimensions":["antennae","wings"],"bee_group":{"antennae":"B","wings":"2","pattern":"X","legs":"X"},"action":"harvest","summary":"good-harvest","bonus":0.9400000000000008},{"rt":678.6999999992549,"stimulus":"\n                    <p><b>Action: <em>harvest</em></b></p>\n                    <p>This is the bee that you just saw.</p>\n                    <img src=\"bees-with-color/bee-A2SM.svg\" width=\"200\">\n                    <p><span class=\"greenText\"><b>Successful harvest!</b></span><br>Your pay has increased by $0.02. Your bonus pay is now $0.64.</p>\n            ","response":0,"trial_type":"html-button-response","trial_index":100,"time_elapsed":708696,"internal_node_id":"0.0-4.0-1.44","subject_id":"614f6ba261f9a73728ca8fb8","study_id":"60edd13110225f80f9f3709b","session_id":"6196c4a8424c7662daee0e0a","condition":"contingent","relevant_dimensions":["antennae","wings"],"bee_group":{"antennae":"B","wings":"2","pattern":"X","legs":"X"},"bonus":0.9400000000000008},{"rt":3398.39999999851,"stimulus":"bees-with-color/bee-B2SM.svg","response":1,"trial_type":"image-button-response","trial_index":101,"time_elapsed":712096,"internal_node_id":"0.0-4.0-0.45","subject_id":"614f6ba261f9a73728ca8fb8","study_id":"60edd13110225f80f9f3709b","session_id":"6196c4a8424c7662daee0e0a","condition":"contingent","relevant_dimensions":["antennae","wings"],"bee_group":{"antennae":"B","wings":"2","pattern":"X","legs":"X"},"action":"avoid","summary":"good-avoid","bonus":0.9400000000000008},{"rt":743.1000000014901,"stimulus":"\n                    <p><b>Action: <em>avoid</em></b></p>\n                    <p>This is the bee that you just saw.</p>\n                    <img src=\"bees-with-color/bee-B2SM.svg\" width=\"200\">\n                    <p><br>Your bonus pay is unchanged, and remains at $0.64.</p>\n            ","response":0,"trial_type":"html-button-response","trial_index":102,"time_elapsed":712840,"internal_node_id":"0.0-4.0-1.45","subject_id":"614f6ba261f9a73728ca8fb8","study_id":"60edd13110225f80f9f3709b","session_id":"6196c4a8424c7662daee0e0a","condition":"contingent","relevant_dimensions":["antennae","wings"],"bee_group":{"antennae":"B","wings":"2","pattern":"X","legs":"X"},"bonus":0.9400000000000008},{"rt":7382.39999999851,"stimulus":"bees-with-color/bee-B2DF.svg","response":1,"trial_type":"image-button-response","trial_index":103,"time_elapsed":720224,"internal_node_id":"0.0-4.0-0.46","subject_id":"614f6ba261f9a73728ca8fb8","study_id":"60edd13110225f80f9f3709b","session_id":"6196c4a8424c7662daee0e0a","condition":"contingent","relevant_dimensions":["antennae","wings"],"bee_group":{"antennae":"B","wings":"2","pattern":"X","legs":"X"},"action":"avoid","summary":"good-avoid","bonus":0.9400000000000008},{"rt":798.6000000014901,"stimulus":"\n                    <p><b>Action: <em>avoid</em></b></p>\n                    <p>This is the bee that you just saw.</p>\n                    <img src=\"bees-with-color/bee-B2DF.svg\" width=\"200\">\n                    <p><br>Your bonus pay is unchanged, and remains at $0.64.</p>\n            ","response":0,"trial_type":"html-button-response","trial_index":104,"time_elapsed":721024,"internal_node_id":"0.0-4.0-1.46","subject_id":"614f6ba261f9a73728ca8fb8","study_id":"60edd13110225f80f9f3709b","session_id":"6196c4a8424c7662daee0e0a","condition":"contingent","relevant_dimensions":["antennae","wings"],"bee_group":{"antennae":"B","wings":"2","pattern":"X","legs":"X"},"bonus":0.9400000000000008},{"rt":10342.5,"stimulus":"bees-with-color/bee-A1SM.svg","response":1,"trial_type":"image-button-response","trial_index":105,"time_elapsed":731368,"internal_node_id":"0.0-4.0-0.47","subject_id":"614f6ba261f9a73728ca8fb8","study_id":"60edd13110225f80f9f3709b","session_id":"6196c4a8424c7662daee0e0a","condition":"contingent","relevant_dimensions":["antennae","wings"],"bee_group":{"antennae":"B","wings":"2","pattern":"X","legs":"X"},"action":"avoid","summary":"bad-avoid","bonus":0.9400000000000008},{"rt":462.6000000014901,"stimulus":"\n                    <p><b>Action: <em>avoid</em></b></p>\n                    <p>This is the bee that you just saw.</p>\n                    <img src=\"bees-with-color/bee-A1SM.svg\" width=\"200\">\n                    <p><br>Your bonus pay is unchanged, and remains at $0.64.</p>\n            ","response":0,"trial_type":"html-button-response","trial_index":106,"time_elapsed":731832,"internal_node_id":"0.0-4.0-1.47","subject_id":"614f6ba261f9a73728ca8fb8","study_id":"60edd13110225f80f9f3709b","session_id":"6196c4a8424c7662daee0e0a","condition":"contingent","relevant_dimensions":["antennae","wings"],"bee_group":{"antennae":"B","wings":"2","pattern":"X","legs":"X"},"bonus":0.9400000000000008},{"rt":6478.300000000745,"stimulus":"bees-with-color/bee-A2SF.svg","response":0,"trial_type":"image-button-response","trial_index":107,"time_elapsed":738312,"internal_node_id":"0.0-4.0-0.48","subject_id":"614f6ba261f9a73728ca8fb8","study_id":"60edd13110225f80f9f3709b","session_id":"6196c4a8424c7662daee0e0a","condition":"contingent","relevant_dimensions":["antennae","wings"],"bee_group":{"antennae":"B","wings":"2","pattern":"X","legs":"X"},"action":"harvest","summary":"good-harvest","bonus":0.9400000000000008},{"rt":758.5999999977648,"stimulus":"\n                    <p><b>Action: <em>harvest</em></b></p>\n                    <p>This is the bee that you just saw.</p>\n                    <img src=\"bees-with-color/bee-A2SF.svg\" width=\"200\">\n                    <p><span class=\"greenText\"><b>Successful harvest!</b></span><br>Your pay has increased by $0.02. Your bonus pay is now $0.66.</p>\n            ","response":0,"trial_type":"html-button-response","trial_index":108,"time_elapsed":739072,"internal_node_id":"0.0-4.0-1.48","subject_id":"614f6ba261f9a73728ca8fb8","study_id":"60edd13110225f80f9f3709b","session_id":"6196c4a8424c7662daee0e0a","condition":"contingent","relevant_dimensions":["antennae","wings"],"bee_group":{"antennae":"B","wings":"2","pattern":"X","legs":"X"},"bonus":0.9400000000000008},{"rt":12126.300000000745,"stimulus":"bees-with-color/bee-A1SF.svg","response":1,"trial_type":"image-button-response","trial_index":109,"time_elapsed":751199,"internal_node_id":"0.0-4.0-0.49","subject_id":"614f6ba261f9a73728ca8fb8","study_id":"60edd13110225f80f9f3709b","session_id":"6196c4a8424c7662daee0e0a","condition":"contingent","relevant_dimensions":["antennae","wings"],"bee_group":{"antennae":"B","wings":"2","pattern":"X","legs":"X"},"action":"avoid","summary":"bad-avoid","bonus":0.9400000000000008},{"rt":486.30000000074506,"stimulus":"\n                    <p><b>Action: <em>avoid</em></b></p>\n                    <p>This is the bee that you just saw.</p>\n                    <img src=\"bees-with-color/bee-A1SF.svg\" width=\"200\">\n                    <p><br>Your bonus pay is unchanged, and remains at $0.66.</p>\n            ","response":0,"trial_type":"html-button-response","trial_index":110,"time_elapsed":751687,"internal_node_id":"0.0-4.0-1.49","subject_id":"614f6ba261f9a73728ca8fb8","study_id":"60edd13110225f80f9f3709b","session_id":"6196c4a8424c7662daee0e0a","condition":"contingent","relevant_dimensions":["antennae","wings"],"bee_group":{"antennae":"B","wings":"2","pattern":"X","legs":"X"},"bonus":0.9400000000000008},{"rt":8702.39999999851,"stimulus":"bees-with-color/bee-B2DF.svg","response":0,"trial_type":"image-button-response","trial_index":111,"time_elapsed":760391,"internal_node_id":"0.0-4.0-0.50","subject_id":"614f6ba261f9a73728ca8fb8","study_id":"60edd13110225f80f9f3709b","session_id":"6196c4a8424c7662daee0e0a","condition":"contingent","relevant_dimensions":["antennae","wings"],"bee_group":{"antennae":"B","wings":"2","pattern":"X","legs":"X"},"action":"harvest","summary":"bad-harvest","bonus":0.9400000000000008},{"rt":6894.699999999255,"stimulus":"\n                    <p><b>Action: <em>harvest</em></b></p>\n                    <p>This is the bee that you just saw.</p>\n                    <img src=\"bees-with-color/bee-B2DF.svg\" width=\"200\">\n                    <p><span class=\"redText\">Bad choice, the bee was angry.</span><br><b>You have been stung!</b><br>Your pay has been decreased by $0.10. Your bonus pay is now $0.56.</p>\n            ","response":0,"trial_type":"html-button-response","trial_index":112,"time_elapsed":767287,"internal_node_id":"0.0-4.0-1.50","subject_id":"614f6ba261f9a73728ca8fb8","study_id":"60edd13110225f80f9f3709b","session_id":"6196c4a8424c7662daee0e0a","condition":"contingent","relevant_dimensions":["antennae","wings"],"bee_group":{"antennae":"B","wings":"2","pattern":"X","legs":"X"},"bonus":0.9400000000000008},{"rt":17902.39999999851,"stimulus":"bees-with-color/bee-B1DF.svg","response":0,"trial_type":"image-button-response","trial_index":113,"time_elapsed":785191,"internal_node_id":"0.0-4.0-0.51","subject_id":"614f6ba261f9a73728ca8fb8","study_id":"60edd13110225f80f9f3709b","session_id":"6196c4a8424c7662daee0e0a","condition":"contingent","relevant_dimensions":["antennae","wings"],"bee_group":{"antennae":"B","wings":"2","pattern":"X","legs":"X"},"action":"harvest","summary":"good-harvest","bonus":0.9400000000000008},{"rt":982.5,"stimulus":"\n                    <p><b>Action: <em>harvest</em></b></p>\n                    <p>This is the bee that you just saw.</p>\n                    <img src=\"bees-with-color/bee-B1DF.svg\" width=\"200\">\n                    <p><span class=\"greenText\"><b>Successful harvest!</b></span><br>Your pay has increased by $0.02. Your bonus pay is now $0.58.</p>\n            ","response":0,"trial_type":"html-button-response","trial_index":114,"time_elapsed":786175,"internal_node_id":"0.0-4.0-1.51","subject_id":"614f6ba261f9a73728ca8fb8","study_id":"60edd13110225f80f9f3709b","session_id":"6196c4a8424c7662daee0e0a","condition":"contingent","relevant_dimensions":["antennae","wings"],"bee_group":{"antennae":"B","wings":"2","pattern":"X","legs":"X"},"bonus":0.9400000000000008},{"rt":14862.599999997765,"stimulus":"bees-with-color/bee-A1DM.svg","response":1,"trial_type":"image-button-response","trial_index":115,"time_elapsed":801039,"internal_node_id":"0.0-4.0-0.52","subject_id":"614f6ba261f9a73728ca8fb8","study_id":"60edd13110225f80f9f3709b","session_id":"6196c4a8424c7662daee0e0a","condition":"contingent","relevant_dimensions":["antennae","wings"],"bee_group":{"antennae":"B","wings":"2","pattern":"X","legs":"X"},"action":"avoid","summary":"bad-avoid","bonus":0.9400000000000008},{"rt":510.70000000298023,"stimulus":"\n                    <p><b>Action: <em>avoid</em></b></p>\n                    <p>This is the bee that you just saw.</p>\n                    <img src=\"bees-with-color/bee-A1DM.svg\" width=\"200\">\n                    <p><br>Your bonus pay is unchanged, and remains at $0.58.</p>\n            ","response":0,"trial_type":"html-button-response","trial_index":116,"time_elapsed":801551,"internal_node_id":"0.0-4.0-1.52","subject_id":"614f6ba261f9a73728ca8fb8","study_id":"60edd13110225f80f9f3709b","session_id":"6196c4a8424c7662daee0e0a","condition":"contingent","relevant_dimensions":["antennae","wings"],"bee_group":{"antennae":"B","wings":"2","pattern":"X","legs":"X"},"bonus":0.9400000000000008},{"rt":7830.599999997765,"stimulus":"bees-with-color/bee-A2DF.svg","response":0,"trial_type":"image-button-response","trial_index":117,"time_elapsed":809383,"internal_node_id":"0.0-4.0-0.53","subject_id":"614f6ba261f9a73728ca8fb8","study_id":"60edd13110225f80f9f3709b","session_id":"6196c4a8424c7662daee0e0a","condition":"contingent","relevant_dimensions":["antennae","wings"],"bee_group":{"antennae":"B","wings":"2","pattern":"X","legs":"X"},"action":"harvest","summary":"good-harvest","bonus":0.9400000000000008},{"rt":902.8000000007451,"stimulus":"\n                    <p><b>Action: <em>harvest</em></b></p>\n                    <p>This is the bee that you just saw.</p>\n                    <img src=\"bees-with-color/bee-A2DF.svg\" width=\"200\">\n                    <p><span class=\"greenText\"><b>Successful harvest!</b></span><br>Your pay has increased by $0.02. Your bonus pay is now $0.60.</p>\n            ","response":0,"trial_type":"html-button-response","trial_index":118,"time_elapsed":810287,"internal_node_id":"0.0-4.0-1.53","subject_id":"614f6ba261f9a73728ca8fb8","study_id":"60edd13110225f80f9f3709b","session_id":"6196c4a8424c7662daee0e0a","condition":"contingent","relevant_dimensions":["antennae","wings"],"bee_group":{"antennae":"B","wings":"2","pattern":"X","legs":"X"},"bonus":0.9400000000000008},{"rt":17366.5,"stimulus":"bees-with-color/bee-B2SM.svg","response":1,"trial_type":"image-button-response","trial_index":119,"time_elapsed":827655,"internal_node_id":"0.0-4.0-0.54","subject_id":"614f6ba261f9a73728ca8fb8","study_id":"60edd13110225f80f9f3709b","session_id":"6196c4a8424c7662daee0e0a","condition":"contingent","relevant_dimensions":["antennae","wings"],"bee_group":{"antennae":"B","wings":"2","pattern":"X","legs":"X"},"action":"avoid","summary":"good-avoid","bonus":0.9400000000000008},{"rt":542.4000000022352,"stimulus":"\n                    <p><b>Action: <em>avoid</em></b></p>\n                    <p>This is the bee that you just saw.</p>\n                    <img src=\"bees-with-color/bee-B2SM.svg\" width=\"200\">\n                    <p><br>Your bonus pay is unchanged, and remains at $0.60.</p>\n            ","response":0,"trial_type":"html-button-response","trial_index":120,"time_elapsed":828199,"internal_node_id":"0.0-4.0-1.54","subject_id":"614f6ba261f9a73728ca8fb8","study_id":"60edd13110225f80f9f3709b","session_id":"6196c4a8424c7662daee0e0a","condition":"contingent","relevant_dimensions":["antennae","wings"],"bee_group":{"antennae":"B","wings":"2","pattern":"X","legs":"X"},"bonus":0.9400000000000008},{"rt":3886.699999999255,"stimulus":"bees-with-color/bee-A2DM.svg","response":0,"trial_type":"image-button-response","trial_index":121,"time_elapsed":832087,"internal_node_id":"0.0-4.0-0.55","subject_id":"614f6ba261f9a73728ca8fb8","study_id":"60edd13110225f80f9f3709b","session_id":"6196c4a8424c7662daee0e0a","condition":"contingent","relevant_dimensions":["antennae","wings"],"bee_group":{"antennae":"B","wings":"2","pattern":"X","legs":"X"},"action":"harvest","summary":"good-harvest","bonus":0.9400000000000008},{"rt":494.80000000074506,"stimulus":"\n                    <p><b>Action: <em>harvest</em></b></p>\n                    <p>This is the bee that you just saw.</p>\n                    <img src=\"bees-with-color/bee-A2DM.svg\" width=\"200\">\n                    <p><span class=\"greenText\"><b>Successful harvest!</b></span><br>Your pay has increased by $0.02. Your bonus pay is now $0.62.</p>\n            ","response":0,"trial_type":"html-button-response","trial_index":122,"time_elapsed":832583,"internal_node_id":"0.0-4.0-1.55","subject_id":"614f6ba261f9a73728ca8fb8","study_id":"60edd13110225f80f9f3709b","session_id":"6196c4a8424c7662daee0e0a","condition":"contingent","relevant_dimensions":["antennae","wings"],"bee_group":{"antennae":"B","wings":"2","pattern":"X","legs":"X"},"bonus":0.9400000000000008},{"rt":14502.20000000298,"stimulus":"bees-with-color/bee-B2SF.svg","response":1,"trial_type":"image-button-response","trial_index":123,"time_elapsed":847087,"internal_node_id":"0.0-4.0-0.56","subject_id":"614f6ba261f9a73728ca8fb8","study_id":"60edd13110225f80f9f3709b","session_id":"6196c4a8424c7662daee0e0a","condition":"contingent","relevant_dimensions":["antennae","wings"],"bee_group":{"antennae":"B","wings":"2","pattern":"X","legs":"X"},"action":"avoid","summary":"good-avoid","bonus":0.9400000000000008},{"rt":1054.4000000022352,"stimulus":"\n                    <p><b>Action: <em>avoid</em></b></p>\n                    <p>This is the bee that you just saw.</p>\n                    <img src=\"bees-with-color/bee-B2SF.svg\" width=\"200\">\n                    <p><br>Your bonus pay is unchanged, and remains at $0.62.</p>\n            ","response":0,"trial_type":"html-button-response","trial_index":124,"time_elapsed":848143,"internal_node_id":"0.0-4.0-1.56","subject_id":"614f6ba261f9a73728ca8fb8","study_id":"60edd13110225f80f9f3709b","session_id":"6196c4a8424c7662daee0e0a","condition":"contingent","relevant_dimensions":["antennae","wings"],"bee_group":{"antennae":"B","wings":"2","pattern":"X","legs":"X"},"bonus":0.9400000000000008},{"rt":15438.89999999851,"stimulus":"bees-with-color/bee-A1SM.svg","response":1,"trial_type":"image-button-response","trial_index":125,"time_elapsed":863584,"internal_node_id":"0.0-4.0-0.57","subject_id":"614f6ba261f9a73728ca8fb8","study_id":"60edd13110225f80f9f3709b","session_id":"6196c4a8424c7662daee0e0a","condition":"contingent","relevant_dimensions":["antennae","wings"],"bee_group":{"antennae":"B","wings":"2","pattern":"X","legs":"X"},"action":"avoid","summary":"bad-avoid","bonus":0.9400000000000008},{"rt":1126.1000000014901,"stimulus":"\n                    <p><b>Action: <em>avoid</em></b></p>\n                    <p>This is the bee that you just saw.</p>\n                    <img src=\"bees-with-color/bee-A1SM.svg\" width=\"200\">\n                    <p><br>Your bonus pay is unchanged, and remains at $0.62.</p>\n            ","response":0,"trial_type":"html-button-response","trial_index":126,"time_elapsed":864711,"internal_node_id":"0.0-4.0-1.57","subject_id":"614f6ba261f9a73728ca8fb8","study_id":"60edd13110225f80f9f3709b","session_id":"6196c4a8424c7662daee0e0a","condition":"contingent","relevant_dimensions":["antennae","wings"],"bee_group":{"antennae":"B","wings":"2","pattern":"X","legs":"X"},"bonus":0.9400000000000008},{"rt":10990.300000000745,"stimulus":"bees-with-color/bee-B1SM.svg","response":1,"trial_type":"image-button-response","trial_index":127,"time_elapsed":875704,"internal_node_id":"0.0-4.0-0.58","subject_id":"614f6ba261f9a73728ca8fb8","study_id":"60edd13110225f80f9f3709b","session_id":"6196c4a8424c7662daee0e0a","condition":"contingent","relevant_dimensions":["antennae","wings"],"bee_group":{"antennae":"B","wings":"2","pattern":"X","legs":"X"},"action":"avoid","summary":"bad-avoid","bonus":0.9400000000000008},{"rt":1174.5999999977648,"stimulus":"\n                    <p><b>Action: <em>avoid</em></b></p>\n                    <p>This is the bee that you just saw.</p>\n                    <img src=\"bees-with-color/bee-B1SM.svg\" width=\"200\">\n                    <p><br>Your bonus pay is unchanged, and remains at $0.62.</p>\n            ","response":0,"trial_type":"html-button-response","trial_index":128,"time_elapsed":876880,"internal_node_id":"0.0-4.0-1.58","subject_id":"614f6ba261f9a73728ca8fb8","study_id":"60edd13110225f80f9f3709b","session_id":"6196c4a8424c7662daee0e0a","condition":"contingent","relevant_dimensions":["antennae","wings"],"bee_group":{"antennae":"B","wings":"2","pattern":"X","legs":"X"},"bonus":0.9400000000000008},{"rt":14621.5,"stimulus":"bees-with-color/bee-A1DF.svg","response":0,"trial_type":"image-button-response","trial_index":129,"time_elapsed":891504,"internal_node_id":"0.0-4.0-0.59","subject_id":"614f6ba261f9a73728ca8fb8","study_id":"60edd13110225f80f9f3709b","session_id":"6196c4a8424c7662daee0e0a","condition":"contingent","relevant_dimensions":["antennae","wings"],"bee_group":{"antennae":"B","wings":"2","pattern":"X","legs":"X"},"action":"harvest","summary":"good-harvest","bonus":0.9400000000000008},{"rt":582.8000000007451,"stimulus":"\n                    <p><b>Action: <em>harvest</em></b></p>\n                    <p>This is the bee that you just saw.</p>\n                    <img src=\"bees-with-color/bee-A1DF.svg\" width=\"200\">\n                    <p><span class=\"greenText\"><b>Successful harvest!</b></span><br>Your pay has increased by $0.02. Your bonus pay is now $0.64.</p>\n            ","response":0,"trial_type":"html-button-response","trial_index":130,"time_elapsed":892088,"internal_node_id":"0.0-4.0-1.59","subject_id":"614f6ba261f9a73728ca8fb8","study_id":"60edd13110225f80f9f3709b","session_id":"6196c4a8424c7662daee0e0a","condition":"contingent","relevant_dimensions":["antennae","wings"],"bee_group":{"antennae":"B","wings":"2","pattern":"X","legs":"X"},"bonus":0.9400000000000008},{"rt":5981.900000002235,"stimulus":"bees-with-color/bee-B1SF.svg","response":0,"trial_type":"image-button-response","trial_index":131,"time_elapsed":898072,"internal_node_id":"0.0-4.0-0.60","subject_id":"614f6ba261f9a73728ca8fb8","study_id":"60edd13110225f80f9f3709b","session_id":"6196c4a8424c7662daee0e0a","condition":"contingent","relevant_dimensions":["antennae","wings"],"bee_group":{"antennae":"B","wings":"2","pattern":"X","legs":"X"},"action":"harvest","summary":"good-harvest","bonus":0.9400000000000008},{"rt":590,"stimulus":"\n                    <p><b>Action: <em>harvest</em></b></p>\n                    <p>This is the bee that you just saw.</p>\n                    <img src=\"bees-with-color/bee-B1SF.svg\" width=\"200\">\n                    <p><span class=\"greenText\"><b>Successful harvest!</b></span><br>Your pay has increased by $0.02. Your bonus pay is now $0.66.</p>\n            ","response":0,"trial_type":"html-button-response","trial_index":132,"time_elapsed":898664,"internal_node_id":"0.0-4.0-1.60","subject_id":"614f6ba261f9a73728ca8fb8","study_id":"60edd13110225f80f9f3709b","session_id":"6196c4a8424c7662daee0e0a","condition":"contingent","relevant_dimensions":["antennae","wings"],"bee_group":{"antennae":"B","wings":"2","pattern":"X","legs":"X"},"bonus":0.9400000000000008},{"rt":6606,"stimulus":"bees-with-color/bee-B1DM.svg","response":0,"trial_type":"image-button-response","trial_index":133,"time_elapsed":905272,"internal_node_id":"0.0-4.0-0.61","subject_id":"614f6ba261f9a73728ca8fb8","study_id":"60edd13110225f80f9f3709b","session_id":"6196c4a8424c7662daee0e0a","condition":"contingent","relevant_dimensions":["antennae","wings"],"bee_group":{"antennae":"B","wings":"2","pattern":"X","legs":"X"},"action":"harvest","summary":"good-harvest","bonus":0.9400000000000008},{"rt":581.8000000007451,"stimulus":"\n                    <p><b>Action: <em>harvest</em></b></p>\n                    <p>This is the bee that you just saw.</p>\n                    <img src=\"bees-with-color/bee-B1DM.svg\" width=\"200\">\n                    <p><span class=\"greenText\"><b>Successful harvest!</b></span><br>Your pay has increased by $0.02. Your bonus pay is now $0.68.</p>\n            ","response":0,"trial_type":"html-button-response","trial_index":134,"time_elapsed":905856,"internal_node_id":"0.0-4.0-1.61","subject_id":"614f6ba261f9a73728ca8fb8","study_id":"60edd13110225f80f9f3709b","session_id":"6196c4a8424c7662daee0e0a","condition":"contingent","relevant_dimensions":["antennae","wings"],"bee_group":{"antennae":"B","wings":"2","pattern":"X","legs":"X"},"bonus":0.9400000000000008},{"rt":6277.699999999255,"stimulus":"bees-with-color/bee-B2DM.svg","response":1,"trial_type":"image-button-response","trial_index":135,"time_elapsed":912136,"internal_node_id":"0.0-4.0-0.62","subject_id":"614f6ba261f9a73728ca8fb8","study_id":"60edd13110225f80f9f3709b","session_id":"6196c4a8424c7662daee0e0a","condition":"contingent","relevant_dimensions":["antennae","wings"],"bee_group":{"antennae":"B","wings":"2","pattern":"X","legs":"X"},"action":"avoid","summary":"good-avoid","bonus":0.9400000000000008},{"rt":838.6999999992549,"stimulus":"\n                    <p><b>Action: <em>avoid</em></b></p>\n                    <p>This is the bee that you just saw.</p>\n                    <img src=\"bees-with-color/bee-B2DM.svg\" width=\"200\">\n                    <p><br>Your bonus pay is unchanged, and remains at $0.68.</p>\n            ","response":0,"trial_type":"html-button-response","trial_index":136,"time_elapsed":912976,"internal_node_id":"0.0-4.0-1.62","subject_id":"614f6ba261f9a73728ca8fb8","study_id":"60edd13110225f80f9f3709b","session_id":"6196c4a8424c7662daee0e0a","condition":"contingent","relevant_dimensions":["antennae","wings"],"bee_group":{"antennae":"B","wings":"2","pattern":"X","legs":"X"},"bonus":0.9400000000000008},{"rt":7742.400000002235,"stimulus":"bees-with-color/bee-A2SM.svg","response":0,"trial_type":"image-button-response","trial_index":137,"time_elapsed":920720,"internal_node_id":"0.0-4.0-0.63","subject_id":"614f6ba261f9a73728ca8fb8","study_id":"60edd13110225f80f9f3709b","session_id":"6196c4a8424c7662daee0e0a","condition":"contingent","relevant_dimensions":["antennae","wings"],"bee_group":{"antennae":"B","wings":"2","pattern":"X","legs":"X"},"action":"harvest","summary":"good-harvest","bonus":0.9400000000000008},{"rt":878.6999999992549,"stimulus":"\n                    <p><b>Action: <em>harvest</em></b></p>\n                    <p>This is the bee that you just saw.</p>\n                    <img src=\"bees-with-color/bee-A2SM.svg\" width=\"200\">\n                    <p><span class=\"greenText\"><b>Successful harvest!</b></span><br>Your pay has increased by $0.02. Your bonus pay is now $0.70.</p>\n            ","response":0,"trial_type":"html-button-response","trial_index":138,"time_elapsed":921599,"internal_node_id":"0.0-4.0-1.63","subject_id":"614f6ba261f9a73728ca8fb8","study_id":"60edd13110225f80f9f3709b","session_id":"6196c4a8424c7662daee0e0a","condition":"contingent","relevant_dimensions":["antennae","wings"],"bee_group":{"antennae":"B","wings":"2","pattern":"X","legs":"X"},"bonus":0.9400000000000008},{"rt":5040.89999999851,"stimulus":"You have completed the first part of this experiment.<br><br>You will now begin a shorter second part, in which you will receive no feedback.<br>The same rules regarding bonus pay apply.<br><br>Press any key to begin.","response":"arrowright","trial_type":"html-keyboard-response","trial_index":139,"time_elapsed":926642,"internal_node_id":"0.0-5.0","subject_id":"614f6ba261f9a73728ca8fb8","study_id":"60edd13110225f80f9f3709b","session_id":"6196c4a8424c7662daee0e0a","condition":"contingent","relevant_dimensions":["antennae","wings"],"bee_group":{"antennae":"B","wings":"2","pattern":"X","legs":"X"},"bonus":0.9400000000000008},{"rt":30166.900000002235,"stimulus":"bees-with-color/bee-B2SM.svg","response":1,"trial_type":"image-button-response","trial_index":140,"time_elapsed":956815,"internal_node_id":"0.0-6.0-0.0","subject_id":"614f6ba261f9a73728ca8fb8","study_id":"60edd13110225f80f9f3709b","session_id":"6196c4a8424c7662daee0e0a","condition":"contingent","relevant_dimensions":["antennae","wings"],"bee_group":{"antennae":"B","wings":"2","pattern":"X","legs":"X"},"bonus":0.9400000000000008},{"rt":20292.699999999255,"stimulus":"bees-with-color/bee-A1SF.svg","response":1,"trial_type":"image-button-response","trial_index":141,"time_elapsed":977111,"internal_node_id":"0.0-6.0-0.1","subject_id":"614f6ba261f9a73728ca8fb8","study_id":"60edd13110225f80f9f3709b","session_id":"6196c4a8424c7662daee0e0a","condition":"contingent","relevant_dimensions":["antennae","wings"],"bee_group":{"antennae":"B","wings":"2","pattern":"X","legs":"X"},"bonus":0.9400000000000008},{"rt":15141.5,"stimulus":"bees-with-color/bee-A2SM.svg","response":0,"trial_type":"image-button-response","trial_index":142,"time_elapsed":992255,"internal_node_id":"0.0-6.0-0.2","subject_id":"614f6ba261f9a73728ca8fb8","study_id":"60edd13110225f80f9f3709b","session_id":"6196c4a8424c7662daee0e0a","condition":"contingent","relevant_dimensions":["antennae","wings"],"bee_group":{"antennae":"B","wings":"2","pattern":"X","legs":"X"},"bonus":0.9400000000000008},{"rt":19902,"stimulus":"bees-with-color/bee-B2DM.svg","response":1,"trial_type":"image-button-response","trial_index":143,"time_elapsed":1012159,"internal_node_id":"0.0-6.0-0.3","subject_id":"614f6ba261f9a73728ca8fb8","study_id":"60edd13110225f80f9f3709b","session_id":"6196c4a8424c7662daee0e0a","condition":"contingent","relevant_dimensions":["antennae","wings"],"bee_group":{"antennae":"B","wings":"2","pattern":"X","legs":"X"},"bonus":0.9400000000000008},{"rt":12901,"stimulus":"bees-with-color/bee-A1SM.svg","response":1,"trial_type":"image-button-response","trial_index":144,"time_elapsed":1025063,"internal_node_id":"0.0-6.0-0.4","subject_id":"614f6ba261f9a73728ca8fb8","study_id":"60edd13110225f80f9f3709b","session_id":"6196c4a8424c7662daee0e0a","condition":"contingent","relevant_dimensions":["antennae","wings"],"bee_group":{"antennae":"B","wings":"2","pattern":"X","legs":"X"},"bonus":0.9400000000000008},{"rt":11325.699999999255,"stimulus":"bees-with-color/bee-A2SF.svg","response":0,"trial_type":"image-button-response","trial_index":145,"time_elapsed":1036391,"internal_node_id":"0.0-6.0-0.5","subject_id":"614f6ba261f9a73728ca8fb8","study_id":"60edd13110225f80f9f3709b","session_id":"6196c4a8424c7662daee0e0a","condition":"contingent","relevant_dimensions":["antennae","wings"],"bee_group":{"antennae":"B","wings":"2","pattern":"X","legs":"X"},"bonus":0.9400000000000008},{"rt":10709.300000000745,"stimulus":"bees-with-color/bee-A1DM.svg","response":1,"trial_type":"image-button-response","trial_index":146,"time_elapsed":1047103,"internal_node_id":"0.0-6.0-0.6","subject_id":"614f6ba261f9a73728ca8fb8","study_id":"60edd13110225f80f9f3709b","session_id":"6196c4a8424c7662daee0e0a","condition":"contingent","relevant_dimensions":["antennae","wings"],"bee_group":{"antennae":"B","wings":"2","pattern":"X","legs":"X"},"bonus":0.9400000000000008},{"rt":18701.699999999255,"stimulus":"bees-with-color/bee-A2DF.svg","response":0,"trial_type":"image-button-response","trial_index":147,"time_elapsed":1065807,"internal_node_id":"0.0-6.0-0.7","subject_id":"614f6ba261f9a73728ca8fb8","study_id":"60edd13110225f80f9f3709b","session_id":"6196c4a8424c7662daee0e0a","condition":"contingent","relevant_dimensions":["antennae","wings"],"bee_group":{"antennae":"B","wings":"2","pattern":"X","legs":"X"},"bonus":0.9400000000000008},{"rt":21469.800000000745,"stimulus":"bees-with-color/bee-B1SF.svg","response":0,"trial_type":"image-button-response","trial_index":148,"time_elapsed":1087279,"internal_node_id":"0.0-6.0-0.8","subject_id":"614f6ba261f9a73728ca8fb8","study_id":"60edd13110225f80f9f3709b","session_id":"6196c4a8424c7662daee0e0a","condition":"contingent","relevant_dimensions":["antennae","wings"],"bee_group":{"antennae":"B","wings":"2","pattern":"X","legs":"X"},"bonus":0.9400000000000008},{"rt":3870.099999997765,"stimulus":"bees-with-color/bee-B2SF.svg","response":1,"trial_type":"image-button-response","trial_index":149,"time_elapsed":1091151,"internal_node_id":"0.0-6.0-0.9","subject_id":"614f6ba261f9a73728ca8fb8","study_id":"60edd13110225f80f9f3709b","session_id":"6196c4a8424c7662daee0e0a","condition":"contingent","relevant_dimensions":["antennae","wings"],"bee_group":{"antennae":"B","wings":"2","pattern":"X","legs":"X"},"bonus":0.9400000000000008},{"rt":17582,"stimulus":"bees-with-color/bee-B1DF.svg","response":1,"trial_type":"image-button-response","trial_index":150,"time_elapsed":1108735,"internal_node_id":"0.0-6.0-0.10","subject_id":"614f6ba261f9a73728ca8fb8","study_id":"60edd13110225f80f9f3709b","session_id":"6196c4a8424c7662daee0e0a","condition":"contingent","relevant_dimensions":["antennae","wings"],"bee_group":{"antennae":"B","wings":"2","pattern":"X","legs":"X"},"bonus":0.9400000000000008},{"rt":8109.800000000745,"stimulus":"bees-with-color/bee-B2DF.svg","response":1,"trial_type":"image-button-response","trial_index":151,"time_elapsed":1116847,"internal_node_id":"0.0-6.0-0.11","subject_id":"614f6ba261f9a73728ca8fb8","study_id":"60edd13110225f80f9f3709b","session_id":"6196c4a8424c7662daee0e0a","condition":"contingent","relevant_dimensions":["antennae","wings"],"bee_group":{"antennae":"B","wings":"2","pattern":"X","legs":"X"},"bonus":0.9400000000000008},{"rt":5685.89999999851,"stimulus":"bees-with-color/bee-A2DM.svg","response":1,"trial_type":"image-button-response","trial_index":152,"time_elapsed":1122535,"internal_node_id":"0.0-6.0-0.12","subject_id":"614f6ba261f9a73728ca8fb8","study_id":"60edd13110225f80f9f3709b","session_id":"6196c4a8424c7662daee0e0a","condition":"contingent","relevant_dimensions":["antennae","wings"],"bee_group":{"antennae":"B","wings":"2","pattern":"X","legs":"X"},"bonus":0.9400000000000008},{"rt":7597.89999999851,"stimulus":"bees-with-color/bee-A1DF.svg","response":1,"trial_type":"image-button-response","trial_index":153,"time_elapsed":1130135,"internal_node_id":"0.0-6.0-0.13","subject_id":"614f6ba261f9a73728ca8fb8","study_id":"60edd13110225f80f9f3709b","session_id":"6196c4a8424c7662daee0e0a","condition":"contingent","relevant_dimensions":["antennae","wings"],"bee_group":{"antennae":"B","wings":"2","pattern":"X","legs":"X"},"bonus":0.9400000000000008},{"rt":9693.900000002235,"stimulus":"bees-with-color/bee-B1SM.svg","response":1,"trial_type":"image-button-response","trial_index":154,"time_elapsed":1139831,"internal_node_id":"0.0-6.0-0.14","subject_id":"614f6ba261f9a73728ca8fb8","study_id":"60edd13110225f80f9f3709b","session_id":"6196c4a8424c7662daee0e0a","condition":"contingent","relevant_dimensions":["antennae","wings"],"bee_group":{"antennae":"B","wings":"2","pattern":"X","legs":"X"},"bonus":0.9400000000000008},{"rt":9350,"stimulus":"bees-with-color/bee-B1DM.svg","response":0,"trial_type":"image-button-response","trial_index":155,"time_elapsed":1149183,"internal_node_id":"0.0-6.0-0.15","subject_id":"614f6ba261f9a73728ca8fb8","study_id":"60edd13110225f80f9f3709b","session_id":"6196c4a8424c7662daee0e0a","condition":"contingent","relevant_dimensions":["antennae","wings"],"bee_group":{"antennae":"B","wings":"2","pattern":"X","legs":"X"},"bonus":0.9400000000000008},{"rt":13614.300000000745,"stimulus":"bees-with-color/bee-A2DF.svg","response":0,"trial_type":"image-button-response","trial_index":156,"time_elapsed":1162799,"internal_node_id":"0.0-6.0-0.16","subject_id":"614f6ba261f9a73728ca8fb8","study_id":"60edd13110225f80f9f3709b","session_id":"6196c4a8424c7662daee0e0a","condition":"contingent","relevant_dimensions":["antennae","wings"],"bee_group":{"antennae":"B","wings":"2","pattern":"X","legs":"X"},"bonus":0.9400000000000008},{"rt":15182.10000000149,"stimulus":"bees-with-color/bee-B2DM.svg","response":1,"trial_type":"image-button-response","trial_index":157,"time_elapsed":1177983,"internal_node_id":"0.0-6.0-0.17","subject_id":"614f6ba261f9a73728ca8fb8","study_id":"60edd13110225f80f9f3709b","session_id":"6196c4a8424c7662daee0e0a","condition":"contingent","relevant_dimensions":["antennae","wings"],"bee_group":{"antennae":"B","wings":"2","pattern":"X","legs":"X"},"bonus":0.9400000000000008},{"rt":11662.199999999255,"stimulus":"bees-with-color/bee-A2DM.svg","response":0,"trial_type":"image-button-response","trial_index":158,"time_elapsed":1189647,"internal_node_id":"0.0-6.0-0.18","subject_id":"614f6ba261f9a73728ca8fb8","study_id":"60edd13110225f80f9f3709b","session_id":"6196c4a8424c7662daee0e0a","condition":"contingent","relevant_dimensions":["antennae","wings"],"bee_group":{"antennae":"B","wings":"2","pattern":"X","legs":"X"},"bonus":0.9400000000000008},{"rt":10494.39999999851,"stimulus":"bees-with-color/bee-A1SF.svg","response":1,"trial_type":"image-button-response","trial_index":159,"time_elapsed":1200143,"internal_node_id":"0.0-6.0-0.19","subject_id":"614f6ba261f9a73728ca8fb8","study_id":"60edd13110225f80f9f3709b","session_id":"6196c4a8424c7662daee0e0a","condition":"contingent","relevant_dimensions":["antennae","wings"],"bee_group":{"antennae":"B","wings":"2","pattern":"X","legs":"X"},"bonus":0.9400000000000008},{"rt":10181.5,"stimulus":"bees-with-color/bee-A2SF.svg","response":0,"trial_type":"image-button-response","trial_index":160,"time_elapsed":1210326,"internal_node_id":"0.0-6.0-0.20","subject_id":"614f6ba261f9a73728ca8fb8","study_id":"60edd13110225f80f9f3709b","session_id":"6196c4a8424c7662daee0e0a","condition":"contingent","relevant_dimensions":["antennae","wings"],"bee_group":{"antennae":"B","wings":"2","pattern":"X","legs":"X"},"bonus":0.9400000000000008},{"rt":7214.400000002235,"stimulus":"bees-with-color/bee-A2SM.svg","response":0,"trial_type":"image-button-response","trial_index":161,"time_elapsed":1217543,"internal_node_id":"0.0-6.0-0.21","subject_id":"614f6ba261f9a73728ca8fb8","study_id":"60edd13110225f80f9f3709b",