[{"success":true,"trial_type":"fullscreen","trial_index":0,"time_elapsed":1081559,"internal_node_id":"0.0-0.0","subject_id":"6043c3404bbbc63d3a0c9cb0","study_id":"60edd13110225f80f9f3709b","session_id":"6196c1f7005bd2f579249e3e","condition":"contingent","relevant_dimensions":["antennae","wings"],"bee_group":{"antennae":"A","wings":"2","pattern":"X","legs":"X"},"bonus":0.5000000000000008},{"success":true,"timeout":false,"failed_images":[],"failed_audio":[],"failed_video":[],"trial_type":"preload","trial_index":1,"time_elapsed":1083376,"internal_node_id":"0.0-1.0","subject_id":"6043c3404bbbc63d3a0c9cb0","study_id":"60edd13110225f80f9f3709b","session_id":"6196c1f7005bd2f579249e3e","condition":"contingent","relevant_dimensions":["antennae","wings"],"bee_group":{"antennae":"A","wings":"2","pattern":"X","legs":"X"},"bonus":0.5000000000000008},{"rt":2916.300000011921,"stimulus":"Welcome! Press any key to begin.","response":"enter","trial_type":"html-keyboard-response","trial_index":2,"time_elapsed":1086293,"internal_node_id":"0.0-2.0","subject_id":"6043c3404bbbc63d3a0c9cb0","study_id":"60edd13110225f80f9f3709b","session_id":"6196c1f7005bd2f579249e3e","condition":"contingent","relevant_dimensions":["antennae","wings"],"bee_group":{"antennae":"A","wings":"2","pattern":"X","legs":"X"},"bonus":0.5000000000000008},{"view_history":[{"page_index":0,"viewing_time":6595.199999988079},{"page_index":1,"viewing_time":21603},{"page_index":2,"viewing_time":14090.699999988079},{"page_index":3,"viewing_time":18798.399999976158},{"page_index":4,"viewing_time":12414.700000047684},{"page_index":5,"viewing_time":7372.799999952316},{"page_index":6,"viewing_time":10339.300000011921},{"page_index":7,"viewing_time":4206.600000023842},{"page_index":6,"viewing_time":1794.199999988079},{"page_index":7,"viewing_time":1221},{"page_index":8,"viewing_time":2677.399999976158},{"page_index":9,"viewing_time":5231},{"page_index":8,"viewing_time":201.20000004768372},{"page_index":7,"viewing_time":949.7999999523163},{"page_index":8,"viewing_time":514.2000000476837},{"page_index":9,"viewing_time":672.7999999523163},{"page_index":10,"viewing_time":1533.1000000238419},{"page_index":11,"viewing_time":11611.699999988079},{"page_index":12,"viewing_time":6047.600000023842},{"page_index":13,"viewing_time":1463},{"page_index":14,"viewing_time":2419.300000011921}],"rt":131757.29999995232,"trial_type":"instructions","trial_index":3,"time_elapsed":1218051,"internal_node_id":"0.0-3.0-0.0","subject_id":"6043c3404bbbc63d3a0c9cb0","study_id":"60edd13110225f80f9f3709b","session_id":"6196c1f7005bd2f579249e3e","condition":"contingent","relevant_dimensions":["antennae","wings"],"bee_group":{"antennae":"A","wings":"2","pattern":"X","legs":"X"},"bonus":0.5000000000000008},{"rt":21332.899999976158,"response":{"Q0":["Two or six legs","Stripes or spots on body","Single or double wings","Antennae or no antennae"]},"question_order":[0],"trial_type":"survey-multi-select","trial_index":4,"time_elapsed":1239387,"internal_node_id":"0.0-3.0-1.0","subject_id":"6043c3404bbbc63d3a0c9cb0","study_id":"60edd13110225f80f9f3709b","session_id":"6196c1f7005bd2f579249e3e","condition":"contingent","relevant_dimensions":["antennae","wings"],"bee_group":{"antennae":"A","wings":"2","pattern":"X","legs":"X"},"correct":true,"bonus":0.5000000000000008},{"rt":25238.5,"response":{"Q1":"No.","Q2":"Based on the four features of the bee.","Q3":"You do not learn if it was friendly or dangerous, and do not alter your bonus."},"question_order":[0,1,2],"trial_type":"survey-multi-choice","trial_index":5,"time_elapsed":1264630,"internal_node_id":"0.0-3.0-2.0","subject_id":"6043c3404bbbc63d3a0c9cb0","study_id":"60edd13110225f80f9f3709b","session_id":"6196c1f7005bd2f579249e3e","condition":"contingent","relevant_dimensions":["antennae","wings"],"bee_group":{"antennae":"A","wings":"2","pattern":"X","legs":"X"},"correct":true,"bonus":0.5000000000000008},{"rt":4073.5,"stimulus":"<p>Congrats, you got everything right<br>When you're ready, click the button below to continue to the experiment.</p>","response":0,"trial_type":"html-button-response","trial_index":6,"time_elapsed":1268707,"internal_node_id":"0.0-3.0-3.0","subject_id":"6043c3404bbbc63d3a0c9cb0","study_id":"60edd13110225f80f9f3709b","session_id":"6196c1f7005bd2f579249e3e","condition":"contingent","relevant_dimensions":["antennae","wings"],"bee_group":{"antennae":"A","wings":"2","pattern":"X","legs":"X"},"bonus":0.5000000000000008},{"rt":6276.199999988079,"stimulus":"bees-with-color/bee-A2DF.svg","response":0,"trial_type":"image-button-response","trial_index":7,"time_elapsed":1274985,"internal_node_id":"0.0-4.0-0.0","subject_id":"6043c3404bbbc63d3a0c9cb0","study_id":"60edd13110225f80f9f3709b","session_id":"6196c1f7005bd2f579249e3e","condition":"contingent","relevant_dimensions":["antennae","wings"],"bee_group":{"antennae":"A","wings":"2","pattern":"X","legs":"X"},"action":"harvest","summary":"bad-harvest","bonus":0.5000000000000008},{"rt":14769.300000011921,"stimulus":"\n                    <p><b>Action: <em>harvest</em></b></p>\n                    <p>This is the bee that you just saw.</p>\n                    <img src=\"bees-with-color/bee-A2DF.svg\" width=\"200\">\n                    <p><span class=\"redText\">Bad choice, the bee was angry.</span><br><b>You have been stung!</b><br>Your pay has been decreased by $0.10. Your bonus pay is now $0.44.</p>\n            ","response":0,"trial_type":"html-button-response","trial_index":8,"time_elapsed":1289756,"internal_node_id":"0.0-4.0-1.0","subject_id":"6043c3404bbbc63d3a0c9cb0","study_id":"60edd13110225f80f9f3709b","session_id":"6196c1f7005bd2f579249e3e","condition":"contingent","relevant_dimensions":["antennae","wings"],"bee_group":{"antennae":"A","wings":"2","pattern":"X","legs":"X"},"bonus":0.5000000000000008},{"rt":6110.5,"stimulus":"bees-with-color/bee-B2SF.svg","response":0,"trial_type":"image-button-response","trial_index":9,"time_elapsed":1295868,"internal_node_id":"0.0-4.0-0.1","subject_id":"6043c3404bbbc63d3a0c9cb0","study_id":"60edd13110225f80f9f3709b","session_id":"6196c1f7005bd2f579249e3e","condition":"contingent","relevant_dimensions":["antennae","wings"],"bee_group":{"antennae":"A","wings":"2","pattern":"X","legs":"X"},"action":"harvest","summary":"good-harvest","bonus":0.5000000000000008},{"rt":3432,"stimulus":"\n                    <p><b>Action: <em>harvest</em></b></p>\n                    <p>This is the bee that you just saw.</p>\n                    <img src=\"bees-with-color/bee-B2SF.svg\" width=\"200\">\n                    <p><span class=\"greenText\"><b>Successful harvest!</b></span><br>Your pay has increased by $0.02. Your bonus pay is now $0.46.</p>\n            ","response":0,"trial_type":"html-button-response","trial_index":10,"time_elapsed":1299302,"internal_node_id":"0.0-4.0-1.1","subject_id":"6043c3404bbbc63d3a0c9cb0","study_id":"60edd13110225f80f9f3709b","session_id":"6196c1f7005bd2f579249e3e","condition":"contingent","relevant_dimensions":["antennae","wings"],"bee_group":{"antennae":"A","wings":"2","pattern":"X","legs":"X"},"bonus":0.5000000000000008},{"rt":6202.799999952316,"stimulus":"bees-with-color/bee-A2SM.svg","response":0,"trial_type":"image-button-response","trial_index":11,"time_elapsed":1305506,"internal_node_id":"0.0-4.0-0.2","subject_id":"6043c3404bbbc63d3a0c9cb0","study_id":"60edd13110225f80f9f3709b","session_id":"6196c1f7005bd2f579249e3e","condition":"contingent","relevant_dimensions":["antennae","wings"],"bee_group":{"antennae":"A","wings":"2","pattern":"X","legs":"X"},"action":"harvest","summary":"bad-harvest","bonus":0.5000000000000008},{"rt":5682.600000023842,"stimulus":"\n                    <p><b>Action: <em>harvest</em></b></p>\n                    <p>This is the bee that you just saw.</p>\n                    <img src=\"bees-with-color/bee-A2SM.svg\" width=\"200\">\n                    <p><span class=\"redText\">Bad choice, the bee was angry.</span><br><b>You have been stung!</b><br>Your pay has been decreased by $0.10. Your bonus pay is now $0.36.</p>\n            ","response":0,"trial_type":"html-button-response","trial_index":12,"time_elapsed":1311190,"internal_node_id":"0.0-4.0-1.2","subject_id":"6043c3404bbbc63d3a0c9cb0","study_id":"60edd13110225f80f9f3709b","session_id":"6196c1f7005bd2f579249e3e","condition":"contingent","relevant_dimensions":["antennae","wings"],"bee_group":{"antennae":"A","wings":"2","pattern":"X","legs":"X"},"bonus":0.5000000000000008},{"rt":1415.8999999761581,"stimulus":"bees-with-color/bee-A1DF.svg","response":0,"trial_type":"image-button-response","trial_index":13,"time_elapsed":1312607,"internal_node_id":"0.0-4.0-0.3","subject_id":"6043c3404bbbc63d3a0c9cb0","study_id":"60edd13110225f80f9f3709b","session_id":"6196c1f7005bd2f579249e3e","condition":"contingent","relevant_dimensions":["antennae","wings"],"bee_group":{"antennae":"A","wings":"2","pattern":"X","legs":"X"},"action":"harvest","summary":"good-harvest","bonus":0.5000000000000008},{"rt":1944.9000000357628,"stimulus":"\n                    <p><b>Action: <em>harvest</em></b></p>\n                    <p>This is the bee that you just saw.</p>\n                    <img src=\"bees-with-color/bee-A1DF.svg\" width=\"200\">\n                    <p><span class=\"greenText\"><b>Successful harvest!</b></span><br>Your pay has increased by $0.02. Your bonus pay is now $0.38.</p>\n            ","response":0,"trial_type":"html-button-response","trial_index":14,"time_elapsed":1314553,"internal_node_id":"0.0-4.0-1.3","subject_id":"6043c3404bbbc63d3a0c9cb0","study_id":"60edd13110225f80f9f3709b","session_id":"6196c1f7005bd2f579249e3e","condition":"contingent","relevant_dimensions":["antennae","wings"],"bee_group":{"antennae":"A","wings":"2","pattern":"X","legs":"X"},"bonus":0.5000000000000008},{"rt":2759.199999988079,"stimulus":"bees-with-color/bee-B2DF.svg","response":0,"trial_type":"image-button-response","trial_index":15,"time_elapsed":1317313,"internal_node_id":"0.0-4.0-0.4","subject_id":"6043c3404bbbc63d3a0c9cb0","study_id":"60edd13110225f80f9f3709b","session_id":"6196c1f7005bd2f579249e3e","condition":"contingent","relevant_dimensions":["antennae","wings"],"bee_group":{"antennae":"A","wings":"2","pattern":"X","legs":"X"},"action":"harvest","summary":"good-harvest","bonus":0.5000000000000008},{"rt":1024.8999999761581,"stimulus":"\n                    <p><b>Action: <em>harvest</em></b></p>\n                    <p>This is the bee that you just saw.</p>\n                    <img src=\"bees-with-color/bee-B2DF.svg\" width=\"200\">\n                    <p><span class=\"greenText\"><b>Successful harvest!</b></span><br>Your pay has increased by $0.02. Your bonus pay is now $0.40.</p>\n            ","response":0,"trial_type":"html-button-response","trial_index":16,"time_elapsed":1318340,"internal_node_id":"0.0-4.0-1.4","subject_id":"6043c3404bbbc63d3a0c9cb0","study_id":"60edd13110225f80f9f3709b","session_id":"6196c1f7005bd2f579249e3e","condition":"contingent","relevant_dimensions":["antennae","wings"],"bee_group":{"antennae":"A","wings":"2","pattern":"X","legs":"X"},"bonus":0.5000000000000008},{"rt":6157.099999964237,"stimulus":"bees-with-color/bee-B1DM.svg","response":1,"trial_type":"image-button-response","trial_index":17,"time_elapsed":1324499,"internal_node_id":"0.0-4.0-0.5","subject_id":"6043c3404bbbc63d3a0c9cb0","study_id":"60edd13110225f80f9f3709b","session_id":"6196c1f7005bd2f579249e3e","condition":"contingent","relevant_dimensions":["antennae","wings"],"bee_group":{"antennae":"A","wings":"2","pattern":"X","legs":"X"},"action":"avoid","summary":"bad-avoid","bonus":0.5000000000000008},{"rt":1450.0999999642372,"stimulus":"\n                    <p><b>Action: <em>avoid</em></b></p>\n                    <p>This is the bee that you just saw.</p>\n                    <img src=\"bees-with-color/bee-B1DM.svg\" width=\"200\">\n                    <p><br>Your bonus pay is unchanged, and remains at $0.40.</p>\n            ","response":0,"trial_type":"html-button-response","trial_index":18,"time_elapsed":1325951,"internal_node_id":"0.0-4.0-1.5","subject_id":"6043c3404bbbc63d3a0c9cb0","study_id":"60edd13110225f80f9f3709b","session_id":"6196c1f7005bd2f579249e3e","condition":"contingent","relevant_dimensions":["antennae","wings"],"bee_group":{"antennae":"A","wings":"2","pattern":"X","legs":"X"},"bonus":0.5000000000000008},{"rt":1976.800000011921,"stimulus":"bees-with-color/bee-B2DM.svg","response":0,"trial_type":"image-button-response","trial_index":19,"time_elapsed":1327930,"internal_node_id":"0.0-4.0-0.6","subject_id":"6043c3404bbbc63d3a0c9cb0","study_id":"60edd13110225f80f9f3709b","session_id":"6196c1f7005bd2f579249e3e","condition":"contingent","relevant_dimensions":["antennae","wings"],"bee_group":{"antennae":"A","wings":"2","pattern":"X","legs":"X"},"action":"harvest","summary":"good-harvest","bonus":0.5000000000000008},{"rt":1338.0999999642372,"stimulus":"\n                    <p><b>Action: <em>harvest</em></b></p>\n                    <p>This is the bee that you just saw.</p>\n                    <img src=\"bees-with-color/bee-B2DM.svg\" width=\"200\">\n                    <p><span class=\"greenText\"><b>Successful harvest!</b></span><br>Your pay has increased by $0.02. Your bonus pay is now $0.42.</p>\n            ","response":0,"trial_type":"html-button-response","trial_index":20,"time_elapsed":1329269,"internal_node_id":"0.0-4.0-1.6","subject_id":"6043c3404bbbc63d3a0c9cb0","study_id":"60edd13110225f80f9f3709b","session_id":"6196c1f7005bd2f579249e3e","condition":"contingent","relevant_dimensions":["antennae","wings"],"bee_group":{"antennae":"A","wings":"2","pattern":"X","legs":"X"},"bonus":0.5000000000000008},{"rt":3623,"stimulus":"bees-with-color/bee-A1DM.svg","response":1,"trial_type":"image-button-response","trial_index":21,"time_elapsed":1332894,"internal_node_id":"0.0-4.0-0.7","subject_id":"6043c3404bbbc63d3a0c9cb0","study_id":"60edd13110225f80f9f3709b","session_id":"6196c1f7005bd2f579249e3e","condition":"contingent","relevant_dimensions":["antennae","wings"],"bee_group":{"antennae":"A","wings":"2","pattern":"X","legs":"X"},"action":"avoid","summary":"bad-avoid","bonus":0.5000000000000008},{"rt":1102.9000000357628,"stimulus":"\n                    <p><b>Action: <em>avoid</em></b></p>\n                    <p>This is the bee that you just saw.</p>\n                    <img src=\"bees-with-color/bee-A1DM.svg\" width=\"200\">\n                    <p><br>Your bonus pay is unchanged, and remains at $0.42.</p>\n            ","response":0,"trial_type":"html-button-response","trial_index":22,"time_elapsed":1333998,"internal_node_id":"0.0-4.0-1.7","subject_id":"6043c3404bbbc63d3a0c9cb0","study_id":"60edd13110225f80f9f3709b","session_id":"6196c1f7005bd2f579249e3e","condition":"contingent","relevant_dimensions":["antennae","wings"],"bee_group":{"antennae":"A","wings":"2","pattern":"X","legs":"X"},"bonus":0.5000000000000008},{"rt":1942.300000011921,"stimulus":"bees-with-color/bee-B1SM.svg","response":0,"trial_type":"image-button-response","trial_index":23,"time_elapsed":1335942,"internal_node_id":"0.0-4.0-0.8","subject_id":"6043c3404bbbc63d3a0c9cb0","study_id":"60edd13110225f80f9f3709b","session_id":"6196c1f7005bd2f579249e3e","condition":"contingent","relevant_dimensions":["antennae","wings"],"bee_group":{"antennae":"A","wings":"2","pattern":"X","legs":"X"},"action":"harvest","summary":"good-harvest","bonus":0.5000000000000008},{"rt":1006.7000000476837,"stimulus":"\n                    <p><b>Action: <em>harvest</em></b></p>\n                    <p>This is the bee that you just saw.</p>\n                    <img src=\"bees-with-color/bee-B1SM.svg\" width=\"200\">\n                    <p><span class=\"greenText\"><b>Successful harvest!</b></span><br>Your pay has increased by $0.02. Your bonus pay is now $0.44.</p>\n            ","response":0,"trial_type":"html-button-response","trial_index":24,"time_elapsed":1336950,"internal_node_id":"0.0-4.0-1.8","subject_id":"6043c3404bbbc63d3a0c9cb0","study_id":"60edd13110225f80f9f3709b","session_id":"6196c1f7005bd2f579249e3e","condition":"contingent","relevant_dimensions":["antennae","wings"],"bee_group":{"antennae":"A","wings":"2","pattern":"X","legs":"X"},"bonus":0.5000000000000008},{"rt":2225.899999976158,"stimulus":"bees-with-color/bee-A1SM.svg","response":0,"trial_type":"image-button-response","trial_index":25,"time_elapsed":1339177,"internal_node_id":"0.0-4.0-0.9","subject_id":"6043c3404bbbc63d3a0c9cb0","study_id":"60edd13110225f80f9f3709b","session_id":"6196c1f7005bd2f579249e3e","condition":"contingent","relevant_dimensions":["antennae","wings"],"bee_group":{"antennae":"A","wings":"2","pattern":"X","legs":"X"},"action":"harvest","summary":"good-harvest","bonus":0.5000000000000008},{"rt":765.5999999642372,"stimulus":"\n                    <p><b>Action: <em>harvest</em></b></p>\n                    <p>This is the bee that you just saw.</p>\n                    <img src=\"bees-with-color/bee-A1SM.svg\" width=\"200\">\n                    <p><span class=\"greenText\"><b>Successful harvest!</b></span><br>Your pay has increased by $0.02. Your bonus pay is now $0.46.</p>\n            ","response":0,"trial_type":"html-button-response","trial_index":26,"time_elapsed":1339945,"internal_node_id":"0.0-4.0-1.9","subject_id":"6043c3404bbbc63d3a0c9cb0","study_id":"60edd13110225f80f9f3709b","session_id":"6196c1f7005bd2f579249e3e","condition":"contingent","relevant_dimensions":["antennae","wings"],"bee_group":{"antennae":"A","wings":"2","pattern":"X","legs":"X"},"bonus":0.5000000000000008},{"rt":1580.5,"stimulus":"bees-with-color/bee-B1DF.svg","response":1,"trial_type":"image-button-response","trial_index":27,"time_elapsed":1341527,"internal_node_id":"0.0-4.0-0.10","subject_id":"6043c3404bbbc63d3a0c9cb0","study_id":"60edd13110225f80f9f3709b","session_id":"6196c1f7005bd2f579249e3e","condition":"contingent","relevant_dimensions":["antennae","wings"],"bee_group":{"antennae":"A","wings":"2","pattern":"X","legs":"X"},"action":"avoid","summary":"bad-avoid","bonus":0.5000000000000008},{"rt":759.5,"stimulus":"\n                    <p><b>Action: <em>avoid</em></b></p>\n                    <p>This is the bee that you just saw.</p>\n                    <img src=\"bees-with-color/bee-B1DF.svg\" width=\"200\">\n                    <p><br>Your bonus pay is unchanged, and remains at $0.46.</p>\n            ","response":0,"trial_type":"html-button-response","trial_index":28,"time_elapsed":1342288,"internal_node_id":"0.0-4.0-1.10","subject_id":"6043c3404bbbc63d3a0c9cb0","study_id":"60edd13110225f80f9f3709b","session_id":"6196c1f7005bd2f579249e3e","condition":"contingent","relevant_dimensions":["antennae","wings"],"bee_group":{"antennae":"A","wings":"2","pattern":"X","legs":"X"},"bonus":0.5000000000000008},{"rt":2144,"stimulus":"bees-with-color/bee-A2SF.svg","response":0,"trial_type":"image-button-response","trial_index":29,"time_elapsed":1344434,"internal_node_id":"0.0-4.0-0.11","subject_id":"6043c3404bbbc63d3a0c9cb0","study_id":"60edd13110225f80f9f3709b","session_id":"6196c1f7005bd2f579249e3e","condition":"contingent","relevant_dimensions":["antennae","wings"],"bee_group":{"antennae":"A","wings":"2","pattern":"X","legs":"X"},"action":"harvest","summary":"bad-harvest","bonus":0.5000000000000008},{"rt":1908.199999988079,"stimulus":"\n                    <p><b>Action: <em>harvest</em></b></p>\n                    <p>This is the bee that you just saw.</p>\n                    <img src=\"bees-with-color/bee-A2SF.svg\" width=\"200\">\n                    <p><span class=\"redText\">Bad choice, the bee was angry.</span><br><b>You have been stung!</b><br>Your pay has been decreased by $0.10. Your bonus pay is now $0.36.</p>\n            ","response":0,"trial_type":"html-button-response","trial_index":30,"time_elapsed":1346344,"internal_node_id":"0.0-4.0-1.11","subject_id":"6043c3404bbbc63d3a0c9cb0","study_id":"60edd13110225f80f9f3709b","session_id":"6196c1f7005bd2f579249e3e","condition":"contingent","relevant_dimensions":["antennae","wings"],"bee_group":{"antennae":"A","wings":"2","pattern":"X","legs":"X"},"bonus":0.5000000000000008},{"rt":1387.699999988079,"stimulus":"bees-with-color/bee-A2DM.svg","response":0,"trial_type":"image-button-response","trial_index":31,"time_elapsed":1347733,"internal_node_id":"0.0-4.0-0.12","subject_id":"6043c3404bbbc63d3a0c9cb0","study_id":"60edd13110225f80f9f3709b","session_id":"6196c1f7005bd2f579249e3e","condition":"contingent","relevant_dimensions":["antennae","wings"],"bee_group":{"antennae":"A","wings":"2","pattern":"X","legs":"X"},"action":"harvest","summary":"bad-harvest","bonus":0.5000000000000008},{"rt":898.6999999880791,"stimulus":"\n                    <p><b>Action: <em>harvest</em></b></p>\n                    <p>This is the bee that you just saw.</p>\n                    <img src=\"bees-with-color/bee-A2DM.svg\" width=\"200\">\n                    <p><span class=\"redText\">Bad choice, the bee was angry.</span><br><b>You have been stung!</b><br>Your pay has been decreased by $0.10. Your bonus pay is now $0.26.</p>\n            ","response":0,"trial_type":"html-button-response","trial_index":32,"time_elapsed":1348634,"internal_node_id":"0.0-4.0-1.12","subject_id":"6043c3404bbbc63d3a0c9cb0","study_id":"60edd13110225f80f9f3709b","session_id":"6196c1f7005bd2f579249e3e","condition":"contingent","relevant_dimensions":["antennae","wings"],"bee_group":{"antennae":"A","wings":"2","pattern":"X","legs":"X"},"bonus":0.5000000000000008},{"rt":1022.2999999523163,"stimulus":"bees-with-color/bee-B1SF.svg","response":0,"trial_type":"image-button-response","trial_index":33,"time_elapsed":1349658,"internal_node_id":"0.0-4.0-0.13","subject_id":"6043c3404bbbc63d3a0c9cb0","study_id":"60edd13110225f80f9f3709b","session_id":"6196c1f7005bd2f579249e3e","condition":"contingent","relevant_dimensions":["antennae","wings"],"bee_group":{"antennae":"A","wings":"2","pattern":"X","legs":"X"},"action":"harvest","summary":"good-harvest","bonus":0.5000000000000008},{"rt":624.5999999642372,"stimulus":"\n                    <p><b>Action: <em>harvest</em></b></p>\n                    <p>This is the bee that you just saw.</p>\n                    <img src=\"bees-with-color/bee-B1SF.svg\" width=\"200\">\n                    <p><span class=\"greenText\"><b>Successful harvest!</b></span><br>Your pay has increased by $0.02. Your bonus pay is now $0.28.</p>\n            ","response":0,"trial_type":"html-button-response","trial_index":34,"time_elapsed":1350283,"internal_node_id":"0.0-4.0-1.13","subject_id":"6043c3404bbbc63d3a0c9cb0","study_id":"60edd13110225f80f9f3709b","session_id":"6196c1f7005bd2f579249e3e","condition":"contingent","relevant_dimensions":["antennae","wings"],"bee_group":{"antennae":"A","wings":"2","pattern":"X","legs":"X"},"bonus":0.5000000000000008},{"rt":1238.300000011921,"stimulus":"bees-with-color/bee-A1SF.svg","response":0,"trial_type":"image-button-response","trial_index":35,"time_elapsed":1351523,"internal_node_id":"0.0-4.0-0.14","subject_id":"6043c3404bbbc63d3a0c9cb0","study_id":"60edd13110225f80f9f3709b","session_id":"6196c1f7005bd2f579249e3e","condition":"contingent","relevant_dimensions":["antennae","wings"],"bee_group":{"antennae":"A","wings":"2","pattern":"X","legs":"X"},"action":"harvest","summary":"good-harvest","bonus":0.5000000000000008},{"rt":599.6999999880791,"stimulus":"\n                    <p><b>Action: <em>harvest</em></b></p>\n                    <p>This is the bee that you just saw.</p>\n                    <img src=\"bees-with-color/bee-A1SF.svg\" width=\"200\">\n                    <p><span class=\"greenText\"><b>Successful harvest!</b></span><br>Your pay has increased by $0.02. Your bonus pay is now $0.30.</p>\n            ","response":0,"trial_type":"html-button-response","trial_index":36,"time_elapsed":1352123,"internal_node_id":"0.0-4.0-1.14","subject_id":"6043c3404bbbc63d3a0c9cb0","study_id":"60edd13110225f80f9f3709b","session_id":"6196c1f7005bd2f579249e3e","condition":"contingent","relevant_dimensions":["antennae","wings"],"bee_group":{"antennae":"A","wings":"2","pattern":"X","legs":"X"},"bonus":0.5000000000000008},{"rt":3859.600000023842,"stimulus":"bees-with-color/bee-B2SM.svg","response":1,"trial_type":"image-button-response","trial_index":37,"time_elapsed":1355984,"internal_node_id":"0.0-4.0-0.15","subject_id":"6043c3404bbbc63d3a0c9cb0","study_id":"60edd13110225f80f9f3709b","session_id":"6196c1f7005bd2f579249e3e","condition":"contingent","relevant_dimensions":["antennae","wings"],"bee_group":{"antennae":"A","wings":"2","pattern":"X","legs":"X"},"action":"avoid","summary":"bad-avoid","bonus":0.5000000000000008},{"rt":639.1999999880791,"stimulus":"\n                    <p><b>Action: <em>avoid</em></b></p>\n                    <p>This is the bee that you just saw.</p>\n                    <img src=\"bees-with-color/bee-B2SM.svg\" width=\"200\">\n                    <p><br>Your bonus pay is unchanged, and remains at $0.30.</p>\n            ","response":0,"trial_type":"html-button-response","trial_index":38,"time_elapsed":1356624,"internal_node_id":"0.0-4.0-1.15","subject_id":"6043c3404bbbc63d3a0c9cb0","study_id":"60edd13110225f80f9f3709b","session_id":"6196c1f7005bd2f579249e3e","condition":"contingent","relevant_dimensions":["antennae","wings"],"bee_group":{"antennae":"A","wings":"2","pattern":"X","legs":"X"},"bonus":0.5000000000000008},{"rt":1686.800000011921,"stimulus":"bees-with-color/bee-B2SF.svg","response":0,"trial_type":"image-button-response","trial_index":39,"time_elapsed":1358312,"internal_node_id":"0.0-4.0-0.16","subject_id":"6043c3404bbbc63d3a0c9cb0","study_id":"60edd13110225f80f9f3709b","session_id":"6196c1f7005bd2f579249e3e","condition":"contingent","relevant_dimensions":["antennae","wings"],"bee_group":{"antennae":"A","wings":"2","pattern":"X","legs":"X"},"action":"harvest","summary":"good-harvest","bonus":0.5000000000000008},{"rt":713.1999999880791,"stimulus":"\n                    <p><b>Action: <em>harvest</em></b></p>\n                    <p>This is the bee that you just saw.</p>\n                    <img src=\"bees-with-color/bee-B2SF.svg\" width=\"200\">\n                    <p><span class=\"greenText\"><b>Successful harvest!</b></span><br>Your pay has increased by $0.02. Your bonus pay is now $0.32.</p>\n            ","response":0,"trial_type":"html-button-response","trial_index":40,"time_elapsed":1359027,"internal_node_id":"0.0-4.0-1.16","subject_id":"6043c3404bbbc63d3a0c9cb0","study_id":"60edd13110225f80f9f3709b","session_id":"6196c1f7005bd2f579249e3e","condition":"contingent","relevant_dimensions":["antennae","wings"],"bee_group":{"antennae":"A","wings":"2","pattern":"X","legs":"X"},"bonus":0.5000000000000008},{"rt":2003.2999999523163,"stimulus":"bees-with-color/bee-A2DM.svg","response":1,"trial_type":"image-button-response","trial_index":41,"time_elapsed":1361031,"internal_node_id":"0.0-4.0-0.17","subject_id":"6043c3404bbbc63d3a0c9cb0","study_id":"60edd13110225f80f9f3709b","session_id":"6196c1f7005bd2f579249e3e","condition":"contingent","relevant_dimensions":["antennae","wings"],"bee_group":{"antennae":"A","wings":"2","pattern":"X","legs":"X"},"action":"avoid","summary":"good-avoid","bonus":0.5000000000000008},{"rt":654.6999999880791,"stimulus":"\n                    <p><b>Action: <em>avoid</em></b></p>\n                    <p>This is the bee that you just saw.</p>\n                    <img src=\"bees-with-color/bee-A2DM.svg\" width=\"200\">\n                    <p><br>Your bonus pay is unchanged, and remains at $0.32.</p>\n            ","response":0,"trial_type":"html-button-response","trial_index":42,"time_elapsed":1361687,"internal_node_id":"0.0-4.0-1.17","subject_id":"6043c3404bbbc63d3a0c9cb0","study_id":"60edd13110225f80f9f3709b","session_id":"6196c1f7005bd2f579249e3e","condition":"contingent","relevant_dimensions":["antennae","wings"],"bee_group":{"antennae":"A","wings":"2","pattern":"X","legs":"X"},"bonus":0.5000000000000008},{"rt":2976.300000011921,"stimulus":"bees-with-color/bee-A2SF.svg","response":0,"trial_type":"image-button-response","trial_index":43,"time_elapsed":1364665,"internal_node_id":"0.0-4.0-0.18","subject_id":"6043c3404bbbc63d3a0c9cb0","study_id":"60edd13110225f80f9f3709b","session_id":"6196c1f7005bd2f579249e3e","condition":"contingent","relevant_dimensions":["antennae","wings"],"bee_group":{"antennae":"A","wings":"2","pattern":"X","legs":"X"},"action":"harvest","summary":"bad-harvest","bonus":0.5000000000000008},{"rt":1090.9000000357628,"stimulus":"\n                    <p><b>Action: <em>harvest</em></b></p>\n                    <p>This is the bee that you just saw.</p>\n                    <img src=\"bees-with-color/bee-A2SF.svg\" width=\"200\">\n                    <p><span class=\"redText\">Bad choice, the bee was angry.</span><br><b>You have been stung!</b><br>Your pay has been decreased by $0.10. Your bonus pay is now $0.22.</p>\n            ","response":0,"trial_type":"html-button-response","trial_index":44,"time_elapsed":1365757,"internal_node_id":"0.0-4.0-1.18","subject_id":"6043c3404bbbc63d3a0c9cb0","study_id":"60edd13110225f80f9f3709b","session_id":"6196c1f7005bd2f579249e3e","condition":"contingent","relevant_dimensions":["antennae","wings"],"bee_group":{"antennae":"A","wings":"2","pattern":"X","legs":"X"},"bonus":0.5000000000000008},{"rt":977.6999999880791,"stimulus":"bees-with-color/bee-A1DF.svg","response":0,"trial_type":"image-button-response","trial_index":45,"time_elapsed":1366737,"internal_node_id":"0.0-4.0-0.19","subject_id":"6043c3404bbbc63d3a0c9cb0","study_id":"60edd13110225f80f9f3709b","session_id":"6196c1f7005bd2f579249e3e","condition":"contingent","relevant_dimensions":["antennae","wings"],"bee_group":{"antennae":"A","wings":"2","pattern":"X","legs":"X"},"action":"harvest","summary":"good-harvest","bonus":0.5000000000000008},{"rt":557.9000000357628,"stimulus":"\n                    <p><b>Action: <em>harvest</em></b></p>\n                    <p>This is the bee that you just saw.</p>\n                    <img src=\"bees-with-color/bee-A1DF.svg\" width=\"200\">\n                    <p><span class=\"greenText\"><b>Successful harvest!</b></span><br>Your pay has increased by $0.02. Your bonus pay is now $0.24.</p>\n            ","response":0,"trial_type":"html-button-response","trial_index":46,"time_elapsed":1367296,"internal_node_id":"0.0-4.0-1.19","subject_id":"6043c3404bbbc63d3a0c9cb0","study_id":"60edd13110225f80f9f3709b","session_id":"6196c1f7005bd2f579249e3e","condition":"contingent","relevant_dimensions":["antennae","wings"],"bee_group":{"antennae":"A","wings":"2","pattern":"X","legs":"X"},"bonus":0.5000000000000008},{"rt":1752.199999988079,"stimulus":"bees-with-color/bee-B1DF.svg","response":0,"trial_type":"image-button-response","trial_index":47,"time_elapsed":1369049,"internal_node_id":"0.0-4.0-0.20","subject_id":"6043c3404bbbc63d3a0c9cb0","study_id":"60edd13110225f80f9f3709b","session_id":"6196c1f7005bd2f579249e3e","condition":"contingent","relevant_dimensions":["antennae","wings"],"bee_group":{"antennae":"A","wings":"2","pattern":"X","legs":"X"},"action":"harvest","summary":"good-harvest","bonus":0.5000000000000008},{"rt":666.4000000357628,"stimulus":"\n                    <p><b>Action: <em>harvest</em></b></p>\n                    <p>This is the bee that you just saw.</p>\n                    <img src=\"bees-with-color/bee-B1DF.svg\" width=\"200\">\n                    <p><span class=\"greenText\"><b>Successful harvest!</b></span><br>Your pay has increased by $0.02. Your bonus pay is now $0.26.</p>\n            ","response":0,"trial_type":"html-button-response","trial_index":48,"time_elapsed":1369717,"internal_node_id":"0.0-4.0-1.20","subject_id":"6043c3404bbbc63d3a0c9cb0","study_id":"60edd13110225f80f9f3709b","session_id":"6196c1f7005bd2f579249e3e","condition":"contingent","relevant_dimensions":["antennae","wings"],"bee_group":{"antennae":"A","wings":"2","pattern":"X","legs":"X"},"bonus":0.5000000000000008},{"rt":1843.5,"stimulus":"bees-with-color/bee-B1DM.svg","response":1,"trial_type":"image-button-response","trial_index":49,"time_elapsed":1371561,"internal_node_id":"0.0-4.0-0.21","subject_id":"6043c3404bbbc63d3a0c9cb0","study_id":"60edd13110225f80f9f3709b","session_id":"6196c1f7005bd2f579249e3e","condition":"contingent","relevant_dimensions":["antennae","wings"],"bee_group":{"antennae":"A","wings":"2","pattern":"X","legs":"X"},"action":"avoid","summary":"bad-avoid","bonus":0.5000000000000008},{"rt":487.89999997615814,"stimulus":"\n                    <p><b>Action: <em>avoid</em></b></p>\n                    <p>This is the bee that you just saw.</p>\n                    <img src=\"bees-with-color/bee-B1DM.svg\" width=\"200\">\n                    <p><br>Your bonus pay is unchanged, and remains at $0.26.</p>\n            ","response":0,"trial_type":"html-button-response","trial_index":50,"time_elapsed":1372051,"internal_node_id":"0.0-4.0-1.21","subject_id":"6043c3404bbbc63d3a0c9cb0","study_id":"60edd13110225f80f9f3709b","session_id":"6196c1f7005bd2f579249e3e","condition":"contingent","relevant_dimensions":["antennae","wings"],"bee_group":{"antennae":"A","wings":"2","pattern":"X","legs":"X"},"bonus":0.5000000000000008},{"rt":1959.8999999761581,"stimulus":"bees-with-color/bee-B2DM.svg","response":1,"trial_type":"image-button-response","trial_index":51,"time_elapsed":1374012,"internal_node_id":"0.0-4.0-0.22","subject_id":"6043c3404bbbc63d3a0c9cb0","study_id":"60edd13110225f80f9f3709b","session_id":"6196c1f7005bd2f579249e3e","condition":"contingent","relevant_dimensions":["antennae","wings"],"bee_group":{"antennae":"A","wings":"2","pattern":"X","legs":"X"},"action":"avoid","summary":"bad-avoid","bonus":0.5000000000000008},{"rt":445.60000002384186,"stimulus":"\n                    <p><b>Action: <em>avoid</em></b></p>\n                    <p>This is the bee that you just saw.</p>\n                    <img src=\"bees-with-color/bee-B2DM.svg\" width=\"200\">\n                    <p><br>Your bonus pay is unchanged, and remains at $0.26.</p>\n            ","response":0,"trial_type":"html-button-response","trial_index":52,"time_elapsed":1374459,"internal_node_id":"0.0-4.0-1.22","subject_id":"6043c3404bbbc63d3a0c9cb0","study_id":"60edd13110225f80f9f3709b","session_id":"6196c1f7005bd2f579249e3e","condition":"contingent","relevant_dimensions":["antennae","wings"],"bee_group":{"antennae":"A","wings":"2","pattern":"X","legs":"X"},"bonus":0.5000000000000008},{"rt":1411.8999999761581,"stimulus":"bees-with-color/bee-B1SF.svg","response":0,"trial_type":"image-button-response","trial_index":53,"time_elapsed":1375872,"internal_node_id":"0.0-4.0-0.23","subject_id":"6043c3404bbbc63d3a0c9cb0","study_id":"60edd13110225f80f9f3709b","session_id":"6196c1f7005bd2f579249e3e","condition":"contingent","relevant_dimensions":["antennae","wings"],"bee_group":{"antennae":"A","wings":"2","pattern":"X","legs":"X"},"action":"harvest","summary":"good-harvest","bonus":0.5000000000000008},{"rt":633.6000000238419,"stimulus":"\n                    <p><b>Action: <em>harvest</em></b></p>\n                    <p>This is the bee that you just saw.</p>\n                    <img src=\"bees-with-color/bee-B1SF.svg\" width=\"200\">\n                    <p><span class=\"greenText\"><b>Successful harvest!</b></span><br>Your pay has increased by $0.02. Your bonus pay is now $0.28.</p>\n            ","response":0,"trial_type":"html-button-response","trial_index":54,"time_elapsed":1376507,"internal_node_id":"0.0-4.0-1.23","subject_id":"6043c3404bbbc63d3a0c9cb0","study_id":"60edd13110225f80f9f3709b","session_id":"6196c1f7005bd2f579249e3e","condition":"contingent","relevant_dimensions":["antennae","wings"],"bee_group":{"antennae":"A","wings":"2","pattern":"X","legs":"X"},"bonus":0.5000000000000008},{"rt":1134.800000011921,"stimulus":"bees-with-color/bee-A2SM.svg","response":1,"trial_type":"image-button-response","trial_index":55,"time_elapsed":1377643,"internal_node_id":"0.0-4.0-0.24","subject_id":"6043c3404bbbc63d3a0c9cb0","study_id":"60edd13110225f80f9f3709b","session_id":"6196c1f7005bd2f579249e3e","condition":"contingent","relevant_dimensions":["antennae","wings"],"bee_group":{"antennae":"A","wings":"2","pattern":"X","legs":"X"},"action":"avoid","summary":"good-avoid","bonus":0.5000000000000008},{"rt":516,"stimulus":"\n                    <p><b>Action: <em>avoid</em></b></p>\n                    <p>This is the bee that you just saw.</p>\n                    <img src=\"bees-with-color/bee-A2SM.svg\" width=\"200\">\n                    <p><br>Your bonus pay is unchanged, and remains at $0.28.</p>\n            ","response":0,"trial_type":"html-button-response","trial_index":56,"time_elapsed":1378160,"internal_node_id":"0.0-4.0-1.24","subject_id":"6043c3404bbbc63d3a0c9cb0","study_id":"60edd13110225f80f9f3709b","session_id":"6196c1f7005bd2f579249e3e","condition":"contingent","relevant_dimensions":["antennae","wings"],"bee_group":{"antennae":"A","wings":"2","pattern":"X","legs":"X"},"bonus":0.5000000000000008},{"rt":953.5,"stimulus":"bees-with-color/bee-A1SF.svg","response":0,"trial_type":"image-button-response","trial_index":57,"time_elapsed":1379115,"internal_node_id":"0.0-4.0-0.25","subject_id":"6043c3404bbbc63d3a0c9cb0","study_id":"60edd13110225f80f9f3709b","session_id":"6196c1f7005bd2f579249e3e","condition":"contingent","relevant_dimensions":["antennae","wings"],"bee_group":{"antennae":"A","wings":"2","pattern":"X","legs":"X"},"action":"harvest","summary":"good-harvest","bonus":0.5000000000000008},{"rt":618.9000000357628,"stimulus":"\n                    <p><b>Action: <em>harvest</em></b></p>\n                    <p>This is the bee that you just saw.</p>\n                    <img src=\"bees-with-color/bee-A1SF.svg\" width=\"200\">\n                    <p><span class=\"greenText\"><b>Successful harvest!</b></span><br>Your pay has increased by $0.02. Your bonus pay is now $0.30.</p>\n            ","response":0,"trial_type":"html-button-response","trial_index":58,"time_elapsed":1379735,"internal_node_id":"0.0-4.0-1.25","subject_id":"6043c3404bbbc63d3a0c9cb0","study_id":"60edd13110225f80f9f3709b","session_id":"6196c1f7005bd2f579249e3e","condition":"contingent","relevant_dimensions":["antennae","wings"],"bee_group":{"antennae":"A","wings":"2","pattern":"X","legs":"X"},"bonus":0.5000000000000008},{"rt":1668.5,"stimulus":"bees-with-color/bee-B1SM.svg","response":1,"trial_type":"image-button-response","trial_index":59,"time_elapsed":1381406,"internal_node_id":"0.0-4.0-0.26","subject_id":"6043c3404bbbc63d3a0c9cb0","study_id":"60edd13110225f80f9f3709b","session_id":"6196c1f7005bd2f579249e3e","condition":"contingent","relevant_dimensions":["antennae","wings"],"bee_group":{"antennae":"A","wings":"2","pattern":"X","legs":"X"},"action":"avoid","summary":"bad-avoid","bonus":0.5000000000000008},{"rt":520.5999999642372,"stimulus":"\n                    <p><b>Action: <em>avoid</em></b></p>\n                    <p>This is the bee that you just saw.</p>\n                    <img src=\"bees-with-color/bee-B1SM.svg\" width=\"200\">\n                    <p><br>Your bonus pay is unchanged, and remains at $0.30.</p>\n            ","response":0,"trial_type":"html-button-response","trial_index":60,"time_elapsed":1381927,"internal_node_id":"0.0-4.0-1.26","subject_id":"6043c3404bbbc63d3a0c9cb0","study_id":"60edd13110225f80f9f3709b","session_id":"6196c1f7005bd2f579249e3e","condition":"contingent","relevant_dimensions":["antennae","wings"],"bee_group":{"antennae":"A","wings":"2","pattern":"X","legs":"X"},"bonus":0.5000000000000008},{"rt":1695.0999999642372,"stimulus":"bees-with-color/bee-B2DF.svg","response":0,"trial_type":"image-button-response","trial_index":61,"time_elapsed":1383623,"internal_node_id":"0.0-4.0-0.27","subject_id":"6043c3404bbbc63d3a0c9cb0","study_id":"60edd13110225f80f9f3709b","session_id":"6196c1f7005bd2f579249e3e","condition":"contingent","relevant_dimensions":["antennae","wings"],"bee_group":{"antennae":"A","wings":"2","pattern":"X","legs":"X"},"action":"harvest","summary":"good-harvest","bonus":0.5000000000000008},{"rt":611,"stimulus":"\n                    <p><b>Action: <em>harvest</em></b></p>\n                    <p>This is the bee that you just saw.</p>\n                    <img src=\"bees-with-color/bee-B2DF.svg\" width=\"200\">\n                    <p><span class=\"greenText\"><b>Successful harvest!</b></span><br>Your pay has increased by $0.02. Your bonus pay is now $0.32.</p>\n            ","response":0,"trial_type":"html-button-response","trial_index":62,"time_elapsed":1384235,"internal_node_id":"0.0-4.0-1.27","subject_id":"6043c3404bbbc63d3a0c9cb0","study_id":"60edd13110225f80f9f3709b","session_id":"6196c1f7005bd2f579249e3e","condition":"contingent","relevant_dimensions":["antennae","wings"],"bee_group":{"antennae":"A","wings":"2","pattern":"X","legs":"X"},"bonus":0.5000000000000008},{"rt":1736.3999999761581,"stimulus":"bees-with-color/bee-A1SM.svg","response":1,"trial_type":"image-button-response","trial_index":63,"time_elapsed":1385973,"internal_node_id":"0.0-4.0-0.28","subject_id":"6043c3404bbbc63d3a0c9cb0","study_id":"60edd13110225f80f9f3709b","session_id":"6196c1f7005bd2f579249e3e","condition":"contingent","relevant_dimensions":["antennae","wings"],"bee_group":{"antennae":"A","wings":"2","pattern":"X","legs":"X"},"action":"avoid","summary":"bad-avoid","bonus":0.5000000000000008},{"rt":587.1000000238419,"stimulus":"\n                    <p><b>Action: <em>avoid</em></b></p>\n                    <p>This is the bee that you just saw.</p>\n                    <img src=\"bees-with-color/bee-A1SM.svg\" width=\"200\">\n                    <p><br>Your bonus pay is unchanged, and remains at $0.32.</p>\n            ","response":0,"trial_type":"html-button-response","trial_index":64,"time_elapsed":1386561,"internal_node_id":"0.0-4.0-1.28","subject_id":"6043c3404bbbc63d3a0c9cb0","study_id":"60edd13110225f80f9f3709b","session_id":"6196c1f7005bd2f579249e3e","condition":"contingent","relevant_dimensions":["antennae","wings"],"bee_group":{"antennae":"A","wings":"2","pattern":"X","legs":"X"},"bonus":0.5000000000000008},{"rt":2766.899999976158,"stimulus":"bees-with-color/bee-A2DF.svg","response":0,"trial_type":"image-button-response","trial_index":65,"time_elapsed":1389329,"internal_node_id":"0.0-4.0-0.29","subject_id":"6043c3404bbbc63d3a0c9cb0","study_id":"60edd13110225f80f9f3709b","session_id":"6196c1f7005bd2f579249e3e","condition":"contingent","relevant_dimensions":["antennae","wings"],"bee_group":{"antennae":"A","wings":"2","pattern":"X","legs":"X"},"action":"harvest","summary":"bad-harvest","bonus":0.5000000000000008},{"rt":699.6999999880791,"stimulus":"\n                    <p><b>Action: <em>harvest</em></b></p>\n                    <p>This is the bee that you just saw.</p>\n                    <img src=\"bees-with-color/bee-A2DF.svg\" width=\"200\">\n                    <p><span class=\"redText\">Bad choice, the bee was angry.</span><br><b>You have been stung!</b><br>Your pay has been decreased by $0.10. Your bonus pay is now $0.22.</p>\n            ","response":0,"trial_type":"html-button-response","trial_index":66,"time_elapsed":1390031,"internal_node_id":"0.0-4.0-1.29","subject_id":"6043c3404bbbc63d3a0c9cb0","study_id":"60edd13110225f80f9f3709b","session_id":"6196c1f7005bd2f579249e3e","condition":"contingent","relevant_dimensions":["antennae","wings"],"bee_group":{"antennae":"A","wings":"2","pattern":"X","legs":"X"},"bonus":0.5000000000000008},{"rt":1149.300000011921,"stimulus":"bees-with-color/bee-B2SM.svg","response":1,"trial_type":"image-button-response","trial_index":67,"time_elapsed":1391182,"internal_node_id":"0.0-4.0-0.30","subject_id":"6043c3404bbbc63d3a0c9cb0","study_id":"60edd13110225f80f9f3709b","session_id":"6196c1f7005bd2f579249e3e","condition":"contingent","relevant_dimensions":["antennae","wings"],"bee_group":{"antennae":"A","wings":"2","pattern":"X","legs":"X"},"action":"avoid","summary":"bad-avoid","bonus":0.5000000000000008},{"rt":507.5,"stimulus":"\n                    <p><b>Action: <em>avoid</em></b></p>\n                    <p>This is the bee that you just saw.</p>\n                    <img src=\"bees-with-color/bee-B2SM.svg\" width=\"200\">\n                    <p><br>Your bonus pay is unchanged, and remains at $0.22.</p>\n            ","response":0,"trial_type":"html-button-response","trial_index":68,"time_elapsed":1391691,"internal_node_id":"0.0-4.0-1.30","subject_id":"6043c3404bbbc63d3a0c9cb0","study_id":"60edd13110225f80f9f3709b","session_id":"6196c1f7005bd2f579249e3e","condition":"contingent","relevant_dimensions":["antennae","wings"],"bee_group":{"antennae":"A","wings":"2","pattern":"X","legs":"X"},"bonus":0.5000000000000008},{"rt":1517.800000011921,"stimulus":"bees-with-color/bee-A1DM.svg","response":1,"trial_type":"image-button-response","trial_index":69,"time_elapsed":1393210,"internal_node_id":"0.0-4.0-0.31","subject_id":"6043c3404bbbc63d3a0c9cb0","study_id":"60edd13110225f80f9f3709b","session_id":"6196c1f7005bd2f579249e3e","condition":"contingent","relevant_dimensions":["antennae","wings"],"bee_group":{"antennae":"A","wings":"2","pattern":"X","legs":"X"},"action":"avoid","summary":"bad-avoid","bonus":0.5000000000000008},{"rt":376.4000000357628,"stimulus":"\n                    <p><b>Action: <em>avoid</em></b></p>\n                    <p>This is the bee that you just saw.</p>\n                    <img src=\"bees-with-color/bee-A1DM.svg\" width=\"200\">\n                    <p><br>Your bonus pay is unchanged, and remains at $0.22.</p>\n            ","response":0,"trial_type":"html-button-response","trial_index":70,"time_elapsed":1393587,"internal_node_id":"0.0-4.0-1.31","subject_id":"6043c3404bbbc63d3a0c9cb0","study_id":"60edd13110225f80f9f3709b","session_id":"6196c1f7005bd2f579249e3e","condition":"contingent","relevant_dimensions":["antennae","wings"],"bee_group":{"antennae":"A","wings":"2","pattern":"X","legs":"X"},"bonus":0.5000000000000008},{"rt":848.3000000119209,"stimulus":"bees-with-color/bee-B2DF.svg","response":0,"trial_type":"image-button-response","trial_index":71,"time_elapsed":1394437,"internal_node_id":"0.0-4.0-0.32","subject_id":"6043c3404bbbc63d3a0c9cb0","study_id":"60edd13110225f80f9f3709b","session_id":"6196c1f7005bd2f579249e3e","condition":"contingent","relevant_dimensions":["antennae","wings"],"bee_group":{"antennae":"A","wings":"2","pattern":"X","legs":"X"},"action":"harvest","summary":"good-harvest","bonus":0.5000000000000008},{"rt":578.0999999642372,"stimulus":"\n                    <p><b>Action: <em>harvest</em></b></p>\n                    <p>This is the bee that you just saw.</p>\n                    <img src=\"bees-with-color/bee-B2DF.svg\" width=\"200\">\n                    <p><span class=\"greenText\"><b>Successful harvest!</b></span><br>Your pay has increased by $0.02. Your bonus pay is now $0.24.</p>\n            ","response":0,"trial_type":"html-button-response","trial_index":72,"time_elapsed":1395017,"internal_node_id":"0.0-4.0-1.32","subject_id":"6043c3404bbbc63d3a0c9cb0","study_id":"60edd13110225f80f9f3709b","session_id":"6196c1f7005bd2f579249e3e","condition":"contingent","relevant_dimensions":["antennae","wings"],"bee_group":{"antennae":"A","wings":"2","pattern":"X","legs":"X"},"bonus":0.5000000000000008},{"rt":842.0999999642372,"stimulus":"bees-with-color/bee-A1SF.svg","response":0,"trial_type":"image-button-response","trial_index":73,"time_elapsed":1395861,"internal_node_id":"0.0-4.0-0.33","subject_id":"6043c3404bbbc63d3a0c9cb0","study_id":"60edd13110225f80f9f3709b","session_id":"6196c1f7005bd2f579249e3e","condition":"contingent","relevant_dimensions":["antennae","wings"],"bee_group":{"antennae":"A","wings":"2","pattern":"X","legs":"X"},"action":"harvest","summary":"good-harvest","bonus":0.5000000000000008},{"rt":579.3000000119209,"stimulus":"\n                    <p><b>Action: <em>harvest</em></b></p>\n                    <p>This is the bee that you just saw.</p>\n                    <img src=\"bees-with-color/bee-A1SF.svg\" width=\"200\">\n                    <p><span class=\"greenText\"><b>Successful harvest!</b></span><br>Your pay has increased by $0.02. Your bonus pay is now $0.26.</p>\n            ","response":0,"trial_type":"html-button-response","trial_index":74,"time_elapsed":1396441,"internal_node_id":"0.0-4.0-1.33","subject_id":"6043c3404bbbc63d3a0c9cb0","study_id":"60edd13110225f80f9f3709b","session_id":"6196c1f7005bd2f579249e3e","condition":"contingent","relevant_dimensions":["antennae","wings"],"bee_group":{"antennae":"A","wings":"2","pattern":"X","legs":"X"},"bonus":0.5000000000000008},{"rt":1049.9000000357628,"stimulus":"bees-with-color/bee-B1SF.svg","response":0,"trial_type":"image-button-response","trial_index":75,"time_elapsed":1397492,"internal_node_id":"0.0-4.0-0.34","subject_id":"6043c3404bbbc63d3a0c9cb0","study_id":"60edd13110225f80f9f3709b","session_id":"6196c1f7005bd2f579249e3e","condition":"contingent","relevant_dimensions":["antennae","wings"],"bee_group":{"antennae":"A","wings":"2","pattern":"X","legs":"X"},"action":"harvest","summary":"good-harvest","bonus":0.5000000000000008},{"rt":526.3999999761581,"stimulus":"\n                    <p><b>Action: <em>harvest</em></b></p>\n                    <p>This is the bee that you just saw.</p>\n                    <img src=\"bees-with-color/bee-B1SF.svg\" width=\"200\">\n                    <p><span class=\"greenText\"><b>Successful harvest!</b></span><br>Your pay has increased by $0.02. Your bonus pay is now $0.28.</p>\n            ","response":0,"trial_type":"html-button-response","trial_index":76,"time_elapsed":1398020,"internal_node_id":"0.0-4.0-1.34","subject_id":"6043c3404bbbc63d3a0c9cb0","study_id":"60edd13110225f80f9f3709b","session_id":"6196c1f7005bd2f579249e3e","condition":"contingent","relevant_dimensions":["antennae","wings"],"bee_group":{"antennae":"A","wings":"2","pattern":"X","legs":"X"},"bonus":0.5000000000000008},{"rt":935.1999999880791,"stimulus":"bees-with-color/bee-B2SM.svg","response":1,"trial_type":"image-button-response","trial_index":77,"time_elapsed":1398956,"internal_node_id":"0.0-4.0-0.35","subject_id":"6043c3404bbbc63d3a0c9cb0","study_id":"60edd13110225f80f9f3709b","session_id":"6196c1f7005bd2f579249e3e","condition":"contingent","relevant_dimensions":["antennae","wings"],"bee_group":{"antennae":"A","wings":"2","pattern":"X","legs":"X"},"action":"avoid","summary":"bad-avoid","bonus":0.5000000000000008},{"rt":412,"stimulus":"\n                    <p><b>Action: <em>avoid</em></b></p>\n                    <p>This is the bee that you just saw.</p>\n                    <img src=\"bees-with-color/bee-B2SM.svg\" width=\"200\">\n                    <p><br>Your bonus pay is unchanged, and remains at $0.28.</p>\n            ","response":0,"trial_type":"html-button-response","trial_index":78,"time_elapsed":1399369,"internal_node_id":"0.0-4.0-1.35","subject_id":"6043c3404bbbc63d3a0c9cb0","study_id":"60edd13110225f80f9f3709b","session_id":"6196c1f7005bd2f579249e3e","condition":"contingent","relevant_dimensions":["antennae","wings"],"bee_group":{"antennae":"A","wings":"2","pattern":"X","legs":"X"},"bonus":0.5000000000000008},{"rt":1659.8999999761581,"stimulus":"bees-with-color/bee-A2SF.svg","response":1,"trial_type":"image-button-response","trial_index":79,"time_elapsed":1401031,"internal_node_id":"0.0-4.0-0.36","subject_id":"6043c3404bbbc63d3a0c9cb0","study_id":"60edd13110225f80f9f3709b","session_id":"6196c1f7005bd2f579249e3e","condition":"contingent","relevant_dimensions":["antennae","wings"],"bee_group":{"antennae":"A","wings":"2","pattern":"X","legs":"X"},"action":"avoid","summary":"good-avoid","bonus":0.5000000000000008},{"rt":496.9000000357628,"stimulus":"\n                    <p><b>Action: <em>avoid</em></b></p>\n                    <p>This is the bee that you just saw.</p>\n                    <img src=\"bees-with-color/bee-A2SF.svg\" width=\"200\">\n                    <p><br>Your bonus pay is unchanged, and remains at $0.28.</p>\n            ","response":0,"trial_type":"html-button-response","trial_index":80,"time_elapsed":1401529,"internal_node_id":"0.0-4.0-1.36","subject_id":"6043c3404bbbc63d3a0c9cb0","study_id":"60edd13110225f80f9f3709b","session_id":"6196c1f7005bd2f579249e3e","condition":"contingent","relevant_dimensions":["antennae","wings"],"bee_group":{"antennae":"A","wings":"2","pattern":"X","legs":"X"},"bonus":0.5000000000000008},{"rt":756.5999999642372,"stimulus":"bees-with-color/bee-A2SM.svg","response":1,"trial_type":"image-button-response","trial_index":81,"time_elapsed":1402286,"internal_node_id":"0.0-4.0-0.37","subject_id":"6043c3404bbbc63d3a0c9cb0","study_id":"60edd13110225f80f9f3709b","session_id":"6196c1f7005bd2f579249e3e","condition":"contingent","relevant_dimensions":["antennae","wings"],"bee_group":{"antennae":"A","wings":"2","pattern":"X","legs":"X"},"action":"avoid","summary":"good-avoid","bonus":0.5000000000000008},{"rt":351.30000001192093,"stimulus":"\n                    <p><b>Action: <em>avoid</em></b></p>\n                    <p>This is the bee that you just saw.</p>\n                    <img src=\"bees-with-color/bee-A2SM.svg\" width=\"200\">\n                    <p><br>Your bonus pay is unchanged, and remains at $0.28.</p>\n            ","response":0,"trial_type":"html-button-response","trial_index":82,"time_elapsed":1402639,"internal_node_id":"0.0-4.0-1.37","subject_id":"6043c3404bbbc63d3a0c9cb0","study_id":"60edd13110225f80f9f3709b","session_id":"6196c1f7005bd2f579249e3e","condition":"contingent","relevant_dimensions":["antennae","wings"],"bee_group":{"antennae":"A","wings":"2","pattern":"X","legs":"X"},"bonus":0.5000000000000008},{"rt":851.8000000119209,"stimulus":"bees-with-color/bee-B2DM.svg","response":1,"trial_type":"image-button-response","trial_index":83,"time_elapsed":1403492,"internal_node_id":"0.0-4.0-0.38","subject_id":"6043c3404bbbc63d3a0c9cb0","study_id":"60edd13110225f80f9f3709b","session_id":"6196c1f7005bd2f579249e3e","condition":"contingent","relevant_dimensions":["antennae","wings"],"bee_group":{"antennae":"A","wings":"2","pattern":"X","legs":"X"},"action":"avoid","summary":"bad-avoid","bonus":0.5000000000000008},{"rt":424.80000001192093,"stimulus":"\n                    <p><b>Action: <em>avoid</em></b></p>\n                    <p>This is the bee that you just saw.</p>\n                    <img src=\"bees-with-color/bee-B2DM.svg\" width=\"200\">\n                    <p><br>Your bonus pay is unchanged, and remains at $0.28.</p>\n            ","response":0,"trial_type":"html-button-response","trial_index":84,"time_elapsed":1403918,"internal_node_id":"0.0-4.0-1.38","subject_id":"6043c3404bbbc63d3a0c9cb0","study_id":"60edd13110225f80f9f3709b","session_id":"6196c1f7005bd2f579249e3e","condition":"contingent","relevant_dimensions":["antennae","wings"],"bee_group":{"antennae":"A","wings":"2","pattern":"X","legs":"X"},"bonus":0.5000000000000008},{"rt":969.2000000476837,"stimulus":"bees-with-color/bee-A1DF.svg","response":0,"trial_type":"image-button-response","trial_index":85,"time_elapsed":1404888,"internal_node_id":"0.0-4.0-0.39","subject_id":"6043c3404bbbc63d3a0c9cb0","study_id":"60edd13110225f80f9f3709b","session_id":"6196c1f7005bd2f579249e3e","condition":"contingent","relevant_dimensions":["antennae","wings"],"bee_group":{"antennae":"A","wings":"2","pattern":"X","legs":"X"},"action":"harvest","summary":"good-harvest","bonus":0.5000000000000008},{"rt":464.10000002384186,"stimulus":"\n                    <p><b>Action: <em>harvest</em></b></p>\n                    <p>This is the bee that you just saw.</p>\n                    <img src=\"bees-with-color/bee-A1DF.svg\" width=\"200\">\n                    <p><span class=\"greenText\"><b>Successful harvest!</b></span><br>Your pay has increased by $0.02. Your bonus pay is now $0.30.</p>\n            ","response":0,"trial_type":"html-button-response","trial_index":86,"time_elapsed":1405354,"internal_node_id":"0.0-4.0-1.39","subject_id":"6043c3404bbbc63d3a0c9cb0","study_id":"60edd13110225f80f9f3709b","session_id":"6196c1f7005bd2f579249e3e","condition":"contingent","relevant_dimensions":["antennae","wings"],"bee_group":{"antennae":"A","wings":"2","pattern":"X","legs":"X"},"bonus":0.5000000000000008},{"rt":1203.300000011921,"stimulus":"bees-with-color/bee-A2DF.svg","response":1,"trial_type":"image-button-response","trial_index":87,"time_elapsed":1406559,"internal_node_id":"0.0-4.0-0.40","subject_id":"6043c3404bbbc63d3a0c9cb0","study_id":"60edd13110225f80f9f3709b","session_id":"6196c1f7005bd2f579249e3e","condition":"contingent","relevant_dimensions":["antennae","wings"],"bee_group":{"antennae":"A","wings":"2","pattern":"X","legs":"X"},"action":"avoid","summary":"good-avoid","bonus":0.5000000000000008},{"rt":481.89999997615814,"stimulus":"\n                    <p><b>Action: <em>avoid</em></b></p>\n                    <p>This is the bee that you just saw.</p>\n                    <img src=\"bees-with-color/bee-A2DF.svg\" width=\"200\">\n                    <p><br>Your bonus pay is unchanged, and remains at $0.30.</p>\n            ","response":0,"trial_type":"html-button-response","trial_index":88,"time_elapsed":1407042,"internal_node_id":"0.0-4.0-1.40","subject_id":"6043c3404bbbc63d3a0c9cb0","study_id":"60edd13110225f80f9f3709b","session_id":"6196c1f7005bd2f579249e3e","condition":"contingent","relevant_dimensions":["antennae","wings"],"bee_group":{"antennae":"A","wings":"2","pattern":"X","legs":"X"},"bonus":0.5000000000000008},{"rt":1206.3999999761581,"stimulus":"bees-with-color/bee-A1SM.svg","response":1,"trial_type":"image-button-response","trial_index":89,"time_elapsed":1408249,"internal_node_id":"0.0-4.0-0.41","subject_id":"6043c3404bbbc63d3a0c9cb0","study_id":"60edd13110225f80f9f3709b","session_id":"6196c1f7005bd2f579249e3e","condition":"contingent","relevant_dimensions":["antennae","wings"],"bee_group":{"antennae":"A","wings":"2","pattern":"X","legs":"X"},"action":"avoid","summary":"bad-avoid","bonus":0.5000000000000008},{"rt":671.5,"stimulus":"\n                    <p><b>Action: <em>avoid</em></b></p>\n                    <p>This is the bee that you just saw.</p>\n                    <img src=\"bees-with-color/bee-A1SM.svg\" width=\"200\">\n                    <p><br>Your bonus pay is unchanged, and remains at $0.30.</p>\n            ","response":0,"trial_type":"html-button-response","trial_index":90,"time_elapsed":1408922,"internal_node_id":"0.0-4.0-1.41","subject_id":"6043c3404bbbc63d3a0c9cb0","study_id":"60edd13110225f80f9f3709b","session_id":"6196c1f7005bd2f579249e3e","condition":"contingent","relevant_dimensions":["antennae","wings"],"bee_group":{"antennae":"A","wings":"2","pattern":"X","legs":"X"},"bonus":0.5000000000000008},{"rt":1022.3000000119209,"stimulus":"bees-with-color/bee-A1DM.svg","response":1,"trial_type":"image-button-response","trial_index":91,"time_elapsed":1409945,"internal_node_id":"0.0-4.0-0.42","subject_id":"6043c3404bbbc63d3a0c9cb0","study_id":"60edd13110225f80f9f3709b","session_id":"6196c1f7005bd2f579249e3e","condition":"contingent","relevant_dimensions":["antennae","wings"],"bee_group":{"antennae":"A","wings":"2","pattern":"X","legs":"X"},"action":"avoid","summary":"bad-avoid","bonus":0.5000000000000008},{"rt":348.39999997615814,"stimulus":"\n                    <p><b>Action: <em>avoid</em></b></p>\n                    <p>This is the bee that you just saw.</p>\n                    <img src=\"bees-with-color/bee-A1DM.svg\" width=\"200\">\n                    <p><br>Your bonus pay is unchanged, and remains at $0.30.</p>\n            ","response":0,"trial_type":"html-button-response","trial_index":92,"time_elapsed":1410295,"internal_node_id":"0.0-4.0-1.42","subject_id":"6043c3404bbbc63d3a0c9cb0","study_id":"60edd13110225f80f9f3709b","session_id":"6196c1f7005bd2f579249e3e","condition":"contingent","relevant_dimensions":["antennae","wings"],"bee_group":{"antennae":"A","wings":"2","pattern":"X","legs":"X"},"bonus":0.5000000000000008},{"rt":1640.300000011921,"stimulus":"bees-with-color/bee-B1SM.svg","response":0,"trial_type":"image-button-response","trial_index":93,"time_elapsed":1411936,"internal_node_id":"0.0-4.0-0.43","subject_id":"6043c3404bbbc63d3a0c9cb0","study_id":"60edd13110225f80f9f3709b","session_id":"6196c1f7005bd2f579249e3e","condition":"contingent","relevant_dimensions":["antennae","wings"],"bee_group":{"antennae":"A","wings":"2","pattern":"X","legs":"X"},"action":"harvest","summary":"good-harvest","bonus":0.5000000000000008},{"rt":614.7000000476837,"stimulus":"\n                    <p><b>Action: <em>harvest</em></b></p>\n                    <p>This is the bee that you just saw.</p>\n                    <img src=\"bees-with-color/bee-B1SM.svg\" width=\"200\">\n                    <p><span class=\"greenText\"><b>Successful harvest!</b></span><br>Your pay has increased by $0.02. Your bonus pay is now $0.32.</p>\n            ","response":0,"trial_type":"html-button-response","trial_index":94,"time_elapsed":1412552,"internal_node_id":"0.0-4.0-1.43","subject_id":"6043c3404bbbc63d3a0c9cb0","study_id":"60edd13110225f80f9f3709b","session_id":"6196c1f7005bd2f579249e3e","condition":"contingent","relevant_dimensions":["antennae","wings"],"bee_group":{"antennae":"A","wings":"2","pattern":"X","legs":"X"},"bonus":0.5000000000000008},{"rt":1605.699999988079,"stimulus":"bees-with-color/bee-B2SF.svg","response":0,"trial_type":"image-button-response","trial_index":95,"time_elapsed":1414159,"internal_node_id":"0.0-4.0-0.44","subject_id":"6043c3404bbbc63d3a0c9cb0","study_id":"60edd13110225f80f9f3709b","session_id":"6196c1f7005bd2f579249e3e","condition":"contingent","relevant_dimensions":["antennae","wings"],"bee_group":{"antennae":"A","wings":"2","pattern":"X","legs":"X"},"action":"harvest","summary":"good-harvest","bonus":0.5000000000000008},{"rt":600.3999999761581,"stimulus":"\n                    <p><b>Action: <em>harvest</em></b></p>\n                    <p>This is the bee that you just saw.</p>\n                    <img src=\"bees-with-color/bee-B2SF.svg\" width=\"200\">\n                    <p><span class=\"greenText\"><b>Successful harvest!</b></span><br>Your pay has increased by $0.02. Your bonus pay is now $0.34.</p>\n            ","response":0,"trial_type":"html-button-response","trial_index":96,"time_elapsed":1414761,"internal_node_id":"0.0-4.0-1.44","subject_id":"6043c3404bbbc63d3a0c9cb0","study_id":"60edd13110225f80f9f3709b","session_id":"6196c1f7005bd2f579249e3e","condition":"contingent","relevant_dimensions":["antennae","wings"],"bee_group":{"antennae":"A","wings":"2","pattern":"X","legs":"X"},"bonus":0.5000000000000008},{"rt":907,"stimulus":"bees-with-color/bee-A2DM.svg","response":1,"trial_type":"image-button-response","trial_index":97,"time_elapsed":1415669,"internal_node_id":"0.0-4.0-0.45","subject_id":"6043c3404bbbc63d3a0c9cb0","study_id":"60edd13110225f80f9f3709b","session_id":"6196c1f7005bd2f579249e3e","condition":"contingent","relevant_dimensions":["antennae","wings"],"bee_group":{"antennae":"A","wings":"2","pattern":"X","legs":"X"},"action":"avoid","summary":"good-avoid","bonus":0.5000000000000008},{"rt":322.30000001192093,"stimulus":"\n                    <p><b>Action: <em>avoid</em></b></p>\n                    <p>This is the bee that you just saw.</p>\n                    <img src=\"bees-with-color/bee-A2DM.svg\" width=\"200\">\n                    <p><br>Your bonus pay is unchanged, and remains at $0.34.</p>\n            ","response":0,"trial_type":"html-button-response","trial_index":98,"time_elapsed":1415993,"internal_node_id":"0.0-4.0-1.45","subject_id":"6043c3404bbbc63d3a0c9cb0","study_id":"60edd13110225f80f9f3709b","session_id":"6196c1f7005bd2f579249e3e","condition":"contingent","relevant_dimensions":["antennae","wings"],"bee_group":{"antennae":"A","wings":"2","pattern":"X","legs":"X"},"bonus":0.5000000000000008},{"rt":1198.7999999523163,"stimulus":"bees-with-color/bee-B1DF.svg","response":0,"trial_type":"image-button-response","trial_index":99,"time_elapsed":1417193,"internal_node_id":"0.0-4.0-0.46","subject_id":"6043c3404bbbc63d3a0c9cb0","study_id":"60edd13110225f80f9f3709b","session_id":"6196c1f7005bd2f579249e3e","condition":"contingent","relevant_dimensions":["antennae","wings"],"bee_group":{"antennae":"A","wings":"2","pattern":"X","legs":"X"},"action":"harvest","summary":"good-harvest","bonus":0.5000000000000008},{"rt":806,"stimulus":"\n                    <p><b>Action: <em>harvest</em></b></p>\n                    <p>This is the bee that you just saw.</p>\n                    <img src=\"bees-with-color/bee-B1DF.svg\" width=\"200\">\n                    <p><span class=\"greenText\"><b>Successful harvest!</b></span><br>Your pay has increased by $0.02. Your bonus pay is now $0.36.</p>\n            ","response":0,"trial_type":"html-button-response","trial_index":100,"time_elapsed":1418001,"internal_node_id":"0.0-4.0-1.46","subject_id":"6043c3404bbbc63d3a0c9cb0","study_id":"60edd13110225f80f9f3709b","session_id":"6196c1f7005bd2f579249e3e","condition":"contingent","relevant_dimensions":["antennae","wings"],"bee_group":{"antennae":"A","wings":"2","pattern":"X","legs":"X"},"bonus":0.5000000000000008},{"rt":917.9000000357628,"stimulus":"bees-with-color/bee-B1DM.svg","response":1,"trial_type":"image-button-response","trial_index":101,"time_elapsed":1418920,"internal_node_id":"0.0-4.0-0.47","subject_id":"6043c3404bbbc63d3a0c9cb0","study_id":"60edd13110225f80f9f3709b","session_id":"6196c1f7005bd2f579249e3e","condition":"contingent","relevant_dimensions":["antennae","wings"],"bee_group":{"antennae":"A","wings":"2","pattern":"X","legs":"X"},"action":"avoid","summary":"bad-avoid","bonus":0.5000000000000008},{"rt":379.0999999642372,"stimulus":"\n                    <p><b>Action: <em>avoid</em></b></p>\n                    <p>This is the bee that you just saw.</p>\n                    <img src=\"bees-with-color/bee-B1DM.svg\" width=\"200\">\n                    <p><br>Your bonus pay is unchanged, and remains at $0.36.</p>\n            ","response":0,"trial_type":"html-button-response","trial_index":102,"time_elapsed":1419301,"internal_node_id":"0.0-4.0-1.47","subject_id":"6043c3404bbbc63d3a0c9cb0","study_id":"60edd13110225f80f9f3709b","session_id":"6196c1f7005bd2f579249e3e","condition":"contingent","relevant_dimensions":["antennae","wings"],"bee_group":{"antennae":"A","wings":"2","pattern":"X","legs":"X"},"bonus":0.5000000000000008},{"rt":769.5,"stimulus":"bees-with-color/bee-A2SM.svg","response":1,"trial_type":"image-button-response","trial_index":103,"time_elapsed":1420072,"internal_node_id":"0.0-4.0-0.48","subject_id":"6043c3404bbbc63d3a0c9cb0","study_id":"60edd13110225f80f9f3709b","session_id":"6196c1f7005bd2f579249e3e","condition":"contingent","relevant_dimensions":["antennae","wings"],"bee_group":{"antennae":"A","wings":"2","pattern":"X","legs":"X"},"action":"avoid","summary":"good-avoid","bonus":0.5000000000000008},{"rt":322.5,"stimulus":"\n                    <p><b>Action: <em>avoid</em></b></p>\n                    <p>This is the bee that you just saw.</p>\n                    <img src=\"bees-with-color/bee-A2SM.svg\" width=\"200\">\n                    <p><br>Your bonus pay is unchanged, and remains at $0.36.</p>\n            ","response":0,"trial_type":"html-button-response","trial_index":104,"time_elapsed":1420396,"internal_node_id":"0.0-4.0-1.48","subject_id":"6043c3404bbbc63d3a0c9cb0","study_id":"60edd13110225f80f9f3709b","session_id":"6196c1f7005bd2f579249e3e","condition":"contingent","relevant_dimensions":["antennae","wings"],"bee_group":{"antennae":"A","wings":"2","pattern":"X","legs":"X"},"bonus":0.5000000000000008},{"rt":849.6999999880791,"stimulus":"bees-with-color/bee-A1SF.svg","response":0,"trial_type":"image-button-response","trial_index":105,"time_elapsed":1421246,"internal_node_id":"0.0-4.0-0.49","subject_id":"6043c3404bbbc63d3a0c9cb0","study_id":"60edd13110225f80f9f3709b","session_id":"6196c1f7005bd2f579249e3e","condition":"contingent","relevant_dimensions":["antennae","wings"],"bee_group":{"antennae":"A","wings":"2","pattern":"X","legs":"X"},"action":"harvest","summary":"good-harvest","bonus":0.5000000000000008},{"rt":468.19999998807907,"stimulus":"\n                    <p><b>Action: <em>harvest</em></b></p>\n                    <p>This is the bee that you just saw.</p>\n                    <img src=\"bees-with-color/bee-A1SF.svg\" width=\"200\">\n                    <p><span class=\"greenText\"><b>Successful harvest!</b></span><br>Your pay has increased by $0.02. Your bonus pay is now $0.38.</p>\n            ","response":0,"trial_type":"html-button-response","trial_index":106,"time_elapsed":1421716,"internal_node_id":"0.0-4.0-1.49","subject_id":"6043c3404bbbc63d3a0c9cb0","study_id":"60edd13110225f80f9f3709b","session_id":"6196c1f7005bd2f579249e3e","condition":"contingent","relevant_dimensions":["antennae","wings"],"bee_group":{"antennae":"A","wings":"2","pattern":"X","legs":"X"},"bonus":0.5000000000000008},{"rt":3273.199999988079,"stimulus":"bees-with-color/bee-B2DF.svg","response":0,"trial_type":"image-button-response","trial_index":107,"time_elapsed":1424990,"internal_node_id":"0.0-4.0-0.50","subject_id":"6043c3404bbbc63d3a0c9cb0","study_id":"60edd13110225f80f9f3709b","session_id":"6196c1f7005bd2f579249e3e","condition":"contingent","relevant_dimensions":["antennae","wings"],"bee_group":{"antennae":"A","wings":"2","pattern":"X","legs":"X"},"action":"harvest","summary":"good-harvest","bonus":0.5000000000000008},{"rt":732.9000000357628,"stimulus":"\n                    <p><b>Action: <em>harvest</em></b></p>\n                    <p>This is the bee that you just saw.</p>\n                    <img src=\"bees-with-color/bee-B2DF.svg\" width=\"200\">\n                    <p><span class=\"greenText\"><b>Successful harvest!</b></span><br>Your pay has increased by $0.02. Your bonus pay is now $0.40.</p>\n            ","response":0,"trial_type":"html-button-response","trial_index":108,"time_elapsed":1425724,"internal_node_id":"0.0-4.0-1.50","subject_id":"6043c3404bbbc63d3a0c9cb0","study_id":"60edd13110225f80f9f3709b","session_id":"6196c1f7005bd2f579249e3e","condition":"contingent","relevant_dimensions":["antennae","wings"],"bee_group":{"antennae":"A","wings":"2","pattern":"X","legs":"X"},"bonus":0.5000000000000008},{"rt":1445,"stimulus":"bees-with-color/bee-A2SF.svg","response":1,"trial_type":"image-button-response","trial_index":109,"time_elapsed":1427170,"internal_node_id":"0.0-4.0-0.51","subject_id":"6043c3404bbbc63d3a0c9cb0","study_id":"60edd13110225f80f9f3709b","session_id":"6196c1f7005bd2f579249e3e","condition":"contingent","relevant_dimensions":["antennae","wings"],"bee_group":{"antennae":"A","wings":"2","pattern":"X","legs":"X"},"action":"avoid","summary":"good-avoid","bonus":0.5000000000000008},{"rt":421.80000001192093,"stimulus":"\n                    <p><b>Action: <em>avoid</em></b></p>\n                    <p>This is the bee that you just saw.</p>\n                    <img src=\"bees-with-color/bee-A2SF.svg\" width=\"200\">\n                    <p><br>Your bonus pay is unchanged, and remains at $0.40.</p>\n            ","response":0,"trial_type":"html-button-response","trial_index":110,"time_elapsed":1427593,"internal_node_id":"0.0-4.0-1.51","subject_id":"6043c3404bbbc63d3a0c9cb0","study_id":"60edd13110225f80f9f3709b","session_id":"6196c1f7005bd2f579249e3e","condition":"contingent","relevant_dimensions":["antennae","wings"],"bee_group":{"antennae":"A","wings":"2","pattern":"X","legs":"X"},"bonus":0.5000000000000008},{"rt":909,"stimulus":"bees-with-color/bee-A1DM.svg","response":1,"trial_type":"image-button-response","trial_index":111,"time_elapsed":1428503,"internal_node_id":"0.0-4.0-0.52","subject_id":"6043c3404bbbc63d3a0c9cb0","study_id":"60edd13110225f80f9f3709b","session_id":"6196c1f7005bd2f579249e3e","condition":"contingent","relevant_dimensions":["antennae","wings"],"bee_group":{"antennae":"A","wings":"2","pattern":"X","legs":"X"},"action":"avoid","summary":"bad-avoid","bonus":0.5000000000000008},{"rt":289,"stimulus":"\n                    <p><b>Action: <em>avoid</em></b></p>\n                    <p>This is the bee that you just saw.</p>\n                    <img src=\"bees-with-color/bee-A1DM.svg\" width=\"200\">\n                    <p><br>Your bonus pay is unchanged, and remains at $0.40.</p>\n            ","response":0,"trial_type":"html-button-response","trial_index":112,"time_elapsed":1428793,"internal_node_id":"0.0-4.0-1.52","subject_id":"6043c3404bbbc63d3a0c9cb0","study_id":"60edd13110225f80f9f3709b","session_id":"6196c1f7005bd2f579249e3e","condition":"contingent","relevant_dimensions":["antennae","wings"],"bee_group":{"antennae":"A","wings":"2","pattern":"X","legs":"X"},"bonus":0.5000000000000008},{"rt":1081.300000011921,"stimulus":"bees-with-color/bee-B2DM.svg","response":1,"trial_type":"image-button-response","trial_index":113,"time_elapsed":1429876,"internal_node_id":"0.0-4.0-0.53","subject_id":"6043c3404bbbc63d3a0c9cb0","study_id":"60edd13110225f80f9f3709b","session_id":"6196c1f7005bd2f579249e3e","condition":"contingent","relevant_dimensions":["antennae","wings"],"bee_group":{"antennae":"A","wings":"2","pattern":"X","legs":"X"},"action":"avoid","summary":"bad-avoid","bonus":0.5000000000000008},{"rt":277.5,"stimulus":"\n                    <p><b>Action: <em>avoid</em></b></p>\n                    <p>This is the bee that you just saw.</p>\n                    <img src=\"bees-with-color/bee-B2DM.svg\" width=\"200\">\n                    <p><br>Your bonus pay is unchanged, and remains at $0.40.</p>\n            ","response":0,"trial_type":"html-button-response","trial_index":114,"time_elapsed":1430155,"internal_node_id":"0.0-4.0-1.53","subject_id":"6043c3404bbbc63d3a0c9cb0","study_id":"60edd13110225f80f9f3709b","session_id":"6196c1f7005bd2f579249e3e","condition":"contingent","relevant_dimensions":["antennae","wings"],"bee_group":{"antennae":"A","wings":"2","pattern":"X","legs":"X"},"bonus":0.5000000000000008},{"rt":1246.6000000238419,"stimulus":"bees-with-color/bee-B1SM.svg","response":0,"trial_type":"image-button-response","trial_index":115,"time_elapsed":1431402,"internal_node_id":"0.0-4.0-0.54","subject_id":"6043c3404bbbc63d3a0c9cb0","study_id":"60edd13110225f80f9f3709b","session_id":"6196c1f7005bd2f579249e3e","condition":"contingent","relevant_dimensions":["antennae","wings"],"bee_group":{"antennae":"A","wings":"2","pattern":"X","legs":"X"},"action":"harvest","summary":"good-harvest","bonus":0.5000000000000008},{"rt":646,"stimulus":"\n                    <p><b>Action: <em>harvest</em></b></p>\n                    <p>This is the bee that you just saw.</p>\n                    <img src=\"bees-with-color/bee-B1SM.svg\" width=\"200\">\n                    <p><span class=\"greenText\"><b>Successful harvest!</b></span><br>Your pay has increased by $0.02. Your bonus pay is now $0.42.</p>\n            ","response":0,"trial_type":"html-button-response","trial_index":116,"time_elapsed":1432050,"internal_node_id":"0.0-4.0-1.54","subject_id":"6043c3404bbbc63d3a0c9cb0","study_id":"60edd13110225f80f9f3709b","session_id":"6196c1f7005bd2f579249e3e","condition":"contingent","relevant_dimensions":["antennae","wings"],"bee_group":{"antennae":"A","wings":"2","pattern":"X","legs":"X"},"bonus":0.5000000000000008},{"rt":1895.1000000238419,"stimulus":"bees-with-color/bee-B1DM.svg","response":1,"trial_type":"image-button-response","trial_index":117,"time_elapsed":1433946,"internal_node_id":"0.0-4.0-0.55","subject_id":"6043c3404bbbc63d3a0c9cb0","study_id":"60edd13110225f80f9f3709b","session_id":"6196c1f7005bd2f579249e3e","condition":"contingent","relevant_dimensions":["antennae","wings"],"bee_group":{"antennae":"A","wings":"2","pattern":"X","legs":"X"},"action":"avoid","summary":"bad-avoid","bonus":0.5000000000000008},{"rt":289.30000001192093,"stimulus":"\n                    <p><b>Action: <em>avoid</em></b></p>\n                    <p>This is the bee that you just saw.</p>\n                    <img src=\"bees-with-color/bee-B1DM.svg\" width=\"200\">\n                    <p><br>Your bonus pay is unchanged, and remains at $0.42.</p>\n            ","response":0,"trial_type":"html-button-response","trial_index":118,"time_elapsed":1434236,"internal_node_id":"0.0-4.0-1.55","subject_id":"6043c3404bbbc63d3a0c9cb0","study_id":"60edd13110225f80f9f3709b","session_id":"6196c1f7005bd2f579249e3e","condition":"contingent","relevant_dimensions":["antennae","wings"],"bee_group":{"antennae":"A","wings":"2","pattern":"X","legs":"X"},"bonus":0.5000000000000008},{"rt":1019.1000000238419,"stimulus":"bees-with-color/bee-B2SM.svg","response":1,"trial_type":"image-button-response","trial_index":119,"time_elapsed":1435257,"internal_node_id":"0.0-4.0-0.56","subject_id":"6043c3404bbbc63d3a0c9cb0","study_id":"60edd13110225f80f9f3709b","session_id":"6196c1f7005bd2f579249e3e","condition":"contingent","relevant_dimensions":["antennae","wings"],"bee_group":{"antennae":"A","wings":"2","pattern":"X","legs":"X"},"action":"avoid","summary":"bad-avoid","bonus":0.5000000000000008},{"rt":212.39999997615814,"stimulus":"\n                    <p><b>Action: <em>avoid</em></b></p>\n                    <p>This is the bee that you just saw.</p>\n                    <img src=\"bees-with-color/bee-B2SM.svg\" width=\"200\">\n                    <p><br>Your bonus pay is unchanged, and remains at $0.42.</p>\n            ","response":0,"trial_type":"html-button-response","trial_index":120,"time_elapsed":1435470,"internal_node_id":"0.0-4.0-1.56","subject_id":"6043c3404bbbc63d3a0c9cb0","study_id":"60edd13110225f80f9f3709b","session_id":"6196c1f7005bd2f579249e3e","condition":"contingent","relevant_dimensions":["antennae","wings"],"bee_group":{"antennae":"A","wings":"2","pattern":"X","legs":"X"},"bonus":0.5000000000000008},{"rt":1325.5,"stimulus":"bees-with-color/bee-A2DF.svg","response":0,"trial_type":"image-button-response","trial_index":121,"time_elapsed":1436797,"internal_node_id":"0.0-4.0-0.57","subject_id":"6043c3404bbbc63d3a0c9cb0","study_id":"60edd13110225f80f9f3709b","session_id":"6196c1f7005bd2f579249e3e","condition":"contingent","relevant_dimensions":["antennae","wings"],"bee_group":{"antennae":"A","wings":"2","pattern":"X","legs":"X"},"action":"harvest","summary":"bad-harvest","bonus":0.5000000000000008},{"rt":939.8999999761581,"stimulus":"\n                    <p><b>Action: <em>harvest</em></b></p>\n                    <p>This is the bee that you just saw.</p>\n                    <img src=\"bees-with-color/bee-A2DF.svg\" width=\"200\">\n                    <p><span class=\"redText\">Bad choice, the bee was angry.</span><br><b>You have been stung!</b><br>Your pay has been decreased by $0.10. Your bonus pay is now $0.32.</p>\n            ","response":0,"trial_type":"html-button-response","trial_index":122,"time_elapsed":1437739,"internal_node_id":"0.0-4.0-1.57","subject_id":"6043c3404bbbc63d3a0c9cb0","study_id":"60edd13110225f80f9f3709b","session_id":"6196c1f7005bd2f579249e3e","condition":"contingent","relevant_dimensions":["antennae","wings"],"bee_group":{"antennae":"A","wings":"2","pattern":"X","legs":"X"},"bonus":0.5000000000000008},{"rt":991.6999999880791,"stimulus":"bees-with-color/bee-A1DF.svg","response":0,"trial_type":"image-button-response","trial_index":123,"time_elapsed":1438732,"internal_node_id":"0.0-4.0-0.58","subject_id":"6043c3404bbbc63d3a0c9cb0","study_id":"60edd13110225f80f9f3709b","session_id":"6196c1f7005bd2f579249e3e","condition":"contingent","relevant_dimensions":["antennae","wings"],"bee_group":{"antennae":"A","wings":"2","pattern":"X","legs":"X"},"action":"harvest","summary":"good-harvest","bonus":0.5000000000000008},{"rt":465.30000001192093,"stimulus":"\n                    <p><b>Action: <em>harvest</em></b></p>\n                    <p>This is the bee that you just saw.</p>\n                    <img src=\"bees-with-color/bee-A1DF.svg\" width=\"200\">\n                    <p><span class=\"greenText\"><b>Successful harvest!</b></span><br>Your pay has increased by $0.02. Your bonus pay is now $0.34.</p>\n            ","response":0,"trial_type":"html-button-response","trial_index":124,"time_elapsed":1439199,"internal_node_id":"0.0-4.0-1.58","subject_id":"6043c3404bbbc63d3a0c9cb0","study_id":"60edd13110225f80f9f3709b","session_id":"6196c1f7005bd2f579249e3e","condition":"contingent","relevant_dimensions":["antennae","wings"],"bee_group":{"antennae":"A","wings":"2","pattern":"X","legs":"X"},"bonus":0.5000000000000008},{"rt":747.5,"stimulus":"bees-with-color/bee-A2DM.svg","response":1,"trial_type":"image-button-response","trial_index":125,"time_elapsed":1439948,"internal_node_id":"0.0-4.0-0.59","subject_id":"6043c3404bbbc63d3a0c9cb0","study_id":"60edd13110225f80f9f3709b","session_id":"6196c1f7005bd2f579249e3e","condition":"contingent","relevant_dimensions":["antennae","wings"],"bee_group":{"antennae":"A","wings":"2","pattern":"X","legs":"X"},"action":"avoid","summary":"good-avoid","bonus":0.5000000000000008},{"rt":269.80000001192093,"stimulus":"\n                    <p><b>Action: <em>avoid</em></b></p>\n                    <p>This is the bee that you just saw.</p>\n                    <img src=\"bees-with-color/bee-A2DM.svg\" width=\"200\">\n                    <p><br>Your bonus pay is unchanged, and remains at $0.34.</p>\n            ","response":0,"trial_type":"html-button-response","trial_index":126,"time_elapsed":1440219,"internal_node_id":"0.0-4.0-1.59","subject_id":"6043c3404bbbc63d3a0c9cb0","study_id":"60edd13110225f80f9f3709b","session_id":"6196c1f7005bd2f579249e3e","condition":"contingent","relevant_dimensions":["antennae","wings"],"bee_group":{"antennae":"A","wings":"2","pattern":"X","legs":"X"},"bonus":0.5000000000000008},{"rt":1017.4000000357628,"stimulus":"bees-with-color/bee-A1SM.svg","response":1,"trial_type":"image-button-response","trial_index":127,"time_elapsed":1441237,"internal_node_id":"0.0-4.0-0.60","subject_id":"6043c3404bbbc63d3a0c9cb0","study_id":"60edd13110225f80f9f3709b","session_id":"6196c1f7005bd2f579249e3e","condition":"contingent","relevant_dimensions":["antennae","wings"],"bee_group":{"antennae":"A","wings":"2","pattern":"X","legs":"X"},"action":"avoid","summary":"bad-avoid","bonus":0.5000000000000008},{"rt":593.1000000238419,"stimulus":"\n                    <p><b>Action: <em>avoid</em></b></p>\n                    <p>This is the bee that you just saw.</p>\n                    <img src=\"bees-with-color/bee-A1SM.svg\" width=\"200\">\n                    <p><br>Your bonus pay is unchanged, and remains at $0.34.</p>\n            ","response":0,"trial_type":"html-button-response","trial_index":128,"time_elapsed":1441832,"internal_node_id":"0.0-4.0-1.60","subject_id":"6043c3404bbbc63d3a0c9cb0","study_id":"60edd13110225f80f9f3709b","session_id":"6196c1f7005bd2f579249e3e","condition":"contingent","relevant_dimensions":["antennae","wings"],"bee_group":{"antennae":"A","wings":"2","pattern":"X","legs":"X"},"bonus":0.5000000000000008},{"rt":982.6000000238419,"stimulus":"bees-with-color/bee-B1SF.svg","response":0,"trial_type":"image-button-response","trial_index":129,"time_elapsed":1442815,"internal_node_id":"0.0-4.0-0.61","subject_id":"6043c3404bbbc63d3a0c9cb0","study_id":"60edd13110225f80f9f3709b","session_id":"6196c1f7005bd2f579249e3e","condition":"contingent","relevant_dimensions":["antennae","wings"],"bee_group":{"antennae":"A","wings":"2","pattern":"X","legs":"X"},"action":"harvest","summary":"good-harvest","bonus":0.5000000000000008},{"rt":389.5,"stimulus":"\n                    <p><b>Action: <em>harvest</em></b></p>\n                    <p>This is the bee that you just saw.</p>\n                    <img src=\"bees-with-color/bee-B1SF.svg\" width=\"200\">\n                    <p><span class=\"greenText\"><b>Successful harvest!</b></span><br>Your pay has increased by $0.02. Your bonus pay is now $0.36.</p>\n            ","response":0,"trial_type":"html-button-response","trial_index":130,"time_elapsed":1443206,"internal_node_id":"0.0-4.0-1.61","subject_id":"6043c3404bbbc63d3a0c9cb0","study_id":"60edd13110225f80f9f3709b","session_id":"6196c1f7005bd2f579249e3e","condition":"contingent","relevant_dimensions":["antennae","wings"],"bee_group":{"antennae":"A","wings":"2","pattern":"X","legs":"X"},"bonus":0.5000000000000008},{"rt":979,"stimulus":"bees-with-color/bee-B1DF.svg","response":0,"trial_type":"image-button-response","trial_index":131,"time_elapsed":1444186,"internal_node_id":"0.0-4.0-0.62","subject_id":"6043c3404bbbc63d3a0c9cb0","study_id":"60edd13110225f80f9f3709b","session_id":"6196c1f7005bd2f579249e3e","condition":"contingent","relevant_dimensions":["antennae","wings"],"bee_group":{"antennae":"A","wings":"2","pattern":"X","legs":"X"},"action":"harvest","summary":"good-harvest","bonus":0.5000000000000008},{"rt":495.19999998807907,"stimulus":"\n                    <p><b>Action: <em>harvest</em></b></p>\n                    <p>This is the bee that you just saw.</p>\n                    <img src=\"bees-with-color/bee-B1DF.svg\" width=\"200\">\n                    <p><span class=\"greenText\"><b>Successful harvest!</b></span><br>Your pay has increased by $0.02. Your bonus pay is now $0.38.</p>\n            ","response":0,"trial_type":"html-button-response","trial_index":132,"time_elapsed":1444683,"internal_node_id":"0.0-4.0-1.62","subject_id":"6043c3404bbbc63d3a0c9cb0","study_id":"60edd13110225f80f9f3709b","session_id":"6196c1f7005bd2f579249e3e","condition":"contingent","relevant_dimensions":["antennae","wings"],"bee_group":{"antennae":"A","wings":"2","pattern":"X","legs":"X"},"bonus":0.5000000000000008},{"rt":875.6999999880791,"stimulus":"bees-with-color/bee-B2SF.svg","response":1,"trial_type":"image-button-response","trial_index":133,"time_elapsed":1445560,"internal_node_id":"0.0-4.0-0.63","subject_id":"6043c3404bbbc63d3a0c9cb0","study_id":"60edd13110225f80f9f3709b","session_id":"6196c1f7005bd2f579249e3e","condition":"contingent","relevant_dimensions":["antennae","wings"],"bee_group":{"antennae":"A","wings":"2","pattern":"X","legs":"X"},"action":"avoid","summary":"bad-avoid","bonus":0.5000000000000008},{"rt":331,"stimulus":"\n                    <p><b>Action: <em>avoid</em></b></p>\n                    <p>This is the bee that you just saw.</p>\n                    <img src=\"bees-with-color/bee-B2SF.svg\" width=\"200\">\n                    <p><br>Your bonus pay is unchanged, and remains at $0.38.</p>\n            ","response":0,"trial_type":"html-button-response","trial_index":134,"time_elapsed":1445892,"internal_node_id":"0.0-4.0-1.63","subject_id":"6043c3404bbbc63d3a0c9cb0","study_id":"60edd13110225f80f9f3709b","session_id":"6196c1f7005bd2f579249e3e","condition":"contingent","relevant_dimensions":["antennae","wings"],"bee_group":{"antennae":"A","wings":"2","pattern":"X","legs":"X"},"bonus":0.5000000000000008},{"rt":6812.399999976158,"stimulus":"You have completed the first part of this experiment.<br><br>You will now begin a shorter second part, in which you will receive no feedback.<br>The same rules regarding bonus pay apply.<br><br>Press any key to begin.","response":"+","trial_type":"html-keyboard-response","trial_index":135,"time_elapsed":1452705,"internal_node_id":"0.0-5.0","subject_id":"6043c3404bbbc63d3a0c9cb0","study_id":"60edd13110225f80f9f3709b","session_id":"6196c1f7005bd2f579249e3e","condition":"contingent","relevant_dimensions":["antennae","wings"],"bee_group":{"antennae":"A","wings":"2","pattern":"X","legs":"X"},"bonus":0.5000000000000008},{"rt":2688.5,"stimulus":"bees-with-color/bee-A2DM.svg","response":1,"trial_type":"image-button-response","trial_index":136,"time_elapsed":1455403,"internal_node_id":"0.0-6.0-0.0","subject_id":"6043c3404bbbc63d3a0c9cb0","study_id":"60edd13110225f80f9f3709b","session_id":"6196c1f7005bd2f579249e3e","condition":"contingent","relevant_dimensions":["antennae","wings"],"bee_group":{"antennae":"A","wings":"2","pattern":"X","legs":"X"},"bonus":0.5000000000000008},{"rt":2197.399999976158,"stimulus":"bees-with-color/bee-B2SM.svg","response":0,"trial_type":"image-button-response","trial_index":137,"time_elapsed":1457602,"internal_node_id":"0.0-6.0-0.1","subject_id":"6043c3404bbbc63d3a0c9cb0","study_id":"60edd13110225f80f9f3709b","session_id":"6196c1f7005bd2f579249e3e","condition":"contingent","relevant_dimensions":["antennae","wings"],"bee_group":{"antennae":"A","wings":"2","pattern":"X","legs":"X"},"bonus":0.5000000000000008},{"rt":5317.5,"stimulus":"bees-with-color/bee-B1DM.svg","response":1,"trial_type":"image-button-response","trial_index":138,"time_elapsed":1462922,"internal_node_id":"0.0-6.0-0.2","subject_id":"6043c3404bbbc63d3a0c9cb0","study_id":"60edd13110225f80f9f3709b","session_id":"6196c1f7005bd2f579249e3e","condition":"contingent","relevant_dimensions":["antennae","wings"],"bee_group":{"antennae":"A","wings":"2","pattern":"X","legs":"X"},"bonus":0.5000000000000008},{"rt":1516.1000000238419,"stimulus":"bees-with-color/bee-B1SF.svg","response":0,"trial_type":"image-button-response","trial_index":139,"time_elapsed":1464440,"internal_node_id":"0.0-6.0-0.3","subject_id":"6043c3404bbbc63d3a0c9cb0","study_id":"60edd13110225f80f9f3709b","session_id":"6196c1f7005bd2f579249e3e","condition":"contingent","relevant_dimensions":["antennae","wings"],"bee_group":{"antennae":"A","wings":"2","pattern":"X","legs":"X"},"bonus":0.5000000000000008},{"rt":877.5,"stimulus":"bees-with-color/bee-A1SM.svg","response":1,"trial_type":"image-button-response","trial_index":140,"time_elapsed":1465319,"internal_node_id":"0.0-6.0-0.4","subject_id":"6043c3404bbbc63d3a0c9cb0","study_id":"60edd13110225f80f9f3709b","session_id":"6196c1f7005bd2f579249e3e","condition":"contingent","relevant_dimensions":["antennae","wings"],"bee_group":{"antennae":"A","wings":"2","pattern":"X","legs":"X"},"bonus":0.5000000000000008},{"rt":1122.6000000238419,"stimulus":"bees-with-color/bee-B1DF.svg","response":0,"trial_type":"image-button-response","trial_index":141,"time_elapsed":1466445,"internal_node_id":"0.0-6.0-0.5","subject_id":"6043c3404bbbc63d3a0c9cb0","study_id":"60edd13110225f80f9f3709b","session_id":"6196c1f7005bd2f579249e3e","condition":"contingent","relevant_dimensions":["antennae","wings"],"bee_group":{"antennae":"A","wings":"2","pattern":"X","legs":"X"},"bonus":0.5000000000000008},{"rt":4425.699999988079,"stimulus":"bees-with-color/bee-A2DF.svg","response":0,"trial_type":"image-button-response","trial_index":142,"time_elapsed":1470872,"internal_node_id":"0.0-6.0-0.6","subject_id":"6043c3404bbbc63d3a0c9cb0","study_id":"60edd13110225f80f9f3709b","session_id":"6196c1f7005bd2f579249e3e","condition":"contingent","relevant_dimensions":["antennae","wings"],"bee_group":{"antennae":"A","wings":"2","pattern":"X","legs":"X"},"bonus":0.5000000000000008},{"rt":893.7000000476837,"stimulus":"bees-with-color/bee-A1DM.svg","response":1,"trial_type":"image-button-response","trial_index":143,"time_elapsed":1471768,"internal_node_id":"0.0-6.0-0.7","subject_id":"6043c3404bbbc63d3a0c9cb0","study_id":"60edd13110225f80f9f3709b","session_id":"6196c1f7005bd2f579249e3e","condition":"contingent","relevant_dimensions":["antennae","wings"],"bee_group":{"antennae":"A","wings":"2","pattern":"X","legs":"X"},"bonus":0.5000000000000008},{"rt":1785.4000000357628,"stimulus":"bees-with-color/bee-B2SF.svg","response":1,"trial_type":"image-button-response","trial_index":144,"time_elapsed":1473556,"internal_node_id":"0.0-6.0-0.8","subject_id":"6043c3404bbbc63d3a0c9cb0","study_id":"60edd13110225f80f9f3709b","session_id":"6196c1f7005bd2f579249e3e","condition":"contingent","relevant_dimensions":["antennae","wings"],"bee_group":{"antennae":"A","wings":"2","pattern":"X","legs":"X"},"bonus":0.5000000000000008},{"rt":2354.600000023842,"stimulus":"bees-with-color/bee-A1DF.svg","response":0,"trial_type":"image-button-response","trial_index":145,"time_elapsed":1475913,"internal_node_id":"0.0-6.0-0.9","subject_id":"6043c3404bbbc63d3a0c9cb0","study_id":"60edd13110225f80f9f3709b","session_id":"6196c1f7005bd2f579249e3e","condition":"contingent","relevant_dimensions":["antennae","wings"],"bee_group":{"antennae":"A","wings":"2","pattern":"X","legs":"X"},"bonus":0.5000000000000008},{"rt":1920.0999999642372,"stimulus":"bees-with-color/bee-A1SF.svg","response":0,"trial_type":"image-button-response","trial_index":146,"time_elapsed":1477834,"internal_node_id":"0.0-6.0-0.10","subject_id":"6043c3404bbbc63d3a0c9cb0","study_id":"60edd13110225f80f9f3709b","session_id":"6196c1f7005bd2f579249e3e","condition":"contingent","relevant_dimensions":["antennae","wings"],"bee_group":{"antennae":"A","wings":"2","pattern":"X","legs":"X"},"bonus":0.5000000000000008},{"rt":857.4000000357628,"stimulus":"bees-with-color/bee-B2DM.svg","response":1,"trial_type":"image-button-response","trial_index":147,"time_elapsed":1478693,"internal_node_id":"0.0-6.0-0.11","subject_id":"6043c3404bbbc63d3a0c9cb0","study_id":"60edd13110225f80f9f3709b","session_id":"6196c1f7005bd2f579249e3e","condition":"contingent","relevant_dimensions":["antennae","wings"],"bee_group":{"antennae":"A","wings":"2","pattern":"X","legs":"X"},"bonus":0.5000000000000008},{"rt":1084.699999988079,"stimulus":"bees-with-color/bee-A2SM.svg","response":1,"trial_type":"image-button-response","trial_index":148,"time_elapsed":1479780,"internal_node_id":"0.0-6.0-0.12","subject_id":"6043c3404bbbc63d3a0c9cb0","study_id":"60edd13110225f80f9f3709b","session_id":"6196c1f7005bd2f579249e3e","condition":"contingent","relevant_dimensions":["antennae","wings"],"bee_group":{"antennae":"A","wings":"2","pattern":"X","legs":"X"},"bonus":0.5000000000000008},{"rt":1146.5999999642372,"stimulus":"bees-with-color/bee-B1SM.svg","response":1,"trial_type":"image-button-response","trial_index":149,"time_elapsed":1480928,"internal_node_id":"0.0-6.0-0.13","subject_id":"6043c3404bbbc63d3a0c9cb0","study_id":"60edd13110225f80f9f3709b","session_id":"6196c1f7005bd2f579249e3e","condition":"contingent","relevant_dimensions":["antennae","wings"],"bee_group":{"antennae":"A","wings":"2","pattern":"X","legs":"X"},"bonus":0.5000000000000008},{"rt":1377.8999999761581,"stimulus":"bees-with-color/bee-A2SF.svg","response":1,"trial_type":"image-button-response","trial_index":150,"time_elapsed":1482308,"internal_node_id":"0.0-6.0-0.14","subject_id":"6043c3404bbbc63d3a0c9cb0","study_id":"60edd13110225f80f9f3709b","session_id":"6196c1f7005bd2f579249e3e","condition":"contingent","relevant_dimensions":["antennae","wings"],"bee_group":{"antennae":"A","wings":"2","pattern":"X","legs":"X"},"bonus":0.5000000000000008},{"rt":1454.5,"stimulus":"bees-with-color/bee-B2DF.svg","response":0,"trial_type":"image-button-response","trial_index":151,"time_elapsed":1483765,"internal_node_id":"0.0-6.0-0.15","subject_id":"6043c3404bbbc63d3a0c9cb0","study_id":"60edd13110225f80f9f3709b","session_id":"6196c1f7005bd2f579249e3e","condition":"contingent","relevant_dimensions":["antennae","wings"],"bee_group":{"antennae":"A","wings":"2","pattern":"X","legs":"X"},"bonus":0.5000000000000008},{"rt":1953.5,"stimulus":"bees-with-color/bee-A1SF.svg","response":0,"trial_type":"image-button-response","trial_index":152,"time_elapsed":1485720,"internal_node_id":"0.0-6.0-0.16","subject_id":"6043c3404bbbc63d3a0c9cb0","study_id":"60edd13110225f80f9f3709b","session_id":"6196c1f7005bd2f579249e3e","condition":"contingent","relevant_dimensions":["antennae","wings"],"bee_group":{"antennae":"A","wings":"2","pattern":"X","legs":"X"},"bonus":0.5000000000000008},{"rt":1261.3999999761581,"stimulus":"bees-with-color/bee-B1DM.svg","response":1,"trial_type":"image-button-response","trial_index":153,"time_elapsed":1486983,"internal_node_id":"0.0-6.0-0.17","subject_id":"6043c3404bbbc63d3a0c9cb0","study_id":"60edd13110225f80f9f3709b","session_id":"6196c1f7005bd2f579249e3e","condition":"contingent","relevant_dimensions":["antennae","wings"],"bee_group":{"antennae":"A","wings":"2","pattern":"X","legs":"X"},"bonus":0.5000000000000008},{"rt":788.6999999880791,"stimulus":"bees-with-color/bee-B1SF.svg","response":0,"trial_type":"image-button-response","trial_index":154,"time_elapsed":1487773,"internal_node_id":"0.0-6.0-0.18","subject_id":"6043c3404bbbc63d3a0c9cb0","study_id":"60edd13110225f80f9f3709b","session_id":"6196c1f7005bd2f579249e3e","condition":"contingent","relevant_dimensions":["antennae","wings"],"bee_group":{"antennae":"A","wings":"2","pattern":"X","legs":"X"},"bonus":0.5000000000000008},{"rt":7264.799999952316,"stimulus":"bees-with-color/bee-B2DF.svg","response":0,"trial_type":"image-button-response","trial_index":155,"time_elapsed":1495040,"internal_node_id":"0.0-6.0-0.19","subject_id":"6043c3404bbbc63d3a0c9cb0","study_id":"60edd13110225f80f9f3709b","session_id":"6196c1f7005bd2f579249e3e","condition":"contingent","relevant_dimensions":["antennae","wings"],"bee_group":{"antennae":"A","wings":"2","pattern":"X","legs":"X"},"bonus":0.5000000000000008},{"rt":4225.900000035763,"stimulus":"bees-with-color/bee-A1DF.svg","response":0,"trial_type":"image-button-response","trial_index":156,"time_elapsed":1499268,"internal_node_id":"0.0-6.0-0.20","subject_id":"6043c3404bbbc63d3a0c9cb0","study_id":"60edd13110225f80f9f3709b","session_id":"6196c1f7005bd2f579249e3e","condition":"contingent","relevant_dimensions":["antennae","wings"],"bee_group":{"antennae":"A","wings":"2","pattern":"X","legs":"X"},"bonus":0.5000000000000008},{"rt":1032.0999999642372,"stimulus":"bees-with-color/bee-B2SM.svg","response":1,"trial_type":"image-button-response","trial_index":157,"time_elapsed":1500302,"internal_node_id":"0.0-6.0-0.21","subject_id":"6043c3404bbbc63d3a0c9cb0","study_id":"60edd13110225f80f9f3709b","session_id":"6196c1f7005bd2f579249e3e","condition":"contingent","relevant_dimensions":["antennae","wings"],"bee_group":{"antennae":"A","wings":"2","pattern":"X","legs":"X"},"bonus":0.5000000000000008},{"rt":2506.199999988079,"stimulus":"bees-with-color/bee-A2SF.svg","response":1,"trial_type":"image-button-response","trial_index":158,"time_elapsed":1502809,"internal_node_id":"0.0-6.0-0.22","subject_id":"6043c3404bbbc63d3a0c9cb0","study_id":"60edd13110225f80f9f3709b","session_id":"6196c1f7005bd2f579249e3e","condition":"contingent","relevant_dimensions":["antennae","wings"],"bee_group":{"antennae":"A","wings":"2","pattern":"X","legs":"X"},"bonus":0.5000000000000008},{"rt":806.3000000119209,"stimulus":"bees-with-color/bee-A2DM.svg","response":1,"trial_type":"image-button-response","trial_index":159,"time_elapsed":1503617,"internal_node_id":"0.0-6.0-0.23","subject_id":"6043c3404bbbc63d3a0c9cb0","study_id":"60edd13110225f80f9f3709b","session_id":"6196c1f7005bd2f579249e3e","condition":"contingent","relevant_dimensions":["antennae","wings"],"bee_group":{"antennae":"A","wings":"2","pattern":"X","legs":"X"},"bonus":0.5000000000000008},{"rt":1102.6000000238419,"stimulus":"bees-with-color/bee-B2SF.svg","response":1,"trial_type":"image-button-response","trial_index":160,"time_elapsed":1504722,"internal_node_id":"0.0-6.0-0.24","subject_id":"6043c3404bbbc63d3a0c9cb0","study_id":"60edd13110225f80f9f3709b","session_id":"6196c1f7005bd2f579249e3e","condition":"contingent","relevant_dimensions":["antennae","wings"],"bee_group":{"antennae":"A","wings":"2","pattern":"X","legs":"X"},"bonus":0.5000000000000008},{"rt":979.8000000119209,"stimulus":"bees-with-color/bee-A2SM.svg","response":1,"trial_type":"image-button-response","trial_index":161,"time_elapsed":1505703,"internal_node_id":"0.0-6.0-0.25","subject_id":"6043c3404bbbc63d3a0c9cb0","study_id":"60edd13110225f80f9f3709b","session_id":"6196c1f7005bd2f579249e3e","condition":"contingent","relevant_dimensions":["antennae","wings"],"bee_group":{"antennae":"A","wings":"2","pattern":"X","legs":"X"},"bonus":0.5000000000000008},{"rt":1283.5999999642372,"stimulus":"bees-with-color/bee-A1SM.svg","response":1,"trial_type":"image-button-response","trial_index":162,"time_elapsed":1506989,"internal_node_id":"0.0-6.0-0.26","subject_id":"6043c3404bbbc63d3a0c9cb0","study_id":"60edd13110225f80f9f3709b","session_id":"6196c1f7005bd2f579249e3e","condition":"contingent","relevant_dimensions":["anten