[{"success":true,"trial_type":"fullscreen","trial_index":0,"time_elapsed":3675,"internal_node_id":"0.0-0.0","subject_id":"5f919274b5383b00096b0295","study_id":"6197b3f67c2b5cd3b6d9596a","session_id":"619bfbdeec5c3b9091ce479d","condition":"full-information","relevant_dimensions":["pattern","legs"],"bee_group":{"antennae":"X","wings":"X","pattern":"D","legs":"F"},"bonus":0.42000000000000104},{"success":true,"timeout":false,"failed_images":[],"failed_audio":[],"failed_video":[],"trial_type":"preload","trial_index":1,"time_elapsed":5196,"internal_node_id":"0.0-1.0","subject_id":"5f919274b5383b00096b0295","study_id":"6197b3f67c2b5cd3b6d9596a","session_id":"619bfbdeec5c3b9091ce479d","condition":"full-information","relevant_dimensions":["pattern","legs"],"bee_group":{"antennae":"X","wings":"X","pattern":"D","legs":"F"},"bonus":0.42000000000000104},{"rt":2369.900000035763,"stimulus":"Welcome! Press any key to begin.","response":" ","trial_type":"html-keyboard-response","trial_index":2,"time_elapsed":7568,"internal_node_id":"0.0-2.0","subject_id":"5f919274b5383b00096b0295","study_id":"6197b3f67c2b5cd3b6d9596a","session_id":"619bfbdeec5c3b9091ce479d","condition":"full-information","relevant_dimensions":["pattern","legs"],"bee_group":{"antennae":"X","wings":"X","pattern":"D","legs":"F"},"bonus":0.42000000000000104},{"view_history":[{"page_index":0,"viewing_time":7838.800000011921},{"page_index":1,"viewing_time":27575},{"page_index":2,"viewing_time":24130.399999976158},{"page_index":3,"viewing_time":35416},{"page_index":4,"viewing_time":6889.699999988079},{"page_index":5,"viewing_time":9341.699999988079},{"page_index":6,"viewing_time":24060},{"page_index":7,"viewing_time":8288},{"page_index":8,"viewing_time":4759.800000011921},{"page_index":9,"viewing_time":4959},{"page_index":10,"viewing_time":3579.5},{"page_index":11,"viewing_time":8149.300000011921},{"page_index":12,"viewing_time":18172.19999998808},{"page_index":13,"viewing_time":1721.9000000357628},{"page_index":14,"viewing_time":1664}],"rt":186545.69999998808,"trial_type":"instructions","trial_index":3,"time_elapsed":194120,"internal_node_id":"0.0-3.0-0.0","subject_id":"5f919274b5383b00096b0295","study_id":"6197b3f67c2b5cd3b6d9596a","session_id":"619bfbdeec5c3b9091ce479d","condition":"full-information","relevant_dimensions":["pattern","legs"],"bee_group":{"antennae":"X","wings":"X","pattern":"D","legs":"F"},"bonus":0.42000000000000104},{"rt":15365.399999976158,"response":{"Q0":["Two or six legs","Stripes or spots on body","Single or double wings","Antennae or no antennae"]},"question_order":[0],"trial_type":"survey-multi-select","trial_index":4,"time_elapsed":209495,"internal_node_id":"0.0-3.0-1.0","subject_id":"5f919274b5383b00096b0295","study_id":"6197b3f67c2b5cd3b6d9596a","session_id":"619bfbdeec5c3b9091ce479d","condition":"full-information","relevant_dimensions":["pattern","legs"],"bee_group":{"antennae":"X","wings":"X","pattern":"D","legs":"F"},"correct":true,"bonus":0.42000000000000104},{"rt":32655.099999964237,"response":{"Q1":"No.","Q2":"Based on the four features of the bee.","Q3":"You learn if it was friendly or dangerous, but do not alter your bonus."},"question_order":[0,1,2],"trial_type":"survey-multi-choice","trial_index":5,"time_elapsed":242158,"internal_node_id":"0.0-3.0-2.0","subject_id":"5f919274b5383b00096b0295","study_id":"6197b3f67c2b5cd3b6d9596a","session_id":"619bfbdeec5c3b9091ce479d","condition":"full-information","relevant_dimensions":["pattern","legs"],"bee_group":{"antennae":"X","wings":"X","pattern":"D","legs":"F"},"correct":true,"bonus":0.42000000000000104},{"rt":14578.5,"stimulus":"<p>Congrats, you got everything right<br>When you're ready, click the button below to continue to the experiment.</p>","response":0,"trial_type":"html-button-response","trial_index":6,"time_elapsed":256747,"internal_node_id":"0.0-3.0-3.0","subject_id":"5f919274b5383b00096b0295","study_id":"6197b3f67c2b5cd3b6d9596a","session_id":"619bfbdeec5c3b9091ce479d","condition":"full-information","relevant_dimensions":["pattern","legs"],"bee_group":{"antennae":"X","wings":"X","pattern":"D","legs":"F"},"bonus":0.42000000000000104},{"rt":2386.300000011921,"stimulus":"bees-with-color/bee-B2SF.svg","response":0,"trial_type":"image-button-response","trial_index":7,"time_elapsed":259140,"internal_node_id":"0.0-4.0-0.0","subject_id":"5f919274b5383b00096b0295","study_id":"6197b3f67c2b5cd3b6d9596a","session_id":"619bfbdeec5c3b9091ce479d","condition":"full-information","relevant_dimensions":["pattern","legs"],"bee_group":{"antennae":"X","wings":"X","pattern":"D","legs":"F"},"action":"harvest","summary":"good-harvest","bonus":0.42000000000000104},{"rt":5039.5,"stimulus":"\n                    <p><b>Action: <em>harvest</em></b></p>\n                    <p>This is the bee that you just saw.</p>\n                    <img src=\"bees-with-color/bee-B2SF.svg\" width=\"200\">\n                    <p><span class=\"greenText\"><b>Successful harvest!</b></span><br>Your pay has increased by $0.02. Your bonus pay is now $0.56.</p>\n            ","response":0,"trial_type":"html-button-response","trial_index":8,"time_elapsed":264184,"internal_node_id":"0.0-4.0-1.0","subject_id":"5f919274b5383b00096b0295","study_id":"6197b3f67c2b5cd3b6d9596a","session_id":"619bfbdeec5c3b9091ce479d","condition":"full-information","relevant_dimensions":["pattern","legs"],"bee_group":{"antennae":"X","wings":"X","pattern":"D","legs":"F"},"bonus":0.42000000000000104},{"rt":5170.300000011921,"stimulus":"bees-with-color/bee-A1DM.svg","response":1,"trial_type":"image-button-response","trial_index":9,"time_elapsed":269358,"internal_node_id":"0.0-4.0-0.1","subject_id":"5f919274b5383b00096b0295","study_id":"6197b3f67c2b5cd3b6d9596a","session_id":"619bfbdeec5c3b9091ce479d","condition":"full-information","relevant_dimensions":["pattern","legs"],"bee_group":{"antennae":"X","wings":"X","pattern":"D","legs":"F"},"action":"avoid","summary":"bad-avoid","bonus":0.42000000000000104},{"rt":4622.800000011921,"stimulus":"\n                    <p><b>Action: <em>avoid</em></b></p>\n                    <p>This is the bee that you just saw.</p>\n                    <img src=\"bees-with-color/bee-A1DM.svg\" width=\"200\">\n                    <p><span class=\"redText\">Bad choice,</span> the bee was friendly.<br>Your bonus pay is unchanged, and remains at $0.56.</p>\n            ","response":0,"trial_type":"html-button-response","trial_index":10,"time_elapsed":273984,"internal_node_id":"0.0-4.0-1.1","subject_id":"5f919274b5383b00096b0295","study_id":"6197b3f67c2b5cd3b6d9596a","session_id":"619bfbdeec5c3b9091ce479d","condition":"full-information","relevant_dimensions":["pattern","legs"],"bee_group":{"antennae":"X","wings":"X","pattern":"D","legs":"F"},"bonus":0.42000000000000104},{"rt":2712.5,"stimulus":"bees-with-color/bee-A2DF.svg","response":0,"trial_type":"image-button-response","trial_index":11,"time_elapsed":276699,"internal_node_id":"0.0-4.0-0.2","subject_id":"5f919274b5383b00096b0295","study_id":"6197b3f67c2b5cd3b6d9596a","session_id":"619bfbdeec5c3b9091ce479d","condition":"full-information","relevant_dimensions":["pattern","legs"],"bee_group":{"antennae":"X","wings":"X","pattern":"D","legs":"F"},"action":"harvest","summary":"bad-harvest","bonus":0.42000000000000104},{"rt":4291.399999976158,"stimulus":"\n                    <p><b>Action: <em>harvest</em></b></p>\n                    <p>This is the bee that you just saw.</p>\n                    <img src=\"bees-with-color/bee-A2DF.svg\" width=\"200\">\n                    <p><span class=\"redText\">Bad choice, the bee was angry.</span><br><b>You have been stung!</b><br>Your pay has been decreased by $0.10. Your bonus pay is now $0.46.</p>\n            ","response":0,"trial_type":"html-button-response","trial_index":12,"time_elapsed":280996,"internal_node_id":"0.0-4.0-1.2","subject_id":"5f919274b5383b00096b0295","study_id":"6197b3f67c2b5cd3b6d9596a","session_id":"619bfbdeec5c3b9091ce479d","condition":"full-information","relevant_dimensions":["pattern","legs"],"bee_group":{"antennae":"X","wings":"X","pattern":"D","legs":"F"},"bonus":0.42000000000000104},{"rt":2059.900000035763,"stimulus":"bees-with-color/bee-B2SM.svg","response":0,"trial_type":"image-button-response","trial_index":13,"time_elapsed":283058,"internal_node_id":"0.0-4.0-0.3","subject_id":"5f919274b5383b00096b0295","study_id":"6197b3f67c2b5cd3b6d9596a","session_id":"619bfbdeec5c3b9091ce479d","condition":"full-information","relevant_dimensions":["pattern","legs"],"bee_group":{"antennae":"X","wings":"X","pattern":"D","legs":"F"},"action":"harvest","summary":"good-harvest","bonus":0.42000000000000104},{"rt":4775.600000023842,"stimulus":"\n                    <p><b>Action: <em>harvest</em></b></p>\n                    <p>This is the bee that you just saw.</p>\n                    <img src=\"bees-with-color/bee-B2SM.svg\" width=\"200\">\n                    <p><span class=\"greenText\"><b>Successful harvest!</b></span><br>Your pay has increased by $0.02. Your bonus pay is now $0.48.</p>\n            ","response":0,"trial_type":"html-button-response","trial_index":14,"time_elapsed":287836,"internal_node_id":"0.0-4.0-1.3","subject_id":"5f919274b5383b00096b0295","study_id":"6197b3f67c2b5cd3b6d9596a","session_id":"619bfbdeec5c3b9091ce479d","condition":"full-information","relevant_dimensions":["pattern","legs"],"bee_group":{"antennae":"X","wings":"X","pattern":"D","legs":"F"},"bonus":0.42000000000000104},{"rt":1735.1000000238419,"stimulus":"bees-with-color/bee-B1SF.svg","response":1,"trial_type":"image-button-response","trial_index":15,"time_elapsed":289574,"internal_node_id":"0.0-4.0-0.4","subject_id":"5f919274b5383b00096b0295","study_id":"6197b3f67c2b5cd3b6d9596a","session_id":"619bfbdeec5c3b9091ce479d","condition":"full-information","relevant_dimensions":["pattern","legs"],"bee_group":{"antennae":"X","wings":"X","pattern":"D","legs":"F"},"action":"avoid","summary":"bad-avoid","bonus":0.42000000000000104},{"rt":5759,"stimulus":"\n                    <p><b>Action: <em>avoid</em></b></p>\n                    <p>This is the bee that you just saw.</p>\n                    <img src=\"bees-with-color/bee-B1SF.svg\" width=\"200\">\n                    <p><span class=\"redText\">Bad choice,</span> the bee was friendly.<br>Your bonus pay is unchanged, and remains at $0.48.</p>\n            ","response":0,"trial_type":"html-button-response","trial_index":16,"time_elapsed":295336,"internal_node_id":"0.0-4.0-1.4","subject_id":"5f919274b5383b00096b0295","study_id":"6197b3f67c2b5cd3b6d9596a","session_id":"619bfbdeec5c3b9091ce479d","condition":"full-information","relevant_dimensions":["pattern","legs"],"bee_group":{"antennae":"X","wings":"X","pattern":"D","legs":"F"},"bonus":0.42000000000000104},{"rt":1895.300000011921,"stimulus":"bees-with-color/bee-A2DM.svg","response":1,"trial_type":"image-button-response","trial_index":17,"time_elapsed":297235,"internal_node_id":"0.0-4.0-0.5","subject_id":"5f919274b5383b00096b0295","study_id":"6197b3f67c2b5cd3b6d9596a","session_id":"619bfbdeec5c3b9091ce479d","condition":"full-information","relevant_dimensions":["pattern","legs"],"bee_group":{"antennae":"X","wings":"X","pattern":"D","legs":"F"},"action":"avoid","summary":"bad-avoid","bonus":0.42000000000000104},{"rt":3060.5,"stimulus":"\n                    <p><b>Action: <em>avoid</em></b></p>\n                    <p>This is the bee that you just saw.</p>\n                    <img src=\"bees-with-color/bee-A2DM.svg\" width=\"200\">\n                    <p><span class=\"redText\">Bad choice,</span> the bee was friendly.<br>Your bonus pay is unchanged, and remains at $0.48.</p>\n            ","response":0,"trial_type":"html-button-response","trial_index":18,"time_elapsed":300298,"internal_node_id":"0.0-4.0-1.5","subject_id":"5f919274b5383b00096b0295","study_id":"6197b3f67c2b5cd3b6d9596a","session_id":"619bfbdeec5c3b9091ce479d","condition":"full-information","relevant_dimensions":["pattern","legs"],"bee_group":{"antennae":"X","wings":"X","pattern":"D","legs":"F"},"bonus":0.42000000000000104},{"rt":6265,"stimulus":"bees-with-color/bee-A2SM.svg","response":0,"trial_type":"image-button-response","trial_index":19,"time_elapsed":306569,"internal_node_id":"0.0-4.0-0.6","subject_id":"5f919274b5383b00096b0295","study_id":"6197b3f67c2b5cd3b6d9596a","session_id":"619bfbdeec5c3b9091ce479d","condition":"full-information","relevant_dimensions":["pattern","legs"],"bee_group":{"antennae":"X","wings":"X","pattern":"D","legs":"F"},"action":"harvest","summary":"good-harvest","bonus":0.42000000000000104},{"rt":2085.5,"stimulus":"\n                    <p><b>Action: <em>harvest</em></b></p>\n                    <p>This is the bee that you just saw.</p>\n                    <img src=\"bees-with-color/bee-A2SM.svg\" width=\"200\">\n                    <p><span class=\"greenText\"><b>Successful harvest!</b></span><br>Your pay has increased by $0.02. Your bonus pay is now $0.50.</p>\n            ","response":0,"trial_type":"html-button-response","trial_index":20,"time_elapsed":308658,"internal_node_id":"0.0-4.0-1.6","subject_id":"5f919274b5383b00096b0295","study_id":"6197b3f67c2b5cd3b6d9596a","session_id":"619bfbdeec5c3b9091ce479d","condition":"full-information","relevant_dimensions":["pattern","legs"],"bee_group":{"antennae":"X","wings":"X","pattern":"D","legs":"F"},"bonus":0.42000000000000104},{"rt":3982,"stimulus":"bees-with-color/bee-A1DF.svg","response":1,"trial_type":"image-button-response","trial_index":21,"time_elapsed":312643,"internal_node_id":"0.0-4.0-0.7","subject_id":"5f919274b5383b00096b0295","study_id":"6197b3f67c2b5cd3b6d9596a","session_id":"619bfbdeec5c3b9091ce479d","condition":"full-information","relevant_dimensions":["pattern","legs"],"bee_group":{"antennae":"X","wings":"X","pattern":"D","legs":"F"},"action":"avoid","summary":"good-avoid","bonus":0.42000000000000104},{"rt":4965.300000011921,"stimulus":"\n                    <p><b>Action: <em>avoid</em></b></p>\n                    <p>This is the bee that you just saw.</p>\n                    <img src=\"bees-with-color/bee-A1DF.svg\" width=\"200\">\n                    <p><span class=\"greenText\">Good choice!</span>  This bee would have stung you.<br>Your bonus pay is unchanged, and remains at $0.50.</p>\n            ","response":0,"trial_type":"html-button-response","trial_index":22,"time_elapsed":317611,"internal_node_id":"0.0-4.0-1.7","subject_id":"5f919274b5383b00096b0295","study_id":"6197b3f67c2b5cd3b6d9596a","session_id":"619bfbdeec5c3b9091ce479d","condition":"full-information","relevant_dimensions":["pattern","legs"],"bee_group":{"antennae":"X","wings":"X","pattern":"D","legs":"F"},"bonus":0.42000000000000104},{"rt":1727.699999988079,"stimulus":"bees-with-color/bee-B2DM.svg","response":0,"trial_type":"image-button-response","trial_index":23,"time_elapsed":319342,"internal_node_id":"0.0-4.0-0.8","subject_id":"5f919274b5383b00096b0295","study_id":"6197b3f67c2b5cd3b6d9596a","session_id":"619bfbdeec5c3b9091ce479d","condition":"full-information","relevant_dimensions":["pattern","legs"],"bee_group":{"antennae":"X","wings":"X","pattern":"D","legs":"F"},"action":"harvest","summary":"good-harvest","bonus":0.42000000000000104},{"rt":5216,"stimulus":"\n                    <p><b>Action: <em>harvest</em></b></p>\n                    <p>This is the bee that you just saw.</p>\n                    <img src=\"bees-with-color/bee-B2DM.svg\" width=\"200\">\n                    <p><span class=\"greenText\"><b>Successful harvest!</b></span><br>Your pay has increased by $0.02. Your bonus pay is now $0.52.</p>\n            ","response":0,"trial_type":"html-button-response","trial_index":24,"time_elapsed":324561,"internal_node_id":"0.0-4.0-1.8","subject_id":"5f919274b5383b00096b0295","study_id":"6197b3f67c2b5cd3b6d9596a","session_id":"619bfbdeec5c3b9091ce479d","condition":"full-information","relevant_dimensions":["pattern","legs"],"bee_group":{"antennae":"X","wings":"X","pattern":"D","legs":"F"},"bonus":0.42000000000000104},{"rt":2659.100000023842,"stimulus":"bees-with-color/bee-B1DF.svg","response":1,"trial_type":"image-button-response","trial_index":25,"time_elapsed":327224,"internal_node_id":"0.0-4.0-0.9","subject_id":"5f919274b5383b00096b0295","study_id":"6197b3f67c2b5cd3b6d9596a","session_id":"619bfbdeec5c3b9091ce479d","condition":"full-information","relevant_dimensions":["pattern","legs"],"bee_group":{"antennae":"X","wings":"X","pattern":"D","legs":"F"},"action":"avoid","summary":"good-avoid","bonus":0.42000000000000104},{"rt":2232.100000023842,"stimulus":"\n                    <p><b>Action: <em>avoid</em></b></p>\n                    <p>This is the bee that you just saw.</p>\n                    <img src=\"bees-with-color/bee-B1DF.svg\" width=\"200\">\n                    <p><span class=\"greenText\">Good choice!</span>  This bee would have stung you.<br>Your bonus pay is unchanged, and remains at $0.52.</p>\n            ","response":0,"trial_type":"html-button-response","trial_index":26,"time_elapsed":329459,"internal_node_id":"0.0-4.0-1.9","subject_id":"5f919274b5383b00096b0295","study_id":"6197b3f67c2b5cd3b6d9596a","session_id":"619bfbdeec5c3b9091ce479d","condition":"full-information","relevant_dimensions":["pattern","legs"],"bee_group":{"antennae":"X","wings":"X","pattern":"D","legs":"F"},"bonus":0.42000000000000104},{"rt":1547,"stimulus":"bees-with-color/bee-A2SF.svg","response":0,"trial_type":"image-button-response","trial_index":27,"time_elapsed":331009,"internal_node_id":"0.0-4.0-0.10","subject_id":"5f919274b5383b00096b0295","study_id":"6197b3f67c2b5cd3b6d9596a","session_id":"619bfbdeec5c3b9091ce479d","condition":"full-information","relevant_dimensions":["pattern","legs"],"bee_group":{"antennae":"X","wings":"X","pattern":"D","legs":"F"},"action":"harvest","summary":"good-harvest","bonus":0.42000000000000104},{"rt":2199.300000011921,"stimulus":"\n                    <p><b>Action: <em>harvest</em></b></p>\n                    <p>This is the bee that you just saw.</p>\n                    <img src=\"bees-with-color/bee-A2SF.svg\" width=\"200\">\n                    <p><span class=\"greenText\"><b>Successful harvest!</b></span><br>Your pay has increased by $0.02. Your bonus pay is now $0.54.</p>\n            ","response":0,"trial_type":"html-button-response","trial_index":28,"time_elapsed":333211,"internal_node_id":"0.0-4.0-1.10","subject_id":"5f919274b5383b00096b0295","study_id":"6197b3f67c2b5cd3b6d9596a","session_id":"619bfbdeec5c3b9091ce479d","condition":"full-information","relevant_dimensions":["pattern","legs"],"bee_group":{"antennae":"X","wings":"X","pattern":"D","legs":"F"},"bonus":0.42000000000000104},{"rt":3100.7999999523163,"stimulus":"bees-with-color/bee-A1SM.svg","response":1,"trial_type":"image-button-response","trial_index":29,"time_elapsed":336315,"internal_node_id":"0.0-4.0-0.11","subject_id":"5f919274b5383b00096b0295","study_id":"6197b3f67c2b5cd3b6d9596a","session_id":"619bfbdeec5c3b9091ce479d","condition":"full-information","relevant_dimensions":["pattern","legs"],"bee_group":{"antennae":"X","wings":"X","pattern":"D","legs":"F"},"action":"avoid","summary":"bad-avoid","bonus":0.42000000000000104},{"rt":7952.400000035763,"stimulus":"\n                    <p><b>Action: <em>avoid</em></b></p>\n                    <p>This is the bee that you just saw.</p>\n                    <img src=\"bees-with-color/bee-A1SM.svg\" width=\"200\">\n                    <p><span class=\"redText\">Bad choice,</span> the bee was friendly.<br>Your bonus pay is unchanged, and remains at $0.54.</p>\n            ","response":0,"trial_type":"html-button-response","trial_index":30,"time_elapsed":344271,"internal_node_id":"0.0-4.0-1.11","subject_id":"5f919274b5383b00096b0295","study_id":"6197b3f67c2b5cd3b6d9596a","session_id":"619bfbdeec5c3b9091ce479d","condition":"full-information","relevant_dimensions":["pattern","legs"],"bee_group":{"antennae":"X","wings":"X","pattern":"D","legs":"F"},"bonus":0.42000000000000104},{"rt":3498.399999976158,"stimulus":"bees-with-color/bee-B1DM.svg","response":1,"trial_type":"image-button-response","trial_index":31,"time_elapsed":347775,"internal_node_id":"0.0-4.0-0.12","subject_id":"5f919274b5383b00096b0295","study_id":"6197b3f67c2b5cd3b6d9596a","session_id":"619bfbdeec5c3b9091ce479d","condition":"full-information","relevant_dimensions":["pattern","legs"],"bee_group":{"antennae":"X","wings":"X","pattern":"D","legs":"F"},"action":"avoid","summary":"bad-avoid","bonus":0.42000000000000104},{"rt":1984.300000011921,"stimulus":"\n                    <p><b>Action: <em>avoid</em></b></p>\n                    <p>This is the bee that you just saw.</p>\n                    <img src=\"bees-with-color/bee-B1DM.svg\" width=\"200\">\n                    <p><span class=\"redText\">Bad choice,</span> the bee was friendly.<br>Your bonus pay is unchanged, and remains at $0.54.</p>\n            ","response":0,"trial_type":"html-button-response","trial_index":32,"time_elapsed":349761,"internal_node_id":"0.0-4.0-1.12","subject_id":"5f919274b5383b00096b0295","study_id":"6197b3f67c2b5cd3b6d9596a","session_id":"619bfbdeec5c3b9091ce479d","condition":"full-information","relevant_dimensions":["pattern","legs"],"bee_group":{"antennae":"X","wings":"X","pattern":"D","legs":"F"},"bonus":0.42000000000000104},{"rt":3862.100000023842,"stimulus":"bees-with-color/bee-A1SF.svg","response":0,"trial_type":"image-button-response","trial_index":33,"time_elapsed":353625,"internal_node_id":"0.0-4.0-0.13","subject_id":"5f919274b5383b00096b0295","study_id":"6197b3f67c2b5cd3b6d9596a","session_id":"619bfbdeec5c3b9091ce479d","condition":"full-information","relevant_dimensions":["pattern","legs"],"bee_group":{"antennae":"X","wings":"X","pattern":"D","legs":"F"},"action":"harvest","summary":"good-harvest","bonus":0.42000000000000104},{"rt":2409,"stimulus":"\n                    <p><b>Action: <em>harvest</em></b></p>\n                    <p>This is the bee that you just saw.</p>\n                    <img src=\"bees-with-color/bee-A1SF.svg\" width=\"200\">\n                    <p><span class=\"greenText\"><b>Successful harvest!</b></span><br>Your pay has increased by $0.02. Your bonus pay is now $0.56.</p>\n            ","response":0,"trial_type":"html-button-response","trial_index":34,"time_elapsed":356036,"internal_node_id":"0.0-4.0-1.13","subject_id":"5f919274b5383b00096b0295","study_id":"6197b3f67c2b5cd3b6d9596a","session_id":"619bfbdeec5c3b9091ce479d","condition":"full-information","relevant_dimensions":["pattern","legs"],"bee_group":{"antennae":"X","wings":"X","pattern":"D","legs":"F"},"bonus":0.42000000000000104},{"rt":2597.399999976158,"stimulus":"bees-with-color/bee-B2DF.svg","response":0,"trial_type":"image-button-response","trial_index":35,"time_elapsed":358636,"internal_node_id":"0.0-4.0-0.14","subject_id":"5f919274b5383b00096b0295","study_id":"6197b3f67c2b5cd3b6d9596a","session_id":"619bfbdeec5c3b9091ce479d","condition":"full-information","relevant_dimensions":["pattern","legs"],"bee_group":{"antennae":"X","wings":"X","pattern":"D","legs":"F"},"action":"harvest","summary":"bad-harvest","bonus":0.42000000000000104},{"rt":4113.700000047684,"stimulus":"\n                    <p><b>Action: <em>harvest</em></b></p>\n                    <p>This is the bee that you just saw.</p>\n                    <img src=\"bees-with-color/bee-B2DF.svg\" width=\"200\">\n                    <p><span class=\"redText\">Bad choice, the bee was angry.</span><br><b>You have been stung!</b><br>Your pay has been decreased by $0.10. Your bonus pay is now $0.46.</p>\n            ","response":0,"trial_type":"html-button-response","trial_index":36,"time_elapsed":362752,"internal_node_id":"0.0-4.0-1.14","subject_id":"5f919274b5383b00096b0295","study_id":"6197b3f67c2b5cd3b6d9596a","session_id":"619bfbdeec5c3b9091ce479d","condition":"full-information","relevant_dimensions":["pattern","legs"],"bee_group":{"antennae":"X","wings":"X","pattern":"D","legs":"F"},"bonus":0.42000000000000104},{"rt":2744.899999976158,"stimulus":"bees-with-color/bee-B1SM.svg","response":0,"trial_type":"image-button-response","trial_index":37,"time_elapsed":365499,"internal_node_id":"0.0-4.0-0.15","subject_id":"5f919274b5383b00096b0295","study_id":"6197b3f67c2b5cd3b6d9596a","session_id":"619bfbdeec5c3b9091ce479d","condition":"full-information","relevant_dimensions":["pattern","legs"],"bee_group":{"antennae":"X","wings":"X","pattern":"D","legs":"F"},"action":"harvest","summary":"good-harvest","bonus":0.42000000000000104},{"rt":1555.9000000357628,"stimulus":"\n                    <p><b>Action: <em>harvest</em></b></p>\n                    <p>This is the bee that you just saw.</p>\n                    <img src=\"bees-with-color/bee-B1SM.svg\" width=\"200\">\n                    <p><span class=\"greenText\"><b>Successful harvest!</b></span><br>Your pay has increased by $0.02. Your bonus pay is now $0.48.</p>\n            ","response":0,"trial_type":"html-button-response","trial_index":38,"time_elapsed":367057,"internal_node_id":"0.0-4.0-1.15","subject_id":"5f919274b5383b00096b0295","study_id":"6197b3f67c2b5cd3b6d9596a","session_id":"619bfbdeec5c3b9091ce479d","condition":"full-information","relevant_dimensions":["pattern","legs"],"bee_group":{"antennae":"X","wings":"X","pattern":"D","legs":"F"},"bonus":0.42000000000000104},{"rt":5157.5,"stimulus":"bees-with-color/bee-A1DM.svg","response":0,"trial_type":"image-button-response","trial_index":39,"time_elapsed":372217,"internal_node_id":"0.0-4.0-0.16","subject_id":"5f919274b5383b00096b0295","study_id":"6197b3f67c2b5cd3b6d9596a","session_id":"619bfbdeec5c3b9091ce479d","condition":"full-information","relevant_dimensions":["pattern","legs"],"bee_group":{"antennae":"X","wings":"X","pattern":"D","legs":"F"},"action":"harvest","summary":"good-harvest","bonus":0.42000000000000104},{"rt":1566.5,"stimulus":"\n                    <p><b>Action: <em>harvest</em></b></p>\n                    <p>This is the bee that you just saw.</p>\n                    <img src=\"bees-with-color/bee-A1DM.svg\" width=\"200\">\n                    <p><span class=\"greenText\"><b>Successful harvest!</b></span><br>Your pay has increased by $0.02. Your bonus pay is now $0.50.</p>\n            ","response":0,"trial_type":"html-button-response","trial_index":40,"time_elapsed":373786,"internal_node_id":"0.0-4.0-1.16","subject_id":"5f919274b5383b00096b0295","study_id":"6197b3f67c2b5cd3b6d9596a","session_id":"619bfbdeec5c3b9091ce479d","condition":"full-information","relevant_dimensions":["pattern","legs"],"bee_group":{"antennae":"X","wings":"X","pattern":"D","legs":"F"},"bonus":0.42000000000000104},{"rt":3045.800000011921,"stimulus":"bees-with-color/bee-A1SF.svg","response":1,"trial_type":"image-button-response","trial_index":41,"time_elapsed":376835,"internal_node_id":"0.0-4.0-0.17","subject_id":"5f919274b5383b00096b0295","study_id":"6197b3f67c2b5cd3b6d9596a","session_id":"619bfbdeec5c3b9091ce479d","condition":"full-information","relevant_dimensions":["pattern","legs"],"bee_group":{"antennae":"X","wings":"X","pattern":"D","legs":"F"},"action":"avoid","summary":"bad-avoid","bonus":0.42000000000000104},{"rt":3060.300000011921,"stimulus":"\n                    <p><b>Action: <em>avoid</em></b></p>\n                    <p>This is the bee that you just saw.</p>\n                    <img src=\"bees-with-color/bee-A1SF.svg\" width=\"200\">\n                    <p><span class=\"redText\">Bad choice,</span> the bee was friendly.<br>Your bonus pay is unchanged, and remains at $0.50.</p>\n            ","response":0,"trial_type":"html-button-response","trial_index":42,"time_elapsed":379898,"internal_node_id":"0.0-4.0-1.17","subject_id":"5f919274b5383b00096b0295","study_id":"6197b3f67c2b5cd3b6d9596a","session_id":"619bfbdeec5c3b9091ce479d","condition":"full-information","relevant_dimensions":["pattern","legs"],"bee_group":{"antennae":"X","wings":"X","pattern":"D","legs":"F"},"bonus":0.42000000000000104},{"rt":2456.300000011921,"stimulus":"bees-with-color/bee-B2SF.svg","response":1,"trial_type":"image-button-response","trial_index":43,"time_elapsed":382357,"internal_node_id":"0.0-4.0-0.18","subject_id":"5f919274b5383b00096b0295","study_id":"6197b3f67c2b5cd3b6d9596a","session_id":"619bfbdeec5c3b9091ce479d","condition":"full-information","relevant_dimensions":["pattern","legs"],"bee_group":{"antennae":"X","wings":"X","pattern":"D","legs":"F"},"action":"avoid","summary":"bad-avoid","bonus":0.42000000000000104},{"rt":1379.5999999642372,"stimulus":"\n                    <p><b>Action: <em>avoid</em></b></p>\n                    <p>This is the bee that you just saw.</p>\n                    <img src=\"bees-with-color/bee-B2SF.svg\" width=\"200\">\n                    <p><span class=\"redText\">Bad choice,</span> the bee was friendly.<br>Your bonus pay is unchanged, and remains at $0.50.</p>\n            ","response":0,"trial_type":"html-button-response","trial_index":44,"time_elapsed":383739,"internal_node_id":"0.0-4.0-1.18","subject_id":"5f919274b5383b00096b0295","study_id":"6197b3f67c2b5cd3b6d9596a","session_id":"619bfbdeec5c3b9091ce479d","condition":"full-information","relevant_dimensions":["pattern","legs"],"bee_group":{"antennae":"X","wings":"X","pattern":"D","legs":"F"},"bonus":0.42000000000000104},{"rt":3389.300000011921,"stimulus":"bees-with-color/bee-A2DM.svg","response":0,"trial_type":"image-button-response","trial_index":45,"time_elapsed":387131,"internal_node_id":"0.0-4.0-0.19","subject_id":"5f919274b5383b00096b0295","study_id":"6197b3f67c2b5cd3b6d9596a","session_id":"619bfbdeec5c3b9091ce479d","condition":"full-information","relevant_dimensions":["pattern","legs"],"bee_group":{"antennae":"X","wings":"X","pattern":"D","legs":"F"},"action":"harvest","summary":"good-harvest","bonus":0.42000000000000104},{"rt":1324.8999999761581,"stimulus":"\n                    <p><b>Action: <em>harvest</em></b></p>\n                    <p>This is the bee that you just saw.</p>\n                    <img src=\"bees-with-color/bee-A2DM.svg\" width=\"200\">\n                    <p><span class=\"greenText\"><b>Successful harvest!</b></span><br>Your pay has increased by $0.02. Your bonus pay is now $0.52.</p>\n            ","response":0,"trial_type":"html-button-response","trial_index":46,"time_elapsed":388458,"internal_node_id":"0.0-4.0-1.19","subject_id":"5f919274b5383b00096b0295","study_id":"6197b3f67c2b5cd3b6d9596a","session_id":"619bfbdeec5c3b9091ce479d","condition":"full-information","relevant_dimensions":["pattern","legs"],"bee_group":{"antennae":"X","wings":"X","pattern":"D","legs":"F"},"bonus":0.42000000000000104},{"rt":3689.300000011921,"stimulus":"bees-with-color/bee-A2SM.svg","response":0,"trial_type":"image-button-response","trial_index":47,"time_elapsed":392151,"internal_node_id":"0.0-4.0-0.20","subject_id":"5f919274b5383b00096b0295","study_id":"6197b3f67c2b5cd3b6d9596a","session_id":"619bfbdeec5c3b9091ce479d","condition":"full-information","relevant_dimensions":["pattern","legs"],"bee_group":{"antennae":"X","wings":"X","pattern":"D","legs":"F"},"action":"harvest","summary":"good-harvest","bonus":0.42000000000000104},{"rt":1431.0999999642372,"stimulus":"\n                    <p><b>Action: <em>harvest</em></b></p>\n                    <p>This is the bee that you just saw.</p>\n                    <img src=\"bees-with-color/bee-A2SM.svg\" width=\"200\">\n                    <p><span class=\"greenText\"><b>Successful harvest!</b></span><br>Your pay has increased by $0.02. Your bonus pay is now $0.54.</p>\n            ","response":0,"trial_type":"html-button-response","trial_index":48,"time_elapsed":393584,"internal_node_id":"0.0-4.0-1.20","subject_id":"5f919274b5383b00096b0295","study_id":"6197b3f67c2b5cd3b6d9596a","session_id":"619bfbdeec5c3b9091ce479d","condition":"full-information","relevant_dimensions":["pattern","legs"],"bee_group":{"antennae":"X","wings":"X","pattern":"D","legs":"F"},"bonus":0.42000000000000104},{"rt":2367.699999988079,"stimulus":"bees-with-color/bee-A1DF.svg","response":1,"trial_type":"image-button-response","trial_index":49,"time_elapsed":395955,"internal_node_id":"0.0-4.0-0.21","subject_id":"5f919274b5383b00096b0295","study_id":"6197b3f67c2b5cd3b6d9596a","session_id":"619bfbdeec5c3b9091ce479d","condition":"full-information","relevant_dimensions":["pattern","legs"],"bee_group":{"antennae":"X","wings":"X","pattern":"D","legs":"F"},"action":"avoid","summary":"good-avoid","bonus":0.42000000000000104},{"rt":2542.7000000476837,"stimulus":"\n                    <p><b>Action: <em>avoid</em></b></p>\n                    <p>This is the bee that you just saw.</p>\n                    <img src=\"bees-with-color/bee-A1DF.svg\" width=\"200\">\n                    <p><span class=\"greenText\">Good choice!</span>  This bee would have stung you.<br>Your bonus pay is unchanged, and remains at $0.54.</p>\n            ","response":0,"trial_type":"html-button-response","trial_index":50,"time_elapsed":398499,"internal_node_id":"0.0-4.0-1.21","subject_id":"5f919274b5383b00096b0295","study_id":"6197b3f67c2b5cd3b6d9596a","session_id":"619bfbdeec5c3b9091ce479d","condition":"full-information","relevant_dimensions":["pattern","legs"],"bee_group":{"antennae":"X","wings":"X","pattern":"D","legs":"F"},"bonus":0.42000000000000104},{"rt":3115.300000011921,"stimulus":"bees-with-color/bee-A1SM.svg","response":0,"trial_type":"image-button-response","trial_index":51,"time_elapsed":401617,"internal_node_id":"0.0-4.0-0.22","subject_id":"5f919274b5383b00096b0295","study_id":"6197b3f67c2b5cd3b6d9596a","session_id":"619bfbdeec5c3b9091ce479d","condition":"full-information","relevant_dimensions":["pattern","legs"],"bee_group":{"antennae":"X","wings":"X","pattern":"D","legs":"F"},"action":"harvest","summary":"good-harvest","bonus":0.42000000000000104},{"rt":1313.800000011921,"stimulus":"\n                    <p><b>Action: <em>harvest</em></b></p>\n                    <p>This is the bee that you just saw.</p>\n                    <img src=\"bees-with-color/bee-A1SM.svg\" width=\"200\">\n                    <p><span class=\"greenText\"><b>Successful harvest!</b></span><br>Your pay has increased by $0.02. Your bonus pay is now $0.56.</p>\n            ","response":0,"trial_type":"html-button-response","trial_index":52,"time_elapsed":402933,"internal_node_id":"0.0-4.0-1.22","subject_id":"5f919274b5383b00096b0295","study_id":"6197b3f67c2b5cd3b6d9596a","session_id":"619bfbdeec5c3b9091ce479d","condition":"full-information","relevant_dimensions":["pattern","legs"],"bee_group":{"antennae":"X","wings":"X","pattern":"D","legs":"F"},"bonus":0.42000000000000104},{"rt":5796,"stimulus":"bees-with-color/bee-B2DF.svg","response":1,"trial_type":"image-button-response","trial_index":53,"time_elapsed":408732,"internal_node_id":"0.0-4.0-0.23","subject_id":"5f919274b5383b00096b0295","study_id":"6197b3f67c2b5cd3b6d9596a","session_id":"619bfbdeec5c3b9091ce479d","condition":"full-information","relevant_dimensions":["pattern","legs"],"bee_group":{"antennae":"X","wings":"X","pattern":"D","legs":"F"},"action":"avoid","summary":"good-avoid","bonus":0.42000000000000104},{"rt":2370.699999988079,"stimulus":"\n                    <p><b>Action: <em>avoid</em></b></p>\n                    <p>This is the bee that you just saw.</p>\n                    <img src=\"bees-with-color/bee-B2DF.svg\" width=\"200\">\n                    <p><span class=\"greenText\">Good choice!</span>  This bee would have stung you.<br>Your bonus pay is unchanged, and remains at $0.56.</p>\n            ","response":0,"trial_type":"html-button-response","trial_index":54,"time_elapsed":411105,"internal_node_id":"0.0-4.0-1.23","subject_id":"5f919274b5383b00096b0295","study_id":"6197b3f67c2b5cd3b6d9596a","session_id":"619bfbdeec5c3b9091ce479d","condition":"full-information","relevant_dimensions":["pattern","legs"],"bee_group":{"antennae":"X","wings":"X","pattern":"D","legs":"F"},"bonus":0.42000000000000104},{"rt":3334.400000035763,"stimulus":"bees-with-color/bee-B1SM.svg","response":1,"trial_type":"image-button-response","trial_index":55,"time_elapsed":414442,"internal_node_id":"0.0-4.0-0.24","subject_id":"5f919274b5383b00096b0295","study_id":"6197b3f67c2b5cd3b6d9596a","session_id":"619bfbdeec5c3b9091ce479d","condition":"full-information","relevant_dimensions":["pattern","legs"],"bee_group":{"antennae":"X","wings":"X","pattern":"D","legs":"F"},"action":"avoid","summary":"bad-avoid","bonus":0.42000000000000104},{"rt":1430.699999988079,"stimulus":"\n                    <p><b>Action: <em>avoid</em></b></p>\n                    <p>This is the bee that you just saw.</p>\n                    <img src=\"bees-with-color/bee-B1SM.svg\" width=\"200\">\n                    <p><span class=\"redText\">Bad choice,</span> the bee was friendly.<br>Your bonus pay is unchanged, and remains at $0.56.</p>\n            ","response":0,"trial_type":"html-button-response","trial_index":56,"time_elapsed":415875,"internal_node_id":"0.0-4.0-1.24","subject_id":"5f919274b5383b00096b0295","study_id":"6197b3f67c2b5cd3b6d9596a","session_id":"619bfbdeec5c3b9091ce479d","condition":"full-information","relevant_dimensions":["pattern","legs"],"bee_group":{"antennae":"X","wings":"X","pattern":"D","legs":"F"},"bonus":0.42000000000000104},{"rt":3029.199999988079,"stimulus":"bees-with-color/bee-A2SF.svg","response":0,"trial_type":"image-button-response","trial_index":57,"time_elapsed":418907,"internal_node_id":"0.0-4.0-0.25","subject_id":"5f919274b5383b00096b0295","study_id":"6197b3f67c2b5cd3b6d9596a","session_id":"619bfbdeec5c3b9091ce479d","condition":"full-information","relevant_dimensions":["pattern","legs"],"bee_group":{"antennae":"X","wings":"X","pattern":"D","legs":"F"},"action":"harvest","summary":"good-harvest","bonus":0.42000000000000104},{"rt":1560.300000011921,"stimulus":"\n                    <p><b>Action: <em>harvest</em></b></p>\n                    <p>This is the bee that you just saw.</p>\n                    <img src=\"bees-with-color/bee-A2SF.svg\" width=\"200\">\n                    <p><span class=\"greenText\"><b>Successful harvest!</b></span><br>Your pay has increased by $0.02. Your bonus pay is now $0.58.</p>\n            ","response":0,"trial_type":"html-button-response","trial_index":58,"time_elapsed":420469,"internal_node_id":"0.0-4.0-1.25","subject_id":"5f919274b5383b00096b0295","study_id":"6197b3f67c2b5cd3b6d9596a","session_id":"619bfbdeec5c3b9091ce479d","condition":"full-information","relevant_dimensions":["pattern","legs"],"bee_group":{"antennae":"X","wings":"X","pattern":"D","legs":"F"},"bonus":0.42000000000000104},{"rt":3003.399999976158,"stimulus":"bees-with-color/bee-B1SF.svg","response":1,"trial_type":"image-button-response","trial_index":59,"time_elapsed":423475,"internal_node_id":"0.0-4.0-0.26","subject_id":"5f919274b5383b00096b0295","study_id":"6197b3f67c2b5cd3b6d9596a","session_id":"619bfbdeec5c3b9091ce479d","condition":"full-information","relevant_dimensions":["pattern","legs"],"bee_group":{"antennae":"X","wings":"X","pattern":"D","legs":"F"},"action":"avoid","summary":"bad-avoid","bonus":0.42000000000000104},{"rt":1288.699999988079,"stimulus":"\n                    <p><b>Action: <em>avoid</em></b></p>\n                    <p>This is the bee that you just saw.</p>\n                    <img src=\"bees-with-color/bee-B1SF.svg\" width=\"200\">\n                    <p><span class=\"redText\">Bad choice,</span> the bee was friendly.<br>Your bonus pay is unchanged, and remains at $0.58.</p>\n            ","response":0,"trial_type":"html-button-response","trial_index":60,"time_elapsed":424767,"internal_node_id":"0.0-4.0-1.26","subject_id":"5f919274b5383b00096b0295","study_id":"6197b3f67c2b5cd3b6d9596a","session_id":"619bfbdeec5c3b9091ce479d","condition":"full-information","relevant_dimensions":["pattern","legs"],"bee_group":{"antennae":"X","wings":"X","pattern":"D","legs":"F"},"bonus":0.42000000000000104},{"rt":1540.8999999761581,"stimulus":"bees-with-color/bee-B1DF.svg","response":1,"trial_type":"image-button-response","trial_index":61,"time_elapsed":426311,"internal_node_id":"0.0-4.0-0.27","subject_id":"5f919274b5383b00096b0295","study_id":"6197b3f67c2b5cd3b6d9596a","session_id":"619bfbdeec5c3b9091ce479d","condition":"full-information","relevant_dimensions":["pattern","legs"],"bee_group":{"antennae":"X","wings":"X","pattern":"D","legs":"F"},"action":"avoid","summary":"good-avoid","bonus":0.42000000000000104},{"rt":1892.300000011921,"stimulus":"\n                    <p><b>Action: <em>avoid</em></b></p>\n                    <p>This is the bee that you just saw.</p>\n                    <img src=\"bees-with-color/bee-B1DF.svg\" width=\"200\">\n                    <p><span class=\"greenText\">Good choice!</span>  This bee would have stung you.<br>Your bonus pay is unchanged, and remains at $0.58.</p>\n            ","response":0,"trial_type":"html-button-response","trial_index":62,"time_elapsed":428206,"internal_node_id":"0.0-4.0-1.27","subject_id":"5f919274b5383b00096b0295","study_id":"6197b3f67c2b5cd3b6d9596a","session_id":"619bfbdeec5c3b9091ce479d","condition":"full-information","relevant_dimensions":["pattern","legs"],"bee_group":{"antennae":"X","wings":"X","pattern":"D","legs":"F"},"bonus":0.42000000000000104},{"rt":1879.2000000476837,"stimulus":"bees-with-color/bee-B2SM.svg","response":0,"trial_type":"image-button-response","trial_index":63,"time_elapsed":430088,"internal_node_id":"0.0-4.0-0.28","subject_id":"5f919274b5383b00096b0295","study_id":"6197b3f67c2b5cd3b6d9596a","session_id":"619bfbdeec5c3b9091ce479d","condition":"full-information","relevant_dimensions":["pattern","legs"],"bee_group":{"antennae":"X","wings":"X","pattern":"D","legs":"F"},"action":"harvest","summary":"good-harvest","bonus":0.42000000000000104},{"rt":1203.199999988079,"stimulus":"\n                    <p><b>Action: <em>harvest</em></b></p>\n                    <p>This is the bee that you just saw.</p>\n                    <img src=\"bees-with-color/bee-B2SM.svg\" width=\"200\">\n                    <p><span class=\"greenText\"><b>Successful harvest!</b></span><br>Your pay has increased by $0.02. Your bonus pay is now $0.60.</p>\n            ","response":0,"trial_type":"html-button-response","trial_index":64,"time_elapsed":431293,"internal_node_id":"0.0-4.0-1.28","subject_id":"5f919274b5383b00096b0295","study_id":"6197b3f67c2b5cd3b6d9596a","session_id":"619bfbdeec5c3b9091ce479d","condition":"full-information","relevant_dimensions":["pattern","legs"],"bee_group":{"antennae":"X","wings":"X","pattern":"D","legs":"F"},"bonus":0.42000000000000104},{"rt":5793.400000035763,"stimulus":"bees-with-color/bee-B2DM.svg","response":0,"trial_type":"image-button-response","trial_index":65,"time_elapsed":437089,"internal_node_id":"0.0-4.0-0.29","subject_id":"5f919274b5383b00096b0295","study_id":"6197b3f67c2b5cd3b6d9596a","session_id":"619bfbdeec5c3b9091ce479d","condition":"full-information","relevant_dimensions":["pattern","legs"],"bee_group":{"antennae":"X","wings":"X","pattern":"D","legs":"F"},"action":"harvest","summary":"good-harvest","bonus":0.42000000000000104},{"rt":1350.800000011921,"stimulus":"\n                    <p><b>Action: <em>harvest</em></b></p>\n                    <p>This is the bee that you just saw.</p>\n                    <img src=\"bees-with-color/bee-B2DM.svg\" width=\"200\">\n                    <p><span class=\"greenText\"><b>Successful harvest!</b></span><br>Your pay has increased by $0.02. Your bonus pay is now $0.62.</p>\n            ","response":0,"trial_type":"html-button-response","trial_index":66,"time_elapsed":438442,"internal_node_id":"0.0-4.0-1.29","subject_id":"5f919274b5383b00096b0295","study_id":"6197b3f67c2b5cd3b6d9596a","session_id":"619bfbdeec5c3b9091ce479d","condition":"full-information","relevant_dimensions":["pattern","legs"],"bee_group":{"antennae":"X","wings":"X","pattern":"D","legs":"F"},"bonus":0.42000000000000104},{"rt":3678.600000023842,"stimulus":"bees-with-color/bee-B1DM.svg","response":1,"trial_type":"image-button-response","trial_index":67,"time_elapsed":442123,"internal_node_id":"0.0-4.0-0.30","subject_id":"5f919274b5383b00096b0295","study_id":"6197b3f67c2b5cd3b6d9596a","session_id":"619bfbdeec5c3b9091ce479d","condition":"full-information","relevant_dimensions":["pattern","legs"],"bee_group":{"antennae":"X","wings":"X","pattern":"D","legs":"F"},"action":"avoid","summary":"bad-avoid","bonus":0.42000000000000104},{"rt":1167.6000000238419,"stimulus":"\n                    <p><b>Action: <em>avoid</em></b></p>\n                    <p>This is the bee that you just saw.</p>\n                    <img src=\"bees-with-color/bee-B1DM.svg\" width=\"200\">\n                    <p><span class=\"redText\">Bad choice,</span> the bee was friendly.<br>Your bonus pay is unchanged, and remains at $0.62.</p>\n            ","response":0,"trial_type":"html-button-response","trial_index":68,"time_elapsed":443292,"internal_node_id":"0.0-4.0-1.30","subject_id":"5f919274b5383b00096b0295","study_id":"6197b3f67c2b5cd3b6d9596a","session_id":"619bfbdeec5c3b9091ce479d","condition":"full-information","relevant_dimensions":["pattern","legs"],"bee_group":{"antennae":"X","wings":"X","pattern":"D","legs":"F"},"bonus":0.42000000000000104},{"rt":4294.800000011921,"stimulus":"bees-with-color/bee-A2DF.svg","response":0,"trial_type":"image-button-response","trial_index":69,"time_elapsed":447590,"internal_node_id":"0.0-4.0-0.31","subject_id":"5f919274b5383b00096b0295","study_id":"6197b3f67c2b5cd3b6d9596a","session_id":"619bfbdeec5c3b9091ce479d","condition":"full-information","relevant_dimensions":["pattern","legs"],"bee_group":{"antennae":"X","wings":"X","pattern":"D","legs":"F"},"action":"harvest","summary":"bad-harvest","bonus":0.42000000000000104},{"rt":1431.6000000238419,"stimulus":"\n                    <p><b>Action: <em>harvest</em></b></p>\n                    <p>This is the bee that you just saw.</p>\n                    <img src=\"bees-with-color/bee-A2DF.svg\" width=\"200\">\n                    <p><span class=\"redText\">Bad choice, the bee was angry.</span><br><b>You have been stung!</b><br>Your pay has been decreased by $0.10. Your bonus pay is now $0.52.</p>\n            ","response":0,"trial_type":"html-button-response","trial_index":70,"time_elapsed":449023,"internal_node_id":"0.0-4.0-1.31","subject_id":"5f919274b5383b00096b0295","study_id":"6197b3f67c2b5cd3b6d9596a","session_id":"619bfbdeec5c3b9091ce479d","condition":"full-information","relevant_dimensions":["pattern","legs"],"bee_group":{"antennae":"X","wings":"X","pattern":"D","legs":"F"},"bonus":0.42000000000000104},{"rt":1376.199999988079,"stimulus":"bees-with-color/bee-B2DM.svg","response":0,"trial_type":"image-button-response","trial_index":71,"time_elapsed":450401,"internal_node_id":"0.0-4.0-0.32","subject_id":"5f919274b5383b00096b0295","study_id":"6197b3f67c2b5cd3b6d9596a","session_id":"619bfbdeec5c3b9091ce479d","condition":"full-information","relevant_dimensions":["pattern","legs"],"bee_group":{"antennae":"X","wings":"X","pattern":"D","legs":"F"},"action":"harvest","summary":"good-harvest","bonus":0.42000000000000104},{"rt":991,"stimulus":"\n                    <p><b>Action: <em>harvest</em></b></p>\n                    <p>This is the bee that you just saw.</p>\n                    <img src=\"bees-with-color/bee-B2DM.svg\" width=\"200\">\n                    <p><span class=\"greenText\"><b>Successful harvest!</b></span><br>Your pay has increased by $0.02. Your bonus pay is now $0.54.</p>\n            ","response":0,"trial_type":"html-button-response","trial_index":72,"time_elapsed":451395,"internal_node_id":"0.0-4.0-1.32","subject_id":"5f919274b5383b00096b0295","study_id":"6197b3f67c2b5cd3b6d9596a","session_id":"619bfbdeec5c3b9091ce479d","condition":"full-information","relevant_dimensions":["pattern","legs"],"bee_group":{"antennae":"X","wings":"X","pattern":"D","legs":"F"},"bonus":0.42000000000000104},{"rt":1844.800000011921,"stimulus":"bees-with-color/bee-B1DF.svg","response":0,"trial_type":"image-button-response","trial_index":73,"time_elapsed":453241,"internal_node_id":"0.0-4.0-0.33","subject_id":"5f919274b5383b00096b0295","study_id":"6197b3f67c2b5cd3b6d9596a","session_id":"619bfbdeec5c3b9091ce479d","condition":"full-information","relevant_dimensions":["pattern","legs"],"bee_group":{"antennae":"X","wings":"X","pattern":"D","legs":"F"},"action":"harvest","summary":"bad-harvest","bonus":0.42000000000000104},{"rt":1519.199999988079,"stimulus":"\n                    <p><b>Action: <em>harvest</em></b></p>\n                    <p>This is the bee that you just saw.</p>\n                    <img src=\"bees-with-color/bee-B1DF.svg\" width=\"200\">\n                    <p><span class=\"redText\">Bad choice, the bee was angry.</span><br><b>You have been stung!</b><br>Your pay has been decreased by $0.10. Your bonus pay is now $0.44.</p>\n            ","response":0,"trial_type":"html-button-response","trial_index":74,"time_elapsed":454763,"internal_node_id":"0.0-4.0-1.33","subject_id":"5f919274b5383b00096b0295","study_id":"6197b3f67c2b5cd3b6d9596a","session_id":"619bfbdeec5c3b9091ce479d","condition":"full-information","relevant_dimensions":["pattern","legs"],"bee_group":{"antennae":"X","wings":"X","pattern":"D","legs":"F"},"bonus":0.42000000000000104},{"rt":1659.300000011921,"stimulus":"bees-with-color/bee-B2SF.svg","response":0,"trial_type":"image-button-response","trial_index":75,"time_elapsed":456424,"internal_node_id":"0.0-4.0-0.34","subject_id":"5f919274b5383b00096b0295","study_id":"6197b3f67c2b5cd3b6d9596a","session_id":"619bfbdeec5c3b9091ce479d","condition":"full-information","relevant_dimensions":["pattern","legs"],"bee_group":{"antennae":"X","wings":"X","pattern":"D","legs":"F"},"action":"harvest","summary":"good-harvest","bonus":0.42000000000000104},{"rt":999.7000000476837,"stimulus":"\n                    <p><b>Action: <em>harvest</em></b></p>\n                    <p>This is the bee that you just saw.</p>\n                    <img src=\"bees-with-color/bee-B2SF.svg\" width=\"200\">\n                    <p><span class=\"greenText\"><b>Successful harvest!</b></span><br>Your pay has increased by $0.02. Your bonus pay is now $0.46.</p>\n            ","response":0,"trial_type":"html-button-response","trial_index":76,"time_elapsed":457426,"internal_node_id":"0.0-4.0-1.34","subject_id":"5f919274b5383b00096b0295","study_id":"6197b3f67c2b5cd3b6d9596a","session_id":"619bfbdeec5c3b9091ce479d","condition":"full-information","relevant_dimensions":["pattern","legs"],"bee_group":{"antennae":"X","wings":"X","pattern":"D","legs":"F"},"bonus":0.42000000000000104},{"rt":4368.100000023842,"stimulus":"bees-with-color/bee-A1DF.svg","response":0,"trial_type":"image-button-response","trial_index":77,"time_elapsed":461796,"internal_node_id":"0.0-4.0-0.35","subject_id":"5f919274b5383b00096b0295","study_id":"6197b3f67c2b5cd3b6d9596a","session_id":"619bfbdeec5c3b9091ce479d","condition":"full-information","relevant_dimensions":["pattern","legs"],"bee_group":{"antennae":"X","wings":"X","pattern":"D","legs":"F"},"action":"harvest","summary":"bad-harvest","bonus":0.42000000000000104},{"rt":1287.800000011921,"stimulus":"\n                    <p><b>Action: <em>harvest</em></b></p>\n                    <p>This is the bee that you just saw.</p>\n                    <img src=\"bees-with-color/bee-A1DF.svg\" width=\"200\">\n                    <p><span class=\"redText\">Bad choice, the bee was angry.</span><br><b>You have been stung!</b><br>Your pay has been decreased by $0.10. Your bonus pay is now $0.36.</p>\n            ","response":0,"trial_type":"html-button-response","trial_index":78,"time_elapsed":463086,"internal_node_id":"0.0-4.0-1.35","subject_id":"5f919274b5383b00096b0295","study_id":"6197b3f67c2b5cd3b6d9596a","session_id":"619bfbdeec5c3b9091ce479d","condition":"full-information","relevant_dimensions":["pattern","legs"],"bee_group":{"antennae":"X","wings":"X","pattern":"D","legs":"F"},"bonus":0.42000000000000104},{"rt":4766.600000023842,"stimulus":"bees-with-color/bee-B1SM.svg","response":0,"trial_type":"image-button-response","trial_index":79,"time_elapsed":467855,"internal_node_id":"0.0-4.0-0.36","subject_id":"5f919274b5383b00096b0295","study_id":"6197b3f67c2b5cd3b6d9596a","session_id":"619bfbdeec5c3b9091ce479d","condition":"full-information","relevant_dimensions":["pattern","legs"],"bee_group":{"antennae":"X","wings":"X","pattern":"D","legs":"F"},"action":"harvest","summary":"good-harvest","bonus":0.42000000000000104},{"rt":1074.800000011921,"stimulus":"\n                    <p><b>Action: <em>harvest</em></b></p>\n                    <p>This is the bee that you just saw.</p>\n                    <img src=\"bees-with-color/bee-B1SM.svg\" width=\"200\">\n                    <p><span class=\"greenText\"><b>Successful harvest!</b></span><br>Your pay has increased by $0.02. Your bonus pay is now $0.38.</p>\n            ","response":0,"trial_type":"html-button-response","trial_index":80,"time_elapsed":468932,"internal_node_id":"0.0-4.0-1.36","subject_id":"5f919274b5383b00096b0295","study_id":"6197b3f67c2b5cd3b6d9596a","session_id":"619bfbdeec5c3b9091ce479d","condition":"full-information","relevant_dimensions":["pattern","legs"],"bee_group":{"antennae":"X","wings":"X","pattern":"D","legs":"F"},"bonus":0.42000000000000104},{"rt":1879.300000011921,"stimulus":"bees-with-color/bee-B1SF.svg","response":0,"trial_type":"image-button-response","trial_index":81,"time_elapsed":470815,"internal_node_id":"0.0-4.0-0.37","subject_id":"5f919274b5383b00096b0295","study_id":"6197b3f67c2b5cd3b6d9596a","session_id":"619bfbdeec5c3b9091ce479d","condition":"full-information","relevant_dimensions":["pattern","legs"],"bee_group":{"antennae":"X","wings":"X","pattern":"D","legs":"F"},"action":"harvest","summary":"good-harvest","bonus":0.42000000000000104},{"rt":1183,"stimulus":"\n                    <p><b>Action: <em>harvest</em></b></p>\n                    <p>This is the bee that you just saw.</p>\n                    <img src=\"bees-with-color/bee-B1SF.svg\" width=\"200\">\n                    <p><span class=\"greenText\"><b>Successful harvest!</b></span><br>Your pay has increased by $0.02. Your bonus pay is now $0.40.</p>\n            ","response":0,"trial_type":"html-button-response","trial_index":82,"time_elapsed":472001,"internal_node_id":"0.0-4.0-1.37","subject_id":"5f919274b5383b00096b0295","study_id":"6197b3f67c2b5cd3b6d9596a","session_id":"619bfbdeec5c3b9091ce479d","condition":"full-information","relevant_dimensions":["pattern","legs"],"bee_group":{"antennae":"X","wings":"X","pattern":"D","legs":"F"},"bonus":0.42000000000000104},{"rt":4766.800000011921,"stimulus":"bees-with-color/bee-A1SM.svg","response":0,"trial_type":"image-button-response","trial_index":83,"time_elapsed":476772,"internal_node_id":"0.0-4.0-0.38","subject_id":"5f919274b5383b00096b0295","study_id":"6197b3f67c2b5cd3b6d9596a","session_id":"619bfbdeec5c3b9091ce479d","condition":"full-information","relevant_dimensions":["pattern","legs"],"bee_group":{"antennae":"X","wings":"X","pattern":"D","legs":"F"},"action":"harvest","summary":"good-harvest","bonus":0.42000000000000104},{"rt":1120.8999999761581,"stimulus":"\n                    <p><b>Action: <em>harvest</em></b></p>\n                    <p>This is the bee that you just saw.</p>\n                    <img src=\"bees-with-color/bee-A1SM.svg\" width=\"200\">\n                    <p><span class=\"greenText\"><b>Successful harvest!</b></span><br>Your pay has increased by $0.02. Your bonus pay is now $0.42.</p>\n            ","response":0,"trial_type":"html-button-response","trial_index":84,"time_elapsed":477896,"internal_node_id":"0.0-4.0-1.38","subject_id":"5f919274b5383b00096b0295","study_id":"6197b3f67c2b5cd3b6d9596a","session_id":"619bfbdeec5c3b9091ce479d","condition":"full-information","relevant_dimensions":["pattern","legs"],"bee_group":{"antennae":"X","wings":"X","pattern":"D","legs":"F"},"bonus":0.42000000000000104},{"rt":3101.100000023842,"stimulus":"bees-with-color/bee-A2SM.svg","response":0,"trial_type":"image-button-response","trial_index":85,"time_elapsed":481000,"internal_node_id":"0.0-4.0-0.39","subject_id":"5f919274b5383b00096b0295","study_id":"6197b3f67c2b5cd3b6d9596a","session_id":"619bfbdeec5c3b9091ce479d","condition":"full-information","relevant_dimensions":["pattern","legs"],"bee_group":{"antennae":"X","wings":"X","pattern":"D","legs":"F"},"action":"harvest","summary":"good-harvest","bonus":0.42000000000000104},{"rt":1071.199999988079,"stimulus":"\n                    <p><b>Action: <em>harvest</em></b></p>\n                    <p>This is the bee that you just saw.</p>\n                    <img src=\"bees-with-color/bee-A2SM.svg\" width=\"200\">\n                    <p><span class=\"greenText\"><b>Successful harvest!</b></span><br>Your pay has increased by $0.02. Your bonus pay is now $0.44.</p>\n            ","response":0,"trial_type":"html-button-response","trial_index":86,"time_elapsed":482074,"internal_node_id":"0.0-4.0-1.39","subject_id":"5f919274b5383b00096b0295","study_id":"6197b3f67c2b5cd3b6d9596a","session_id":"619bfbdeec5c3b9091ce479d","condition":"full-information","relevant_dimensions":["pattern","legs"],"bee_group":{"antennae":"X","wings":"X","pattern":"D","legs":"F"},"bonus":0.42000000000000104},{"rt":1550.3999999761581,"stimulus":"bees-with-color/bee-B1DM.svg","response":1,"trial_type":"image-button-response","trial_index":87,"time_elapsed":483627,"internal_node_id":"0.0-4.0-0.40","subject_id":"5f919274b5383b00096b0295","study_id":"6197b3f67c2b5cd3b6d9596a","session_id":"619bfbdeec5c3b9091ce479d","condition":"full-information","relevant_dimensions":["pattern","legs"],"bee_group":{"antennae":"X","wings":"X","pattern":"D","legs":"F"},"action":"avoid","summary":"bad-avoid","bonus":0.42000000000000104},{"rt":1595.2000000476837,"stimulus":"\n                    <p><b>Action: <em>avoid</em></b></p>\n                    <p>This is the bee that you just saw.</p>\n                    <img src=\"bees-with-color/bee-B1DM.svg\" width=\"200\">\n                    <p><span class=\"redText\">Bad choice,</span> the bee was friendly.<br>Your bonus pay is unchanged, and remains at $0.44.</p>\n            ","response":0,"trial_type":"html-button-response","trial_index":88,"time_elapsed":485225,"internal_node_id":"0.0-4.0-1.40","subject_id":"5f919274b5383b00096b0295","study_id":"6197b3f67c2b5cd3b6d9596a","session_id":"619bfbdeec5c3b9091ce479d","condition":"full-information","relevant_dimensions":["pattern","legs"],"bee_group":{"antennae":"X","wings":"X","pattern":"D","legs":"F"},"bonus":0.42000000000000104},{"rt":3578.300000011921,"stimulus":"bees-with-color/bee-A2DF.svg","response":0,"trial_type":"image-button-response","trial_index":89,"time_elapsed":488806,"internal_node_id":"0.0-4.0-0.41","subject_id":"5f919274b5383b00096b0295","study_id":"6197b3f67c2b5cd3b6d9596a","session_id":"619bfbdeec5c3b9091ce479d","condition":"full-information","relevant_dimensions":["pattern","legs"],"bee_group":{"antennae":"X","wings":"X","pattern":"D","legs":"F"},"action":"harvest","summary":"bad-harvest","bonus":0.42000000000000104},{"rt":1302.2999999523163,"stimulus":"\n                    <p><b>Action: <em>harvest</em></b></p>\n                    <p>This is the bee that you just saw.</p>\n                    <img src=\"bees-with-color/bee-A2DF.svg\" width=\"200\">\n                    <p><span class=\"redText\">Bad choice, the bee was angry.</span><br><b>You have been stung!</b><br>Your pay has been decreased by $0.10. Your bonus pay is now $0.34.</p>\n            ","response":0,"trial_type":"html-button-response","trial_index":90,"time_elapsed":490115,"internal_node_id":"0.0-4.0-1.41","subject_id":"5f919274b5383b00096b0295","study_id":"6197b3f67c2b5cd3b6d9596a","session_id":"619bfbdeec5c3b9091ce479d","condition":"full-information","relevant_dimensions":["pattern","legs"],"bee_group":{"antennae":"X","wings":"X","pattern":"D","legs":"F"},"bonus":0.42000000000000104},{"rt":2527.599999964237,"stimulus":"bees-with-color/bee-B2SM.svg","response":0,"trial_type":"image-button-response","trial_index":91,"time_elapsed":492646,"internal_node_id":"0.0-4.0-0.42","subject_id":"5f919274b5383b00096b0295","study_id":"6197b3f67c2b5cd3b6d9596a","session_id":"619bfbdeec5c3b9091ce479d","condition":"full-information","relevant_dimensions":["pattern","legs"],"bee_group":{"antennae":"X","wings":"X","pattern":"D","legs":"F"},"action":"harvest","summary":"good-harvest","bonus":0.42000000000000104},{"rt":1188.699999988079,"stimulus":"\n                    <p><b>Action: <em>harvest</em></b></p>\n                    <p>This is the bee that you just saw.</p>\n                    <img src=\"bees-with-color/bee-B2SM.svg\" width=\"200\">\n                    <p><span class=\"greenText\"><b>Successful harvest!</b></span><br>Your pay has increased by $0.02. Your bonus pay is now $0.36.</p>\n            ","response":0,"trial_type":"html-button-response","trial_index":92,"time_elapsed":493837,"internal_node_id":"0.0-4.0-1.42","subject_id":"5f919274b5383b00096b0295","study_id":"6197b3f67c2b5cd3b6d9596a","session_id":"619bfbdeec5c3b9091ce479d","condition":"full-information","relevant_dimensions":["pattern","legs"],"bee_group":{"antennae":"X","wings":"X","pattern":"D","legs":"F"},"bonus":0.42000000000000104},{"rt":4475.200000047684,"stimulus":"bees-with-color/bee-A1DM.svg","response":0,"trial_type":"image-button-response","trial_index":93,"time_elapsed":498317,"internal_node_id":"0.0-4.0-0.43","subject_id":"5f919274b5383b00096b0295","study_id":"6197b3f67c2b5cd3b6d9596a","session_id":"619bfbdeec5c3b9091ce479d","condition":"full-information","relevant_dimensions":["pattern","legs"],"bee_group":{"antennae":"X","wings":"X","pattern":"D","legs":"F"},"action":"harvest","summary":"good-harvest","bonus":0.42000000000000104},{"rt":926.6000000238419,"stimulus":"\n                    <p><b>Action: <em>harvest</em></b></p>\n                    <p>This is the bee that you just saw.</p>\n                    <img src=\"bees-with-color/bee-A1DM.svg\" width=\"200\">\n                    <p><span class=\"greenText\"><b>Successful harvest!</b></span><br>Your pay has increased by $0.02. Your bonus pay is now $0.38.</p>\n            ","response":0,"trial_type":"html-button-response","trial_index":94,"time_elapsed":499246,"internal_node_id":"0.0-4.0-1.43","subject_id":"5f919274b5383b00096b0295","study_id":"6197b3f67c2b5cd3b6d9596a","session_id":"619bfbdeec5c3b9091ce479d","condition":"full-information","relevant_dimensions":["pattern","legs"],"bee_group":{"antennae":"X","wings":"X","pattern":"D","legs":"F"},"bonus":0.42000000000000104},{"rt":2252.599999964237,"stimulus":"bees-with-color/bee-A1SF.svg","response":0,"trial_type":"image-button-response","trial_index":95,"time_elapsed":501500,"internal_node_id":"0.0-4.0-0.44","subject_id":"5f919274b5383b00096b0295","study_id":"6197b3f67c2b5cd3b6d9596a","session_id":"619bfbdeec5c3b9091ce479d","condition":"full-information","relevant_dimensions":["pattern","legs"],"bee_group":{"antennae":"X","wings":"X","pattern":"D","legs":"F"},"action":"harvest","summary":"good-harvest","bonus":0.42000000000000104},{"rt":1008,"stimulus":"\n                    <p><b>Action: <em>harvest</em></b></p>\n                    <p>This is the bee that you just saw.</p>\n                    <img src=\"bees-with-color/bee-A1SF.svg\" width=\"200\">\n                    <p><span class=\"greenText\"><b>Successful harvest!</b></span><br>Your pay has increased by $0.02. Your bonus pay is now $0.40.</p>\n            ","response":0,"trial_type":"html-button-response","trial_index":96,"time_elapsed":502510,"internal_node_id":"0.0-4.0-1.44","subject_id":"5f919274b5383b00096b0295","study_id":"6197b3f67c2b5cd3b6d9596a","session_id":"619bfbdeec5c3b9091ce479d","condition":"full-information","relevant_dimensions":["pattern","legs"],"bee_group":{"antennae":"X","wings":"X","pattern":"D","legs":"F"},"bonus":0.42000000000000104},{"rt":2184.300000011921,"stimulus":"bees-with-color/bee-A2DM.svg","response":0,"trial_type":"image-button-response","trial_index":97,"time_elapsed":504697,"internal_node_id":"0.0-4.0-0.45","subject_id":"5f919274b5383b00096b0295","study_id":"6197b3f67c2b5cd3b6d9596a","session_id":"619bfbdeec5c3b9091ce479d","condition":"full-information","relevant_dimensions":["pattern","legs"],"bee_group":{"antennae":"X","wings":"X","pattern":"D","legs":"F"},"action":"harvest","summary":"good-harvest","bonus":0.42000000000000104},{"rt":1018.8999999761581,"stimulus":"\n                    <p><b>Action: <em>harvest</em></b></p>\n                    <p>This is the bee that you just saw.</p>\n                    <img src=\"bees-with-color/bee-A2DM.svg\" width=\"200\">\n                    <p><span class=\"greenText\"><b>Successful harvest!</b></span><br>Your pay has increased by $0.02. Your bonus pay is now $0.42.</p>\n            ","response":0,"trial_type":"html-button-response","trial_index":98,"time_elapsed":505718,"internal_node_id":"0.0-4.0-1.45","subject_id":"5f919274b5383b00096b0295","study_id":"6197b3f67c2b5cd3b6d9596a","session_id":"619bfbdeec5c3b9091ce479d","condition":"full-information","relevant_dimensions":["pattern","legs"],"bee_group":{"antennae":"X","wings":"X","pattern":"D","legs":"F"},"bonus":0.42000000000000104},{"rt":1623.8999999761581,"stimulus":"bees-with-color/bee-B2DF.svg","response":1,"trial_type":"image-button-response","trial_index":99,"time_elapsed":507344,"internal_node_id":"0.0-4.0-0.46","subject_id":"5f919274b5383b00096b0295","study_id":"6197b3f67c2b5cd3b6d9596a","session_id":"619bfbdeec5c3b9091ce479d","condition":"full-information","relevant_dimensions":["pattern","legs"],"bee_group":{"antennae":"X","wings":"X","pattern":"D","legs":"F"},"action":"avoid","summary":"good-avoid","bonus":0.42000000000000104},{"rt":1464.2999999523163,"stimulus":"\n                    <p><b>Action: <em>avoid</em></b></p>\n                    <p>This is the bee that you just saw.</p>\n                    <img src=\"bees-with-color/bee-B2DF.svg\" width=\"200\">\n                    <p><span class=\"greenText\">Good choice!</span>  This bee would have stung you.<br>Your bonus pay is unchanged, and remains at $0.42.</p>\n            ","response":0,"trial_type":"html-button-response","trial_index":100,"time_elapsed":508810,"internal_node_id":"0.0-4.0-1.46","subject_id":"5f919274b5383b00096b0295","study_id":"6197b3f67c2b5cd3b6d9596a","session_id":"619bfbdeec5c3b9091ce479d","condition":"full-information","relevant_dimensions":["pattern","legs"],"bee_group":{"antennae":"X","wings":"X","pattern":"D","legs":"F"},"bonus":0.42000000000000104},{"rt":4335.100000023842,"stimulus":"bees-with-color/bee-A2SF.svg","response":0,"trial_type":"image-button-response","trial_index":101,"time_elapsed":513147,"internal_node_id":"0.0-4.0-0.47","subject_id":"5f919274b5383b00096b0295","study_id":"6197b3f67c2b5cd3b6d9596a","session_id":"619bfbdeec5c3b9091ce479d","condition":"full-information","relevant_dimensions":["pattern","legs"],"bee_group":{"antennae":"X","wings":"X","pattern":"D","legs":"F"},"action":"harvest","summary":"good-harvest","bonus":0.42000000000000104},{"rt":979.1999999880791,"stimulus":"\n                    <p><b>Action: <em>harvest</em></b></p>\n                    <p>This is the bee that you just saw.</p>\n                    <img src=\"bees-with-color/bee-A2SF.svg\" width=\"200\">\n                    <p><span class=\"greenText\"><b>Successful harvest!</b></span><br>Your pay has increased by $0.02. Your bonus pay is now $0.44.</p>\n            ","response":0,"trial_type":"html-button-response","trial_index":102,"time_elapsed":514128,"internal_node_id":"0.0-4.0-1.47","subject_id":"5f919274b5383b00096b0295","study_id":"6197b3f67c2b5cd3b6d9596a","session_id":"619bfbdeec5c3b9091ce479d","condition":"full-information","relevant_dimensions":["pattern","legs"],"bee_group":{"antennae":"X","wings":"X","pattern":"D","legs":"F"},"bonus":0.42000000000000104},{"rt":1527.699999988079,"stimulus":"bees-with-color/bee-B1DF.svg","response":1,"trial_type":"image-button-response","trial_index":103,"time_elapsed":515659,"internal_node_id":"0.0-4.0-0.48","subject_id":"5f919274b5383b00096b0295","study_id":"6197b3f67c2b5cd3b6d9596a","session_id":"619bfbdeec5c3b9091ce479d","condition":"full-information","relevant_dimensions":["pattern","legs"],"bee_group":{"antennae":"X","wings":"X","pattern":"D","legs":"F"},"action":"avoid","summary":"good-avoid","bonus":0.42000000000000104},{"rt":1496,"stimulus":"\n                    <p><b>Action: <em>avoid</em></b></p>\n                    <p>This is the bee that you just saw.</p>\n                    <img src=\"bees-with-color/bee-B1DF.svg\" width=\"200\">\n                    <p><span class=\"greenText\">Good choice!</span>  This bee would have stung you.<br>Your bonus pay is unchanged, and remains at $0.44.</p>\n            ","response":0,"trial_type":"html-button-response","trial_index":104,"time_elapsed":517158,"internal_node_id":"0.0-4.0-1.48","subject_id":"5f919274b5383b00096b0295","study_id":"6197b3f67c2b5cd3b6d9596a","session_id":"619bfbdeec5c3b9091ce479d","condition":"full-information","relevant_dimensions":["pattern","legs"],"bee_group":{"antennae":"X","wings":"X","pattern":"D","legs":"F"},"bonus":0.42000000000000104},{"rt":2210.699999988079,"stimulus":"bees-with-color/bee-A2SM.svg","response":0,"trial_type":"image-button-response","trial_index":105,"time_elapsed":519371,"internal_node_id":"0.0-4.0-0.49","subject_id":"5f919274b5383b00096b0295","study_id":"6197b3f67c2b5cd3b6d9596a","session_id":"619bfbdeec5c3b9091ce479d","condition":"full-information","relevant_dimensions":["pattern","legs"],"bee_group":{"antennae":"X","wings":"X","pattern":"D","legs":"F"},"action":"harvest","summary":"good-harvest","bonus":0.42000000000000104},{"rt":837.8999999761581,"stimulus":"\n                    <p><b>Action: <em>harvest</em></b></p>\n                    <p>This is the bee that you just saw.</p>\n                    <img src=\"bees-with-color/bee-A2SM.svg\" width=\"200\">\n                    <p><span class=\"greenText\"><b>Successful harvest!</b></span><br>Your pay has increased by $0.02. Your bonus pay is now $0.46.</p>\n            ","response":0,"trial_type":"html-button-response","trial_index":106,"time_elapsed":520212,"internal_node_id":"0.0-4.0-1.49","subject_id":"5f919274b5383b00096b0295","study_id":"6197b3f67c2b5cd3b6d9596a","session_id":"619bfbdeec5c3b9091ce479d","condition":"full-information","relevant_dimensions":["pattern","legs"],"bee_group":{"antennae":"X","wings":"X","pattern":"D","legs":"F"},"bonus":0.42000000000000104},{"rt":1876.2999999523163,"stimulus":"bees-with-color/bee-B2DM.svg","response":1,"trial_type":"image-button-response","trial_index":107,"time_elapsed":522092,"internal_node_id":"0.0-4.0-0.50","subject_id":"5f919274b5383b00096b0295","study_id":"6197b3f67c2b5cd3b6d9596a","session_id":"619bfbdeec5c3b9091ce479d","condition":"full-information","relevant_dimensions":["pattern","legs"],"bee_group":{"antennae":"X","wings":"X","pattern":"D","legs":"F"},"action":"avoid","summary":"bad-avoid","bonus":0.42000000000000104},{"rt":1429.1000000238419,"stimulus":"\n                    <p><b>Action: <em>avoid</em></b></p>\n                    <p>This is the bee that you just saw.</p>\n                    <img src=\"bees-with-color/bee-B2DM.svg\" width=\"200\">\n                    <p><span class=\"redText\">Bad choice,</span> the bee was friendly.<br>Your bonus pay is unchanged, and remains at $0.46.</p>\n            ","response":0,"trial_type":"html-button-response","trial_index":108,"time_elapsed":523525,"internal_node_id":"0.0-4.0-1.50","subject_id":"5f919274b5383b00096b0295","study_id":"6197b3f67c2b5cd3b6d9596a","session_id":"619bfbdeec5c3b9091ce479d","condition":"full-information","relevant_dimensions":["pattern","legs"],"bee_group":{"antennae":"X","wings":"X","pattern":"D","legs":"F"},"bonus":0.42000000000000104},{"rt":2231.099999964237,"stimulus":"bees-with-color/bee-B1SF.svg","response":1,"trial_type":"image-button-response","trial_index":109,"time_elapsed":525759,"internal_node_id":"0.0-4.0-0.51","subject_id":"5f919274b5383b00096b0295","study_id":"6197b3f67c2b5cd3b6d9596a","session_id":"619bfbdeec5c3b9091ce479d","condition":"full-information","relevant_dimensions":["pattern","legs"],"bee_group":{"antennae":"X","wings":"X","pattern":"D","legs":"F"},"action":"avoid","summary":"bad-avoid","bonus":0.42000000000000104},{"rt":1058.5,"stimulus":"\n                    <p><b>Action: <em>avoid</em></b></p>\n                    <p>This is the bee that you just saw.</p>\n                    <img src=\"bees-with-color/bee-B1SF.svg\" width=\"200\">\n                    <p><span class=\"redText\">Bad choice,</span> the bee was friendly.<br>Your bonus pay is unchanged, and remains at $0.46.</p>\n            ","response":0,"trial_type":"html-button-response","trial_index":110,"time_elapsed":526820,"internal_node_id":"0.0-4.0-1.51","subject_id":"5f919274b5383b00096b0295","study_id":"6197b3f67c2b5cd3b6d9596a","session_id":"619bfbdeec5c3b9091ce479d","condition":"full-information","relevant_dimensions":["pattern","legs"],"bee_group":{"antennae":"X","wings":"X","pattern":"D","legs":"F"},"bonus":0.42000000000000104},{"rt":2857.099999964237,"stimulus":"bees-with-color/bee-A1DM.svg","response":0,"trial_type":"image-button-response","trial_index":111,"time_elapsed":529680,"internal_node_id":"0.0-4.0-0.52","subject_id":"5f919274b5383b00096b0295","study_id":"6197b3f67c2b5cd3b6d9596a","session_id":"619bfbdeec5c3b9091ce479d","condition":"full-information","relevant_dimensions":["pattern","legs"],"bee_group":{"antennae":"X","wings":"X","pattern":"D","legs":"F"},"action":"harvest","summary":"good-harvest","bonus":0.42000000000000104},{"rt":1267.699999988079,"stimulus":"\n                    <p><b>Action: <em>harvest</em></b></p>\n                    <p>This is the bee that you just saw.</p>\n                    <img src=\"bees-with-color/bee-A1DM.svg\" width=\"200\">\n                    <p><span class=\"greenText\"><b>Successful harvest!</b></span><br>Your pay has increased by $0.02. Your bonus pay is now $0.48.</p>\n            ","response":0,"trial_type":"html-button-response","trial_index":112,"time_elapsed":530950,"internal_node_id":"0.0-4.0-1.52","subject_id":"5f919274b5383b00096b0295","study_id":"6197b3f67c2b5cd3b6d9596a","session_id":"619bfbdeec5c3b9091ce479d","condition":"full-information","relevant_dimensions":["pattern","legs"],"bee_group":{"antennae":"X","wings":"X","pattern":"D","legs":"F"},"bonus":0.42000000000000104},{"rt":2247.900000035763,"stimulus":"bees-with-color/bee-A2DM.svg","response":0,"trial_type":"image-button-response","trial_index":113,"time_elapsed":533201,"internal_node_id":"0.0-4.0-0.53","subject_id":"5f919274b5383b00096b0295","study_id":"6197b3f67c2b5cd3b6d9596a","session_id":"619bfbdeec5c3b9091ce479d","condition":"full-information","relevant_dimensions":["pattern","legs"],"bee_group":{"antennae":"X","wings":"X","pattern":"D","legs":"F"},"action":"harvest","summary":"good-harvest","bonus":0.42000000000000104},{"rt":1179.300000011921,"stimulus":"\n                    <p><b>Action: <em>harvest</em></b></p>\n                    <p>This is the bee that you just saw.</p>\n                    <img src=\"bees-with-color/bee-A2DM.svg\" width=\"200\">\n                    <p><span class=\"greenText\"><b>Successful harvest!</b></span><br>Your pay has increased by $0.02. Your bonus pay is now $0.50.</p>\n            ","response":0,"trial_type":"html-button-response","trial_index":114,"time_elapsed":534383,"internal_node_id":"0.0-4.0-1.53","subject_id":"5f919274b5383b00096b0295","study_id":"6197b3f67c2b5cd3b6d9596a","session_id":"619bfbdeec5c3b9091ce479d","condition":"full-information","relevant_dimensions":["pattern","legs"],"bee_group":{"antennae":"X","wings":"X","pattern":"D","legs":"F"},"bonus":0.42000000000000104},{"rt":3202.099999964237,"stimulus":"bees-with-color/bee-B1SM.svg","response":1,"trial_type":"image-button-response","trial_index":115,"time_elapsed":537587,"internal_node_id":"0.0-4.0-0.54","subject_id":"5f919274b5383b00096b0295","study_id":"6197b3f67c2b5cd3b6d9596a","session_id":"619bfbdeec5c3b9091ce479d","condition":"full-information","relevant_dimensions":["pattern","legs"],"bee_group":{"antennae":"X","wings":"X","pattern":"D","legs":"F"},"action":"avoid","summary":"bad-avoid","bonus":0.42000000000000104},{"rt":1339.0999999642372,"stimulus":"\n                    <p><b>Action: <em>avoid</em></b></p>\n                    <p>This is the bee that you just saw.</p>\n                    <img src=\"bees-with-color/bee-B1SM.svg\" width=\"200\">\n                    <p><span class=\"redText\">Bad choice,</span> the bee was friendly.<br>Your bonus pay is unchanged, and remains at $0.50.</p>\n            ","response":0,"trial_type":"html-button-response","trial_index":116,"time_elapsed":538929,"internal_node_id":"0.0-4.0-1.54","subject_id":"5f919274b5383b00096b0295","study_id":"6197b3f67c2b5cd3b6d9596a","session_id":"619bfbdeec5c3b9091ce479d","condition":"full-information","relevant_dimensions":["pattern","legs"],"bee_group":{"antennae":"X","wings":"X","pattern":"D","legs":"F"},"bonus":0.42000000000000104},{"rt":2287.599999964237,"stimulus":"bees-with-color/bee-B2DF.svg","response":1,"trial_type":"image-button-response","trial_index":117,"time_elapsed":541219,"internal_node_id":"0.0-4.0-0.55","subject_id":"5f919274b5383b00096b0295","study_id":"6197b3f67c2b5cd3b6d9596a","session_id":"619bfbdeec5c3b9091ce479d","condition":"full-information","relevant_dimensions":["pattern","legs"],"bee_group":{"antennae":"X","wings":"X","pattern":"D","legs":"F"},"action":"avoid","summary":"good-avoid","bonus":0.42000000000000104},{"rt":1316.300000011921,"stimulus":"\n                    <p><b>Action: <em>avoid</em></b></p>\n                    <p>This is the bee that you just saw.</p>\n                    <img src=\"bees-with-color/bee-B2DF.svg\" width=\"200\">\n                    <p><span class=\"greenText\">Good choice!</span>  This bee would have stung you.<br>Your bonus pay is unchanged, and remains at $0.50.</p>\n            ","response":0,"trial_type":"html-button-response","trial_index":118,"time_elapsed":542537,"internal_node_id":"0.0-4.0-1.55","subject_id":"5f919274b5383b00096b0295","study_id":"6197b3f67c2b5cd3b6d9596a","session_id":"619bfbdeec5c3b9091ce479d","condition":"full-information","relevant_dimensions":["pattern","legs"],"bee_group":{"antennae":"X","wings":"X","pattern":"D","legs":"F"},"bonus":0.42000000000000104},{"rt":1822.800000011921,"stimulus":"bees-with-color/bee-B2SF.svg","response":0,"trial_type":"image-button-response","trial_index":119,"time_elapsed":544363,"internal_node_id":"0.0-4.0-0.56","subject_id":"5f919274b5383b00096b0295","study_id":"6197b3f67c2b5cd3b6d9596a","session_id":"619bfbdeec5c3b9091ce479d","condition":"full-information","relevant_dimensions":["pattern","legs"],"bee_group":{"antennae":"X","wings":"X","pattern":"D","legs":"F"},"action":"harvest","summary":"good-harvest","bonus":0.42000000000000104},{"rt":1087.699999988079,"stimulus":"\n                    <p><b>Action: <em>harvest</em></b></p>\n                    <p>This is the bee that you just saw.</p>\n                    <img src=\"bees-with-color/bee-B2SF.svg\" width=\"200\">\n                    <p><span class=\"greenText\"><b>Successful harvest!</b></span><br>Your pay has increased by $0.02. Your bonus pay is now $0.52.</p>\n            ","response":0,"trial_type":"html-button-response","trial_index":120,"time_elapsed":545453,"internal_node_id":"0.0-4.0-1.56","subject_id":"5f919274b5383b00096b0295","study_id":"6197b3f67c2b5cd3b6d9596a","session_id":"619bfbdeec5c3b9091ce479d","condition":"full-information","relevant_dimensions":["pattern","legs"],"bee_group":{"antennae":"X","wings":"X","pattern":"D","legs":"F"},"bonus":0.42000000000000104},{"rt":1731.7000000476837,"stimulus":"bees-with-color/bee-A1DF.svg","response":1,"trial_type":"image-button-response","trial_index":121,"time_elapsed":547187,"internal_node_id":"0.0-4.0-0.57","subject_id":"5f919274b5383b00096b0295","study_id":"6197b3f67c2b5cd3b6d9596a","session_id":"619bfbdeec5c3b9091ce479d","condition":"full-information","relevant_dimensions":["pattern","legs"],"bee_group":{"antennae":"X","wings":"X","pattern":"D","legs":"F"},"action":"avoid","summary":"good-avoid","bonus":0.42000000000000104},{"rt":1960.0999999642372,"stimulus":"\n                    <p><b>Action: <em>avoid</em></b></p>\n                    <p>This is the bee that you just saw.</p>\n                    <img src=\"bees-with-color/bee-A1DF.svg\" width=\"200\">\n                    <p><span class=\"greenText\">Good choice!</span>  This bee would have stung you.<br>Your bonus pay is unchanged, and remains at $0.52.</p>\n            ","response":0,"trial_type":"html-button-response","trial_index":122,"time_elapsed":549150,"internal_node_id":"0.0-4.0-1.57","subject_id":"5f919274b5383b00096b0295","study_id":"6197b3f67c2b5cd3b6d9596a","session_id":"619bfbdeec5c3b9091ce479d","condition":"full-information","relevant_dimensions":["pattern","legs"],"bee_group":{"antennae":"X","wings":"X","pattern":"D","legs":"F"},"bonus":0.42000000000000104},{"rt":4998.899999976158,"stimulus":"bees-with-color/bee-A2SF.svg","response":1,"trial_type":"image-button-response","trial_index":123,"time_elapsed":554152,"internal_node_id":"0.0-4.0-0.58","subject_id":"5f919274b5383b00096b0295","study_id":"6197b3f67c2b5cd3b6d9596a","session_id":"619bfbdeec5c3b9091ce479d","condition":"full-information","relevant_dimensions":["pattern","legs"],"bee_group":{"antennae":"X","wings":"X","pattern":"D","legs":"F"},"action":"avoid","summary":"bad-avoid","bonus":0.42000000000000104},{"rt":1023,"stimulus":"\n                    <p><b>Action: <em>avoid</em></b></p>\n                    <p>This is the bee that you just saw.</p>\n                    <img src=\"bees-with-color/bee-A2SF.svg\" width=\"200\">\n                    <p><span class=\"redText\">Bad choice,</span> the bee was friendly.<br>Your bonus pay is unchanged, and remains at $0.52.</p>\n            ","response":0,"trial_type":"html-button-response","trial_index":124,"time_elapsed":555178,"internal_node_id":"0.0-4.0-1.58","subject_id":"5f919274b5383b00096b0295","study_id":"6197b3f67c2b5cd3b6d9596a","session_id":"619bfbdeec5c3b9091ce479d","condition":"full-information","relevant_dimensions":["pattern","legs"],"bee_group":{"antennae":"X","wings":"X","pattern":"D","legs":"F"},"bonus":0.42000000000000104},{"rt":2394.899999976158,"stimulus":"bees-with-color/bee-B2SM.svg","response":1,"trial_type":"image-button-response","trial_index":125,"time_elapsed":557576,"internal_node_id":"0.0-4.0-0.59","subject_id":"5f919274b5383b00096b0295","study_id":"6197b3f67c2b5cd3b6d9596a","session_id":"619bfbdeec5c3b9091ce479d","condition":"full-information","relevant_dimensions":["pattern","legs"],"bee_group":{"antennae":"X","wings":"X","pattern":"D","legs":"F"},"action":"avoid","summary":"bad-avoid","bonus":0.42000000000000104},{"rt":997.3000000119209,"stimulus":"\n                    <p><b>Action: <em>avoid</em></b></p>\n                    <p>This is the bee that you just saw.</p>\n                    <img src=\"bees-with-color/bee-B2SM.svg\" width=\"200\">\n                    <p><span class=\"redText\">Bad choice,</span> the bee was friendly.<br>Your bonus pay is unchanged, and remains at $0.52.</p>\n            ","response":0,"trial_type":"html-button-response","trial_index":126,"time_elapsed":558578,"internal_node_id":"0.0-4.0-1.59","subject_id":"5f919274b5383b00096b0295","study_id":"6197b3f67c2b5cd3b6d9596a","session_id":"619bfbdeec5c3b9091ce479d","condition":"full-information","relevant_dimensions":["pattern","legs"],"bee_group":{"antennae":"X","wings":"X","pattern":"D","legs":"F"},"bonus":0.42000000000000104},{"rt":2351.300000011921,"stimulus":"bees-with-color/bee-B1DM.svg","response":1,"trial_type":"image-button-response","trial_index":127,"time_elapsed":560932,"internal_node_id":"0.0-4.0-0.60","subject_id":"5f919274b5383b00096b0295","study_id":"6197b3f67c2b5cd3b6d9596a","session_id":"619bfbdeec5c3b9091ce479d","condition":"full-information","relevant_dimensions":["pattern","legs"],"bee_group":{"antennae":"X","wings":"X","pattern":"D","legs":"F"},"action":"avoid","summary":"bad-avoid","bonus":0.42000000000000104},{"rt":1067.699999988079,"stimulus":"\n                    <p><b>Action: <em>avoid</em></b></p>\n                    <p>This is the bee that you just saw.</p>\n                    <img src=\"bees-with-color/bee-B1DM.svg\" width=\"200\">\n                    <p><span class=\"redText\">Bad choice,</span> the bee was friendly.<br>Your bonus pay is unchanged, and remains at $0.52.</p>\n            ","response":0,"trial_type":"html-button-response","trial_index":128,"time_elapsed":562002,"internal_node_id":"0.0-4.0-1.60","subject_id":"5f919274b5383b00096b0295","study_id":"6197b3f67c2b5cd3b6d9596a","session_id":"619bfbdeec5c3b9091ce479d","condition":"full-information","relevant_dimensions":["pattern","legs"],"bee_group":{"antennae":"X","wings":"X","pattern":"D","legs":"F"},"bonus":0.42000000000000104},{"rt":1471.0999999642372,"stimulus":"bees-with-color/bee-A2DF.svg","response":0,"trial_type":"image-button-response","trial_index":129,"time_elapsed":563475,"internal_node_id":"0.0-4.0-0.61","subject_id":"5f919274b5383b00096b0295","study_id":"6197b3f67c2b5cd3b6d9596a","session_id":"619bfbdeec5c3b9091ce479d","condition":"full-information","relevant_dimensions":["pattern","legs"],"bee_group":{"antennae":"X","wings":"X","pattern":"D","legs":"F"},"action":"harvest","summary":"bad-harvest","bonus":0.42000000000000104},{"rt":4264,"stimulus":"\n                    <p><b>Action: <em>harvest</em></b></p>\n                    <p>This is the bee that you just saw.</p>\n                    <img src=\"bees-with-color/bee-A2DF.svg\" width=\"200\">\n                    <p><span class=\"redText\">Bad choice, the bee was angry.</span><br><b>You have been stung!</b><br>Your pay has been decreased by $0.10. Your bonus pay is now $0.42.</p>\n            ","response":0,"trial_type":"html-button-response","trial_index":130,"time_elapsed":567741,"internal_node_id":"0.0-4.0-1.61","subject_id":"5f919274b5383b00096b0295","study_id":"6197b3f67c2b5cd3b6d9596a","session_id":"619bfbdeec5c3b9091ce479d","condition":"full-information","relevant_dimensions":["pattern","legs"],"bee_group":{"antennae":"X","wings":"X","pattern":"D","legs":"F"},"bonus":0.42000000000000104},{"rt":2964.7000000476837,"stimulus":"bees-with-color/bee-A1SF.svg","response":0,"trial_type":"image-button-response","trial_index":131,"time_elapsed":570708,"internal_node_id":"0.0-4.0-0.62","subject_id":"5f919274b5383b00096b0295","study_id":"6197b3f67c2b5cd3b6d9596a","session_id":"619bfbdeec5c3b9091ce479d","condition":"full-information","relevant_dimensions":["pattern","legs"],"bee_group":{"antennae":"X","wings":"X","pattern":"D","legs":"F"},"action":"harvest","summary":"good-harvest","bonus":0.42000000000000104},{"rt":1104.199999988079,"stimulus":"\n                    <p><b>Action: <em>harvest</em></b></p>\n                    <p>This is the bee that you just saw.</p>\n                    <img src=\"bees-with-color/bee-A1SF.svg\" width=\"200\">\n                    <p><span class=\"greenText\"><b>Successful harvest!</b></span><br>Your pay has increased by $0.02. Your bonus pay is now $0.44.</p>\n            ","response":0,"trial_type":"html-button-response","trial_index":132,"time_elapsed":571814,"internal_node_id":"0.0-4.0-1.62","subject_id":"5f919274b5383b00096b0295","study_id":"6197b3f67c2b5cd3b6d9596a","session_id":"619bfbdeec5c3b9091ce479d","condition":"full-information","relevant_dimensions":["pattern","legs"],"bee_group":{"antennae":"X","wings":"X","pattern":"D","legs":"F"},"bonus":0.42000000000000104},{"rt":3117.300000011921,"stimulus":"bees-with-color/bee-A1SM.svg","response":0,"trial_type":"image-button-response","trial_index":133,"time_elapsed":574934,"internal_node_id":"0.0-4.0-0.63","subject_id":"5f919274b5383b00096b0295","study_id":"6197b3f67c2b5cd3b6d9596a","session_id":"619bfbdeec5c3b9091ce479d","condition":"full-information","relevant_dimensions":["pattern","legs"],"bee_group":{"antennae":"X","wings":"X","pattern":"D","legs":"F"},"action":"harvest","summary":"good-harvest","bonus":0.42000000000000104},{"rt":2008.6000000238419,"stimulus":"\n                    <p><b>Action: <em>harvest</em></b></p>\n                    <p>This is the bee that you just saw.</p>\n                    <img src=\"bees-with-color/bee-A1SM.svg\" width=\"200\">\n                    <p><span class=\"greenText\"><b>Successful harvest!</b></span><br>Your pay has increased by $0.02. Your bonus pay is now $0.46.</p>\n            ","response":0,"trial_type":"html-button-response","trial_index":134,"time_elapsed":576945,"internal_node_id":"0.0-4.0-1.63","subject_id":"5f919274b5383b00096b0295","study_id":"6197b3f67c2b5cd3b6d9596a","session_id":"619bfbdeec5c3b9091ce479d","condition":"full-information","relevant_dimensions":["pattern","legs"],"bee_group":{"antennae":"X","wings":"X","pattern":"D","legs":"F"},"bonus":0.42000000000000104},{"rt":8801.399999976158,"stimulus":"You have completed the first part of this experiment.<br><br>You will now begin a shorter second part, in which you will receive no feedback.<br>The same rules regarding bonus pay apply.<br><br>Press any key to begin.","response":" ","trial_type":"html-keyboard-response","trial_index":135,"time_elapsed":585751,"internal_node_id":"0.0-5.0","subject_id":"5f919274b5383b00096b0295","study_id":"6197b3f67c2b5cd3b6d9596a","session_id":"619bfbdeec5c3b9091ce479d","condition":"full-information","relevant_dimensions":["pattern","legs"],"bee_group":{"antennae":"X","wings":"X","pattern":"D","legs":"F"},"bonus":0.42000000000000104},{"rt":3637.800000011921,"stimulus":"bees-with-color/bee-B2DM.svg","response":1,"trial_type":"image-button-response","trial_index":136,"time_elapsed":589400,"internal_node_id":"0.0-6.0-0.0","subject_id":"5f919274b5383b00096b0295","study_id":"6197b3f67c2b5cd3b6d9596a","session_id":"619bfbdeec5c3b9091ce479d","condition":"full-information","relevant_dimensions":["pattern","legs"],"bee_group":{"antennae":"X","wings":"X","pattern":"D","legs":"F"},"bonus":0.42000000000000104},{"rt":3941.400000035763,"stimulus":"bees-with-color/bee-A1SF.svg","response":0,"trial_type":"image-button-response","trial_index":137,"time_elapsed":593345,"internal_node_id":"0.0-6.0-0.1","subject_id":"5f919274b5383b00096b0295","study_id":"6197b3f67c2b5cd3b6d9596a","session_id":"619bfbdeec5c3b9091ce479d","condition":"full-information","relevant_dimensions":["pattern","legs"],"bee_group":{"antennae":"X","wings":"X","pattern":"D","legs":"F"},"bonus":0.42000000000000104},{"rt":3053.2999999523163,"stimulus":"bees-with-color/bee-B1DM.svg","response":1,"trial_type":"image-button-response","trial_index":138,"time_elapsed":596405,"internal_node_id":"0.0-6.0-0.2","subject_id":"5f919274b5383b00096b0295","study_id":"6197b3f67c2b5cd3b6d9596a","session_id":"619bfbdeec5c3b9091ce479d","condition":"full-information","relevant_dimensions":["pattern","legs"],"bee_group":{"antennae":"X","wings":"X","pattern":"D","legs":"F"},"bonus":0.42000000000000104},{"rt":2840.699999988079,"stimulus":"bees-with-color/bee-B2DF.svg","response":0,"trial_type":"image-button-response","trial_index":139,"time_elapsed":599252,"internal_node_id":"0.0-6.0-0.3","subject_id":"5f919274b5383b00096b0295","study_id":"6197b3f67c2b5cd3b6d9596a","session_id":"619bfbdeec5c3b9091ce479d","condition":"full-information","relevant_dimensions":["pattern","legs"],"bee_group":{"antennae":"X","wings":"X","pattern":"D","legs":"F"},"bonus":0.42000000000000104},{"rt":2644.699999988079,"stimulus":"bees-with-color/bee-B1DF.svg","response":1,"trial_type":"image-button-response","trial_index":140,"time_elapsed":601899,"internal_node_id":"0.0-6.0-0.4","subject_id":"5f919274b5383b00096b0295","study_id":"6197b3f67c2b5cd3b6d9596a","session_id":"619bfbdeec5c3b9091ce479d","condition":"full-information","relevant_dimensions":["pattern","legs"],"bee_group":{"antennae":"X","wings":"X","pattern":"D","legs":"F"},"bonus":0.42000000000000104},{"rt":3340.699999988079,"stimulus":"bees-with-color/bee-B1SM.svg","response":0,"trial_type":"image-button-response","trial_index":141,"time_elapsed":605243,"internal_node_id":"0.0-6.0-0.5","subject_id":"5f919274b5383b00096b0295","study_id":"6197b3f67c2b5cd3b6d9596a","session_id":"619bfbdeec5c3b9091ce479d","condition":"full-information","relevant_dimensions":["pattern","legs"],"bee_group":{"antennae":"X","wings":"X","pattern":"D","legs":"F"},"bonus":0.42000000000000104},{"rt":1574.6000000238419,"stimulus":"bees-with-color/bee-B2SM.svg","response":1,"trial_type":"image-button-response","trial_index":142,"time_elapsed":606821,"internal_node_id":"0.0-6.0-0.6","subject_id":"5f919274b5383b00096b0295","study_id":"6197b3f67c2b5cd3b6d9596a","session_id":"619bfbdeec5c3b9091ce479d","condition":"full-information","relevant_dimensions":["pattern","legs"],"bee_group":{"antennae":"X","wings":"X","pattern":"D","legs":"F"},"bonus":0.42000000000000104},{"rt":2393.800000011921,"stimulus":"bees-with-color/bee-A1SM.svg","response":0,"trial_type":"image-button-response","trial_index":143,"time_elapsed":609220,"internal_node_id":"0.0-6.0-0.7","subject_id":"5f919274b5383b00096b0295","study_id":"6197b3f67c2b5cd3b6d9596a","session_id":"619bfbdeec5c3b9091ce479d","condition":"full-information","relevant_dimensions":["pattern","legs"],"bee_group":{"antennae":"X","wings":"X","pattern":"D","legs":"F"},"bonus":0.42000000000000104},{"rt":2039.699999988079,"stimulus":"bees-with-color/bee-A2DF.svg","response":0,"trial_type":"image-button-response","trial_index":144,"time_elapsed":611264,"internal_node_id":"0.0-6.0-0.8","subject_id":"5f919274b5383b00096b0295","study_id":"6197b3f67c2b5cd3b6d9596a","session_id":"619bfbdeec5c3b9091ce479d","condition":"full-information","relevant_dimensions":["pattern","legs"],"bee_group":{"antennae":"X","wings":"X","pattern":"D","legs":"F"},"bonus":0.42000000000000104},{"rt":1492.3999999761581,"stimulus":"bees-with-color/bee-A2SM.svg","response":0,"trial_type":"image-button-response","trial_index":145,"time_elapsed":612765,"internal_node_id":"0.0-6.0-0.9","subject_id":"5f919274b5383b00096b0295","study_id":"6197b3f67c2b5cd3b6d9596a","session_id":"619bfbdeec5c3b9091ce479d","condition":"full-information","relevant_dimensions":["pattern","legs"],"bee_group":{"antennae":"X","wings":"X","pattern":"D","legs":"F"},"bonus":0.42000000000000104},{"rt":1818.800000011921,"stimulus":"bees-with-color/bee-A1DF.svg","response":1,"trial_type":"image-button-response","trial_index":146,"time_elapsed":614590,"internal_node_id":"0.0-6.0-0.10","subject_id":"5f919274b5383b00096b0295","study_id":"6197b3f67c2b5cd3b6d9596a","session_id":"619bfbdeec5c3b9091ce479d","condition":"full-information","relevant_dimensions":["pattern","legs"],"bee_group":{"antennae":"X","wings":"X","pattern":"D","legs":"F"},"bonus":0.42000000000000104},{"rt":1653.800000011921,"stimulus":"bees-with-color/bee-A2DM.svg","response":0,"trial_type":"image-button-response","trial_index":147,"time_elapsed":616250,"internal_node_id":"0.0-6.0-0.11","subject_id":"5f919274b5383b00096b0295","study_id":"6197b3f67c2b5cd3b6d9596a","session_id":"619bfbdeec5c3b9091ce479d","condition":"full-information","relevant_dimensions":["pattern","legs"],"bee_group":{"antennae":"X","wings":"X","pattern":"D","legs":"F"},"bonus":0.42000000000000104},{"rt":2636.399999976158,"stimulus":"bees-with-color/bee-B1SF.svg","response":1,"trial_type":"image-button-response","trial_index":148,"time_elapsed":618893,"internal_node_id":"0.0-6.0-0.12","subject_id":"5f919274b5383b00096b0295","study_id":"6197b3f67c2b5cd3b6d9596a","session_id":"619bfbdeec5c3b9091ce479d","condition":"full-information","relevant_dimensions":["pattern","legs"],"bee_group":{"antennae":"X","wings":"X","pattern":"D","legs":"F"},"bonus":0.42000000000000104},{"rt":3204,"stimulus":"bees-with-color/bee-B2SF.svg","response":1,"trial_type":"image-button-response","trial_index":149,"time_elapsed":622105,"internal_node_id":"0.0-6.0-0.13","subject_id":"5f919274b5383b00096b0295","study_id":"6197b3f67c2b5cd3b6d9596a","session_id":"619bfbdeec5c3b9091ce479d","condition":"full-information","relevant_dimensions":["pattern","legs"],"bee_group":{"antennae":"X","wings":"X","pattern":"D","legs":"F"},"bonus":0.42000000000000104},{"rt":1655,"stimulus":"bees-with-color/bee-A1DM.svg","response":0,"trial_type":"image-button-response","trial_index":150,"time_elapsed":623764,"internal_node_id":"0.0-6.0-0.14","subject_id":"5f919274b5383b00096b0295","study_id":"6197b3f67c2b5cd3b6d9596a","session_id":"619bfbdeec5c3b9091ce479d","condition":"full-information","relevant_dimensions":["pattern","legs"],"bee_group":{"antennae":"X","wings":"X","pattern":"D","legs":"F"},"bonus":0.42000000000000104},{"rt":2108,"stimulus":"bees-with-color/bee-A2SF.svg","response":1,"trial_type":"image-button-response","trial_index":151,"time_elapsed":625877,"internal_node_id":"0.0-6.0-0.15","subject_id":"5f919274b5383b00096b0295","study_id":"6197b3f67c2b5cd3b6d9596a","session_id":"619bfbdeec5c3b9091ce479d","condition":"full-information","relevant_dimensions":["pattern","legs"],"bee_group":{"antennae":"X","wings":"X","pattern":"D","legs":"F"},"bonus":0.42000000000000104},{"rt":1599.699999988079,"stimulus":"bees-with-color/bee-A1DM.svg","response":0,"trial_type":"image-button-response","trial_index":152,"time_elapsed":627480,"internal_node_id":"0.0-6.0-0.16","subject_id":"5f919274b5383b00096b0295","study_id":"6197b3f67c2b5cd3b6d9596a","session_id":"619bfbdeec5c3b9091ce479d","condition":"full-information","relevant_dimensions":["pattern","legs"],"bee_group":{"antennae":"X","wings":"X","pattern":"D","legs":"F"},"bonus":0.42000000000000104},{"rt":2400.400000035763,"stimulus":"bees-with-color/bee-B2DF.svg","response":1,"trial_type":"image-button-response","trial_index":153,"time_elapsed":629885,"internal_node_id":"0.0-6.0-0.17","subject_id":"5f919274b5383b00096b0295","study_id":"6197b3f67c2b5cd3b6d9596a","session_id":"619bfbdeec5c3b9091ce479d","condition":"full-information","relevant_dimensions":["pattern","legs"],"bee_group":{"antennae":"X","wings":"X","pattern":"D","legs":"F"},"bonus":0.42000000000000104},{"rt":1779.4000000357628,"stimulus":"bees-with-color/bee-B2SM.svg","response":0,"trial_type":"image-button-response","trial_index":154,"time_elapsed":631668,"internal_node_id":"0.0-6.0-0.18","subject_id":"5f919274b5383b00096b0295","study_id":"6197b3f67c2b5cd3b6d9596a","session_id":"619bfbdeec5c3b9091ce479d","condition":"full-information","relevant_dimensions":["pattern","legs"],"bee_group":{"antennae":"X","wings":"X","pattern":"D","legs":"F"},"bonus":0.42000000000000104},{"rt":1583.300000011921,"stimulus":"bees-with-color/bee-B1SF.svg","response":1,"trial_type":"image-button-response","trial_index":155,"time_elapsed":633254,"internal_node_id":"0.0-6.0-0.19","subject_id":"5f919274b5383b00096b0295","study_id":"6197b3f67c2b5cd3b6d9596a","session_id":"619bfbdeec5c3b9091ce479d","condition":"full-information","relevant_dimensions":["pattern","legs"],"bee_group":{"antennae":"X","wings":"X","pattern":"D","legs":"F"},"bonus":0.42000000000000104},{"rt":2108.199999988079,"stimulus":"bees-with-color/bee-B1DM.svg","response":1,"trial_type":"image-button-response","trial_index":156,"time_elapsed":635366,"internal_node_id":"0.0-6.0-0.20","subject_id":"5f919274b5383b00096b0295","study_id":"6197b3f67c2b5cd3b6d9596a","session_id":"619bfbdeec5c3b9091ce479d","condition":"full-information","relevant_dimensions":["pattern","legs"],"bee_group":{"antennae":"X","wings":"X","pattern":"D","legs":"F"},"bonus":0.42000000000000104},{"rt":1567.199999988079,"stimulus":"bees-with-color/bee-A1DF.svg","response":1,"trial_type":"image-button-response","trial_index":157,"time_elapsed":636936,"internal_node_id":"0.0-6.0-0.21","subject_id":"5f919274b5383b00096b0295","study_id"