[{"success":true,"trial_type":"fullscreen","trial_index":0,"time_elapsed":42645,"internal_node_id":"0.0-0.0","subject_id":"5eb170206e577a07e9954c65","study_id":"60edd13110225f80f9f3709b","session_id":"6196c468cfcaefbaaa6cfa2d","condition":"contingent","relevant_dimensions":["wings","legs"],"bee_group":{"antennae":"X","wings":"2","pattern":"X","legs":"M"},"bonus":1.400000000000001},{"success":true,"timeout":false,"failed_images":[],"failed_audio":[],"failed_video":[],"trial_type":"preload","trial_index":1,"time_elapsed":44615,"internal_node_id":"0.0-1.0","subject_id":"5eb170206e577a07e9954c65","study_id":"60edd13110225f80f9f3709b","session_id":"6196c468cfcaefbaaa6cfa2d","condition":"contingent","relevant_dimensions":["wings","legs"],"bee_group":{"antennae":"X","wings":"2","pattern":"X","legs":"M"},"bonus":1.400000000000001},{"rt":1236.300000011921,"stimulus":"Welcome! Press any key to begin.","response":" ","trial_type":"html-keyboard-response","trial_index":2,"time_elapsed":45852,"internal_node_id":"0.0-2.0","subject_id":"5eb170206e577a07e9954c65","study_id":"60edd13110225f80f9f3709b","session_id":"6196c468cfcaefbaaa6cfa2d","condition":"contingent","relevant_dimensions":["wings","legs"],"bee_group":{"antennae":"X","wings":"2","pattern":"X","legs":"M"},"bonus":1.400000000000001},{"view_history":[{"page_index":0,"viewing_time":7780.9000000059605},{"page_index":1,"viewing_time":9862.199999988079},{"page_index":2,"viewing_time":15898.40000000596},{"page_index":3,"viewing_time":16373.40000000596},{"page_index":4,"viewing_time":5343.899999976158},{"page_index":5,"viewing_time":7571.5},{"page_index":6,"viewing_time":13747.100000023842},{"page_index":7,"viewing_time":6522.0999999940395},{"page_index":8,"viewing_time":3984.199999988079},{"page_index":9,"viewing_time":3396.300000011921},{"page_index":10,"viewing_time":3034},{"page_index":11,"viewing_time":4280.5},{"page_index":12,"viewing_time":10921.59999999404},{"page_index":13,"viewing_time":1280},{"page_index":14,"viewing_time":1268.800000011921}],"rt":111265.19999998808,"trial_type":"instructions","trial_index":3,"time_elapsed":157117,"internal_node_id":"0.0-3.0-0.0","subject_id":"5eb170206e577a07e9954c65","study_id":"60edd13110225f80f9f3709b","session_id":"6196c468cfcaefbaaa6cfa2d","condition":"contingent","relevant_dimensions":["wings","legs"],"bee_group":{"antennae":"X","wings":"2","pattern":"X","legs":"M"},"bonus":1.400000000000001},{"rt":29216,"response":{"Q0":["Two or six legs","Stripes or spots on body","Single or double wings","Antennae or no antennae"]},"question_order":[0],"trial_type":"survey-multi-select","trial_index":4,"time_elapsed":186340,"internal_node_id":"0.0-3.0-1.0","subject_id":"5eb170206e577a07e9954c65","study_id":"60edd13110225f80f9f3709b","session_id":"6196c468cfcaefbaaa6cfa2d","condition":"contingent","relevant_dimensions":["wings","legs"],"bee_group":{"antennae":"X","wings":"2","pattern":"X","legs":"M"},"correct":true,"bonus":1.400000000000001},{"rt":91751.60000002384,"response":{"Q1":"No.","Q2":"Based on the four features of the bee.","Q3":"You learn if it was friendly or dangerous, but do not alter your bonus."},"question_order":[0,1,2],"trial_type":"survey-multi-choice","trial_index":5,"time_elapsed":278092,"internal_node_id":"0.0-3.0-2.0","subject_id":"5eb170206e577a07e9954c65","study_id":"60edd13110225f80f9f3709b","session_id":"6196c468cfcaefbaaa6cfa2d","condition":"contingent","relevant_dimensions":["wings","legs"],"bee_group":{"antennae":"X","wings":"2","pattern":"X","legs":"M"},"correct":false,"bonus":1.400000000000001},{"rt":3465.5999999940395,"stimulus":"<p>You did not answer all comprehension questions correctly.<br>Press <b>continue</b> to review the instructions again.</p>","response":0,"trial_type":"html-button-response","trial_index":6,"time_elapsed":281559,"internal_node_id":"0.0-3.0-3.0","subject_id":"5eb170206e577a07e9954c65","study_id":"60edd13110225f80f9f3709b","session_id":"6196c468cfcaefbaaa6cfa2d","condition":"contingent","relevant_dimensions":["wings","legs"],"bee_group":{"antennae":"X","wings":"2","pattern":"X","legs":"M"},"bonus":1.400000000000001},{"view_history":[{"page_index":0,"viewing_time":1121.2000000178814},{"page_index":1,"viewing_time":1975.2999999821186},{"page_index":2,"viewing_time":999.8000000119209},{"page_index":3,"viewing_time":1126.800000011921},{"page_index":4,"viewing_time":4991.799999982119},{"page_index":5,"viewing_time":461.90000000596046},{"page_index":6,"viewing_time":720},{"page_index":7,"viewing_time":864.6999999880791},{"page_index":8,"viewing_time":273.60000002384186},{"page_index":9,"viewing_time":286.19999998807907},{"page_index":10,"viewing_time":233.90000000596046},{"page_index":11,"viewing_time":851.0999999940395},{"page_index":12,"viewing_time":926.1999999880791},{"page_index":13,"viewing_time":847},{"page_index":14,"viewing_time":462.40000000596046}],"rt":16142.200000017881,"trial_type":"instructions","trial_index":7,"time_elapsed":297702,"internal_node_id":"0.0-3.0-4.0-0.0","subject_id":"5eb170206e577a07e9954c65","study_id":"60edd13110225f80f9f3709b","session_id":"6196c468cfcaefbaaa6cfa2d","condition":"contingent","relevant_dimensions":["wings","legs"],"bee_group":{"antennae":"X","wings":"2","pattern":"X","legs":"M"},"bonus":1.400000000000001},{"rt":9355,"response":{"Q0":["Two or six legs","Stripes or spots on body","Single or double wings","Antennae or no antennae"]},"question_order":[0],"trial_type":"survey-multi-select","trial_index":8,"time_elapsed":307061,"internal_node_id":"0.0-3.0-4.0-1.0","subject_id":"5eb170206e577a07e9954c65","study_id":"60edd13110225f80f9f3709b","session_id":"6196c468cfcaefbaaa6cfa2d","condition":"contingent","relevant_dimensions":["wings","legs"],"bee_group":{"antennae":"X","wings":"2","pattern":"X","legs":"M"},"correct":true,"bonus":1.400000000000001},{"rt":8799.90000000596,"response":{"Q1":"No.","Q2":"Based on the four features of the bee.","Q3":"You do not learn if it was friendly or dangerous, and do not alter your bonus."},"question_order":[0,1,2],"trial_type":"survey-multi-choice","trial_index":9,"time_elapsed":315862,"internal_node_id":"0.0-3.0-4.0-2.0","subject_id":"5eb170206e577a07e9954c65","study_id":"60edd13110225f80f9f3709b","session_id":"6196c468cfcaefbaaa6cfa2d","condition":"contingent","relevant_dimensions":["wings","legs"],"bee_group":{"antennae":"X","wings":"2","pattern":"X","legs":"M"},"correct":true,"bonus":1.400000000000001},{"rt":1370.800000011921,"stimulus":"<p>Congrats, you got everything right<br>When you're ready, click the button below to continue to the experiment.</p>","response":0,"trial_type":"html-button-response","trial_index":10,"time_elapsed":317233,"internal_node_id":"0.0-3.0-4.0-3.0","subject_id":"5eb170206e577a07e9954c65","study_id":"60edd13110225f80f9f3709b","session_id":"6196c468cfcaefbaaa6cfa2d","condition":"contingent","relevant_dimensions":["wings","legs"],"bee_group":{"antennae":"X","wings":"2","pattern":"X","legs":"M"},"bonus":1.400000000000001},{"rt":4086,"stimulus":"bees-with-color/bee-A2SF.svg","response":0,"trial_type":"image-button-response","trial_index":11,"time_elapsed":321321,"internal_node_id":"0.0-4.0-0.0","subject_id":"5eb170206e577a07e9954c65","study_id":"60edd13110225f80f9f3709b","session_id":"6196c468cfcaefbaaa6cfa2d","condition":"contingent","relevant_dimensions":["wings","legs"],"bee_group":{"antennae":"X","wings":"2","pattern":"X","legs":"M"},"action":"harvest","summary":"good-harvest","bonus":1.400000000000001},{"rt":3718.699999988079,"stimulus":"\n                    <p><b>Action: <em>harvest</em></b></p>\n                    <p>This is the bee that you just saw.</p>\n                    <img src=\"bees-with-color/bee-A2SF.svg\" width=\"200\">\n                    <p><span class=\"greenText\"><b>Successful harvest!</b></span><br>Your pay has increased by $0.02. Your bonus pay is now $0.56.</p>\n            ","response":0,"trial_type":"html-button-response","trial_index":12,"time_elapsed":325042,"internal_node_id":"0.0-4.0-1.0","subject_id":"5eb170206e577a07e9954c65","study_id":"60edd13110225f80f9f3709b","session_id":"6196c468cfcaefbaaa6cfa2d","condition":"contingent","relevant_dimensions":["wings","legs"],"bee_group":{"antennae":"X","wings":"2","pattern":"X","legs":"M"},"bonus":1.400000000000001},{"rt":2406.899999976158,"stimulus":"bees-with-color/bee-A2DM.svg","response":1,"trial_type":"image-button-response","trial_index":13,"time_elapsed":327450,"internal_node_id":"0.0-4.0-0.1","subject_id":"5eb170206e577a07e9954c65","study_id":"60edd13110225f80f9f3709b","session_id":"6196c468cfcaefbaaa6cfa2d","condition":"contingent","relevant_dimensions":["wings","legs"],"bee_group":{"antennae":"X","wings":"2","pattern":"X","legs":"M"},"action":"avoid","summary":"good-avoid","bonus":1.400000000000001},{"rt":1557.0999999940395,"stimulus":"\n                    <p><b>Action: <em>avoid</em></b></p>\n                    <p>This is the bee that you just saw.</p>\n                    <img src=\"bees-with-color/bee-A2DM.svg\" width=\"200\">\n                    <p><br>Your bonus pay is unchanged, and remains at $0.56.</p>\n            ","response":0,"trial_type":"html-button-response","trial_index":14,"time_elapsed":329008,"internal_node_id":"0.0-4.0-1.1","subject_id":"5eb170206e577a07e9954c65","study_id":"60edd13110225f80f9f3709b","session_id":"6196c468cfcaefbaaa6cfa2d","condition":"contingent","relevant_dimensions":["wings","legs"],"bee_group":{"antennae":"X","wings":"2","pattern":"X","legs":"M"},"bonus":1.400000000000001},{"rt":2221.100000023842,"stimulus":"bees-with-color/bee-A2DF.svg","response":0,"trial_type":"image-button-response","trial_index":15,"time_elapsed":331231,"internal_node_id":"0.0-4.0-0.2","subject_id":"5eb170206e577a07e9954c65","study_id":"60edd13110225f80f9f3709b","session_id":"6196c468cfcaefbaaa6cfa2d","condition":"contingent","relevant_dimensions":["wings","legs"],"bee_group":{"antennae":"X","wings":"2","pattern":"X","legs":"M"},"action":"harvest","summary":"good-harvest","bonus":1.400000000000001},{"rt":1518.2999999821186,"stimulus":"\n                    <p><b>Action: <em>harvest</em></b></p>\n                    <p>This is the bee that you just saw.</p>\n                    <img src=\"bees-with-color/bee-A2DF.svg\" width=\"200\">\n                    <p><span class=\"greenText\"><b>Successful harvest!</b></span><br>Your pay has increased by $0.02. Your bonus pay is now $0.58.</p>\n            ","response":0,"trial_type":"html-button-response","trial_index":16,"time_elapsed":332751,"internal_node_id":"0.0-4.0-1.2","subject_id":"5eb170206e577a07e9954c65","study_id":"60edd13110225f80f9f3709b","session_id":"6196c468cfcaefbaaa6cfa2d","condition":"contingent","relevant_dimensions":["wings","legs"],"bee_group":{"antennae":"X","wings":"2","pattern":"X","legs":"M"},"bonus":1.400000000000001},{"rt":2322.300000011921,"stimulus":"bees-with-color/bee-A1DF.svg","response":0,"trial_type":"image-button-response","trial_index":17,"time_elapsed":335074,"internal_node_id":"0.0-4.0-0.3","subject_id":"5eb170206e577a07e9954c65","study_id":"60edd13110225f80f9f3709b","session_id":"6196c468cfcaefbaaa6cfa2d","condition":"contingent","relevant_dimensions":["wings","legs"],"bee_group":{"antennae":"X","wings":"2","pattern":"X","legs":"M"},"action":"harvest","summary":"good-harvest","bonus":1.400000000000001},{"rt":813.7000000178814,"stimulus":"\n                    <p><b>Action: <em>harvest</em></b></p>\n                    <p>This is the bee that you just saw.</p>\n                    <img src=\"bees-with-color/bee-A1DF.svg\" width=\"200\">\n                    <p><span class=\"greenText\"><b>Successful harvest!</b></span><br>Your pay has increased by $0.02. Your bonus pay is now $0.60.</p>\n            ","response":0,"trial_type":"html-button-response","trial_index":18,"time_elapsed":335889,"internal_node_id":"0.0-4.0-1.3","subject_id":"5eb170206e577a07e9954c65","study_id":"60edd13110225f80f9f3709b","session_id":"6196c468cfcaefbaaa6cfa2d","condition":"contingent","relevant_dimensions":["wings","legs"],"bee_group":{"antennae":"X","wings":"2","pattern":"X","legs":"M"},"bonus":1.400000000000001},{"rt":1948.5,"stimulus":"bees-with-color/bee-B1DF.svg","response":0,"trial_type":"image-button-response","trial_index":19,"time_elapsed":337839,"internal_node_id":"0.0-4.0-0.4","subject_id":"5eb170206e577a07e9954c65","study_id":"60edd13110225f80f9f3709b","session_id":"6196c468cfcaefbaaa6cfa2d","condition":"contingent","relevant_dimensions":["wings","legs"],"bee_group":{"antennae":"X","wings":"2","pattern":"X","legs":"M"},"action":"harvest","summary":"good-harvest","bonus":1.400000000000001},{"rt":782.7000000178814,"stimulus":"\n                    <p><b>Action: <em>harvest</em></b></p>\n                    <p>This is the bee that you just saw.</p>\n                    <img src=\"bees-with-color/bee-B1DF.svg\" width=\"200\">\n                    <p><span class=\"greenText\"><b>Successful harvest!</b></span><br>Your pay has increased by $0.02. Your bonus pay is now $0.62.</p>\n            ","response":0,"trial_type":"html-button-response","trial_index":20,"time_elapsed":338623,"internal_node_id":"0.0-4.0-1.4","subject_id":"5eb170206e577a07e9954c65","study_id":"60edd13110225f80f9f3709b","session_id":"6196c468cfcaefbaaa6cfa2d","condition":"contingent","relevant_dimensions":["wings","legs"],"bee_group":{"antennae":"X","wings":"2","pattern":"X","legs":"M"},"bonus":1.400000000000001},{"rt":1346.2000000178814,"stimulus":"bees-with-color/bee-B2DM.svg","response":1,"trial_type":"image-button-response","trial_index":21,"time_elapsed":339970,"internal_node_id":"0.0-4.0-0.5","subject_id":"5eb170206e577a07e9954c65","study_id":"60edd13110225f80f9f3709b","session_id":"6196c468cfcaefbaaa6cfa2d","condition":"contingent","relevant_dimensions":["wings","legs"],"bee_group":{"antennae":"X","wings":"2","pattern":"X","legs":"M"},"action":"avoid","summary":"good-avoid","bonus":1.400000000000001},{"rt":1221,"stimulus":"\n                    <p><b>Action: <em>avoid</em></b></p>\n                    <p>This is the bee that you just saw.</p>\n                    <img src=\"bees-with-color/bee-B2DM.svg\" width=\"200\">\n                    <p><br>Your bonus pay is unchanged, and remains at $0.62.</p>\n            ","response":0,"trial_type":"html-button-response","trial_index":22,"time_elapsed":341193,"internal_node_id":"0.0-4.0-1.5","subject_id":"5eb170206e577a07e9954c65","study_id":"60edd13110225f80f9f3709b","session_id":"6196c468cfcaefbaaa6cfa2d","condition":"contingent","relevant_dimensions":["wings","legs"],"bee_group":{"antennae":"X","wings":"2","pattern":"X","legs":"M"},"bonus":1.400000000000001},{"rt":1033.6000000238419,"stimulus":"bees-with-color/bee-A1SM.svg","response":0,"trial_type":"image-button-response","trial_index":23,"time_elapsed":342228,"internal_node_id":"0.0-4.0-0.6","subject_id":"5eb170206e577a07e9954c65","study_id":"60edd13110225f80f9f3709b","session_id":"6196c468cfcaefbaaa6cfa2d","condition":"contingent","relevant_dimensions":["wings","legs"],"bee_group":{"antennae":"X","wings":"2","pattern":"X","legs":"M"},"action":"harvest","summary":"good-harvest","bonus":1.400000000000001},{"rt":826,"stimulus":"\n                    <p><b>Action: <em>harvest</em></b></p>\n                    <p>This is the bee that you just saw.</p>\n                    <img src=\"bees-with-color/bee-A1SM.svg\" width=\"200\">\n                    <p><span class=\"greenText\"><b>Successful harvest!</b></span><br>Your pay has increased by $0.02. Your bonus pay is now $0.64.</p>\n            ","response":0,"trial_type":"html-button-response","trial_index":24,"time_elapsed":343055,"internal_node_id":"0.0-4.0-1.6","subject_id":"5eb170206e577a07e9954c65","study_id":"60edd13110225f80f9f3709b","session_id":"6196c468cfcaefbaaa6cfa2d","condition":"contingent","relevant_dimensions":["wings","legs"],"bee_group":{"antennae":"X","wings":"2","pattern":"X","legs":"M"},"bonus":1.400000000000001},{"rt":1300.800000011921,"stimulus":"bees-with-color/bee-B1SM.svg","response":0,"trial_type":"image-button-response","trial_index":25,"time_elapsed":344357,"internal_node_id":"0.0-4.0-0.7","subject_id":"5eb170206e577a07e9954c65","study_id":"60edd13110225f80f9f3709b","session_id":"6196c468cfcaefbaaa6cfa2d","condition":"contingent","relevant_dimensions":["wings","legs"],"bee_group":{"antennae":"X","wings":"2","pattern":"X","legs":"M"},"action":"harvest","summary":"good-harvest","bonus":1.400000000000001},{"rt":725.6999999880791,"stimulus":"\n                    <p><b>Action: <em>harvest</em></b></p>\n                    <p>This is the bee that you just saw.</p>\n                    <img src=\"bees-with-color/bee-B1SM.svg\" width=\"200\">\n                    <p><span class=\"greenText\"><b>Successful harvest!</b></span><br>Your pay has increased by $0.02. Your bonus pay is now $0.66.</p>\n            ","response":0,"trial_type":"html-button-response","trial_index":26,"time_elapsed":345084,"internal_node_id":"0.0-4.0-1.7","subject_id":"5eb170206e577a07e9954c65","study_id":"60edd13110225f80f9f3709b","session_id":"6196c468cfcaefbaaa6cfa2d","condition":"contingent","relevant_dimensions":["wings","legs"],"bee_group":{"antennae":"X","wings":"2","pattern":"X","legs":"M"},"bonus":1.400000000000001},{"rt":1606.699999988079,"stimulus":"bees-with-color/bee-B2SF.svg","response":1,"trial_type":"image-button-response","trial_index":27,"time_elapsed":346692,"internal_node_id":"0.0-4.0-0.8","subject_id":"5eb170206e577a07e9954c65","study_id":"60edd13110225f80f9f3709b","session_id":"6196c468cfcaefbaaa6cfa2d","condition":"contingent","relevant_dimensions":["wings","legs"],"bee_group":{"antennae":"X","wings":"2","pattern":"X","legs":"M"},"action":"avoid","summary":"bad-avoid","bonus":1.400000000000001},{"rt":707,"stimulus":"\n                    <p><b>Action: <em>avoid</em></b></p>\n                    <p>This is the bee that you just saw.</p>\n                    <img src=\"bees-with-color/bee-B2SF.svg\" width=\"200\">\n                    <p><br>Your bonus pay is unchanged, and remains at $0.66.</p>\n            ","response":0,"trial_type":"html-button-response","trial_index":28,"time_elapsed":347400,"internal_node_id":"0.0-4.0-1.8","subject_id":"5eb170206e577a07e9954c65","study_id":"60edd13110225f80f9f3709b","session_id":"6196c468cfcaefbaaa6cfa2d","condition":"contingent","relevant_dimensions":["wings","legs"],"bee_group":{"antennae":"X","wings":"2","pattern":"X","legs":"M"},"bonus":1.400000000000001},{"rt":1100.800000011921,"stimulus":"bees-with-color/bee-B1DM.svg","response":0,"trial_type":"image-button-response","trial_index":29,"time_elapsed":348502,"internal_node_id":"0.0-4.0-0.9","subject_id":"5eb170206e577a07e9954c65","study_id":"60edd13110225f80f9f3709b","session_id":"6196c468cfcaefbaaa6cfa2d","condition":"contingent","relevant_dimensions":["wings","legs"],"bee_group":{"antennae":"X","wings":"2","pattern":"X","legs":"M"},"action":"harvest","summary":"good-harvest","bonus":1.400000000000001},{"rt":799,"stimulus":"\n                    <p><b>Action: <em>harvest</em></b></p>\n                    <p>This is the bee that you just saw.</p>\n                    <img src=\"bees-with-color/bee-B1DM.svg\" width=\"200\">\n                    <p><span class=\"greenText\"><b>Successful harvest!</b></span><br>Your pay has increased by $0.02. Your bonus pay is now $0.68.</p>\n            ","response":0,"trial_type":"html-button-response","trial_index":30,"time_elapsed":349302,"internal_node_id":"0.0-4.0-1.9","subject_id":"5eb170206e577a07e9954c65","study_id":"60edd13110225f80f9f3709b","session_id":"6196c468cfcaefbaaa6cfa2d","condition":"contingent","relevant_dimensions":["wings","legs"],"bee_group":{"antennae":"X","wings":"2","pattern":"X","legs":"M"},"bonus":1.400000000000001},{"rt":834.3999999761581,"stimulus":"bees-with-color/bee-A1DM.svg","response":0,"trial_type":"image-button-response","trial_index":31,"time_elapsed":350137,"internal_node_id":"0.0-4.0-0.10","subject_id":"5eb170206e577a07e9954c65","study_id":"60edd13110225f80f9f3709b","session_id":"6196c468cfcaefbaaa6cfa2d","condition":"contingent","relevant_dimensions":["wings","legs"],"bee_group":{"antennae":"X","wings":"2","pattern":"X","legs":"M"},"action":"harvest","summary":"good-harvest","bonus":1.400000000000001},{"rt":636.5999999940395,"stimulus":"\n                    <p><b>Action: <em>harvest</em></b></p>\n                    <p>This is the bee that you just saw.</p>\n                    <img src=\"bees-with-color/bee-A1DM.svg\" width=\"200\">\n                    <p><span class=\"greenText\"><b>Successful harvest!</b></span><br>Your pay has increased by $0.02. Your bonus pay is now $0.70.</p>\n            ","response":0,"trial_type":"html-button-response","trial_index":32,"time_elapsed":350775,"internal_node_id":"0.0-4.0-1.10","subject_id":"5eb170206e577a07e9954c65","study_id":"60edd13110225f80f9f3709b","session_id":"6196c468cfcaefbaaa6cfa2d","condition":"contingent","relevant_dimensions":["wings","legs"],"bee_group":{"antennae":"X","wings":"2","pattern":"X","legs":"M"},"bonus":1.400000000000001},{"rt":1163.0999999940395,"stimulus":"bees-with-color/bee-A1SF.svg","response":0,"trial_type":"image-button-response","trial_index":33,"time_elapsed":351939,"internal_node_id":"0.0-4.0-0.11","subject_id":"5eb170206e577a07e9954c65","study_id":"60edd13110225f80f9f3709b","session_id":"6196c468cfcaefbaaa6cfa2d","condition":"contingent","relevant_dimensions":["wings","legs"],"bee_group":{"antennae":"X","wings":"2","pattern":"X","legs":"M"},"action":"harvest","summary":"good-harvest","bonus":1.400000000000001},{"rt":759.7000000178814,"stimulus":"\n                    <p><b>Action: <em>harvest</em></b></p>\n                    <p>This is the bee that you just saw.</p>\n                    <img src=\"bees-with-color/bee-A1SF.svg\" width=\"200\">\n                    <p><span class=\"greenText\"><b>Successful harvest!</b></span><br>Your pay has increased by $0.02. Your bonus pay is now $0.72.</p>\n            ","response":0,"trial_type":"html-button-response","trial_index":34,"time_elapsed":352700,"internal_node_id":"0.0-4.0-1.11","subject_id":"5eb170206e577a07e9954c65","study_id":"60edd13110225f80f9f3709b","session_id":"6196c468cfcaefbaaa6cfa2d","condition":"contingent","relevant_dimensions":["wings","legs"],"bee_group":{"antennae":"X","wings":"2","pattern":"X","legs":"M"},"bonus":1.400000000000001},{"rt":1660.199999988079,"stimulus":"bees-with-color/bee-B2SM.svg","response":0,"trial_type":"image-button-response","trial_index":35,"time_elapsed":354361,"internal_node_id":"0.0-4.0-0.12","subject_id":"5eb170206e577a07e9954c65","study_id":"60edd13110225f80f9f3709b","session_id":"6196c468cfcaefbaaa6cfa2d","condition":"contingent","relevant_dimensions":["wings","legs"],"bee_group":{"antennae":"X","wings":"2","pattern":"X","legs":"M"},"action":"harvest","summary":"bad-harvest","bonus":1.400000000000001},{"rt":1943.8999999761581,"stimulus":"\n                    <p><b>Action: <em>harvest</em></b></p>\n                    <p>This is the bee that you just saw.</p>\n                    <img src=\"bees-with-color/bee-B2SM.svg\" width=\"200\">\n                    <p><span class=\"redText\">Bad choice, the bee was angry.</span><br><b>You have been stung!</b><br>Your pay has been decreased by $0.10. Your bonus pay is now $0.62.</p>\n            ","response":0,"trial_type":"html-button-response","trial_index":36,"time_elapsed":356306,"internal_node_id":"0.0-4.0-1.12","subject_id":"5eb170206e577a07e9954c65","study_id":"60edd13110225f80f9f3709b","session_id":"6196c468cfcaefbaaa6cfa2d","condition":"contingent","relevant_dimensions":["wings","legs"],"bee_group":{"antennae":"X","wings":"2","pattern":"X","legs":"M"},"bonus":1.400000000000001},{"rt":981.3000000119209,"stimulus":"bees-with-color/bee-A2SM.svg","response":1,"trial_type":"image-button-response","trial_index":37,"time_elapsed":357288,"internal_node_id":"0.0-4.0-0.13","subject_id":"5eb170206e577a07e9954c65","study_id":"60edd13110225f80f9f3709b","session_id":"6196c468cfcaefbaaa6cfa2d","condition":"contingent","relevant_dimensions":["wings","legs"],"bee_group":{"antennae":"X","wings":"2","pattern":"X","legs":"M"},"action":"avoid","summary":"good-avoid","bonus":1.400000000000001},{"rt":1504.4000000059605,"stimulus":"\n                    <p><b>Action: <em>avoid</em></b></p>\n                    <p>This is the bee that you just saw.</p>\n                    <img src=\"bees-with-color/bee-A2SM.svg\" width=\"200\">\n                    <p><br>Your bonus pay is unchanged, and remains at $0.62.</p>\n            ","response":0,"trial_type":"html-button-response","trial_index":38,"time_elapsed":358794,"internal_node_id":"0.0-4.0-1.13","subject_id":"5eb170206e577a07e9954c65","study_id":"60edd13110225f80f9f3709b","session_id":"6196c468cfcaefbaaa6cfa2d","condition":"contingent","relevant_dimensions":["wings","legs"],"bee_group":{"antennae":"X","wings":"2","pattern":"X","legs":"M"},"bonus":1.400000000000001},{"rt":991.0999999940395,"stimulus":"bees-with-color/bee-B2DF.svg","response":0,"trial_type":"image-button-response","trial_index":39,"time_elapsed":359786,"internal_node_id":"0.0-4.0-0.14","subject_id":"5eb170206e577a07e9954c65","study_id":"60edd13110225f80f9f3709b","session_id":"6196c468cfcaefbaaa6cfa2d","condition":"contingent","relevant_dimensions":["wings","legs"],"bee_group":{"antennae":"X","wings":"2","pattern":"X","legs":"M"},"action":"harvest","summary":"good-harvest","bonus":1.400000000000001},{"rt":674.8999999761581,"stimulus":"\n                    <p><b>Action: <em>harvest</em></b></p>\n                    <p>This is the bee that you just saw.</p>\n                    <img src=\"bees-with-color/bee-B2DF.svg\" width=\"200\">\n                    <p><span class=\"greenText\"><b>Successful harvest!</b></span><br>Your pay has increased by $0.02. Your bonus pay is now $0.64.</p>\n            ","response":0,"trial_type":"html-button-response","trial_index":40,"time_elapsed":360462,"internal_node_id":"0.0-4.0-1.14","subject_id":"5eb170206e577a07e9954c65","study_id":"60edd13110225f80f9f3709b","session_id":"6196c468cfcaefbaaa6cfa2d","condition":"contingent","relevant_dimensions":["wings","legs"],"bee_group":{"antennae":"X","wings":"2","pattern":"X","legs":"M"},"bonus":1.400000000000001},{"rt":1073.300000011921,"stimulus":"bees-with-color/bee-B1SF.svg","response":0,"trial_type":"image-button-response","trial_index":41,"time_elapsed":361536,"internal_node_id":"0.0-4.0-0.15","subject_id":"5eb170206e577a07e9954c65","study_id":"60edd13110225f80f9f3709b","session_id":"6196c468cfcaefbaaa6cfa2d","condition":"contingent","relevant_dimensions":["wings","legs"],"bee_group":{"antennae":"X","wings":"2","pattern":"X","legs":"M"},"action":"harvest","summary":"good-harvest","bonus":1.400000000000001},{"rt":650.1999999880791,"stimulus":"\n                    <p><b>Action: <em>harvest</em></b></p>\n                    <p>This is the bee that you just saw.</p>\n                    <img src=\"bees-with-color/bee-B1SF.svg\" width=\"200\">\n                    <p><span class=\"greenText\"><b>Successful harvest!</b></span><br>Your pay has increased by $0.02. Your bonus pay is now $0.66.</p>\n            ","response":0,"trial_type":"html-button-response","trial_index":42,"time_elapsed":362188,"internal_node_id":"0.0-4.0-1.15","subject_id":"5eb170206e577a07e9954c65","study_id":"60edd13110225f80f9f3709b","session_id":"6196c468cfcaefbaaa6cfa2d","condition":"contingent","relevant_dimensions":["wings","legs"],"bee_group":{"antennae":"X","wings":"2","pattern":"X","legs":"M"},"bonus":1.400000000000001},{"rt":931.1999999880791,"stimulus":"bees-with-color/bee-B2DM.svg","response":1,"trial_type":"image-button-response","trial_index":43,"time_elapsed":363120,"internal_node_id":"0.0-4.0-0.16","subject_id":"5eb170206e577a07e9954c65","study_id":"60edd13110225f80f9f3709b","session_id":"6196c468cfcaefbaaa6cfa2d","condition":"contingent","relevant_dimensions":["wings","legs"],"bee_group":{"antennae":"X","wings":"2","pattern":"X","legs":"M"},"action":"avoid","summary":"good-avoid","bonus":1.400000000000001},{"rt":613.9000000059605,"stimulus":"\n                    <p><b>Action: <em>avoid</em></b></p>\n                    <p>This is the bee that you just saw.</p>\n                    <img src=\"bees-with-color/bee-B2DM.svg\" width=\"200\">\n                    <p><br>Your bonus pay is unchanged, and remains at $0.66.</p>\n            ","response":0,"trial_type":"html-button-response","trial_index":44,"time_elapsed":363736,"internal_node_id":"0.0-4.0-1.16","subject_id":"5eb170206e577a07e9954c65","study_id":"60edd13110225f80f9f3709b","session_id":"6196c468cfcaefbaaa6cfa2d","condition":"contingent","relevant_dimensions":["wings","legs"],"bee_group":{"antennae":"X","wings":"2","pattern":"X","legs":"M"},"bonus":1.400000000000001},{"rt":848.5999999940395,"stimulus":"bees-with-color/bee-A2SM.svg","response":0,"trial_type":"image-button-response","trial_index":45,"time_elapsed":364585,"internal_node_id":"0.0-4.0-0.17","subject_id":"5eb170206e577a07e9954c65","study_id":"60edd13110225f80f9f3709b","session_id":"6196c468cfcaefbaaa6cfa2d","condition":"contingent","relevant_dimensions":["wings","legs"],"bee_group":{"antennae":"X","wings":"2","pattern":"X","legs":"M"},"action":"harvest","summary":"bad-harvest","bonus":1.400000000000001},{"rt":1495.4000000059605,"stimulus":"\n                    <p><b>Action: <em>harvest</em></b></p>\n                    <p>This is the bee that you just saw.</p>\n                    <img src=\"bees-with-color/bee-A2SM.svg\" width=\"200\">\n                    <p><span class=\"redText\">Bad choice, the bee was angry.</span><br><b>You have been stung!</b><br>Your pay has been decreased by $0.10. Your bonus pay is now $0.56.</p>\n            ","response":0,"trial_type":"html-button-response","trial_index":46,"time_elapsed":366082,"internal_node_id":"0.0-4.0-1.17","subject_id":"5eb170206e577a07e9954c65","study_id":"60edd13110225f80f9f3709b","session_id":"6196c468cfcaefbaaa6cfa2d","condition":"contingent","relevant_dimensions":["wings","legs"],"bee_group":{"antennae":"X","wings":"2","pattern":"X","legs":"M"},"bonus":1.400000000000001},{"rt":1317.4000000059605,"stimulus":"bees-with-color/bee-B2SF.svg","response":0,"trial_type":"image-button-response","trial_index":47,"time_elapsed":367400,"internal_node_id":"0.0-4.0-0.18","subject_id":"5eb170206e577a07e9954c65","study_id":"60edd13110225f80f9f3709b","session_id":"6196c468cfcaefbaaa6cfa2d","condition":"contingent","relevant_dimensions":["wings","legs"],"bee_group":{"antennae":"X","wings":"2","pattern":"X","legs":"M"},"action":"harvest","summary":"good-harvest","bonus":1.400000000000001},{"rt":721.3000000119209,"stimulus":"\n                    <p><b>Action: <em>harvest</em></b></p>\n                    <p>This is the bee that you just saw.</p>\n                    <img src=\"bees-with-color/bee-B2SF.svg\" width=\"200\">\n                    <p><span class=\"greenText\"><b>Successful harvest!</b></span><br>Your pay has increased by $0.02. Your bonus pay is now $0.58.</p>\n            ","response":0,"trial_type":"html-button-response","trial_index":48,"time_elapsed":368123,"internal_node_id":"0.0-4.0-1.18","subject_id":"5eb170206e577a07e9954c65","study_id":"60edd13110225f80f9f3709b","session_id":"6196c468cfcaefbaaa6cfa2d","condition":"contingent","relevant_dimensions":["wings","legs"],"bee_group":{"antennae":"X","wings":"2","pattern":"X","legs":"M"},"bonus":1.400000000000001},{"rt":1069.5999999940395,"stimulus":"bees-with-color/bee-A1DF.svg","response":0,"trial_type":"image-button-response","trial_index":49,"time_elapsed":369194,"internal_node_id":"0.0-4.0-0.19","subject_id":"5eb170206e577a07e9954c65","study_id":"60edd13110225f80f9f3709b","session_id":"6196c468cfcaefbaaa6cfa2d","condition":"contingent","relevant_dimensions":["wings","legs"],"bee_group":{"antennae":"X","wings":"2","pattern":"X","legs":"M"},"action":"harvest","summary":"good-harvest","bonus":1.400000000000001},{"rt":653.0999999940395,"stimulus":"\n                    <p><b>Action: <em>harvest</em></b></p>\n                    <p>This is the bee that you just saw.</p>\n                    <img src=\"bees-with-color/bee-A1DF.svg\" width=\"200\">\n                    <p><span class=\"greenText\"><b>Successful harvest!</b></span><br>Your pay has increased by $0.02. Your bonus pay is now $0.60.</p>\n            ","response":0,"trial_type":"html-button-response","trial_index":50,"time_elapsed":369848,"internal_node_id":"0.0-4.0-1.19","subject_id":"5eb170206e577a07e9954c65","study_id":"60edd13110225f80f9f3709b","session_id":"6196c468cfcaefbaaa6cfa2d","condition":"contingent","relevant_dimensions":["wings","legs"],"bee_group":{"antennae":"X","wings":"2","pattern":"X","legs":"M"},"bonus":1.400000000000001},{"rt":880.0999999940395,"stimulus":"bees-with-color/bee-B1SM.svg","response":0,"trial_type":"image-button-response","trial_index":51,"time_elapsed":370729,"internal_node_id":"0.0-4.0-0.20","subject_id":"5eb170206e577a07e9954c65","study_id":"60edd13110225f80f9f3709b","session_id":"6196c468cfcaefbaaa6cfa2d","condition":"contingent","relevant_dimensions":["wings","legs"],"bee_group":{"antennae":"X","wings":"2","pattern":"X","legs":"M"},"action":"harvest","summary":"good-harvest","bonus":1.400000000000001},{"rt":676.6999999880791,"stimulus":"\n                    <p><b>Action: <em>harvest</em></b></p>\n                    <p>This is the bee that you just saw.</p>\n                    <img src=\"bees-with-color/bee-B1SM.svg\" width=\"200\">\n                    <p><span class=\"greenText\"><b>Successful harvest!</b></span><br>Your pay has increased by $0.02. Your bonus pay is now $0.62.</p>\n            ","response":0,"trial_type":"html-button-response","trial_index":52,"time_elapsed":371407,"internal_node_id":"0.0-4.0-1.20","subject_id":"5eb170206e577a07e9954c65","study_id":"60edd13110225f80f9f3709b","session_id":"6196c468cfcaefbaaa6cfa2d","condition":"contingent","relevant_dimensions":["wings","legs"],"bee_group":{"antennae":"X","wings":"2","pattern":"X","legs":"M"},"bonus":1.400000000000001},{"rt":859,"stimulus":"bees-with-color/bee-A2SF.svg","response":0,"trial_type":"image-button-response","trial_index":53,"time_elapsed":372267,"internal_node_id":"0.0-4.0-0.21","subject_id":"5eb170206e577a07e9954c65","study_id":"60edd13110225f80f9f3709b","session_id":"6196c468cfcaefbaaa6cfa2d","condition":"contingent","relevant_dimensions":["wings","legs"],"bee_group":{"antennae":"X","wings":"2","pattern":"X","legs":"M"},"action":"harvest","summary":"good-harvest","bonus":1.400000000000001},{"rt":518.9000000059605,"stimulus":"\n                    <p><b>Action: <em>harvest</em></b></p>\n                    <p>This is the bee that you just saw.</p>\n                    <img src=\"bees-with-color/bee-A2SF.svg\" width=\"200\">\n                    <p><span class=\"greenText\"><b>Successful harvest!</b></span><br>Your pay has increased by $0.02. Your bonus pay is now $0.64.</p>\n            ","response":0,"trial_type":"html-button-response","trial_index":54,"time_elapsed":372787,"internal_node_id":"0.0-4.0-1.21","subject_id":"5eb170206e577a07e9954c65","study_id":"60edd13110225f80f9f3709b","session_id":"6196c468cfcaefbaaa6cfa2d","condition":"contingent","relevant_dimensions":["wings","legs"],"bee_group":{"antennae":"X","wings":"2","pattern":"X","legs":"M"},"bonus":1.400000000000001},{"rt":1071.199999988079,"stimulus":"bees-with-color/bee-B2DF.svg","response":0,"trial_type":"image-button-response","trial_index":55,"time_elapsed":373859,"internal_node_id":"0.0-4.0-0.22","subject_id":"5eb170206e577a07e9954c65","study_id":"60edd13110225f80f9f3709b","session_id":"6196c468cfcaefbaaa6cfa2d","condition":"contingent","relevant_dimensions":["wings","legs"],"bee_group":{"antennae":"X","wings":"2","pattern":"X","legs":"M"},"action":"harvest","summary":"good-harvest","bonus":1.400000000000001},{"rt":617.0999999940395,"stimulus":"\n                    <p><b>Action: <em>harvest</em></b></p>\n                    <p>This is the bee that you just saw.</p>\n                    <img src=\"bees-with-color/bee-B2DF.svg\" width=\"200\">\n                    <p><span class=\"greenText\"><b>Successful harvest!</b></span><br>Your pay has increased by $0.02. Your bonus pay is now $0.66.</p>\n            ","response":0,"trial_type":"html-button-response","trial_index":56,"time_elapsed":374477,"internal_node_id":"0.0-4.0-1.22","subject_id":"5eb170206e577a07e9954c65","study_id":"60edd13110225f80f9f3709b","session_id":"6196c468cfcaefbaaa6cfa2d","condition":"contingent","relevant_dimensions":["wings","legs"],"bee_group":{"antennae":"X","wings":"2","pattern":"X","legs":"M"},"bonus":1.400000000000001},{"rt":819.0999999940395,"stimulus":"bees-with-color/bee-A1SF.svg","response":0,"trial_type":"image-button-response","trial_index":57,"time_elapsed":375297,"internal_node_id":"0.0-4.0-0.23","subject_id":"5eb170206e577a07e9954c65","study_id":"60edd13110225f80f9f3709b","session_id":"6196c468cfcaefbaaa6cfa2d","condition":"contingent","relevant_dimensions":["wings","legs"],"bee_group":{"antennae":"X","wings":"2","pattern":"X","legs":"M"},"action":"harvest","summary":"good-harvest","bonus":1.400000000000001},{"rt":583.4000000059605,"stimulus":"\n                    <p><b>Action: <em>harvest</em></b></p>\n                    <p>This is the bee that you just saw.</p>\n                    <img src=\"bees-with-color/bee-A1SF.svg\" width=\"200\">\n                    <p><span class=\"greenText\"><b>Successful harvest!</b></span><br>Your pay has increased by $0.02. Your bonus pay is now $0.68.</p>\n            ","response":0,"trial_type":"html-button-response","trial_index":58,"time_elapsed":375882,"internal_node_id":"0.0-4.0-1.23","subject_id":"5eb170206e577a07e9954c65","study_id":"60edd13110225f80f9f3709b","session_id":"6196c468cfcaefbaaa6cfa2d","condition":"contingent","relevant_dimensions":["wings","legs"],"bee_group":{"antennae":"X","wings":"2","pattern":"X","legs":"M"},"bonus":1.400000000000001},{"rt":787.6999999880791,"stimulus":"bees-with-color/bee-A2DM.svg","response":1,"trial_type":"image-button-response","trial_index":59,"time_elapsed":376670,"internal_node_id":"0.0-4.0-0.24","subject_id":"5eb170206e577a07e9954c65","study_id":"60edd13110225f80f9f3709b","session_id":"6196c468cfcaefbaaa6cfa2d","condition":"contingent","relevant_dimensions":["wings","legs"],"bee_group":{"antennae":"X","wings":"2","pattern":"X","legs":"M"},"action":"avoid","summary":"good-avoid","bonus":1.400000000000001},{"rt":641.2000000178814,"stimulus":"\n                    <p><b>Action: <em>avoid</em></b></p>\n                    <p>This is the bee that you just saw.</p>\n                    <img src=\"bees-with-color/bee-A2DM.svg\" width=\"200\">\n                    <p><br>Your bonus pay is unchanged, and remains at $0.68.</p>\n            ","response":0,"trial_type":"html-button-response","trial_index":60,"time_elapsed":377312,"internal_node_id":"0.0-4.0-1.24","subject_id":"5eb170206e577a07e9954c65","study_id":"60edd13110225f80f9f3709b","session_id":"6196c468cfcaefbaaa6cfa2d","condition":"contingent","relevant_dimensions":["wings","legs"],"bee_group":{"antennae":"X","wings":"2","pattern":"X","legs":"M"},"bonus":1.400000000000001},{"rt":985.5999999940395,"stimulus":"bees-with-color/bee-B1DF.svg","response":0,"trial_type":"image-button-response","trial_index":61,"time_elapsed":378299,"internal_node_id":"0.0-4.0-0.25","subject_id":"5eb170206e577a07e9954c65","study_id":"60edd13110225f80f9f3709b","session_id":"6196c468cfcaefbaaa6cfa2d","condition":"contingent","relevant_dimensions":["wings","legs"],"bee_group":{"antennae":"X","wings":"2","pattern":"X","legs":"M"},"action":"harvest","summary":"good-harvest","bonus":1.400000000000001},{"rt":622.8000000119209,"stimulus":"\n                    <p><b>Action: <em>harvest</em></b></p>\n                    <p>This is the bee that you just saw.</p>\n                    <img src=\"bees-with-color/bee-B1DF.svg\" width=\"200\">\n                    <p><span class=\"greenText\"><b>Successful harvest!</b></span><br>Your pay has increased by $0.02. Your bonus pay is now $0.70.</p>\n            ","response":0,"trial_type":"html-button-response","trial_index":62,"time_elapsed":378923,"internal_node_id":"0.0-4.0-1.25","subject_id":"5eb170206e577a07e9954c65","study_id":"60edd13110225f80f9f3709b","session_id":"6196c468cfcaefbaaa6cfa2d","condition":"contingent","relevant_dimensions":["wings","legs"],"bee_group":{"antennae":"X","wings":"2","pattern":"X","legs":"M"},"bonus":1.400000000000001},{"rt":1086.5999999940395,"stimulus":"bees-with-color/bee-A1DM.svg","response":1,"trial_type":"image-button-response","trial_index":63,"time_elapsed":380011,"internal_node_id":"0.0-4.0-0.26","subject_id":"5eb170206e577a07e9954c65","study_id":"60edd13110225f80f9f3709b","session_id":"6196c468cfcaefbaaa6cfa2d","condition":"contingent","relevant_dimensions":["wings","legs"],"bee_group":{"antennae":"X","wings":"2","pattern":"X","legs":"M"},"action":"avoid","summary":"bad-avoid","bonus":1.400000000000001},{"rt":710.9000000059605,"stimulus":"\n                    <p><b>Action: <em>avoid</em></b></p>\n                    <p>This is the bee that you just saw.</p>\n                    <img src=\"bees-with-color/bee-A1DM.svg\" width=\"200\">\n                    <p><br>Your bonus pay is unchanged, and remains at $0.70.</p>\n            ","response":0,"trial_type":"html-button-response","trial_index":64,"time_elapsed":380722,"internal_node_id":"0.0-4.0-1.26","subject_id":"5eb170206e577a07e9954c65","study_id":"60edd13110225f80f9f3709b","session_id":"6196c468cfcaefbaaa6cfa2d","condition":"contingent","relevant_dimensions":["wings","legs"],"bee_group":{"antennae":"X","wings":"2","pattern":"X","legs":"M"},"bonus":1.400000000000001},{"rt":755.5999999940395,"stimulus":"bees-with-color/bee-B1DM.svg","response":1,"trial_type":"image-button-response","trial_index":65,"time_elapsed":381479,"internal_node_id":"0.0-4.0-0.27","subject_id":"5eb170206e577a07e9954c65","study_id":"60edd13110225f80f9f3709b","session_id":"6196c468cfcaefbaaa6cfa2d","condition":"contingent","relevant_dimensions":["wings","legs"],"bee_group":{"antennae":"X","wings":"2","pattern":"X","legs":"M"},"action":"avoid","summary":"bad-avoid","bonus":1.400000000000001},{"rt":497.69999998807907,"stimulus":"\n                    <p><b>Action: <em>avoid</em></b></p>\n                    <p>This is the bee that you just saw.</p>\n                    <img src=\"bees-with-color/bee-B1DM.svg\" width=\"200\">\n                    <p><br>Your bonus pay is unchanged, and remains at $0.70.</p>\n            ","response":0,"trial_type":"html-button-response","trial_index":66,"time_elapsed":381978,"internal_node_id":"0.0-4.0-1.27","subject_id":"5eb170206e577a07e9954c65","study_id":"60edd13110225f80f9f3709b","session_id":"6196c468cfcaefbaaa6cfa2d","condition":"contingent","relevant_dimensions":["wings","legs"],"bee_group":{"antennae":"X","wings":"2","pattern":"X","legs":"M"},"bonus":1.400000000000001},{"rt":2376.100000023842,"stimulus":"bees-with-color/bee-A1SM.svg","response":1,"trial_type":"image-button-response","trial_index":67,"time_elapsed":384355,"internal_node_id":"0.0-4.0-0.28","subject_id":"5eb170206e577a07e9954c65","study_id":"60edd13110225f80f9f3709b","session_id":"6196c468cfcaefbaaa6cfa2d","condition":"contingent","relevant_dimensions":["wings","legs"],"bee_group":{"antennae":"X","wings":"2","pattern":"X","legs":"M"},"action":"avoid","summary":"bad-avoid","bonus":1.400000000000001},{"rt":561.6999999880791,"stimulus":"\n                    <p><b>Action: <em>avoid</em></b></p>\n                    <p>This is the bee that you just saw.</p>\n                    <img src=\"bees-with-color/bee-A1SM.svg\" width=\"200\">\n                    <p><br>Your bonus pay is unchanged, and remains at $0.70.</p>\n            ","response":0,"trial_type":"html-button-response","trial_index":68,"time_elapsed":384918,"internal_node_id":"0.0-4.0-1.28","subject_id":"5eb170206e577a07e9954c65","study_id":"60edd13110225f80f9f3709b","session_id":"6196c468cfcaefbaaa6cfa2d","condition":"contingent","relevant_dimensions":["wings","legs"],"bee_group":{"antennae":"X","wings":"2","pattern":"X","legs":"M"},"bonus":1.400000000000001},{"rt":646.0999999940395,"stimulus":"bees-with-color/bee-B1SF.svg","response":0,"trial_type":"image-button-response","trial_index":69,"time_elapsed":385565,"internal_node_id":"0.0-4.0-0.29","subject_id":"5eb170206e577a07e9954c65","study_id":"60edd13110225f80f9f3709b","session_id":"6196c468cfcaefbaaa6cfa2d","condition":"contingent","relevant_dimensions":["wings","legs"],"bee_group":{"antennae":"X","wings":"2","pattern":"X","legs":"M"},"action":"harvest","summary":"good-harvest","bonus":1.400000000000001},{"rt":590.2999999821186,"stimulus":"\n                    <p><b>Action: <em>harvest</em></b></p>\n                    <p>This is the bee that you just saw.</p>\n                    <img src=\"bees-with-color/bee-B1SF.svg\" width=\"200\">\n                    <p><span class=\"greenText\"><b>Successful harvest!</b></span><br>Your pay has increased by $0.02. Your bonus pay is now $0.72.</p>\n            ","response":0,"trial_type":"html-button-response","trial_index":70,"time_elapsed":386156,"internal_node_id":"0.0-4.0-1.29","subject_id":"5eb170206e577a07e9954c65","study_id":"60edd13110225f80f9f3709b","session_id":"6196c468cfcaefbaaa6cfa2d","condition":"contingent","relevant_dimensions":["wings","legs"],"bee_group":{"antennae":"X","wings":"2","pattern":"X","legs":"M"},"bonus":1.400000000000001},{"rt":837.7000000178814,"stimulus":"bees-with-color/bee-A2DF.svg","response":0,"trial_type":"image-button-response","trial_index":71,"time_elapsed":386995,"internal_node_id":"0.0-4.0-0.30","subject_id":"5eb170206e577a07e9954c65","study_id":"60edd13110225f80f9f3709b","session_id":"6196c468cfcaefbaaa6cfa2d","condition":"contingent","relevant_dimensions":["wings","legs"],"bee_group":{"antennae":"X","wings":"2","pattern":"X","legs":"M"},"action":"harvest","summary":"good-harvest","bonus":1.400000000000001},{"rt":475.60000002384186,"stimulus":"\n                    <p><b>Action: <em>harvest</em></b></p>\n                    <p>This is the bee that you just saw.</p>\n                    <img src=\"bees-with-color/bee-A2DF.svg\" width=\"200\">\n                    <p><span class=\"greenText\"><b>Successful harvest!</b></span><br>Your pay has increased by $0.02. Your bonus pay is now $0.74.</p>\n            ","response":0,"trial_type":"html-button-response","trial_index":72,"time_elapsed":387471,"internal_node_id":"0.0-4.0-1.30","subject_id":"5eb170206e577a07e9954c65","study_id":"60edd13110225f80f9f3709b","session_id":"6196c468cfcaefbaaa6cfa2d","condition":"contingent","relevant_dimensions":["wings","legs"],"bee_group":{"antennae":"X","wings":"2","pattern":"X","legs":"M"},"bonus":1.400000000000001},{"rt":1021.2999999821186,"stimulus":"bees-with-color/bee-B2SM.svg","response":1,"trial_type":"image-button-response","trial_index":73,"time_elapsed":388494,"internal_node_id":"0.0-4.0-0.31","subject_id":"5eb170206e577a07e9954c65","study_id":"60edd13110225f80f9f3709b","session_id":"6196c468cfcaefbaaa6cfa2d","condition":"contingent","relevant_dimensions":["wings","legs"],"bee_group":{"antennae":"X","wings":"2","pattern":"X","legs":"M"},"action":"avoid","summary":"good-avoid","bonus":1.400000000000001},{"rt":862.1999999880791,"stimulus":"\n                    <p><b>Action: <em>avoid</em></b></p>\n                    <p>This is the bee that you just saw.</p>\n                    <img src=\"bees-with-color/bee-B2SM.svg\" width=\"200\">\n                    <p><br>Your bonus pay is unchanged, and remains at $0.74.</p>\n            ","response":0,"trial_type":"html-button-response","trial_index":74,"time_elapsed":389357,"internal_node_id":"0.0-4.0-1.31","subject_id":"5eb170206e577a07e9954c65","study_id":"60edd13110225f80f9f3709b","session_id":"6196c468cfcaefbaaa6cfa2d","condition":"contingent","relevant_dimensions":["wings","legs"],"bee_group":{"antennae":"X","wings":"2","pattern":"X","legs":"M"},"bonus":1.400000000000001},{"rt":824.2000000178814,"stimulus":"bees-with-color/bee-B1DF.svg","response":0,"trial_type":"image-button-response","trial_index":75,"time_elapsed":390183,"internal_node_id":"0.0-4.0-0.32","subject_id":"5eb170206e577a07e9954c65","study_id":"60edd13110225f80f9f3709b","session_id":"6196c468cfcaefbaaa6cfa2d","condition":"contingent","relevant_dimensions":["wings","legs"],"bee_group":{"antennae":"X","wings":"2","pattern":"X","legs":"M"},"action":"harvest","summary":"good-harvest","bonus":1.400000000000001},{"rt":461.30000001192093,"stimulus":"\n                    <p><b>Action: <em>harvest</em></b></p>\n                    <p>This is the bee that you just saw.</p>\n                    <img src=\"bees-with-color/bee-B1DF.svg\" width=\"200\">\n                    <p><span class=\"greenText\"><b>Successful harvest!</b></span><br>Your pay has increased by $0.02. Your bonus pay is now $0.76.</p>\n            ","response":0,"trial_type":"html-button-response","trial_index":76,"time_elapsed":390645,"internal_node_id":"0.0-4.0-1.32","subject_id":"5eb170206e577a07e9954c65","study_id":"60edd13110225f80f9f3709b","session_id":"6196c468cfcaefbaaa6cfa2d","condition":"contingent","relevant_dimensions":["wings","legs"],"bee_group":{"antennae":"X","wings":"2","pattern":"X","legs":"M"},"bonus":1.400000000000001},{"rt":755.0999999940395,"stimulus":"bees-with-color/bee-B2SF.svg","response":0,"trial_type":"image-button-response","trial_index":77,"time_elapsed":391401,"internal_node_id":"0.0-4.0-0.33","subject_id":"5eb170206e577a07e9954c65","study_id":"60edd13110225f80f9f3709b","session_id":"6196c468cfcaefbaaa6cfa2d","condition":"contingent","relevant_dimensions":["wings","legs"],"bee_group":{"antennae":"X","wings":"2","pattern":"X","legs":"M"},"action":"harvest","summary":"good-harvest","bonus":1.400000000000001},{"rt":483.59999999403954,"stimulus":"\n                    <p><b>Action: <em>harvest</em></b></p>\n                    <p>This is the bee that you just saw.</p>\n                    <img src=\"bees-with-color/bee-B2SF.svg\" width=\"200\">\n                    <p><span class=\"greenText\"><b>Successful harvest!</b></span><br>Your pay has increased by $0.02. Your bonus pay is now $0.78.</p>\n            ","response":0,"trial_type":"html-button-response","trial_index":78,"time_elapsed":391886,"internal_node_id":"0.0-4.0-1.33","subject_id":"5eb170206e577a07e9954c65","study_id":"60edd13110225f80f9f3709b","session_id":"6196c468cfcaefbaaa6cfa2d","condition":"contingent","relevant_dimensions":["wings","legs"],"bee_group":{"antennae":"X","wings":"2","pattern":"X","legs":"M"},"bonus":1.400000000000001},{"rt":756.4000000059605,"stimulus":"bees-with-color/bee-A2SM.svg","response":1,"trial_type":"image-button-response","trial_index":79,"time_elapsed":392643,"internal_node_id":"0.0-4.0-0.34","subject_id":"5eb170206e577a07e9954c65","study_id":"60edd13110225f80f9f3709b","session_id":"6196c468cfcaefbaaa6cfa2d","condition":"contingent","relevant_dimensions":["wings","legs"],"bee_group":{"antennae":"X","wings":"2","pattern":"X","legs":"M"},"action":"avoid","summary":"good-avoid","bonus":1.400000000000001},{"rt":702.6999999880791,"stimulus":"\n                    <p><b>Action: <em>avoid</em></b></p>\n                    <p>This is the bee that you just saw.</p>\n                    <img src=\"bees-with-color/bee-A2SM.svg\" width=\"200\">\n                    <p><br>Your bonus pay is unchanged, and remains at $0.78.</p>\n            ","response":0,"trial_type":"html-button-response","trial_index":80,"time_elapsed":393347,"internal_node_id":"0.0-4.0-1.34","subject_id":"5eb170206e577a07e9954c65","study_id":"60edd13110225f80f9f3709b","session_id":"6196c468cfcaefbaaa6cfa2d","condition":"contingent","relevant_dimensions":["wings","legs"],"bee_group":{"antennae":"X","wings":"2","pattern":"X","legs":"M"},"bonus":1.400000000000001},{"rt":742.7999999821186,"stimulus":"bees-with-color/bee-A2SF.svg","response":0,"trial_type":"image-button-response","trial_index":81,"time_elapsed":394091,"internal_node_id":"0.0-4.0-0.35","subject_id":"5eb170206e577a07e9954c65","study_id":"60edd13110225f80f9f3709b","session_id":"6196c468cfcaefbaaa6cfa2d","condition":"contingent","relevant_dimensions":["wings","legs"],"bee_group":{"antennae":"X","wings":"2","pattern":"X","legs":"M"},"action":"harvest","summary":"good-harvest","bonus":1.400000000000001},{"rt":434.7999999821186,"stimulus":"\n                    <p><b>Action: <em>harvest</em></b></p>\n                    <p>This is the bee that you just saw.</p>\n                    <img src=\"bees-with-color/bee-A2SF.svg\" width=\"200\">\n                    <p><span class=\"greenText\"><b>Successful harvest!</b></span><br>Your pay has increased by $0.02. Your bonus pay is now $0.80.</p>\n            ","response":0,"trial_type":"html-button-response","trial_index":82,"time_elapsed":394527,"internal_node_id":"0.0-4.0-1.35","subject_id":"5eb170206e577a07e9954c65","study_id":"60edd13110225f80f9f3709b","session_id":"6196c468cfcaefbaaa6cfa2d","condition":"contingent","relevant_dimensions":["wings","legs"],"bee_group":{"antennae":"X","wings":"2","pattern":"X","legs":"M"},"bonus":1.400000000000001},{"rt":730.8000000119209,"stimulus":"bees-with-color/bee-A1DM.svg","response":1,"trial_type":"image-button-response","trial_index":83,"time_elapsed":395259,"internal_node_id":"0.0-4.0-0.36","subject_id":"5eb170206e577a07e9954c65","study_id":"60edd13110225f80f9f3709b","session_id":"6196c468cfcaefbaaa6cfa2d","condition":"contingent","relevant_dimensions":["wings","legs"],"bee_group":{"antennae":"X","wings":"2","pattern":"X","legs":"M"},"action":"avoid","summary":"bad-avoid","bonus":1.400000000000001},{"rt":533.5,"stimulus":"\n                    <p><b>Action: <em>avoid</em></b></p>\n                    <p>This is the bee that you just saw.</p>\n                    <img src=\"bees-with-color/bee-A1DM.svg\" width=\"200\">\n                    <p><br>Your bonus pay is unchanged, and remains at $0.80.</p>\n            ","response":0,"trial_type":"html-button-response","trial_index":84,"time_elapsed":395794,"internal_node_id":"0.0-4.0-1.36","subject_id":"5eb170206e577a07e9954c65","study_id":"60edd13110225f80f9f3709b","session_id":"6196c468cfcaefbaaa6cfa2d","condition":"contingent","relevant_dimensions":["wings","legs"],"bee_group":{"antennae":"X","wings":"2","pattern":"X","legs":"M"},"bonus":1.400000000000001},{"rt":1062.7000000178814,"stimulus":"bees-with-color/bee-A2DM.svg","response":1,"trial_type":"image-button-response","trial_index":85,"time_elapsed":396858,"internal_node_id":"0.0-4.0-0.37","subject_id":"5eb170206e577a07e9954c65","study_id":"60edd13110225f80f9f3709b","session_id":"6196c468cfcaefbaaa6cfa2d","condition":"contingent","relevant_dimensions":["wings","legs"],"bee_group":{"antennae":"X","wings":"2","pattern":"X","legs":"M"},"action":"avoid","summary":"good-avoid","bonus":1.400000000000001},{"rt":557.2000000178814,"stimulus":"\n                    <p><b>Action: <em>avoid</em></b></p>\n                    <p>This is the bee that you just saw.</p>\n                    <img src=\"bees-with-color/bee-A2DM.svg\" width=\"200\">\n                    <p><br>Your bonus pay is unchanged, and remains at $0.80.</p>\n            ","response":0,"trial_type":"html-button-response","trial_index":86,"time_elapsed":397416,"internal_node_id":"0.0-4.0-1.37","subject_id":"5eb170206e577a07e9954c65","study_id":"60edd13110225f80f9f3709b","session_id":"6196c468cfcaefbaaa6cfa2d","condition":"contingent","relevant_dimensions":["wings","legs"],"bee_group":{"antennae":"X","wings":"2","pattern":"X","legs":"M"},"bonus":1.400000000000001},{"rt":791.8999999761581,"stimulus":"bees-with-color/bee-B1SM.svg","response":1,"trial_type":"image-button-response","trial_index":87,"time_elapsed":398209,"internal_node_id":"0.0-4.0-0.38","subject_id":"5eb170206e577a07e9954c65","study_id":"60edd13110225f80f9f3709b","session_id":"6196c468cfcaefbaaa6cfa2d","condition":"contingent","relevant_dimensions":["wings","legs"],"bee_group":{"antennae":"X","wings":"2","pattern":"X","legs":"M"},"action":"avoid","summary":"bad-avoid","bonus":1.400000000000001},{"rt":614.9000000059605,"stimulus":"\n                    <p><b>Action: <em>avoid</em></b></p>\n                    <p>This is the bee that you just saw.</p>\n                    <img src=\"bees-with-color/bee-B1SM.svg\" width=\"200\">\n                    <p><br>Your bonus pay is unchanged, and remains at $0.80.</p>\n            ","response":0,"trial_type":"html-button-response","trial_index":88,"time_elapsed":398825,"internal_node_id":"0.0-4.0-1.38","subject_id":"5eb170206e577a07e9954c65","study_id":"60edd13110225f80f9f3709b","session_id":"6196c468cfcaefbaaa6cfa2d","condition":"contingent","relevant_dimensions":["wings","legs"],"bee_group":{"antennae":"X","wings":"2","pattern":"X","legs":"M"},"bonus":1.400000000000001},{"rt":764.3999999761581,"stimulus":"bees-with-color/bee-A1SF.svg","response":0,"trial_type":"image-button-response","trial_index":89,"time_elapsed":399590,"internal_node_id":"0.0-4.0-0.39","subject_id":"5eb170206e577a07e9954c65","study_id":"60edd13110225f80f9f3709b","session_id":"6196c468cfcaefbaaa6cfa2d","condition":"contingent","relevant_dimensions":["wings","legs"],"bee_group":{"antennae":"X","wings":"2","pattern":"X","legs":"M"},"action":"harvest","summary":"good-harvest","bonus":1.400000000000001},{"rt":461.60000002384186,"stimulus":"\n                    <p><b>Action: <em>harvest</em></b></p>\n                    <p>This is the bee that you just saw.</p>\n                    <img src=\"bees-with-color/bee-A1SF.svg\" width=\"200\">\n                    <p><span class=\"greenText\"><b>Successful harvest!</b></span><br>Your pay has increased by $0.02. Your bonus pay is now $0.82.</p>\n            ","response":0,"trial_type":"html-button-response","trial_index":90,"time_elapsed":400053,"internal_node_id":"0.0-4.0-1.39","subject_id":"5eb170206e577a07e9954c65","study_id":"60edd13110225f80f9f3709b","session_id":"6196c468cfcaefbaaa6cfa2d","condition":"contingent","relevant_dimensions":["wings","legs"],"bee_group":{"antennae":"X","wings":"2","pattern":"X","legs":"M"},"bonus":1.400000000000001},{"rt":1038.7999999821186,"stimulus":"bees-with-color/bee-A1SM.svg","response":1,"trial_type":"image-button-response","trial_index":91,"time_elapsed":401093,"internal_node_id":"0.0-4.0-0.40","subject_id":"5eb170206e577a07e9954c65","study_id":"60edd13110225f80f9f3709b","session_id":"6196c468cfcaefbaaa6cfa2d","condition":"contingent","relevant_dimensions":["wings","legs"],"bee_group":{"antennae":"X","wings":"2","pattern":"X","legs":"M"},"action":"avoid","summary":"bad-avoid","bonus":1.400000000000001},{"rt":443.5,"stimulus":"\n                    <p><b>Action: <em>avoid</em></b></p>\n                    <p>This is the bee that you just saw.</p>\n                    <img src=\"bees-with-color/bee-A1SM.svg\" width=\"200\">\n                    <p><br>Your bonus pay is unchanged, and remains at $0.82.</p>\n            ","response":0,"trial_type":"html-button-response","trial_index":92,"time_elapsed":401538,"internal_node_id":"0.0-4.0-1.40","subject_id":"5eb170206e577a07e9954c65","study_id":"60edd13110225f80f9f3709b","session_id":"6196c468cfcaefbaaa6cfa2d","condition":"contingent","relevant_dimensions":["wings","legs"],"bee_group":{"antennae":"X","wings":"2","pattern":"X","legs":"M"},"bonus":1.400000000000001},{"rt":1047.9000000059605,"stimulus":"bees-with-color/bee-B2SM.svg","response":1,"trial_type":"image-button-response","trial_index":93,"time_elapsed":402586,"internal_node_id":"0.0-4.0-0.41","subject_id":"5eb170206e577a07e9954c65","study_id":"60edd13110225f80f9f3709b","session_id":"6196c468cfcaefbaaa6cfa2d","condition":"contingent","relevant_dimensions":["wings","legs"],"bee_group":{"antennae":"X","wings":"2","pattern":"X","legs":"M"},"action":"avoid","summary":"good-avoid","bonus":1.400000000000001},{"rt":474,"stimulus":"\n                    <p><b>Action: <em>avoid</em></b></p>\n                    <p>This is the bee that you just saw.</p>\n                    <img src=\"bees-with-color/bee-B2SM.svg\" width=\"200\">\n                    <p><br>Your bonus pay is unchanged, and remains at $0.82.</p>\n            ","response":0,"trial_type":"html-button-response","trial_index":94,"time_elapsed":403061,"internal_node_id":"0.0-4.0-1.41","subject_id":"5eb170206e577a07e9954c65","study_id":"60edd13110225f80f9f3709b","session_id":"6196c468cfcaefbaaa6cfa2d","condition":"contingent","relevant_dimensions":["wings","legs"],"bee_group":{"antennae":"X","wings":"2","pattern":"X","legs":"M"},"bonus":1.400000000000001},{"rt":813.7000000178814,"stimulus":"bees-with-color/bee-B1SF.svg","response":0,"trial_type":"image-button-response","trial_index":95,"time_elapsed":403876,"internal_node_id":"0.0-4.0-0.42","subject_id":"5eb170206e577a07e9954c65","study_id":"60edd13110225f80f9f3709b","session_id":"6196c468cfcaefbaaa6cfa2d","condition":"contingent","relevant_dimensions":["wings","legs"],"bee_group":{"antennae":"X","wings":"2","pattern":"X","legs":"M"},"action":"harvest","summary":"good-harvest","bonus":1.400000000000001},{"rt":469,"stimulus":"\n                    <p><b>Action: <em>harvest</em></b></p>\n                    <p>This is the bee that you just saw.</p>\n                    <img src=\"bees-with-color/bee-B1SF.svg\" width=\"200\">\n                    <p><span class=\"greenText\"><b>Successful harvest!</b></span><br>Your pay has increased by $0.02. Your bonus pay is now $0.84.</p>\n            ","response":0,"trial_type":"html-button-response","trial_index":96,"time_elapsed":404346,"internal_node_id":"0.0-4.0-1.42","subject_id":"5eb170206e577a07e9954c65","study_id":"60edd13110225f80f9f3709b","session_id":"6196c468cfcaefbaaa6cfa2d","condition":"contingent","relevant_dimensions":["wings","legs"],"bee_group":{"antennae":"X","wings":"2","pattern":"X","legs":"M"},"bonus":1.400000000000001},{"rt":1714.5,"stimulus":"bees-with-color/bee-A2DF.svg","response":0,"trial_type":"image-button-response","trial_index":97,"time_elapsed":406061,"internal_node_id":"0.0-4.0-0.43","subject_id":"5eb170206e577a07e9954c65","study_id":"60edd13110225f80f9f3709b","session_id":"6196c468cfcaefbaaa6cfa2d","condition":"contingent","relevant_dimensions":["wings","legs"],"bee_group":{"antennae":"X","wings":"2","pattern":"X","legs":"M"},"action":"harvest","summary":"good-harvest","bonus":1.400000000000001},{"rt":432.90000000596046,"stimulus":"\n                    <p><b>Action: <em>harvest</em></b></p>\n                    <p>This is the bee that you just saw.</p>\n                    <img src=\"bees-with-color/bee-A2DF.svg\" width=\"200\">\n                    <p><span class=\"greenText\"><b>Successful harvest!</b></span><br>Your pay has increased by $0.02. Your bonus pay is now $0.86.</p>\n            ","response":0,"trial_type":"html-button-response","trial_index":98,"time_elapsed":406495,"internal_node_id":"0.0-4.0-1.43","subject_id":"5eb170206e577a07e9954c65","study_id":"60edd13110225f80f9f3709b","session_id":"6196c468cfcaefbaaa6cfa2d","condition":"contingent","relevant_dimensions":["wings","legs"],"bee_group":{"antennae":"X","wings":"2","pattern":"X","legs":"M"},"bonus":1.400000000000001},{"rt":778.9000000059605,"stimulus":"bees-with-color/bee-B2DM.svg","response":1,"trial_type":"image-button-response","trial_index":99,"time_elapsed":407275,"internal_node_id":"0.0-4.0-0.44","subject_id":"5eb170206e577a07e9954c65","study_id":"60edd13110225f80f9f3709b","session_id":"6196c468cfcaefbaaa6cfa2d","condition":"contingent","relevant_dimensions":["wings","legs"],"bee_group":{"antennae":"X","wings":"2","pattern":"X","legs":"M"},"action":"avoid","summary":"good-avoid","bonus":1.400000000000001},{"rt":389.80000001192093,"stimulus":"\n                    <p><b>Action: <em>avoid</em></b></p>\n                    <p>This is the bee that you just saw.</p>\n                    <img src=\"bees-with-color/bee-B2DM.svg\" width=\"200\">\n                    <p><br>Your bonus pay is unchanged, and remains at $0.86.</p>\n            ","response":0,"trial_type":"html-button-response","trial_index":100,"time_elapsed":407666,"internal_node_id":"0.0-4.0-1.44","subject_id":"5eb170206e577a07e9954c65","study_id":"60edd13110225f80f9f3709b","session_id":"6196c468cfcaefbaaa6cfa2d","condition":"contingent","relevant_dimensions":["wings","legs"],"bee_group":{"antennae":"X","wings":"2","pattern":"X","legs":"M"},"bonus":1.400000000000001},{"rt":737.5999999940395,"stimulus":"bees-with-color/bee-B1DM.svg","response":1,"trial_type":"image-button-response","trial_index":101,"time_elapsed":408404,"internal_node_id":"0.0-4.0-0.45","subject_id":"5eb170206e577a07e9954c65","study_id":"60edd13110225f80f9f3709b","session_id":"6196c468cfcaefbaaa6cfa2d","condition":"contingent","relevant_dimensions":["wings","legs"],"bee_group":{"antennae":"X","wings":"2","pattern":"X","legs":"M"},"action":"avoid","summary":"bad-avoid","bonus":1.400000000000001},{"rt":581.3000000119209,"stimulus":"\n                    <p><b>Action: <em>avoid</em></b></p>\n                    <p>This is the bee that you just saw.</p>\n                    <img src=\"bees-with-color/bee-B1DM.svg\" width=\"200\">\n                    <p><br>Your bonus pay is unchanged, and remains at $0.86.</p>\n            ","response":0,"trial_type":"html-button-response","trial_index":102,"time_elapsed":408987,"internal_node_id":"0.0-4.0-1.45","subject_id":"5eb170206e577a07e9954c65","study_id":"60edd13110225f80f9f3709b","session_id":"6196c468cfcaefbaaa6cfa2d","condition":"contingent","relevant_dimensions":["wings","legs"],"bee_group":{"antennae":"X","wings":"2","pattern":"X","legs":"M"},"bonus":1.400000000000001},{"rt":684.9000000059605,"stimulus":"bees-with-color/bee-B2DF.svg","response":0,"trial_type":"image-button-response","trial_index":103,"time_elapsed":409673,"internal_node_id":"0.0-4.0-0.46","subject_id":"5eb170206e577a07e9954c65","study_id":"60edd13110225f80f9f3709b","session_id":"6196c468cfcaefbaaa6cfa2d","condition":"contingent","relevant_dimensions":["wings","legs"],"bee_group":{"antennae":"X","wings":"2","pattern":"X","legs":"M"},"action":"harvest","summary":"good-harvest","bonus":1.400000000000001},{"rt":506.90000000596046,"stimulus":"\n                    <p><b>Action: <em>harvest</em></b></p>\n                    <p>This is the bee that you just saw.</p>\n                    <img src=\"bees-with-color/bee-B2DF.svg\" width=\"200\">\n                    <p><span class=\"greenText\"><b>Successful harvest!</b></span><br>Your pay has increased by $0.02. Your bonus pay is now $0.88.</p>\n            ","response":0,"trial_type":"html-button-response","trial_index":104,"time_elapsed":410181,"internal_node_id":"0.0-4.0-1.46","subject_id":"5eb170206e577a07e9954c65","study_id":"60edd13110225f80f9f3709b","session_id":"6196c468cfcaefbaaa6cfa2d","condition":"contingent","relevant_dimensions":["wings","legs"],"bee_group":{"antennae":"X","wings":"2","pattern":"X","legs":"M"},"bonus":1.400000000000001},{"rt":699.1999999880791,"stimulus":"bees-with-color/bee-A1DF.svg","response":0,"trial_type":"image-button-response","trial_index":105,"time_elapsed":410881,"internal_node_id":"0.0-4.0-0.47","subject_id":"5eb170206e577a07e9954c65","study_id":"60edd13110225f80f9f3709b","session_id":"6196c468cfcaefbaaa6cfa2d","condition":"contingent","relevant_dimensions":["wings","legs"],"bee_group":{"antennae":"X","wings":"2","pattern":"X","legs":"M"},"action":"harvest","summary":"good-harvest","bonus":1.400000000000001},{"rt":659.0999999940395,"stimulus":"\n                    <p><b>Action: <em>harvest</em></b></p>\n                    <p>This is the bee that you just saw.</p>\n                    <img src=\"bees-with-color/bee-A1DF.svg\" width=\"200\">\n                    <p><span class=\"greenText\"><b>Successful harvest!</b></span><br>Your pay has increased by $0.02. Your bonus pay is now $0.90.</p>\n            ","response":0,"trial_type":"html-button-response","trial_index":106,"time_elapsed":411541,"internal_node_id":"0.0-4.0-1.47","subject_id":"5eb170206e577a07e9954c65","study_id":"60edd13110225f80f9f3709b","session_id":"6196c468cfcaefbaaa6cfa2d","condition":"contingent","relevant_dimensions":["wings","legs"],"bee_group":{"antennae":"X","wings":"2","pattern":"X","legs":"M"},"bonus":1.400000000000001},{"rt":744.8000000119209,"stimulus":"bees-with-color/bee-A1DM.svg","response":1,"trial_type":"image-button-response","trial_index":107,"time_elapsed":412287,"internal_node_id":"0.0-4.0-0.48","subject_id":"5eb170206e577a07e9954c65","study_id":"60edd13110225f80f9f3709b","session_id":"6196c468cfcaefbaaa6cfa2d","condition":"contingent","relevant_dimensions":["wings","legs"],"bee_group":{"antennae":"X","wings":"2","pattern":"X","legs":"M"},"action":"avoid","summary":"bad-avoid","bonus":1.400000000000001},{"rt":440.30000001192093,"stimulus":"\n                    <p><b>Action: <em>avoid</em></b></p>\n                    <p>This is the bee that you just saw.</p>\n                    <img src=\"bees-with-color/bee-A1DM.svg\" width=\"200\">\n                    <p><br>Your bonus pay is unchanged, and remains at $0.90.</p>\n            ","response":0,"trial_type":"html-button-response","trial_index":108,"time_elapsed":412728,"internal_node_id":"0.0-4.0-1.48","subject_id":"5eb170206e577a07e9954c65","study_id":"60edd13110225f80f9f3709b","session_id":"6196c468cfcaefbaaa6cfa2d","condition":"contingent","relevant_dimensions":["wings","legs"],"bee_group":{"antennae":"X","wings":"2","pattern":"X","legs":"M"},"bonus":1.400000000000001},{"rt":1106,"stimulus":"bees-with-color/bee-B1DM.svg","response":1,"trial_type":"image-button-response","trial_index":109,"time_elapsed":413835,"internal_node_id":"0.0-4.0-0.49","subject_id":"5eb170206e577a07e9954c65","study_id":"60edd13110225f80f9f3709b","session_id":"6196c468cfcaefbaaa6cfa2d","condition":"contingent","relevant_dimensions":["wings","legs"],"bee_group":{"antennae":"X","wings":"2","pattern":"X","legs":"M"},"action":"avoid","summary":"bad-avoid","bonus":1.400000000000001},{"rt":415.7999999821186,"stimulus":"\n                    <p><b>Action: <em>avoid</em></b></p>\n                    <p>This is the bee that you just saw.</p>\n                    <img src=\"bees-with-color/bee-B1DM.svg\" width=\"200\">\n                    <p><br>Your bonus pay is unchanged, and remains at $0.90.</p>\n            ","response":0,"trial_type":"html-button-response","trial_index":110,"time_elapsed":414252,"internal_node_id":"0.0-4.0-1.49","subject_id":"5eb170206e577a07e9954c65","study_id":"60edd13110225f80f9f3709b","session_id":"6196c468cfcaefbaaa6cfa2d","condition":"contingent","relevant_dimensions":["wings","legs"],"bee_group":{"antennae":"X","wings":"2","pattern":"X","legs":"M"},"bonus":1.400000000000001},{"rt":821.6000000238419,"stimulus":"bees-with-color/bee-B2DF.svg","response":0,"trial_type":"image-button-response","trial_index":111,"time_elapsed":415075,"internal_node_id":"0.0-4.0-0.50","subject_id":"5eb170206e577a07e9954c65","study_id":"60edd13110225f80f9f3709b","session_id":"6196c468cfcaefbaaa6cfa2d","condition":"contingent","relevant_dimensions":["wings","legs"],"bee_group":{"antennae":"X","wings":"2","pattern":"X","legs":"M"},"action":"harvest","summary":"good-harvest","bonus":1.400000000000001},{"rt":498.80000001192093,"stimulus":"\n                    <p><b>Action: <em>harvest</em></b></p>\n                    <p>This is the bee that you just saw.</p>\n                    <img src=\"bees-with-color/bee-B2DF.svg\" width=\"200\">\n                    <p><span class=\"greenText\"><b>Successful harvest!</b></span><br>Your pay has increased by $0.02. Your bonus pay is now $0.92.</p>\n            ","response":0,"trial_type":"html-button-response","trial_index":112,"time_elapsed":415575,"internal_node_id":"0.0-4.0-1.50","subject_id":"5eb170206e577a07e9954c65","study_id":"60edd13110225f80f9f3709b","session_id":"6196c468cfcaefbaaa6cfa2d","condition":"contingent","relevant_dimensions":["wings","legs"],"bee_group":{"antennae":"X","wings":"2","pattern":"X","legs":"M"},"bonus":1.400000000000001},{"rt":707.5999999940395,"stimulus":"bees-with-color/bee-B2SM.svg","response":1,"trial_type":"image-button-response","trial_index":113,"time_elapsed":416284,"internal_node_id":"0.0-4.0-0.51","subject_id":"5eb170206e577a07e9954c65","study_id":"60edd13110225f80f9f3709b","session_id":"6196c468cfcaefbaaa6cfa2d","condition":"contingent","relevant_dimensions":["wings","legs"],"bee_group":{"antennae":"X","wings":"2","pattern":"X","legs":"M"},"action":"avoid","summary":"good-avoid","bonus":1.400000000000001},{"rt":546.4000000059605,"stimulus":"\n                    <p><b>Action: <em>avoid</em></b></p>\n                    <p>This is the bee that you just saw.</p>\n                    <img src=\"bees-with-color/bee-B2SM.svg\" width=\"200\">\n                    <p><br>Your bonus pay is unchanged, and remains at $0.92.</p>\n            ","response":0,"trial_type":"html-button-response","trial_index":114,"time_elapsed":416831,"internal_node_id":"0.0-4.0-1.51","subject_id":"5eb170206e577a07e9954c65","study_id":"60edd13110225f80f9f3709b","session_id":"6196c468cfcaefbaaa6cfa2d","condition":"contingent","relevant_dimensions":["wings","legs"],"bee_group":{"antennae":"X","wings":"2","pattern":"X","legs":"M"},"bonus":1.400000000000001},{"rt":949.3000000119209,"stimulus":"bees-with-color/bee-A1DF.svg","response":0,"trial_type":"image-button-response","trial_index":115,"time_elapsed":417782,"internal_node_id":"0.0-4.0-0.52","subject_id":"5eb170206e577a07e9954c65","study_id":"60edd13110225f80f9f3709b","session_id":"6196c468cfcaefbaaa6cfa2d","condition":"contingent","relevant_dimensions":["wings","legs"],"bee_group":{"antennae":"X","wings":"2","pattern":"X","legs":"M"},"action":"harvest","summary":"good-harvest","bonus":1.400000000000001},{"rt":414.5,"stimulus":"\n                    <p><b>Action: <em>harvest</em></b></p>\n                    <p>This is the bee that you just saw.</p>\n                    <img src=\"bees-with-color/bee-A1DF.svg\" width=\"200\">\n                    <p><span class=\"greenText\"><b>Successful harvest!</b></span><br>Your pay has increased by $0.02. Your bonus pay is now $0.94.</p>\n            ","response":0,"trial_type":"html-button-response","trial_index":116,"time_elapsed":418197,"internal_node_id":"0.0-4.0-1.52","subject_id":"5eb170206e577a07e9954c65","study_id":"60edd13110225f80f9f3709b","session_id":"6196c468cfcaefbaaa6cfa2d","condition":"contingent","relevant_dimensions":["wings","legs"],"bee_group":{"antennae":"X","wings":"2","pattern":"X","legs":"M"},"bonus":1.400000000000001},{"rt":721.9000000059605,"stimulus":"bees-with-color/bee-A2DF.svg","response":0,"trial_type":"image-button-response","trial_index":117,"time_elapsed":418920,"internal_node_id":"0.0-4.0-0.53","subject_id":"5eb170206e577a07e9954c65","study_id":"60edd13110225f80f9f3709b","session_id":"6196c468cfcaefbaaa6cfa2d","condition":"contingent","relevant_dimensions":["wings","legs"],"bee_group":{"antennae":"X","wings":"2","pattern":"X","legs":"M"},"action":"harvest","summary":"good-harvest","bonus":1.400000000000001},{"rt":355.40000000596046,"stimulus":"\n                    <p><b>Action: <em>harvest</em></b></p>\n                    <p>This is the bee that you just saw.</p>\n                    <img src=\"bees-with-color/bee-A2DF.svg\" width=\"200\">\n                    <p><span class=\"greenText\"><b>Successful harvest!</b></span><br>Your pay has increased by $0.02. Your bonus pay is now $0.96.</p>\n            ","response":0,"trial_type":"html-button-response","trial_index":118,"time_elapsed":419277,"internal_node_id":"0.0-4.0-1.53","subject_id":"5eb170206e577a07e9954c65","study_id":"60edd13110225f80f9f3709b","session_id":"6196c468cfcaefbaaa6cfa2d","condition":"contingent","relevant_dimensions":["wings","legs"],"bee_group":{"antennae":"X","wings":"2","pattern":"X","legs":"M"},"bonus":1.400000000000001},{"rt":1301.7999999821186,"stimulus":"bees-with-color/bee-B2DM.svg","response":1,"trial_type":"image-button-response","trial_index":119,"time_elapsed":420579,"internal_node_id":"0.0-4.0-0.54","subject_id":"5eb170206e577a07e9954c65","study_id":"60edd13110225f80f9f3709b","session_id":"6196c468cfcaefbaaa6cfa2d","condition":"contingent","relevant_dimensions":["wings","legs"],"bee_group":{"antennae":"X","wings":"2","pattern":"X","legs":"M"},"action":"avoid","summary":"good-avoid","bonus":1.400000000000001},{"rt":378.2000000178814,"stimulus":"\n                    <p><b>Action: <em>avoid</em></b></p>\n                    <p>This is the bee that you just saw.</p>\n                    <img src=\"bees-with-color/bee-B2DM.svg\" width=\"200\">\n                    <p><br>Your bonus pay is unchanged, and remains at $0.96.</p>\n            ","response":0,"trial_type":"html-button-response","trial_index":120,"time_elapsed":420959,"internal_node_id":"0.0-4.0-1.54","subject_id":"5eb170206e577a07e9954c65","study_id":"60edd13110225f80f9f3709b","session_id":"6196c468cfcaefbaaa6cfa2d","condition":"contingent","relevant_dimensions":["wings","legs"],"bee_group":{"antennae":"X","wings":"2","pattern":"X","legs":"M"},"bonus":1.400000000000001},{"rt":1454.8999999761581,"stimulus":"bees-with-color/bee-B1SM.svg","response":0,"trial_type":"image-button-response","trial_index":121,"time_elapsed":422414,"internal_node_id":"0.0-4.0-0.55","subject_id":"5eb170206e577a07e9954c65","study_id":"60edd13110225f80f9f3709b","session_id":"6196c468cfcaefbaaa6cfa2d","condition":"contingent","relevant_dimensions":["wings","legs"],"bee_group":{"antennae":"X","wings":"2","pattern":"X","legs":"M"},"action":"harvest","summary":"good-harvest","bonus":1.400000000000001},{"rt":583.5999999940395,"stimulus":"\n                    <p><b>Action: <em>harvest</em></b></p>\n                    <p>This is the bee that you just saw.</p>\n                    <img src=\"bees-with-color/bee-B1SM.svg\" width=\"200\">\n                    <p><span class=\"greenText\"><b>Successful harvest!</b></span><br>Your pay has increased by $0.02. Your bonus pay is now $0.98.</p>\n            ","response":0,"trial_type":"html-button-response","trial_index":122,"time_elapsed":422999,"internal_node_id":"0.0-4.0-1.55","subject_id":"5eb170206e577a07e9954c65","study_id":"60edd13110225f80f9f3709b","session_id":"6196c468cfcaefbaaa6cfa2d","condition":"contingent","relevant_dimensions":["wings","legs"],"bee_group":{"antennae":"X","wings":"2","pattern":"X","legs":"M"},"bonus":1.400000000000001},{"rt":973.6999999880791,"stimulus":"bees-with-color/bee-A2DM.svg","response":1,"trial_type":"image-button-response","trial_index":123,"time_elapsed":423973,"internal_node_id":"0.0-4.0-0.56","subject_id":"5eb170206e577a07e9954c65","study_id":"60edd13110225f80f9f3709b","session_id":"6196c468cfcaefbaaa6cfa2d","condition":"contingent","relevant_dimensions":["wings","legs"],"bee_group":{"antennae":"X","wings":"2","pattern":"X","legs":"M"},"action":"avoid","summary":"good-avoid","bonus":1.400000000000001},{"rt":460.59999999403954,"stimulus":"\n                    <p><b>Action: <em>avoid</em></b></p>\n                    <p>This is the bee that you just saw.</p>\n                    <img src=\"bees-with-color/bee-A2DM.svg\" width=\"200\">\n                    <p><br>Your bonus pay is unchanged, and remains at $0.98.</p>\n            ","response":0,"trial_type":"html-button-response","trial_index":124,"time_elapsed":424435,"internal_node_id":"0.0-4.0-1.56","subject_id":"5eb170206e577a07e9954c65","study_id":"60edd13110225f80f9f3709b","session_id":"6196c468cfcaefbaaa6cfa2d","condition":"contingent","relevant_dimensions":["wings","legs"],"bee_group":{"antennae":"X","wings":"2","pattern":"X","legs":"M"},"bonus":1.400000000000001},{"rt":780.7000000178814,"stimulus":"bees-with-color/bee-B1SF.svg","response":0,"trial_type":"image-button-response","trial_index":125,"time_elapsed":425217,"internal_node_id":"0.0-4.0-0.57","subject_id":"5eb170206e577a07e9954c65","study_id":"60edd13110225f80f9f3709b","session_id":"6196c468cfcaefbaaa6cfa2d","condition":"contingent","relevant_dimensions":["wings","legs"],"bee_group":{"antennae":"X","wings":"2","pattern":"X","legs":"M"},"action":"harvest","summary":"good-harvest","bonus":1.400000000000001},{"rt":472,"stimulus":"\n                    <p><b>Action: <em>harvest</em></b></p>\n                    <p>This is the bee that you just saw.</p>\n                    <img src=\"bees-with-color/bee-B1SF.svg\" width=\"200\">\n                    <p><span class=\"greenText\"><b>Successful harvest!</b></span><br>Your pay has increased by $0.02. Your bonus pay is now $1.00.</p>\n            ","response":0,"trial_type":"html-button-response","trial_index":126,"time_elapsed":425690,"internal_node_id":"0.0-4.0-1.57","subject_id":"5eb170206e577a07e9954c65","study_id":"60edd13110225f80f9f3709b","session_id":"6196c468cfcaefbaaa6cfa2d","condition":"contingent","relevant_dimensions":["wings","legs"],"bee_group":{"antennae":"X","wings":"2","pattern":"X","legs":"M"},"bonus":1.400000000000001},{"rt":501.90000000596046,"stimulus":"bees-with-color/bee-A1SF.svg","response":0,"trial_type":"image-button-response","trial_index":127,"time_elapsed":426192,"internal_node_id":"0.0-4.0-0.58","subject_id":"5eb170206e577a07e9954c65","study_id":"60edd13110225f80f9f3709b","session_id":"6196c468cfcaefbaaa6cfa2d","condition":"contingent","relevant_dimensions":["wings","legs"],"bee_group":{"antennae":"X","wings":"2","pattern":"X","legs":"M"},"action":"harvest","summary":"good-harvest","bonus":1.400000000000001},{"rt":816.7000000178814,"stimulus":"\n                    <p><b>Action: <em>harvest</em></b></p>\n                    <p>This is the bee that you just saw.</p>\n                    <img src=\"bees-with-color/bee-A1SF.svg\" width=\"200\">\n                    <p><span class=\"greenText\"><b>Successful harvest!</b></span><br>Your pay has increased by $0.02. Your bonus pay is now $1.02.</p>\n            ","response":0,"trial_type":"html-button-response","trial_index":128,"time_elapsed":427010,"internal_node_id":"0.0-4.0-1.58","subject_id":"5eb170206e577a07e9954c65","study_id":"60edd13110225f80f9f3709b","session_id":"6196c468cfcaefbaaa6cfa2d","condition":"contingent","relevant_dimensions":["wings","legs"],"bee_group":{"antennae":"X","wings":"2","pattern":"X","legs":"M"},"bonus":1.400000000000001},{"rt":739.9000000059605,"stimulus":"bees-with-color/bee-A2SF.svg","response":0,"trial_type":"image-button-response","trial_index":129,"time_elapsed":427751,"internal_node_id":"0.0-4.0-0.59","subject_id":"5eb170206e577a07e9954c65","study_id":"60edd13110225f80f9f3709b","session_id":"6196c468cfcaefbaaa6cfa2d","condition":"contingent","relevant_dimensions":["wings","legs"],"bee_group":{"antennae":"X","wings":"2","pattern":"X","legs":"M"},"action":"harvest","summary":"good-harvest","bonus":1.400000000000001},{"rt":454.40000000596046,"stimulus":"\n                    <p><b>Action: <em>harvest</em></b></p>\n                    <p>This is the bee that you just saw.</p>\n                    <img src=\"bees-with-color/bee-A2SF.svg\" width=\"200\">\n                    <p><span class=\"greenText\"><b>Successful harvest!</b></span><br>Your pay has increased by $0.02. Your bonus pay is now $1.04.</p>\n            ","response":0,"trial_type":"html-button-response","trial_index":130,"time_elapsed":428206,"internal_node_id":"0.0-4.0-1.59","subject_id":"5eb170206e577a07e9954c65","study_id":"60edd13110225f80f9f3709b","session_id":"6196c468cfcaefbaaa6cfa2d","condition":"contingent","relevant_dimensions":["wings","legs"],"bee_group":{"antennae":"X","wings":"2","pattern":"X","legs":"M"},"bonus":1.400000000000001},{"rt":840.5999999940395,"stimulus":"bees-with-color/bee-A1SM.svg","response":1,"trial_type":"image-button-response","trial_index":131,"time_elapsed":429047,"internal_node_id":"0.0-4.0-0.60","subject_id":"5eb170206e577a07e9954c65","study_id":"60edd13110225f80f9f3709b","session_id":"6196c468cfcaefbaaa6cfa2d","condition":"contingent","relevant_dimensions":["wings","legs"],"bee_group":{"antennae":"X","wings":"2","pattern":"X","legs":"M"},"action":"avoid","summary":"bad-avoid","bonus":1.400000000000001},{"rt":628.1000000238419,"stimulus":"\n                    <p><b>Action: <em>avoid</em></b></p>\n                    <p>This is the bee that you just saw.</p>\n                    <img src=\"bees-with-color/bee-A1SM.svg\" width=\"200\">\n                    <p><br>Your bonus pay is unchanged, and remains at $1.04.</p>\n            ","response":0,"trial_type":"html-button-response","trial_index":132,"time_elapsed":429677,"internal_node_id":"0.0-4.0-1.60","subject_id":"5eb170206e577a07e9954c65","study_id":"60edd13110225f80f9f3709b","session_id":"6196c468cfcaefbaaa6cfa2d","condition":"contingent","relevant_dimensions":["wings","legs"],"bee_group":{"antennae":"X","wings":"2","pattern":"X","legs":"M"},"bonus":1.400000000000001},{"rt":1589.800000011921,"stimulus":"bees-with-color/bee-B1DF.svg","response":0,"trial_type":"image-button-response","trial_index":133,"time_elapsed":431267,"internal_node_id":"0.0-4.0-0.61","subject_id":"5eb170206e577a07e9954c65","study_id":"60edd13110225f80f9f3709b","session_id":"6196c468cfcaefbaaa6cfa2d","condition":"contingent","relevant_dimensions":["wings","legs"],"bee_group":{"antennae":"X","wings":"2","pattern":"X","legs":"M"},"action":"harvest","summary":"good-harvest","bonus":1.400000000000001},{"rt":855.2999999821186,"stimulus":"\n                    <p><b>Action: <em>harvest</em></b></p>\n                    <p>This is the bee that you just saw.</p>\n                    <img src=\"bees-with-color/bee-B1DF.svg\" width=\"200\">\n                    <p><span class=\"greenText\"><b>Successful harvest!</b></span><br>Your pay has increased by $0.02. Your bonus pay is now $1.06.</p>\n            ","response":0,"trial_type":"html-button-response","trial_index":134,"time_elapsed":432123,"internal_node_id":"0.0-4.0-1.61","subject_id":"5eb170206e577a07e9954c65","study_id":"60edd13110225f80f9f3709b","session_id":"6196c468cfcaefbaaa6cfa2d","condition":"contingent","relevant_dimensions":["wings","legs"],"bee_group":{"antennae":"X","wings":"2","pattern":"X","legs":"M"},"bonus":1.400000000000001},{"rt":1777.9000000059605,"stimulus":"bees-with-color/bee-B2SF.svg","response":0,"trial_type":"image-button-response","trial_index":135,"time_elapsed":433902,"internal_node_id":"0.0-4.0-0.62","subject_id":"5eb170206e577a07e9954c65","study_id":"60edd13110225f80f9f3709b","session_id":"6196c468cfcaefbaaa6cfa2d","condition":"contingent","relevant_dimensions":["wings","legs"],"bee_group":{"antennae":"X","wings":"2","pattern":"X","legs":"M"},"action":"harvest","summary":"good-harvest","bonus":1.400000000000001},{"rt":926,"stimulus":"\n                    <p><b>Action: <em>harvest</em></b></p>\n                    <p>This is the bee that you just saw.</p>\n                    <img src=\"bees-with-color/bee-B2SF.svg\" width=\"200\">\n                    <p><span class=\"greenText\"><b>Successful harvest!</b></span><br>Your pay has increased by $0.02. Your bonus pay is now $1.08.</p>\n            ","response":0,"trial_type":"html-button-response","trial_index":136,"time_elapsed":434829,"internal_node_id":"0.0-4.0-1.62","subject_id":"5eb170206e577a07e9954c65","study_id":"60edd13110225f80f9f3709b","session_id":"6196c468cfcaefbaaa6cfa2d","condition":"contingent","relevant_dimensions":["wings","legs"],"bee_group":{"antennae":"X","wings":"2","pattern":"X","legs":"M"},"bonus":1.400000000000001},{"rt":1024.0999999940395,"stimulus":"bees-with-color/bee-A2SM.svg","response":1,"trial_type":"image-button-response","trial_index":137,"time_elapsed":435854,"internal_node_id":"0.0-4.0-0.63","subject_id":"5eb170206e577a07e9954c65","study_id":"60edd13110225f80f9f3709b","session_id":"6196c468cfcaefbaaa6cfa2d","condition":"contingent","relevant_dimensions":["wings","legs"],"bee_group":{"antennae":"X","wings":"2","pattern":"X","legs":"M"},"action":"avoid","summary":"good-avoid","bonus":1.400000000000001},{"rt":737.2000000178814,"stimulus":"\n                    <p><b>Action: <em>avoid</em></b></p>\n                    <p>This is the bee that you just saw.</p>\n                    <img src=\"bees-with-color/bee-A2SM.svg\" width=\"200\">\n                    <p><br>Your bonus pay is unchanged, and remains at $1.08.</p>\n            ","response":0,"trial_type":"html-button-response","trial_index":138,"time_elapsed":436592,"internal_node_id":"0.0-4.0-1.63","subject_id":"5eb170206e577a07e9954c65","study_id":"60edd13110225f80f9f3709b","session_id":"6196c468cfcaefbaaa6cfa2d","condition":"contingent","relevant_dimensions":["wings","legs"],"bee_group":{"antennae":"X","wings":"2","pattern":"X","legs":"M"},"bonus":1.400000000000001},{"rt":3460.699999988079,"stimulus":"You have completed the first part of this experiment.<br><br>You will now begin a shorter second part, in which you will receive no feedback.<br>The same rules regarding bonus pay apply.<br><br>Press any key to begin.","response":" ","trial_type":"html-keyboard-response","trial_index":139,"time_elapsed":440054,"internal_node_id":"0.0-5.0","subject_id":"5eb170206e577a07e9954c65","study_id":"60edd13110225f80f9f3709b","session_id":"6196c468cfcaefbaaa6cfa2d","condition":"contingent","relevant_dimensions":["wings","legs"],"bee_group":{"antennae":"X","wings":"2","pattern":"X","legs":"M"},"bonus":1.400000000000001},{"rt":2631.699999988079,"stimulus":"bees-with-color/bee-A2DF.svg","response":0,"trial_type":"image-button-response","trial_index":140,"time_elapsed":442691,"internal_node_id":"0.0-6.0-0.0","subject_id":"5eb170206e577a07e9954c65","study_id":"60edd13110225f80f9f3709b","session_id":"6196c468cfcaefbaaa6cfa2d","condition":"contingent","relevant_dimensions":["wings","legs"],"bee_group":{"antennae":"X","wings":"2","pattern":"X","legs":"M"},"bonus":1.400000000000001},{"rt":2006.9000000059605,"stimulus":"bees-with-color/bee-A2DM.svg","response":1,"trial_type":"image-button-response","trial_index":141,"time_elapsed":444700,"internal_node_id":"0.0-6.0-0.1","subject_id":"5eb170206e577a07e9954c65","study_id":"60edd13110225f80f9f3709b","session_id":"6196c468cfcaefbaaa6cfa2d","condition":"contingent","relevant_dimensions":["wings","legs"],"bee_group":{"antennae":"X","wings":"2","pattern":"X","legs":"M"},"bonus":1.400000000000001},{"rt":2809.7000000178814,"stimulus":"bees-with-color/bee-B1DM.svg","response":1,"trial_type":"image-button-response","trial_index":142,"time_elapsed":447511,"internal_node_id":"0.0-6.0-0.2","subject_id":"5eb170206e577a07e9954c65","study_id":"60edd13110225f80f9f3709b","session_id":"6196c468cfcaefbaaa6cfa2d","condition":"contingent","relevant_dimensions":["wings","legs"],"bee_group":{"antennae":"X","wings":"2","pattern":"X","legs":"M"},"bonus":1.400000000000001},{"rt":865.1000000238419,"stimulus":"bees-with-color/bee-A1DM.svg","response":1,"trial_type":"image-button-response","trial_index":143,"time_elapsed":448377,"internal_node_id":"0.0-6.0-0.3","subject_id":"5eb170206e577a07e9954c65","study_id":"60edd13110225f80f9f3709b","session_id":"6196c468cfcaefbaaa6cfa2d","condition":"contingent","relevant_dimensions":["wings","legs"],"bee_group":{"antennae":"X","wings":"2","pattern":"X","legs":"M"},"bonus":1.400000000000001},{"rt":544.6999999880791,"stimulus":"bees-with-color/bee-B2SF.svg","response":0,"trial_type":"image-button-response","trial_index":144,"time_elapsed":448923,"internal_node_id":"0.0-6.0-0.4","subject_id":"5eb170206e577a07e9954c65","study_id":"60edd13110225f80f9f3709b","session_id":"6196c468cfcaefbaaa6cfa2d","condition":"contingent","relevant_dimensions":["wings","legs"],"bee_group":{"antennae":"X","wings":"2","pattern":"X","legs":"M"},"bonus":1.400000000000001},{"rt":606.6999999880791,"stimulus":"bees-with-color/bee-B1SF.svg","response":0,"trial_type":"image-button-response","trial_index":145,"time_elapsed":449531,"internal_node_id":"0.0-6.0-0.5","subject_id":"5eb170206e577a07e9954c65","study_id":"60edd13110225f80f9f3709b","session_id":"6196c468cfcaefbaaa6cfa2d","condition":"contingent","relevant_dimensions":["wings","legs"],"bee_group":{"antennae":"X","wings":"2","pattern":"X","legs":"M"},"bonus":1.400000000000001},{"rt":1094.300000011921,"stimulus":"bees-with-color/bee-B2SM.svg","response":1,"trial_type":"image-button-response","trial_index":146,"time_elapsed":450628,"internal_node_id":"0.0-6.0-0.6","subject_id":"5eb170206e577a07e9954c65","study_id":"60edd13110225f80f9f3709b","session_id":"6196c468cfcaefbaaa6cfa2d","condition":"contingent","relevant_dimensions":["wings","legs"],"bee_group":{"antennae":"X","wings":"2","pattern":"X","legs":"M"},"bonus":1.400000000000001},{"rt":570.4000000059605,"stimulus":"bees-with-color/bee-A2SF.svg","response":0,"trial_type":"image-button-response","trial_index":147,"time_elapsed":451200,"internal_node_id":"0.0-6.0-0.7","subject_id":"5eb170206e577a07e9954c65","study_id":"60edd13110225f80f9f3709b","session_id":"6196c468cfcaefbaaa6cfa2d","condition":"contingent","relevant_dimensions":["wings","legs"],"bee_group":{"antennae":"X","wings":"2","pattern":"X","legs":"M"},"bonus":1.400000000000001},{"rt":699.8000000119209,"stimulus":"bees-with-color/bee-B1SM.svg","response":1,"trial_type":"image-button-response","trial_index":148,"time_elapsed":451901,"internal_node_id":"0.0-6.0-0.8","subject_id":"5eb170206e577a07e9954c65","study_id":"60edd13110225f80f9f3709b","session_id":"6196c468cfcaefbaaa6cfa2d","condition":"contingent","relevant_dimensions":["wings","legs"],"bee_group":{"antennae":"X","wings":"2","pattern":"X","legs":"M"},"bonus":1.400000000000001},{"rt":592,"stimulus":"bees-with-color/bee-B1DF.svg","response":0,"trial_type":"image-button-response","trial_index":149,"time_elapsed":452494,"internal_node_id":"0.0-6.0-0.9","subject_id":"5eb170206e577a07e9954c65","study_id":"60edd13110225f80f9f3709b","session_id":"6196c468cfcaefbaaa6cfa2d","condition":"contingent","relevant_dimensions":["wings","legs"],"bee_group":{"antennae":"X","wings":"2","pattern":"X","legs":"M"},"bonus":1.400000000000001},{"rt":568.5,"stimulus":"bees-with-color/bee-B2DF.svg","response":0,"trial_type":"image-button-response","trial_index":150,"time_elapsed":453064,"internal_node_id":"0.0-6.0-0.10","subject_id":"5eb170206e577a07e9954c65","study_id":"60edd13110225f80f9f3709b","session_id":"6196c468cfcaefbaaa6cfa2d","condition":"contingent","relevant_dimensions":["wings","legs"],"bee_group":{"antennae":"X","wings":"2","pattern":"X","legs":"M"},"bonus":1.400000000000001},{"rt":1041.5999999940395,"stimulus":"bees-with-color/bee-A2SM.svg","response":1,"trial_type":"image-button-response","trial_index":151,"time_elapsed":454107,"internal_node_id":"0.0-6.0-0.11","subject_id":"5eb170206e577a07e9954c65","study_id":"60edd13110225f80f9f3709b","session_id":"6196c468cfcaefbaaa6cfa2d","condition":"contingent","relevant_dimensions":["wings","legs"],"bee_group":{"antennae":"X","wings":"2","pattern":"X","legs":"M"},"bonus":1.400000000000001},{"rt":670.3000000119209,"stimulus":"bees-with-color/bee-A1DF.svg","response":0,"trial_type":"image-button-response","trial_index":152,"time_elapsed":454779,"internal_node_id":"0.0-6.0-0.12","subject_id":"5eb170206e577a07e9954c65","study_id":"60edd13110225f80f9f3709b","session_id":"6196c468cfcaefbaaa6cfa2d","condition":"contingent","relevant_dimensions":["wings","legs"],"bee_group":{"antennae":"X","wings":"2","pattern":"X","legs":"M"},"bonus":1.400000000000001},{"rt":899.6999999880791,"stimulus":"bees-with-color/bee-B2DM.svg","response":1,"trial_type":"image-button-response","trial_index":153,"time_elapsed":455680,"internal_node_id":"0.0-6.0-0.13","subject_id":"5eb170206e577a07e9954c65","study_id":"60edd13110225f80f9f3709b","session_id":"6196c468cfcaefbaaa6cfa2d","condition":"contingent","relevant_dimensions":["wings","legs"],"bee_group":{"antennae":"X","wings":"2","pattern":"X","legs":"M"},"bonus":1.400000000000001},{"rt":637.4000000059605,"stimulus":"bees-with-color/bee-A1SF.svg","response":0,"trial_type":"image-button-response","trial_index":154,"time_elapsed":456319,"internal_node_id":"0.0-6.0-0.14","subject_id":"5eb170206e577a07e9954c65","study_id":"60edd13110225f80f9f3709b","session_id":"6196c468cfcaefbaaa6cfa2d","condition":"contingent","relevant_dimensions":["wings","legs"],"bee_group":{"antennae":"X","wings":"2","pattern":"X","legs":"M"},"bonus":1.400000000000001},{"rt":984.1999999880791,"stimulus":"bees-with-color/bee-A1SM.svg","response":1,"trial_type":"image-button-response","trial_index":155,"time_elapsed":457304,"internal_node_id":"0.0-6.0-0.15","subject_id":"5eb170206e577a07e9954c65","study_id":"60edd13110225f80f9f3709b","session_id":"6196c468cfcaefbaaa6cfa2d","condition":"contingent","relevant_dimensions":["wings","legs"],"bee_group":{"antennae":"X","wings":"2","pattern":"X","legs":"M"},"bonus":1.400000000000001},{"rt":1016.6999999880791,"stimulus":"bees-with-color/bee-A2DM.svg","response":1,"trial_type":"image-button-response","trial_index":156,"time_elapsed":458322,"internal_node_id":"0.0-6.0-0.16","subject_id":"5eb170206e577a07e9954c65","study_id":"60edd13110225f80f9f3709b","session_id":"6196c468cfcaefbaaa6cfa2d","condition":"contingent","relevant_dimensions":["wings","legs"],"bee_group":{"antennae":"X","wings":"2","pattern":"X","legs":"M"},"bonus":1.400000000000001},{"rt":686.0999999940395,"stimulus":"bees-with-color/bee-A2SM.svg","response":1,"trial_type":"image-button-response","trial_index":157,"time_elapsed":459010,"internal_node_id":"0.0-6.0-0.17","subject_id":"5eb170206e577a07e9954c65","study_id":"60edd13110225f80f9f3709b","session_id":"6196c468cfcaefbaaa6cfa2d","condition":"contingent","relevant_dimensions":["wings","legs"],"bee_group":{"antennae":"X","wings":"2","pattern":"X","legs":"M"},"bonus":1.400000000000001},{"rt":665.5999999940395,"stimulus":"bees-with-color/bee-A2SF.svg","response":0,"trial_type":"image-button-response","trial_index":158,"time_elapsed":459676,"internal_node_id":"0.0-6.0-0.18","subject_id":"5eb170206e577a07e9954c65","study_id":"60edd13110225f80f9f3709b","session_id":"6196c468cfcaefbaaa6cfa2d","condition":"contingent","relevant_dimensions":["wings","legs"],"bee_group":{"antennae":"X","wings":"2","pattern":"X","legs":"M"},"bonus":1.400000000000001},{"rt":605,"stimulus":"bees-with-color/bee-A2DF.svg","response":0,"trial_type":"image-button-response","trial_index":159,"time_elapsed":460283,"internal_node_id":"0.0-6.0-0.19","subject_id":"5eb170206e577a07e9954c65","study_id":"60edd13110225f80f9f3709b","session_id":"6196c468cfcaefbaaa6cfa2d","condition":"contingent","relevant_dimensions":["wings","legs"],"bee_group":{"antennae":"X","wings":"2","pattern":"X","legs":"M"},"bonus":1.400000000000001},{"rt":583.7999999821186,"stimulus":"bees-with-color/bee-B1DF.svg","response":0,"trial_type":"image-button-response","trial_index":160,"time_elapsed":460867,"internal_node_id":"0.0-6.0-0.20","subject_id":"5eb170206e577a07e9954c65","study_id":"60edd13110225f80f9f3709b","session_id":"6196c468cfcaefbaaa6cfa2d","condition":"contingent","relevant_dimensions":["wings","legs"],"bee_group":{"antennae":"X","wings":"2","pattern":"X","legs":"M"},"bonus":1.400000000000001},{"rt":909.1999999880791,"stimulus":"bees-with-color/bee-A1DM.svg","response":1,"trial_type":"image-button-response","trial_index":161,"time_elapsed":461778,"internal_node_id":"0.0-6.0-0.21","subject_id":"5eb170206e577a07e9954c65","study_id":"60edd13110225f80f9f3709b","session_id":"6196c468cfcaefbaaa6cfa2d","condition":"contingent","relevant_dimensions":["wings","legs"],"bee_group":{"antennae":"X","wings":"2","pattern":"X","legs":"M"},"bonus":1.400000000000001},{"rt":593.1999999880791,"stimulus":"bees-with-color/bee-A1SF.svg","response":0,"trial_type":"image-button-response","trial_index":162,"time_elapsed":462372,"internal_node_id":"0.0-6.0-0.22","subject_id":"5eb170206e577a07e9954c65","study_id":"60edd13110225f80f9f3709b","se