[{"success":true,"trial_type":"fullscreen","trial_index":0,"time_elapsed":5329,"internal_node_id":"0.0-0.0","subject_id":"5fe0c7aac9707da1c9f069dc","study_id":"60edd13110225f80f9f3709b","session_id":"6196baaa2156b3342518a090","condition":"full-information","relevant_dimensions":["wings","legs"],"bee_group":{"antennae":"X","wings":"1","pattern":"X","legs":"F"},"bonus":0.6600000000000008},{"success":true,"timeout":false,"failed_images":[],"failed_audio":[],"failed_video":[],"trial_type":"preload","trial_index":1,"time_elapsed":7461,"internal_node_id":"0.0-1.0","subject_id":"5fe0c7aac9707da1c9f069dc","study_id":"60edd13110225f80f9f3709b","session_id":"6196baaa2156b3342518a090","condition":"full-information","relevant_dimensions":["wings","legs"],"bee_group":{"antennae":"X","wings":"1","pattern":"X","legs":"F"},"bonus":0.6600000000000008},{"rt":2779,"stimulus":"Welcome! Press any key to begin.","response":" ","trial_type":"html-keyboard-response","trial_index":2,"time_elapsed":10239,"internal_node_id":"0.0-2.0","subject_id":"5fe0c7aac9707da1c9f069dc","study_id":"60edd13110225f80f9f3709b","session_id":"6196baaa2156b3342518a090","condition":"full-information","relevant_dimensions":["wings","legs"],"bee_group":{"antennae":"X","wings":"1","pattern":"X","legs":"F"},"bonus":0.6600000000000008},{"view_history":[{"page_index":0,"viewing_time":3902},{"page_index":1,"viewing_time":11049},{"page_index":2,"viewing_time":8925},{"page_index":3,"viewing_time":11984},{"page_index":4,"viewing_time":7849},{"page_index":5,"viewing_time":18596},{"page_index":6,"viewing_time":10151},{"page_index":7,"viewing_time":4827},{"page_index":8,"viewing_time":4830},{"page_index":9,"viewing_time":5639},{"page_index":10,"viewing_time":5263},{"page_index":11,"viewing_time":34017},{"page_index":12,"viewing_time":10750},{"page_index":13,"viewing_time":1360},{"page_index":14,"viewing_time":2963}],"rt":142105,"trial_type":"instructions","trial_index":3,"time_elapsed":152345,"internal_node_id":"0.0-3.0-0.0","subject_id":"5fe0c7aac9707da1c9f069dc","study_id":"60edd13110225f80f9f3709b","session_id":"6196baaa2156b3342518a090","condition":"full-information","relevant_dimensions":["wings","legs"],"bee_group":{"antennae":"X","wings":"1","pattern":"X","legs":"F"},"bonus":0.6600000000000008},{"rt":13262,"response":{"Q0":["Two or six legs","Stripes or spots on body","Single or double wings","Antennae or no antennae"]},"question_order":[0],"trial_type":"survey-multi-select","trial_index":4,"time_elapsed":165610,"internal_node_id":"0.0-3.0-1.0","subject_id":"5fe0c7aac9707da1c9f069dc","study_id":"60edd13110225f80f9f3709b","session_id":"6196baaa2156b3342518a090","condition":"full-information","relevant_dimensions":["wings","legs"],"bee_group":{"antennae":"X","wings":"1","pattern":"X","legs":"F"},"correct":true,"bonus":0.6600000000000008},{"rt":21327,"response":{"Q1":"No.","Q2":"Based on the four features of the bee.","Q3":"You learn if it was friendly or dangerous, but do not alter your bonus."},"question_order":[0,1,2],"trial_type":"survey-multi-choice","trial_index":5,"time_elapsed":186939,"internal_node_id":"0.0-3.0-2.0","subject_id":"5fe0c7aac9707da1c9f069dc","study_id":"60edd13110225f80f9f3709b","session_id":"6196baaa2156b3342518a090","condition":"full-information","relevant_dimensions":["wings","legs"],"bee_group":{"antennae":"X","wings":"1","pattern":"X","legs":"F"},"correct":true,"bonus":0.6600000000000008},{"rt":1634,"stimulus":"<p>Congrats, you got everything right<br>When you're ready, click the button below to continue to the experiment.</p>","response":0,"trial_type":"html-button-response","trial_index":6,"time_elapsed":188574,"internal_node_id":"0.0-3.0-3.0","subject_id":"5fe0c7aac9707da1c9f069dc","study_id":"60edd13110225f80f9f3709b","session_id":"6196baaa2156b3342518a090","condition":"full-information","relevant_dimensions":["wings","legs"],"bee_group":{"antennae":"X","wings":"1","pattern":"X","legs":"F"},"bonus":0.6600000000000008},{"rt":2751,"stimulus":"bees-with-color/bee-A2DF.svg","response":0,"trial_type":"image-button-response","trial_index":7,"time_elapsed":191329,"internal_node_id":"0.0-4.0-0.0","subject_id":"5fe0c7aac9707da1c9f069dc","study_id":"60edd13110225f80f9f3709b","session_id":"6196baaa2156b3342518a090","condition":"full-information","relevant_dimensions":["wings","legs"],"bee_group":{"antennae":"X","wings":"1","pattern":"X","legs":"F"},"action":"harvest","summary":"good-harvest","bonus":0.6600000000000008},{"rt":10070,"stimulus":"\n                    <p><b>Action: <em>harvest</em></b></p>\n                    <p>This is the bee that you just saw.</p>\n                    <img src=\"bees-with-color/bee-A2DF.svg\" width=\"200\">\n                    <p><span class=\"greenText\"><b>Successful harvest!</b></span><br>Your pay has increased by $0.02. Your bonus pay is now $0.56.</p>\n            ","response":0,"trial_type":"html-button-response","trial_index":8,"time_elapsed":201410,"internal_node_id":"0.0-4.0-1.0","subject_id":"5fe0c7aac9707da1c9f069dc","study_id":"60edd13110225f80f9f3709b","session_id":"6196baaa2156b3342518a090","condition":"full-information","relevant_dimensions":["wings","legs"],"bee_group":{"antennae":"X","wings":"1","pattern":"X","legs":"F"},"bonus":0.6600000000000008},{"rt":2174,"stimulus":"bees-with-color/bee-A2DM.svg","response":1,"trial_type":"image-button-response","trial_index":9,"time_elapsed":203586,"internal_node_id":"0.0-4.0-0.1","subject_id":"5fe0c7aac9707da1c9f069dc","study_id":"60edd13110225f80f9f3709b","session_id":"6196baaa2156b3342518a090","condition":"full-information","relevant_dimensions":["wings","legs"],"bee_group":{"antennae":"X","wings":"1","pattern":"X","legs":"F"},"action":"avoid","summary":"bad-avoid","bonus":0.6600000000000008},{"rt":3673,"stimulus":"\n                    <p><b>Action: <em>avoid</em></b></p>\n                    <p>This is the bee that you just saw.</p>\n                    <img src=\"bees-with-color/bee-A2DM.svg\" width=\"200\">\n                    <p><span class=\"redText\">Bad choice,</span> the bee was friendly.<br>Your bonus pay is unchanged, and remains at $0.56.</p>\n            ","response":0,"trial_type":"html-button-response","trial_index":10,"time_elapsed":207259,"internal_node_id":"0.0-4.0-1.1","subject_id":"5fe0c7aac9707da1c9f069dc","study_id":"60edd13110225f80f9f3709b","session_id":"6196baaa2156b3342518a090","condition":"full-information","relevant_dimensions":["wings","legs"],"bee_group":{"antennae":"X","wings":"1","pattern":"X","legs":"F"},"bonus":0.6600000000000008},{"rt":4037,"stimulus":"bees-with-color/bee-A1DF.svg","response":0,"trial_type":"image-button-response","trial_index":11,"time_elapsed":211297,"internal_node_id":"0.0-4.0-0.2","subject_id":"5fe0c7aac9707da1c9f069dc","study_id":"60edd13110225f80f9f3709b","session_id":"6196baaa2156b3342518a090","condition":"full-information","relevant_dimensions":["wings","legs"],"bee_group":{"antennae":"X","wings":"1","pattern":"X","legs":"F"},"action":"harvest","summary":"bad-harvest","bonus":0.6600000000000008},{"rt":4345,"stimulus":"\n                    <p><b>Action: <em>harvest</em></b></p>\n                    <p>This is the bee that you just saw.</p>\n                    <img src=\"bees-with-color/bee-A1DF.svg\" width=\"200\">\n                    <p><span class=\"redText\">Bad choice, the bee was angry.</span><br><b>You have been stung!</b><br>Your pay has been decreased by $0.10. Your bonus pay is now $0.46.</p>\n            ","response":0,"trial_type":"html-button-response","trial_index":12,"time_elapsed":215643,"internal_node_id":"0.0-4.0-1.2","subject_id":"5fe0c7aac9707da1c9f069dc","study_id":"60edd13110225f80f9f3709b","session_id":"6196baaa2156b3342518a090","condition":"full-information","relevant_dimensions":["wings","legs"],"bee_group":{"antennae":"X","wings":"1","pattern":"X","legs":"F"},"bonus":0.6600000000000008},{"rt":3542,"stimulus":"bees-with-color/bee-B2DM.svg","response":0,"trial_type":"image-button-response","trial_index":13,"time_elapsed":219186,"internal_node_id":"0.0-4.0-0.3","subject_id":"5fe0c7aac9707da1c9f069dc","study_id":"60edd13110225f80f9f3709b","session_id":"6196baaa2156b3342518a090","condition":"full-information","relevant_dimensions":["wings","legs"],"bee_group":{"antennae":"X","wings":"1","pattern":"X","legs":"F"},"action":"harvest","summary":"good-harvest","bonus":0.6600000000000008},{"rt":8765,"stimulus":"\n                    <p><b>Action: <em>harvest</em></b></p>\n                    <p>This is the bee that you just saw.</p>\n                    <img src=\"bees-with-color/bee-B2DM.svg\" width=\"200\">\n                    <p><span class=\"greenText\"><b>Successful harvest!</b></span><br>Your pay has increased by $0.02. Your bonus pay is now $0.48.</p>\n            ","response":0,"trial_type":"html-button-response","trial_index":14,"time_elapsed":227951,"internal_node_id":"0.0-4.0-1.3","subject_id":"5fe0c7aac9707da1c9f069dc","study_id":"60edd13110225f80f9f3709b","session_id":"6196baaa2156b3342518a090","condition":"full-information","relevant_dimensions":["wings","legs"],"bee_group":{"antennae":"X","wings":"1","pattern":"X","legs":"F"},"bonus":0.6600000000000008},{"rt":2021,"stimulus":"bees-with-color/bee-A2SF.svg","response":0,"trial_type":"image-button-response","trial_index":15,"time_elapsed":229973,"internal_node_id":"0.0-4.0-0.4","subject_id":"5fe0c7aac9707da1c9f069dc","study_id":"60edd13110225f80f9f3709b","session_id":"6196baaa2156b3342518a090","condition":"full-information","relevant_dimensions":["wings","legs"],"bee_group":{"antennae":"X","wings":"1","pattern":"X","legs":"F"},"action":"harvest","summary":"good-harvest","bonus":0.6600000000000008},{"rt":3914,"stimulus":"\n                    <p><b>Action: <em>harvest</em></b></p>\n                    <p>This is the bee that you just saw.</p>\n                    <img src=\"bees-with-color/bee-A2SF.svg\" width=\"200\">\n                    <p><span class=\"greenText\"><b>Successful harvest!</b></span><br>Your pay has increased by $0.02. Your bonus pay is now $0.50.</p>\n            ","response":0,"trial_type":"html-button-response","trial_index":16,"time_elapsed":233889,"internal_node_id":"0.0-4.0-1.4","subject_id":"5fe0c7aac9707da1c9f069dc","study_id":"60edd13110225f80f9f3709b","session_id":"6196baaa2156b3342518a090","condition":"full-information","relevant_dimensions":["wings","legs"],"bee_group":{"antennae":"X","wings":"1","pattern":"X","legs":"F"},"bonus":0.6600000000000008},{"rt":1658,"stimulus":"bees-with-color/bee-B1DF.svg","response":1,"trial_type":"image-button-response","trial_index":17,"time_elapsed":235546,"internal_node_id":"0.0-4.0-0.5","subject_id":"5fe0c7aac9707da1c9f069dc","study_id":"60edd13110225f80f9f3709b","session_id":"6196baaa2156b3342518a090","condition":"full-information","relevant_dimensions":["wings","legs"],"bee_group":{"antennae":"X","wings":"1","pattern":"X","legs":"F"},"action":"avoid","summary":"good-avoid","bonus":0.6600000000000008},{"rt":4328,"stimulus":"\n                    <p><b>Action: <em>avoid</em></b></p>\n                    <p>This is the bee that you just saw.</p>\n                    <img src=\"bees-with-color/bee-B1DF.svg\" width=\"200\">\n                    <p><span class=\"greenText\">Good choice!</span>  This bee would have stung you.<br>Your bonus pay is unchanged, and remains at $0.50.</p>\n            ","response":0,"trial_type":"html-button-response","trial_index":18,"time_elapsed":239876,"internal_node_id":"0.0-4.0-1.5","subject_id":"5fe0c7aac9707da1c9f069dc","study_id":"60edd13110225f80f9f3709b","session_id":"6196baaa2156b3342518a090","condition":"full-information","relevant_dimensions":["wings","legs"],"bee_group":{"antennae":"X","wings":"1","pattern":"X","legs":"F"},"bonus":0.6600000000000008},{"rt":1904,"stimulus":"bees-with-color/bee-A2SM.svg","response":0,"trial_type":"image-button-response","trial_index":19,"time_elapsed":241781,"internal_node_id":"0.0-4.0-0.6","subject_id":"5fe0c7aac9707da1c9f069dc","study_id":"60edd13110225f80f9f3709b","session_id":"6196baaa2156b3342518a090","condition":"full-information","relevant_dimensions":["wings","legs"],"bee_group":{"antennae":"X","wings":"1","pattern":"X","legs":"F"},"action":"harvest","summary":"good-harvest","bonus":0.6600000000000008},{"rt":3079,"stimulus":"\n                    <p><b>Action: <em>harvest</em></b></p>\n                    <p>This is the bee that you just saw.</p>\n                    <img src=\"bees-with-color/bee-A2SM.svg\" width=\"200\">\n                    <p><span class=\"greenText\"><b>Successful harvest!</b></span><br>Your pay has increased by $0.02. Your bonus pay is now $0.52.</p>\n            ","response":0,"trial_type":"html-button-response","trial_index":20,"time_elapsed":244860,"internal_node_id":"0.0-4.0-1.6","subject_id":"5fe0c7aac9707da1c9f069dc","study_id":"60edd13110225f80f9f3709b","session_id":"6196baaa2156b3342518a090","condition":"full-information","relevant_dimensions":["wings","legs"],"bee_group":{"antennae":"X","wings":"1","pattern":"X","legs":"F"},"bonus":0.6600000000000008},{"rt":1171,"stimulus":"bees-with-color/bee-B1DM.svg","response":1,"trial_type":"image-button-response","trial_index":21,"time_elapsed":246032,"internal_node_id":"0.0-4.0-0.7","subject_id":"5fe0c7aac9707da1c9f069dc","study_id":"60edd13110225f80f9f3709b","session_id":"6196baaa2156b3342518a090","condition":"full-information","relevant_dimensions":["wings","legs"],"bee_group":{"antennae":"X","wings":"1","pattern":"X","legs":"F"},"action":"avoid","summary":"bad-avoid","bonus":0.6600000000000008},{"rt":25469,"stimulus":"\n                    <p><b>Action: <em>avoid</em></b></p>\n                    <p>This is the bee that you just saw.</p>\n                    <img src=\"bees-with-color/bee-B1DM.svg\" width=\"200\">\n                    <p><span class=\"redText\">Bad choice,</span> the bee was friendly.<br>Your bonus pay is unchanged, and remains at $0.52.</p>\n            ","response":0,"trial_type":"html-button-response","trial_index":22,"time_elapsed":271502,"internal_node_id":"0.0-4.0-1.7","subject_id":"5fe0c7aac9707da1c9f069dc","study_id":"60edd13110225f80f9f3709b","session_id":"6196baaa2156b3342518a090","condition":"full-information","relevant_dimensions":["wings","legs"],"bee_group":{"antennae":"X","wings":"1","pattern":"X","legs":"F"},"bonus":0.6600000000000008},{"rt":2377,"stimulus":"bees-with-color/bee-A1DM.svg","response":1,"trial_type":"image-button-response","trial_index":23,"time_elapsed":273879,"internal_node_id":"0.0-4.0-0.8","subject_id":"5fe0c7aac9707da1c9f069dc","study_id":"60edd13110225f80f9f3709b","session_id":"6196baaa2156b3342518a090","condition":"full-information","relevant_dimensions":["wings","legs"],"bee_group":{"antennae":"X","wings":"1","pattern":"X","legs":"F"},"action":"avoid","summary":"bad-avoid","bonus":0.6600000000000008},{"rt":1732,"stimulus":"\n                    <p><b>Action: <em>avoid</em></b></p>\n                    <p>This is the bee that you just saw.</p>\n                    <img src=\"bees-with-color/bee-A1DM.svg\" width=\"200\">\n                    <p><span class=\"redText\">Bad choice,</span> the bee was friendly.<br>Your bonus pay is unchanged, and remains at $0.52.</p>\n            ","response":0,"trial_type":"html-button-response","trial_index":24,"time_elapsed":275612,"internal_node_id":"0.0-4.0-1.8","subject_id":"5fe0c7aac9707da1c9f069dc","study_id":"60edd13110225f80f9f3709b","session_id":"6196baaa2156b3342518a090","condition":"full-information","relevant_dimensions":["wings","legs"],"bee_group":{"antennae":"X","wings":"1","pattern":"X","legs":"F"},"bonus":0.6600000000000008},{"rt":1887,"stimulus":"bees-with-color/bee-B1SM.svg","response":1,"trial_type":"image-button-response","trial_index":25,"time_elapsed":277500,"internal_node_id":"0.0-4.0-0.9","subject_id":"5fe0c7aac9707da1c9f069dc","study_id":"60edd13110225f80f9f3709b","session_id":"6196baaa2156b3342518a090","condition":"full-information","relevant_dimensions":["wings","legs"],"bee_group":{"antennae":"X","wings":"1","pattern":"X","legs":"F"},"action":"avoid","summary":"bad-avoid","bonus":0.6600000000000008},{"rt":1297,"stimulus":"\n                    <p><b>Action: <em>avoid</em></b></p>\n                    <p>This is the bee that you just saw.</p>\n                    <img src=\"bees-with-color/bee-B1SM.svg\" width=\"200\">\n                    <p><span class=\"redText\">Bad choice,</span> the bee was friendly.<br>Your bonus pay is unchanged, and remains at $0.52.</p>\n            ","response":0,"trial_type":"html-button-response","trial_index":26,"time_elapsed":278799,"internal_node_id":"0.0-4.0-1.9","subject_id":"5fe0c7aac9707da1c9f069dc","study_id":"60edd13110225f80f9f3709b","session_id":"6196baaa2156b3342518a090","condition":"full-information","relevant_dimensions":["wings","legs"],"bee_group":{"antennae":"X","wings":"1","pattern":"X","legs":"F"},"bonus":0.6600000000000008},{"rt":1253,"stimulus":"bees-with-color/bee-B2SM.svg","response":0,"trial_type":"image-button-response","trial_index":27,"time_elapsed":280054,"internal_node_id":"0.0-4.0-0.10","subject_id":"5fe0c7aac9707da1c9f069dc","study_id":"60edd13110225f80f9f3709b","session_id":"6196baaa2156b3342518a090","condition":"full-information","relevant_dimensions":["wings","legs"],"bee_group":{"antennae":"X","wings":"1","pattern":"X","legs":"F"},"action":"harvest","summary":"good-harvest","bonus":0.6600000000000008},{"rt":3463,"stimulus":"\n                    <p><b>Action: <em>harvest</em></b></p>\n                    <p>This is the bee that you just saw.</p>\n                    <img src=\"bees-with-color/bee-B2SM.svg\" width=\"200\">\n                    <p><span class=\"greenText\"><b>Successful harvest!</b></span><br>Your pay has increased by $0.02. Your bonus pay is now $0.54.</p>\n            ","response":0,"trial_type":"html-button-response","trial_index":28,"time_elapsed":283517,"internal_node_id":"0.0-4.0-1.10","subject_id":"5fe0c7aac9707da1c9f069dc","study_id":"60edd13110225f80f9f3709b","session_id":"6196baaa2156b3342518a090","condition":"full-information","relevant_dimensions":["wings","legs"],"bee_group":{"antennae":"X","wings":"1","pattern":"X","legs":"F"},"bonus":0.6600000000000008},{"rt":1325,"stimulus":"bees-with-color/bee-A1SM.svg","response":1,"trial_type":"image-button-response","trial_index":29,"time_elapsed":284844,"internal_node_id":"0.0-4.0-0.11","subject_id":"5fe0c7aac9707da1c9f069dc","study_id":"60edd13110225f80f9f3709b","session_id":"6196baaa2156b3342518a090","condition":"full-information","relevant_dimensions":["wings","legs"],"bee_group":{"antennae":"X","wings":"1","pattern":"X","legs":"F"},"action":"avoid","summary":"bad-avoid","bonus":0.6600000000000008},{"rt":2012,"stimulus":"\n                    <p><b>Action: <em>avoid</em></b></p>\n                    <p>This is the bee that you just saw.</p>\n                    <img src=\"bees-with-color/bee-A1SM.svg\" width=\"200\">\n                    <p><span class=\"redText\">Bad choice,</span> the bee was friendly.<br>Your bonus pay is unchanged, and remains at $0.54.</p>\n            ","response":0,"trial_type":"html-button-response","trial_index":30,"time_elapsed":286855,"internal_node_id":"0.0-4.0-1.11","subject_id":"5fe0c7aac9707da1c9f069dc","study_id":"60edd13110225f80f9f3709b","session_id":"6196baaa2156b3342518a090","condition":"full-information","relevant_dimensions":["wings","legs"],"bee_group":{"antennae":"X","wings":"1","pattern":"X","legs":"F"},"bonus":0.6600000000000008},{"rt":970,"stimulus":"bees-with-color/bee-B1SF.svg","response":1,"trial_type":"image-button-response","trial_index":31,"time_elapsed":287826,"internal_node_id":"0.0-4.0-0.12","subject_id":"5fe0c7aac9707da1c9f069dc","study_id":"60edd13110225f80f9f3709b","session_id":"6196baaa2156b3342518a090","condition":"full-information","relevant_dimensions":["wings","legs"],"bee_group":{"antennae":"X","wings":"1","pattern":"X","legs":"F"},"action":"avoid","summary":"good-avoid","bonus":0.6600000000000008},{"rt":1526,"stimulus":"\n                    <p><b>Action: <em>avoid</em></b></p>\n                    <p>This is the bee that you just saw.</p>\n                    <img src=\"bees-with-color/bee-B1SF.svg\" width=\"200\">\n                    <p><span class=\"greenText\">Good choice!</span>  This bee would have stung you.<br>Your bonus pay is unchanged, and remains at $0.54.</p>\n            ","response":0,"trial_type":"html-button-response","trial_index":32,"time_elapsed":289354,"internal_node_id":"0.0-4.0-1.12","subject_id":"5fe0c7aac9707da1c9f069dc","study_id":"60edd13110225f80f9f3709b","session_id":"6196baaa2156b3342518a090","condition":"full-information","relevant_dimensions":["wings","legs"],"bee_group":{"antennae":"X","wings":"1","pattern":"X","legs":"F"},"bonus":0.6600000000000008},{"rt":2269,"stimulus":"bees-with-color/bee-B2DF.svg","response":0,"trial_type":"image-button-response","trial_index":33,"time_elapsed":291622,"internal_node_id":"0.0-4.0-0.13","subject_id":"5fe0c7aac9707da1c9f069dc","study_id":"60edd13110225f80f9f3709b","session_id":"6196baaa2156b3342518a090","condition":"full-information","relevant_dimensions":["wings","legs"],"bee_group":{"antennae":"X","wings":"1","pattern":"X","legs":"F"},"action":"harvest","summary":"good-harvest","bonus":0.6600000000000008},{"rt":1564,"stimulus":"\n                    <p><b>Action: <em>harvest</em></b></p>\n                    <p>This is the bee that you just saw.</p>\n                    <img src=\"bees-with-color/bee-B2DF.svg\" width=\"200\">\n                    <p><span class=\"greenText\"><b>Successful harvest!</b></span><br>Your pay has increased by $0.02. Your bonus pay is now $0.56.</p>\n            ","response":0,"trial_type":"html-button-response","trial_index":34,"time_elapsed":293188,"internal_node_id":"0.0-4.0-1.13","subject_id":"5fe0c7aac9707da1c9f069dc","study_id":"60edd13110225f80f9f3709b","session_id":"6196baaa2156b3342518a090","condition":"full-information","relevant_dimensions":["wings","legs"],"bee_group":{"antennae":"X","wings":"1","pattern":"X","legs":"F"},"bonus":0.6600000000000008},{"rt":1688,"stimulus":"bees-with-color/bee-B2SF.svg","response":0,"trial_type":"image-button-response","trial_index":35,"time_elapsed":294877,"internal_node_id":"0.0-4.0-0.14","subject_id":"5fe0c7aac9707da1c9f069dc","study_id":"60edd13110225f80f9f3709b","session_id":"6196baaa2156b3342518a090","condition":"full-information","relevant_dimensions":["wings","legs"],"bee_group":{"antennae":"X","wings":"1","pattern":"X","legs":"F"},"action":"harvest","summary":"good-harvest","bonus":0.6600000000000008},{"rt":1409,"stimulus":"\n                    <p><b>Action: <em>harvest</em></b></p>\n                    <p>This is the bee that you just saw.</p>\n                    <img src=\"bees-with-color/bee-B2SF.svg\" width=\"200\">\n                    <p><span class=\"greenText\"><b>Successful harvest!</b></span><br>Your pay has increased by $0.02. Your bonus pay is now $0.58.</p>\n            ","response":0,"trial_type":"html-button-response","trial_index":36,"time_elapsed":296287,"internal_node_id":"0.0-4.0-1.14","subject_id":"5fe0c7aac9707da1c9f069dc","study_id":"60edd13110225f80f9f3709b","session_id":"6196baaa2156b3342518a090","condition":"full-information","relevant_dimensions":["wings","legs"],"bee_group":{"antennae":"X","wings":"1","pattern":"X","legs":"F"},"bonus":0.6600000000000008},{"rt":1457,"stimulus":"bees-with-color/bee-A1SF.svg","response":1,"trial_type":"image-button-response","trial_index":37,"time_elapsed":297744,"internal_node_id":"0.0-4.0-0.15","subject_id":"5fe0c7aac9707da1c9f069dc","study_id":"60edd13110225f80f9f3709b","session_id":"6196baaa2156b3342518a090","condition":"full-information","relevant_dimensions":["wings","legs"],"bee_group":{"antennae":"X","wings":"1","pattern":"X","legs":"F"},"action":"avoid","summary":"good-avoid","bonus":0.6600000000000008},{"rt":1452,"stimulus":"\n                    <p><b>Action: <em>avoid</em></b></p>\n                    <p>This is the bee that you just saw.</p>\n                    <img src=\"bees-with-color/bee-A1SF.svg\" width=\"200\">\n                    <p><span class=\"greenText\">Good choice!</span>  This bee would have stung you.<br>Your bonus pay is unchanged, and remains at $0.58.</p>\n            ","response":0,"trial_type":"html-button-response","trial_index":38,"time_elapsed":299197,"internal_node_id":"0.0-4.0-1.15","subject_id":"5fe0c7aac9707da1c9f069dc","study_id":"60edd13110225f80f9f3709b","session_id":"6196baaa2156b3342518a090","condition":"full-information","relevant_dimensions":["wings","legs"],"bee_group":{"antennae":"X","wings":"1","pattern":"X","legs":"F"},"bonus":0.6600000000000008},{"rt":1605,"stimulus":"bees-with-color/bee-B2DF.svg","response":0,"trial_type":"image-button-response","trial_index":39,"time_elapsed":300804,"internal_node_id":"0.0-4.0-0.16","subject_id":"5fe0c7aac9707da1c9f069dc","study_id":"60edd13110225f80f9f3709b","session_id":"6196baaa2156b3342518a090","condition":"full-information","relevant_dimensions":["wings","legs"],"bee_group":{"antennae":"X","wings":"1","pattern":"X","legs":"F"},"action":"harvest","summary":"good-harvest","bonus":0.6600000000000008},{"rt":1384,"stimulus":"\n                    <p><b>Action: <em>harvest</em></b></p>\n                    <p>This is the bee that you just saw.</p>\n                    <img src=\"bees-with-color/bee-B2DF.svg\" width=\"200\">\n                    <p><span class=\"greenText\"><b>Successful harvest!</b></span><br>Your pay has increased by $0.02. Your bonus pay is now $0.60.</p>\n            ","response":0,"trial_type":"html-button-response","trial_index":40,"time_elapsed":302189,"internal_node_id":"0.0-4.0-1.16","subject_id":"5fe0c7aac9707da1c9f069dc","study_id":"60edd13110225f80f9f3709b","session_id":"6196baaa2156b3342518a090","condition":"full-information","relevant_dimensions":["wings","legs"],"bee_group":{"antennae":"X","wings":"1","pattern":"X","legs":"F"},"bonus":0.6600000000000008},{"rt":1605,"stimulus":"bees-with-color/bee-B2SF.svg","response":0,"trial_type":"image-button-response","trial_index":41,"time_elapsed":303794,"internal_node_id":"0.0-4.0-0.17","subject_id":"5fe0c7aac9707da1c9f069dc","study_id":"60edd13110225f80f9f3709b","session_id":"6196baaa2156b3342518a090","condition":"full-information","relevant_dimensions":["wings","legs"],"bee_group":{"antennae":"X","wings":"1","pattern":"X","legs":"F"},"action":"harvest","summary":"good-harvest","bonus":0.6600000000000008},{"rt":1262,"stimulus":"\n                    <p><b>Action: <em>harvest</em></b></p>\n                    <p>This is the bee that you just saw.</p>\n                    <img src=\"bees-with-color/bee-B2SF.svg\" width=\"200\">\n                    <p><span class=\"greenText\"><b>Successful harvest!</b></span><br>Your pay has increased by $0.02. Your bonus pay is now $0.62.</p>\n            ","response":0,"trial_type":"html-button-response","trial_index":42,"time_elapsed":305057,"internal_node_id":"0.0-4.0-1.17","subject_id":"5fe0c7aac9707da1c9f069dc","study_id":"60edd13110225f80f9f3709b","session_id":"6196baaa2156b3342518a090","condition":"full-information","relevant_dimensions":["wings","legs"],"bee_group":{"antennae":"X","wings":"1","pattern":"X","legs":"F"},"bonus":0.6600000000000008},{"rt":3429,"stimulus":"bees-with-color/bee-A2SM.svg","response":1,"trial_type":"image-button-response","trial_index":43,"time_elapsed":308486,"internal_node_id":"0.0-4.0-0.18","subject_id":"5fe0c7aac9707da1c9f069dc","study_id":"60edd13110225f80f9f3709b","session_id":"6196baaa2156b3342518a090","condition":"full-information","relevant_dimensions":["wings","legs"],"bee_group":{"antennae":"X","wings":"1","pattern":"X","legs":"F"},"action":"avoid","summary":"bad-avoid","bonus":0.6600000000000008},{"rt":1201,"stimulus":"\n                    <p><b>Action: <em>avoid</em></b></p>\n                    <p>This is the bee that you just saw.</p>\n                    <img src=\"bees-with-color/bee-A2SM.svg\" width=\"200\">\n                    <p><span class=\"redText\">Bad choice,</span> the bee was friendly.<br>Your bonus pay is unchanged, and remains at $0.62.</p>\n            ","response":0,"trial_type":"html-button-response","trial_index":44,"time_elapsed":309687,"internal_node_id":"0.0-4.0-1.18","subject_id":"5fe0c7aac9707da1c9f069dc","study_id":"60edd13110225f80f9f3709b","session_id":"6196baaa2156b3342518a090","condition":"full-information","relevant_dimensions":["wings","legs"],"bee_group":{"antennae":"X","wings":"1","pattern":"X","legs":"F"},"bonus":0.6600000000000008},{"rt":1779,"stimulus":"bees-with-color/bee-A1DF.svg","response":1,"trial_type":"image-button-response","trial_index":45,"time_elapsed":311466,"internal_node_id":"0.0-4.0-0.19","subject_id":"5fe0c7aac9707da1c9f069dc","study_id":"60edd13110225f80f9f3709b","session_id":"6196baaa2156b3342518a090","condition":"full-information","relevant_dimensions":["wings","legs"],"bee_group":{"antennae":"X","wings":"1","pattern":"X","legs":"F"},"action":"avoid","summary":"good-avoid","bonus":0.6600000000000008},{"rt":991,"stimulus":"\n                    <p><b>Action: <em>avoid</em></b></p>\n                    <p>This is the bee that you just saw.</p>\n                    <img src=\"bees-with-color/bee-A1DF.svg\" width=\"200\">\n                    <p><span class=\"greenText\">Good choice!</span>  This bee would have stung you.<br>Your bonus pay is unchanged, and remains at $0.62.</p>\n            ","response":0,"trial_type":"html-button-response","trial_index":46,"time_elapsed":312457,"internal_node_id":"0.0-4.0-1.19","subject_id":"5fe0c7aac9707da1c9f069dc","study_id":"60edd13110225f80f9f3709b","session_id":"6196baaa2156b3342518a090","condition":"full-information","relevant_dimensions":["wings","legs"],"bee_group":{"antennae":"X","wings":"1","pattern":"X","legs":"F"},"bonus":0.6600000000000008},{"rt":3734,"stimulus":"bees-with-color/bee-B1SF.svg","response":0,"trial_type":"image-button-response","trial_index":47,"time_elapsed":316192,"internal_node_id":"0.0-4.0-0.20","subject_id":"5fe0c7aac9707da1c9f069dc","study_id":"60edd13110225f80f9f3709b","session_id":"6196baaa2156b3342518a090","condition":"full-information","relevant_dimensions":["wings","legs"],"bee_group":{"antennae":"X","wings":"1","pattern":"X","legs":"F"},"action":"harvest","summary":"bad-harvest","bonus":0.6600000000000008},{"rt":1153,"stimulus":"\n                    <p><b>Action: <em>harvest</em></b></p>\n                    <p>This is the bee that you just saw.</p>\n                    <img src=\"bees-with-color/bee-B1SF.svg\" width=\"200\">\n                    <p><span class=\"redText\">Bad choice, the bee was angry.</span><br><b>You have been stung!</b><br>Your pay has been decreased by $0.10. Your bonus pay is now $0.52.</p>\n            ","response":0,"trial_type":"html-button-response","trial_index":48,"time_elapsed":317347,"internal_node_id":"0.0-4.0-1.20","subject_id":"5fe0c7aac9707da1c9f069dc","study_id":"60edd13110225f80f9f3709b","session_id":"6196baaa2156b3342518a090","condition":"full-information","relevant_dimensions":["wings","legs"],"bee_group":{"antennae":"X","wings":"1","pattern":"X","legs":"F"},"bonus":0.6600000000000008},{"rt":2008,"stimulus":"bees-with-color/bee-A1SM.svg","response":1,"trial_type":"image-button-response","trial_index":49,"time_elapsed":319354,"internal_node_id":"0.0-4.0-0.21","subject_id":"5fe0c7aac9707da1c9f069dc","study_id":"60edd13110225f80f9f3709b","session_id":"6196baaa2156b3342518a090","condition":"full-information","relevant_dimensions":["wings","legs"],"bee_group":{"antennae":"X","wings":"1","pattern":"X","legs":"F"},"action":"avoid","summary":"bad-avoid","bonus":0.6600000000000008},{"rt":807,"stimulus":"\n                    <p><b>Action: <em>avoid</em></b></p>\n                    <p>This is the bee that you just saw.</p>\n                    <img src=\"bees-with-color/bee-A1SM.svg\" width=\"200\">\n                    <p><span class=\"redText\">Bad choice,</span> the bee was friendly.<br>Your bonus pay is unchanged, and remains at $0.52.</p>\n            ","response":0,"trial_type":"html-button-response","trial_index":50,"time_elapsed":320162,"internal_node_id":"0.0-4.0-1.21","subject_id":"5fe0c7aac9707da1c9f069dc","study_id":"60edd13110225f80f9f3709b","session_id":"6196baaa2156b3342518a090","condition":"full-information","relevant_dimensions":["wings","legs"],"bee_group":{"antennae":"X","wings":"1","pattern":"X","legs":"F"},"bonus":0.6600000000000008},{"rt":6751,"stimulus":"bees-with-color/bee-B1SM.svg","response":1,"trial_type":"image-button-response","trial_index":51,"time_elapsed":326915,"internal_node_id":"0.0-4.0-0.22","subject_id":"5fe0c7aac9707da1c9f069dc","study_id":"60edd13110225f80f9f3709b","session_id":"6196baaa2156b3342518a090","condition":"full-information","relevant_dimensions":["wings","legs"],"bee_group":{"antennae":"X","wings":"1","pattern":"X","legs":"F"},"action":"avoid","summary":"bad-avoid","bonus":0.6600000000000008},{"rt":974,"stimulus":"\n                    <p><b>Action: <em>avoid</em></b></p>\n                    <p>This is the bee that you just saw.</p>\n                    <img src=\"bees-with-color/bee-B1SM.svg\" width=\"200\">\n                    <p><span class=\"redText\">Bad choice,</span> the bee was friendly.<br>Your bonus pay is unchanged, and remains at $0.52.</p>\n            ","response":0,"trial_type":"html-button-response","trial_index":52,"time_elapsed":327889,"internal_node_id":"0.0-4.0-1.22","subject_id":"5fe0c7aac9707da1c9f069dc","study_id":"60edd13110225f80f9f3709b","session_id":"6196baaa2156b3342518a090","condition":"full-information","relevant_dimensions":["wings","legs"],"bee_group":{"antennae":"X","wings":"1","pattern":"X","legs":"F"},"bonus":0.6600000000000008},{"rt":2104,"stimulus":"bees-with-color/bee-A2DF.svg","response":0,"trial_type":"image-button-response","trial_index":53,"time_elapsed":329994,"internal_node_id":"0.0-4.0-0.23","subject_id":"5fe0c7aac9707da1c9f069dc","study_id":"60edd13110225f80f9f3709b","session_id":"6196baaa2156b3342518a090","condition":"full-information","relevant_dimensions":["wings","legs"],"bee_group":{"antennae":"X","wings":"1","pattern":"X","legs":"F"},"action":"harvest","summary":"good-harvest","bonus":0.6600000000000008},{"rt":988,"stimulus":"\n                    <p><b>Action: <em>harvest</em></b></p>\n                    <p>This is the bee that you just saw.</p>\n                    <img src=\"bees-with-color/bee-A2DF.svg\" width=\"200\">\n                    <p><span class=\"greenText\"><b>Successful harvest!</b></span><br>Your pay has increased by $0.02. Your bonus pay is now $0.54.</p>\n            ","response":0,"trial_type":"html-button-response","trial_index":54,"time_elapsed":330983,"internal_node_id":"0.0-4.0-1.23","subject_id":"5fe0c7aac9707da1c9f069dc","study_id":"60edd13110225f80f9f3709b","session_id":"6196baaa2156b3342518a090","condition":"full-information","relevant_dimensions":["wings","legs"],"bee_group":{"antennae":"X","wings":"1","pattern":"X","legs":"F"},"bonus":0.6600000000000008},{"rt":1661,"stimulus":"bees-with-color/bee-A1DM.svg","response":1,"trial_type":"image-button-response","trial_index":55,"time_elapsed":332644,"internal_node_id":"0.0-4.0-0.24","subject_id":"5fe0c7aac9707da1c9f069dc","study_id":"60edd13110225f80f9f3709b","session_id":"6196baaa2156b3342518a090","condition":"full-information","relevant_dimensions":["wings","legs"],"bee_group":{"antennae":"X","wings":"1","pattern":"X","legs":"F"},"action":"avoid","summary":"bad-avoid","bonus":0.6600000000000008},{"rt":805,"stimulus":"\n                    <p><b>Action: <em>avoid</em></b></p>\n                    <p>This is the bee that you just saw.</p>\n                    <img src=\"bees-with-color/bee-A1DM.svg\" width=\"200\">\n                    <p><span class=\"redText\">Bad choice,</span> the bee was friendly.<br>Your bonus pay is unchanged, and remains at $0.54.</p>\n            ","response":0,"trial_type":"html-button-response","trial_index":56,"time_elapsed":333451,"internal_node_id":"0.0-4.0-1.24","subject_id":"5fe0c7aac9707da1c9f069dc","study_id":"60edd13110225f80f9f3709b","session_id":"6196baaa2156b3342518a090","condition":"full-information","relevant_dimensions":["wings","legs"],"bee_group":{"antennae":"X","wings":"1","pattern":"X","legs":"F"},"bonus":0.6600000000000008},{"rt":1030,"stimulus":"bees-with-color/bee-B2DM.svg","response":0,"trial_type":"image-button-response","trial_index":57,"time_elapsed":334482,"internal_node_id":"0.0-4.0-0.25","subject_id":"5fe0c7aac9707da1c9f069dc","study_id":"60edd13110225f80f9f3709b","session_id":"6196baaa2156b3342518a090","condition":"full-information","relevant_dimensions":["wings","legs"],"bee_group":{"antennae":"X","wings":"1","pattern":"X","legs":"F"},"action":"harvest","summary":"good-harvest","bonus":0.6600000000000008},{"rt":1143,"stimulus":"\n                    <p><b>Action: <em>harvest</em></b></p>\n                    <p>This is the bee that you just saw.</p>\n                    <img src=\"bees-with-color/bee-B2DM.svg\" width=\"200\">\n                    <p><span class=\"greenText\"><b>Successful harvest!</b></span><br>Your pay has increased by $0.02. Your bonus pay is now $0.56.</p>\n            ","response":0,"trial_type":"html-button-response","trial_index":58,"time_elapsed":335626,"internal_node_id":"0.0-4.0-1.25","subject_id":"5fe0c7aac9707da1c9f069dc","study_id":"60edd13110225f80f9f3709b","session_id":"6196baaa2156b3342518a090","condition":"full-information","relevant_dimensions":["wings","legs"],"bee_group":{"antennae":"X","wings":"1","pattern":"X","legs":"F"},"bonus":0.6600000000000008},{"rt":1399,"stimulus":"bees-with-color/bee-B1DM.svg","response":0,"trial_type":"image-button-response","trial_index":59,"time_elapsed":337028,"internal_node_id":"0.0-4.0-0.26","subject_id":"5fe0c7aac9707da1c9f069dc","study_id":"60edd13110225f80f9f3709b","session_id":"6196baaa2156b3342518a090","condition":"full-information","relevant_dimensions":["wings","legs"],"bee_group":{"antennae":"X","wings":"1","pattern":"X","legs":"F"},"action":"harvest","summary":"good-harvest","bonus":0.6600000000000008},{"rt":1247,"stimulus":"\n                    <p><b>Action: <em>harvest</em></b></p>\n                    <p>This is the bee that you just saw.</p>\n                    <img src=\"bees-with-color/bee-B1DM.svg\" width=\"200\">\n                    <p><span class=\"greenText\"><b>Successful harvest!</b></span><br>Your pay has increased by $0.02. Your bonus pay is now $0.58.</p>\n            ","response":0,"trial_type":"html-button-response","trial_index":60,"time_elapsed":338275,"internal_node_id":"0.0-4.0-1.26","subject_id":"5fe0c7aac9707da1c9f069dc","study_id":"60edd13110225f80f9f3709b","session_id":"6196baaa2156b3342518a090","condition":"full-information","relevant_dimensions":["wings","legs"],"bee_group":{"antennae":"X","wings":"1","pattern":"X","legs":"F"},"bonus":0.6600000000000008},{"rt":1082,"stimulus":"bees-with-color/bee-B1DF.svg","response":1,"trial_type":"image-button-response","trial_index":61,"time_elapsed":339357,"internal_node_id":"0.0-4.0-0.27","subject_id":"5fe0c7aac9707da1c9f069dc","study_id":"60edd13110225f80f9f3709b","session_id":"6196baaa2156b3342518a090","condition":"full-information","relevant_dimensions":["wings","legs"],"bee_group":{"antennae":"X","wings":"1","pattern":"X","legs":"F"},"action":"avoid","summary":"good-avoid","bonus":0.6600000000000008},{"rt":798,"stimulus":"\n                    <p><b>Action: <em>avoid</em></b></p>\n                    <p>This is the bee that you just saw.</p>\n                    <img src=\"bees-with-color/bee-B1DF.svg\" width=\"200\">\n                    <p><span class=\"greenText\">Good choice!</span>  This bee would have stung you.<br>Your bonus pay is unchanged, and remains at $0.58.</p>\n            ","response":0,"trial_type":"html-button-response","trial_index":62,"time_elapsed":340156,"internal_node_id":"0.0-4.0-1.27","subject_id":"5fe0c7aac9707da1c9f069dc","study_id":"60edd13110225f80f9f3709b","session_id":"6196baaa2156b3342518a090","condition":"full-information","relevant_dimensions":["wings","legs"],"bee_group":{"antennae":"X","wings":"1","pattern":"X","legs":"F"},"bonus":0.6600000000000008},{"rt":1022,"stimulus":"bees-with-color/bee-B2SM.svg","response":0,"trial_type":"image-button-response","trial_index":63,"time_elapsed":341179,"internal_node_id":"0.0-4.0-0.28","subject_id":"5fe0c7aac9707da1c9f069dc","study_id":"60edd13110225f80f9f3709b","session_id":"6196baaa2156b3342518a090","condition":"full-information","relevant_dimensions":["wings","legs"],"bee_group":{"antennae":"X","wings":"1","pattern":"X","legs":"F"},"action":"harvest","summary":"good-harvest","bonus":0.6600000000000008},{"rt":1032,"stimulus":"\n                    <p><b>Action: <em>harvest</em></b></p>\n                    <p>This is the bee that you just saw.</p>\n                    <img src=\"bees-with-color/bee-B2SM.svg\" width=\"200\">\n                    <p><span class=\"greenText\"><b>Successful harvest!</b></span><br>Your pay has increased by $0.02. Your bonus pay is now $0.60.</p>\n            ","response":0,"trial_type":"html-button-response","trial_index":64,"time_elapsed":342211,"internal_node_id":"0.0-4.0-1.28","subject_id":"5fe0c7aac9707da1c9f069dc","study_id":"60edd13110225f80f9f3709b","session_id":"6196baaa2156b3342518a090","condition":"full-information","relevant_dimensions":["wings","legs"],"bee_group":{"antennae":"X","wings":"1","pattern":"X","legs":"F"},"bonus":0.6600000000000008},{"rt":980,"stimulus":"bees-with-color/bee-A2DM.svg","response":0,"trial_type":"image-button-response","trial_index":65,"time_elapsed":343193,"internal_node_id":"0.0-4.0-0.29","subject_id":"5fe0c7aac9707da1c9f069dc","study_id":"60edd13110225f80f9f3709b","session_id":"6196baaa2156b3342518a090","condition":"full-information","relevant_dimensions":["wings","legs"],"bee_group":{"antennae":"X","wings":"1","pattern":"X","legs":"F"},"action":"harvest","summary":"good-harvest","bonus":0.6600000000000008},{"rt":979,"stimulus":"\n                    <p><b>Action: <em>harvest</em></b></p>\n                    <p>This is the bee that you just saw.</p>\n                    <img src=\"bees-with-color/bee-A2DM.svg\" width=\"200\">\n                    <p><span class=\"greenText\"><b>Successful harvest!</b></span><br>Your pay has increased by $0.02. Your bonus pay is now $0.62.</p>\n            ","response":0,"trial_type":"html-button-response","trial_index":66,"time_elapsed":344173,"internal_node_id":"0.0-4.0-1.29","subject_id":"5fe0c7aac9707da1c9f069dc","study_id":"60edd13110225f80f9f3709b","session_id":"6196baaa2156b3342518a090","condition":"full-information","relevant_dimensions":["wings","legs"],"bee_group":{"antennae":"X","wings":"1","pattern":"X","legs":"F"},"bonus":0.6600000000000008},{"rt":1058,"stimulus":"bees-with-color/bee-A1SF.svg","response":1,"trial_type":"image-button-response","trial_index":67,"time_elapsed":345232,"internal_node_id":"0.0-4.0-0.30","subject_id":"5fe0c7aac9707da1c9f069dc","study_id":"60edd13110225f80f9f3709b","session_id":"6196baaa2156b3342518a090","condition":"full-information","relevant_dimensions":["wings","legs"],"bee_group":{"antennae":"X","wings":"1","pattern":"X","legs":"F"},"action":"avoid","summary":"good-avoid","bonus":0.6600000000000008},{"rt":744,"stimulus":"\n                    <p><b>Action: <em>avoid</em></b></p>\n                    <p>This is the bee that you just saw.</p>\n                    <img src=\"bees-with-color/bee-A1SF.svg\" width=\"200\">\n                    <p><span class=\"greenText\">Good choice!</span>  This bee would have stung you.<br>Your bonus pay is unchanged, and remains at $0.62.</p>\n            ","response":0,"trial_type":"html-button-response","trial_index":68,"time_elapsed":345979,"internal_node_id":"0.0-4.0-1.30","subject_id":"5fe0c7aac9707da1c9f069dc","study_id":"60edd13110225f80f9f3709b","session_id":"6196baaa2156b3342518a090","condition":"full-information","relevant_dimensions":["wings","legs"],"bee_group":{"antennae":"X","wings":"1","pattern":"X","legs":"F"},"bonus":0.6600000000000008},{"rt":799,"stimulus":"bees-with-color/bee-A2SF.svg","response":0,"trial_type":"image-button-response","trial_index":69,"time_elapsed":346779,"internal_node_id":"0.0-4.0-0.31","subject_id":"5fe0c7aac9707da1c9f069dc","study_id":"60edd13110225f80f9f3709b","session_id":"6196baaa2156b3342518a090","condition":"full-information","relevant_dimensions":["wings","legs"],"bee_group":{"antennae":"X","wings":"1","pattern":"X","legs":"F"},"action":"harvest","summary":"good-harvest","bonus":0.6600000000000008},{"rt":1387,"stimulus":"\n                    <p><b>Action: <em>harvest</em></b></p>\n                    <p>This is the bee that you just saw.</p>\n                    <img src=\"bees-with-color/bee-A2SF.svg\" width=\"200\">\n                    <p><span class=\"greenText\"><b>Successful harvest!</b></span><br>Your pay has increased by $0.02. Your bonus pay is now $0.64.</p>\n            ","response":0,"trial_type":"html-button-response","trial_index":70,"time_elapsed":348165,"internal_node_id":"0.0-4.0-1.31","subject_id":"5fe0c7aac9707da1c9f069dc","study_id":"60edd13110225f80f9f3709b","session_id":"6196baaa2156b3342518a090","condition":"full-information","relevant_dimensions":["wings","legs"],"bee_group":{"antennae":"X","wings":"1","pattern":"X","legs":"F"},"bonus":0.6600000000000008},{"rt":1132,"stimulus":"bees-with-color/bee-A1DF.svg","response":1,"trial_type":"image-button-response","trial_index":71,"time_elapsed":349298,"internal_node_id":"0.0-4.0-0.32","subject_id":"5fe0c7aac9707da1c9f069dc","study_id":"60edd13110225f80f9f3709b","session_id":"6196baaa2156b3342518a090","condition":"full-information","relevant_dimensions":["wings","legs"],"bee_group":{"antennae":"X","wings":"1","pattern":"X","legs":"F"},"action":"avoid","summary":"good-avoid","bonus":0.6600000000000008},{"rt":805,"stimulus":"\n                    <p><b>Action: <em>avoid</em></b></p>\n                    <p>This is the bee that you just saw.</p>\n                    <img src=\"bees-with-color/bee-A1DF.svg\" width=\"200\">\n                    <p><span class=\"greenText\">Good choice!</span>  This bee would have stung you.<br>Your bonus pay is unchanged, and remains at $0.64.</p>\n            ","response":0,"trial_type":"html-button-response","trial_index":72,"time_elapsed":350103,"internal_node_id":"0.0-4.0-1.32","subject_id":"5fe0c7aac9707da1c9f069dc","study_id":"60edd13110225f80f9f3709b","session_id":"6196baaa2156b3342518a090","condition":"full-information","relevant_dimensions":["wings","legs"],"bee_group":{"antennae":"X","wings":"1","pattern":"X","legs":"F"},"bonus":0.6600000000000008},{"rt":697,"stimulus":"bees-with-color/bee-A2SF.svg","response":0,"trial_type":"image-button-response","trial_index":73,"time_elapsed":350802,"internal_node_id":"0.0-4.0-0.33","subject_id":"5fe0c7aac9707da1c9f069dc","study_id":"60edd13110225f80f9f3709b","session_id":"6196baaa2156b3342518a090","condition":"full-information","relevant_dimensions":["wings","legs"],"bee_group":{"antennae":"X","wings":"1","pattern":"X","legs":"F"},"action":"harvest","summary":"good-harvest","bonus":0.6600000000000008},{"rt":698,"stimulus":"\n                    <p><b>Action: <em>harvest</em></b></p>\n                    <p>This is the bee that you just saw.</p>\n                    <img src=\"bees-with-color/bee-A2SF.svg\" width=\"200\">\n                    <p><span class=\"greenText\"><b>Successful harvest!</b></span><br>Your pay has increased by $0.02. Your bonus pay is now $0.66.</p>\n            ","response":0,"trial_type":"html-button-response","trial_index":74,"time_elapsed":351499,"internal_node_id":"0.0-4.0-1.33","subject_id":"5fe0c7aac9707da1c9f069dc","study_id":"60edd13110225f80f9f3709b","session_id":"6196baaa2156b3342518a090","condition":"full-information","relevant_dimensions":["wings","legs"],"bee_group":{"antennae":"X","wings":"1","pattern":"X","legs":"F"},"bonus":0.6600000000000008},{"rt":1693,"stimulus":"bees-with-color/bee-B2SF.svg","response":0,"trial_type":"image-button-response","trial_index":75,"time_elapsed":353193,"internal_node_id":"0.0-4.0-0.34","subject_id":"5fe0c7aac9707da1c9f069dc","study_id":"60edd13110225f80f9f3709b","session_id":"6196baaa2156b3342518a090","condition":"full-information","relevant_dimensions":["wings","legs"],"bee_group":{"antennae":"X","wings":"1","pattern":"X","legs":"F"},"action":"harvest","summary":"good-harvest","bonus":0.6600000000000008},{"rt":701,"stimulus":"\n                    <p><b>Action: <em>harvest</em></b></p>\n                    <p>This is the bee that you just saw.</p>\n                    <img src=\"bees-with-color/bee-B2SF.svg\" width=\"200\">\n                    <p><span class=\"greenText\"><b>Successful harvest!</b></span><br>Your pay has increased by $0.02. Your bonus pay is now $0.68.</p>\n            ","response":0,"trial_type":"html-button-response","trial_index":76,"time_elapsed":353894,"internal_node_id":"0.0-4.0-1.34","subject_id":"5fe0c7aac9707da1c9f069dc","study_id":"60edd13110225f80f9f3709b","session_id":"6196baaa2156b3342518a090","condition":"full-information","relevant_dimensions":["wings","legs"],"bee_group":{"antennae":"X","wings":"1","pattern":"X","legs":"F"},"bonus":0.6600000000000008},{"rt":960,"stimulus":"bees-with-color/bee-B2SM.svg","response":0,"trial_type":"image-button-response","trial_index":77,"time_elapsed":354856,"internal_node_id":"0.0-4.0-0.35","subject_id":"5fe0c7aac9707da1c9f069dc","study_id":"60edd13110225f80f9f3709b","session_id":"6196baaa2156b3342518a090","condition":"full-information","relevant_dimensions":["wings","legs"],"bee_group":{"antennae":"X","wings":"1","pattern":"X","legs":"F"},"action":"harvest","summary":"good-harvest","bonus":0.6600000000000008},{"rt":865,"stimulus":"\n                    <p><b>Action: <em>harvest</em></b></p>\n                    <p>This is the bee that you just saw.</p>\n                    <img src=\"bees-with-color/bee-B2SM.svg\" width=\"200\">\n                    <p><span class=\"greenText\"><b>Successful harvest!</b></span><br>Your pay has increased by $0.02. Your bonus pay is now $0.70.</p>\n            ","response":0,"trial_type":"html-button-response","trial_index":78,"time_elapsed":355720,"internal_node_id":"0.0-4.0-1.35","subject_id":"5fe0c7aac9707da1c9f069dc","study_id":"60edd13110225f80f9f3709b","session_id":"6196baaa2156b3342518a090","condition":"full-information","relevant_dimensions":["wings","legs"],"bee_group":{"antennae":"X","wings":"1","pattern":"X","legs":"F"},"bonus":0.6600000000000008},{"rt":723,"stimulus":"bees-with-color/bee-A1DM.svg","response":1,"trial_type":"image-button-response","trial_index":79,"time_elapsed":356445,"internal_node_id":"0.0-4.0-0.36","subject_id":"5fe0c7aac9707da1c9f069dc","study_id":"60edd13110225f80f9f3709b","session_id":"6196baaa2156b3342518a090","condition":"full-information","relevant_dimensions":["wings","legs"],"bee_group":{"antennae":"X","wings":"1","pattern":"X","legs":"F"},"action":"avoid","summary":"bad-avoid","bonus":0.6600000000000008},{"rt":657,"stimulus":"\n                    <p><b>Action: <em>avoid</em></b></p>\n                    <p>This is the bee that you just saw.</p>\n                    <img src=\"bees-with-color/bee-A1DM.svg\" width=\"200\">\n                    <p><span class=\"redText\">Bad choice,</span> the bee was friendly.<br>Your bonus pay is unchanged, and remains at $0.70.</p>\n            ","response":0,"trial_type":"html-button-response","trial_index":80,"time_elapsed":357102,"internal_node_id":"0.0-4.0-1.36","subject_id":"5fe0c7aac9707da1c9f069dc","study_id":"60edd13110225f80f9f3709b","session_id":"6196baaa2156b3342518a090","condition":"full-information","relevant_dimensions":["wings","legs"],"bee_group":{"antennae":"X","wings":"1","pattern":"X","legs":"F"},"bonus":0.6600000000000008},{"rt":711,"stimulus":"bees-with-color/bee-B1SF.svg","response":1,"trial_type":"image-button-response","trial_index":81,"time_elapsed":357813,"internal_node_id":"0.0-4.0-0.37","subject_id":"5fe0c7aac9707da1c9f069dc","study_id":"60edd13110225f80f9f3709b","session_id":"6196baaa2156b3342518a090","condition":"full-information","relevant_dimensions":["wings","legs"],"bee_group":{"antennae":"X","wings":"1","pattern":"X","legs":"F"},"action":"avoid","summary":"good-avoid","bonus":0.6600000000000008},{"rt":813,"stimulus":"\n                    <p><b>Action: <em>avoid</em></b></p>\n                    <p>This is the bee that you just saw.</p>\n                    <img src=\"bees-with-color/bee-B1SF.svg\" width=\"200\">\n                    <p><span class=\"greenText\">Good choice!</span>  This bee would have stung you.<br>Your bonus pay is unchanged, and remains at $0.70.</p>\n            ","response":0,"trial_type":"html-button-response","trial_index":82,"time_elapsed":358628,"internal_node_id":"0.0-4.0-1.37","subject_id":"5fe0c7aac9707da1c9f069dc","study_id":"60edd13110225f80f9f3709b","session_id":"6196baaa2156b3342518a090","condition":"full-information","relevant_dimensions":["wings","legs"],"bee_group":{"antennae":"X","wings":"1","pattern":"X","legs":"F"},"bonus":0.6600000000000008},{"rt":904,"stimulus":"bees-with-color/bee-B2DM.svg","response":0,"trial_type":"image-button-response","trial_index":83,"time_elapsed":359532,"internal_node_id":"0.0-4.0-0.38","subject_id":"5fe0c7aac9707da1c9f069dc","study_id":"60edd13110225f80f9f3709b","session_id":"6196baaa2156b3342518a090","condition":"full-information","relevant_dimensions":["wings","legs"],"bee_group":{"antennae":"X","wings":"1","pattern":"X","legs":"F"},"action":"harvest","summary":"good-harvest","bonus":0.6600000000000008},{"rt":787,"stimulus":"\n                    <p><b>Action: <em>harvest</em></b></p>\n                    <p>This is the bee that you just saw.</p>\n                    <img src=\"bees-with-color/bee-B2DM.svg\" width=\"200\">\n                    <p><span class=\"greenText\"><b>Successful harvest!</b></span><br>Your pay has increased by $0.02. Your bonus pay is now $0.72.</p>\n            ","response":0,"trial_type":"html-button-response","trial_index":84,"time_elapsed":360321,"internal_node_id":"0.0-4.0-1.38","subject_id":"5fe0c7aac9707da1c9f069dc","study_id":"60edd13110225f80f9f3709b","session_id":"6196baaa2156b3342518a090","condition":"full-information","relevant_dimensions":["wings","legs"],"bee_group":{"antennae":"X","wings":"1","pattern":"X","legs":"F"},"bonus":0.6600000000000008},{"rt":874,"stimulus":"bees-with-color/bee-B2DF.svg","response":0,"trial_type":"image-button-response","trial_index":85,"time_elapsed":361196,"internal_node_id":"0.0-4.0-0.39","subject_id":"5fe0c7aac9707da1c9f069dc","study_id":"60edd13110225f80f9f3709b","session_id":"6196baaa2156b3342518a090","condition":"full-information","relevant_dimensions":["wings","legs"],"bee_group":{"antennae":"X","wings":"1","pattern":"X","legs":"F"},"action":"harvest","summary":"good-harvest","bonus":0.6600000000000008},{"rt":794,"stimulus":"\n                    <p><b>Action: <em>harvest</em></b></p>\n                    <p>This is the bee that you just saw.</p>\n                    <img src=\"bees-with-color/bee-B2DF.svg\" width=\"200\">\n                    <p><span class=\"greenText\"><b>Successful harvest!</b></span><br>Your pay has increased by $0.02. Your bonus pay is now $0.74.</p>\n            ","response":0,"trial_type":"html-button-response","trial_index":86,"time_elapsed":361991,"internal_node_id":"0.0-4.0-1.39","subject_id":"5fe0c7aac9707da1c9f069dc","study_id":"60edd13110225f80f9f3709b","session_id":"6196baaa2156b3342518a090","condition":"full-information","relevant_dimensions":["wings","legs"],"bee_group":{"antennae":"X","wings":"1","pattern":"X","legs":"F"},"bonus":0.6600000000000008},{"rt":1119,"stimulus":"bees-with-color/bee-B1DF.svg","response":1,"trial_type":"image-button-response","trial_index":87,"time_elapsed":363111,"internal_node_id":"0.0-4.0-0.40","subject_id":"5fe0c7aac9707da1c9f069dc","study_id":"60edd13110225f80f9f3709b","session_id":"6196baaa2156b3342518a090","condition":"full-information","relevant_dimensions":["wings","legs"],"bee_group":{"antennae":"X","wings":"1","pattern":"X","legs":"F"},"action":"avoid","summary":"good-avoid","bonus":0.6600000000000008},{"rt":747,"stimulus":"\n                    <p><b>Action: <em>avoid</em></b></p>\n                    <p>This is the bee that you just saw.</p>\n                    <img src=\"bees-with-color/bee-B1DF.svg\" width=\"200\">\n                    <p><span class=\"greenText\">Good choice!</span>  This bee would have stung you.<br>Your bonus pay is unchanged, and remains at $0.74.</p>\n            ","response":0,"trial_type":"html-button-response","trial_index":88,"time_elapsed":363859,"internal_node_id":"0.0-4.0-1.40","subject_id":"5fe0c7aac9707da1c9f069dc","study_id":"60edd13110225f80f9f3709b","session_id":"6196baaa2156b3342518a090","condition":"full-information","relevant_dimensions":["wings","legs"],"bee_group":{"antennae":"X","wings":"1","pattern":"X","legs":"F"},"bonus":0.6600000000000008},{"rt":1235,"stimulus":"bees-with-color/bee-A2DF.svg","response":0,"trial_type":"image-button-response","trial_index":89,"time_elapsed":365093,"internal_node_id":"0.0-4.0-0.41","subject_id":"5fe0c7aac9707da1c9f069dc","study_id":"60edd13110225f80f9f3709b","session_id":"6196baaa2156b3342518a090","condition":"full-information","relevant_dimensions":["wings","legs"],"bee_group":{"antennae":"X","wings":"1","pattern":"X","legs":"F"},"action":"harvest","summary":"good-harvest","bonus":0.6600000000000008},{"rt":705,"stimulus":"\n                    <p><b>Action: <em>harvest</em></b></p>\n                    <p>This is the bee that you just saw.</p>\n                    <img src=\"bees-with-color/bee-A2DF.svg\" width=\"200\">\n                    <p><span class=\"greenText\"><b>Successful harvest!</b></span><br>Your pay has increased by $0.02. Your bonus pay is now $0.76.</p>\n            ","response":0,"trial_type":"html-button-response","trial_index":90,"time_elapsed":365798,"internal_node_id":"0.0-4.0-1.41","subject_id":"5fe0c7aac9707da1c9f069dc","study_id":"60edd13110225f80f9f3709b","session_id":"6196baaa2156b3342518a090","condition":"full-information","relevant_dimensions":["wings","legs"],"bee_group":{"antennae":"X","wings":"1","pattern":"X","legs":"F"},"bonus":0.6600000000000008},{"rt":1708,"stimulus":"bees-with-color/bee-A1SM.svg","response":1,"trial_type":"image-button-response","trial_index":91,"time_elapsed":367508,"internal_node_id":"0.0-4.0-0.42","subject_id":"5fe0c7aac9707da1c9f069dc","study_id":"60edd13110225f80f9f3709b","session_id":"6196baaa2156b3342518a090","condition":"full-information","relevant_dimensions":["wings","legs"],"bee_group":{"antennae":"X","wings":"1","pattern":"X","legs":"F"},"action":"avoid","summary":"bad-avoid","bonus":0.6600000000000008},{"rt":647,"stimulus":"\n                    <p><b>Action: <em>avoid</em></b></p>\n                    <p>This is the bee that you just saw.</p>\n                    <img src=\"bees-with-color/bee-A1SM.svg\" width=\"200\">\n                    <p><span class=\"redText\">Bad choice,</span> the bee was friendly.<br>Your bonus pay is unchanged, and remains at $0.76.</p>\n            ","response":0,"trial_type":"html-button-response","trial_index":92,"time_elapsed":368155,"internal_node_id":"0.0-4.0-1.42","subject_id":"5fe0c7aac9707da1c9f069dc","study_id":"60edd13110225f80f9f3709b","session_id":"6196baaa2156b3342518a090","condition":"full-information","relevant_dimensions":["wings","legs"],"bee_group":{"antennae":"X","wings":"1","pattern":"X","legs":"F"},"bonus":0.6600000000000008},{"rt":1100,"stimulus":"bees-with-color/bee-A1SF.svg","response":1,"trial_type":"image-button-response","trial_index":93,"time_elapsed":369256,"internal_node_id":"0.0-4.0-0.43","subject_id":"5fe0c7aac9707da1c9f069dc","study_id":"60edd13110225f80f9f3709b","session_id":"6196baaa2156b3342518a090","condition":"full-information","relevant_dimensions":["wings","legs"],"bee_group":{"antennae":"X","wings":"1","pattern":"X","legs":"F"},"action":"avoid","summary":"good-avoid","bonus":0.6600000000000008},{"rt":932,"stimulus":"\n                    <p><b>Action: <em>avoid</em></b></p>\n                    <p>This is the bee that you just saw.</p>\n                    <img src=\"bees-with-color/bee-A1SF.svg\" width=\"200\">\n                    <p><span class=\"greenText\">Good choice!</span>  This bee would have stung you.<br>Your bonus pay is unchanged, and remains at $0.76.</p>\n            ","response":0,"trial_type":"html-button-response","trial_index":94,"time_elapsed":370189,"internal_node_id":"0.0-4.0-1.43","subject_id":"5fe0c7aac9707da1c9f069dc","study_id":"60edd13110225f80f9f3709b","session_id":"6196baaa2156b3342518a090","condition":"full-information","relevant_dimensions":["wings","legs"],"bee_group":{"antennae":"X","wings":"1","pattern":"X","legs":"F"},"bonus":0.6600000000000008},{"rt":1595,"stimulus":"bees-with-color/bee-B1SM.svg","response":1,"trial_type":"image-button-response","trial_index":95,"time_elapsed":371785,"internal_node_id":"0.0-4.0-0.44","subject_id":"5fe0c7aac9707da1c9f069dc","study_id":"60edd13110225f80f9f3709b","session_id":"6196baaa2156b3342518a090","condition":"full-information","relevant_dimensions":["wings","legs"],"bee_group":{"antennae":"X","wings":"1","pattern":"X","legs":"F"},"action":"avoid","summary":"bad-avoid","bonus":0.6600000000000008},{"rt":601,"stimulus":"\n                    <p><b>Action: <em>avoid</em></b></p>\n                    <p>This is the bee that you just saw.</p>\n                    <img src=\"bees-with-color/bee-B1SM.svg\" width=\"200\">\n                    <p><span class=\"redText\">Bad choice,</span> the bee was friendly.<br>Your bonus pay is unchanged, and remains at $0.76.</p>\n            ","response":0,"trial_type":"html-button-response","trial_index":96,"time_elapsed":372386,"internal_node_id":"0.0-4.0-1.44","subject_id":"5fe0c7aac9707da1c9f069dc","study_id":"60edd13110225f80f9f3709b","session_id":"6196baaa2156b3342518a090","condition":"full-information","relevant_dimensions":["wings","legs"],"bee_group":{"antennae":"X","wings":"1","pattern":"X","legs":"F"},"bonus":0.6600000000000008},{"rt":962,"stimulus":"bees-with-color/bee-A2DM.svg","response":0,"trial_type":"image-button-response","trial_index":97,"time_elapsed":373350,"internal_node_id":"0.0-4.0-0.45","subject_id":"5fe0c7aac9707da1c9f069dc","study_id":"60edd13110225f80f9f3709b","session_id":"6196baaa2156b3342518a090","condition":"full-information","relevant_dimensions":["wings","legs"],"bee_group":{"antennae":"X","wings":"1","pattern":"X","legs":"F"},"action":"harvest","summary":"good-harvest","bonus":0.6600000000000008},{"rt":730,"stimulus":"\n                    <p><b>Action: <em>harvest</em></b></p>\n                    <p>This is the bee that you just saw.</p>\n                    <img src=\"bees-with-color/bee-A2DM.svg\" width=\"200\">\n                    <p><span class=\"greenText\"><b>Successful harvest!</b></span><br>Your pay has increased by $0.02. Your bonus pay is now $0.78.</p>\n            ","response":0,"trial_type":"html-button-response","trial_index":98,"time_elapsed":374079,"internal_node_id":"0.0-4.0-1.45","subject_id":"5fe0c7aac9707da1c9f069dc","study_id":"60edd13110225f80f9f3709b","session_id":"6196baaa2156b3342518a090","condition":"full-information","relevant_dimensions":["wings","legs"],"bee_group":{"antennae":"X","wings":"1","pattern":"X","legs":"F"},"bonus":0.6600000000000008},{"rt":638,"stimulus":"bees-with-color/bee-A2SM.svg","response":0,"trial_type":"image-button-response","trial_index":99,"time_elapsed":374719,"internal_node_id":"0.0-4.0-0.46","subject_id":"5fe0c7aac9707da1c9f069dc","study_id":"60edd13110225f80f9f3709b","session_id":"6196baaa2156b3342518a090","condition":"full-information","relevant_dimensions":["wings","legs"],"bee_group":{"antennae":"X","wings":"1","pattern":"X","legs":"F"},"action":"harvest","summary":"good-harvest","bonus":0.6600000000000008},{"rt":642,"stimulus":"\n                    <p><b>Action: <em>harvest</em></b></p>\n                    <p>This is the bee that you just saw.</p>\n                    <img src=\"bees-with-color/bee-A2SM.svg\" width=\"200\">\n                    <p><span class=\"greenText\"><b>Successful harvest!</b></span><br>Your pay has increased by $0.02. Your bonus pay is now $0.80.</p>\n            ","response":0,"trial_type":"html-button-response","trial_index":100,"time_elapsed":375362,"internal_node_id":"0.0-4.0-1.46","subject_id":"5fe0c7aac9707da1c9f069dc","study_id":"60edd13110225f80f9f3709b","session_id":"6196baaa2156b3342518a090","condition":"full-information","relevant_dimensions":["wings","legs"],"bee_group":{"antennae":"X","wings":"1","pattern":"X","legs":"F"},"bonus":0.6600000000000008},{"rt":1391,"stimulus":"bees-with-color/bee-B1DM.svg","response":1,"trial_type":"image-button-response","trial_index":101,"time_elapsed":376754,"internal_node_id":"0.0-4.0-0.47","subject_id":"5fe0c7aac9707da1c9f069dc","study_id":"60edd13110225f80f9f3709b","session_id":"6196baaa2156b3342518a090","condition":"full-information","relevant_dimensions":["wings","legs"],"bee_group":{"antennae":"X","wings":"1","pattern":"X","legs":"F"},"action":"avoid","summary":"bad-avoid","bonus":0.6600000000000008},{"rt":679,"stimulus":"\n                    <p><b>Action: <em>avoid</em></b></p>\n                    <p>This is the bee that you just saw.</p>\n                    <img src=\"bees-with-color/bee-B1DM.svg\" width=\"200\">\n                    <p><span class=\"redText\">Bad choice,</span> the bee was friendly.<br>Your bonus pay is unchanged, and remains at $0.80.</p>\n            ","response":0,"trial_type":"html-button-response","trial_index":102,"time_elapsed":377433,"internal_node_id":"0.0-4.0-1.47","subject_id":"5fe0c7aac9707da1c9f069dc","study_id":"60edd13110225f80f9f3709b","session_id":"6196baaa2156b3342518a090","condition":"full-information","relevant_dimensions":["wings","legs"],"bee_group":{"antennae":"X","wings":"1","pattern":"X","legs":"F"},"bonus":0.6600000000000008},{"rt":1501,"stimulus":"bees-with-color/bee-A1SF.svg","response":1,"trial_type":"image-button-response","trial_index":103,"time_elapsed":378933,"internal_node_id":"0.0-4.0-0.48","subject_id":"5fe0c7aac9707da1c9f069dc","study_id":"60edd13110225f80f9f3709b","session_id":"6196baaa2156b3342518a090","condition":"full-information","relevant_dimensions":["wings","legs"],"bee_group":{"antennae":"X","wings":"1","pattern":"X","legs":"F"},"action":"avoid","summary":"good-avoid","bonus":0.6600000000000008},{"rt":1179,"stimulus":"\n                    <p><b>Action: <em>avoid</em></b></p>\n                    <p>This is the bee that you just saw.</p>\n                    <img src=\"bees-with-color/bee-A1SF.svg\" width=\"200\">\n                    <p><span class=\"greenText\">Good choice!</span>  This bee would have stung you.<br>Your bonus pay is unchanged, and remains at $0.80.</p>\n            ","response":0,"trial_type":"html-button-response","trial_index":104,"time_elapsed":380113,"internal_node_id":"0.0-4.0-1.48","subject_id":"5fe0c7aac9707da1c9f069dc","study_id":"60edd13110225f80f9f3709b","session_id":"6196baaa2156b3342518a090","condition":"full-information","relevant_dimensions":["wings","legs"],"bee_group":{"antennae":"X","wings":"1","pattern":"X","legs":"F"},"bonus":0.6600000000000008},{"rt":923,"stimulus":"bees-with-color/bee-B1SM.svg","response":1,"trial_type":"image-button-response","trial_index":105,"time_elapsed":381037,"internal_node_id":"0.0-4.0-0.49","subject_id":"5fe0c7aac9707da1c9f069dc","study_id":"60edd13110225f80f9f3709b","session_id":"6196baaa2156b3342518a090","condition":"full-information","relevant_dimensions":["wings","legs"],"bee_group":{"antennae":"X","wings":"1","pattern":"X","legs":"F"},"action":"avoid","summary":"bad-avoid","bonus":0.6600000000000008},{"rt":566,"stimulus":"\n                    <p><b>Action: <em>avoid</em></b></p>\n                    <p>This is the bee that you just saw.</p>\n                    <img src=\"bees-with-color/bee-B1SM.svg\" width=\"200\">\n                    <p><span class=\"redText\">Bad choice,</span> the bee was friendly.<br>Your bonus pay is unchanged, and remains at $0.80.</p>\n            ","response":0,"trial_type":"html-button-response","trial_index":106,"time_elapsed":381604,"internal_node_id":"0.0-4.0-1.49","subject_id":"5fe0c7aac9707da1c9f069dc","study_id":"60edd13110225f80f9f3709b","session_id":"6196baaa2156b3342518a090","condition":"full-information","relevant_dimensions":["wings","legs"],"bee_group":{"antennae":"X","wings":"1","pattern":"X","legs":"F"},"bonus":0.6600000000000008},{"rt":1379,"stimulus":"bees-with-color/bee-A1SM.svg","response":1,"trial_type":"image-button-response","trial_index":107,"time_elapsed":382984,"internal_node_id":"0.0-4.0-0.50","subject_id":"5fe0c7aac9707da1c9f069dc","study_id":"60edd13110225f80f9f3709b","session_id":"6196baaa2156b3342518a090","condition":"full-information","relevant_dimensions":["wings","legs"],"bee_group":{"antennae":"X","wings":"1","pattern":"X","legs":"F"},"action":"avoid","summary":"bad-avoid","bonus":0.6600000000000008},{"rt":658,"stimulus":"\n                    <p><b>Action: <em>avoid</em></b></p>\n                    <p>This is the bee that you just saw.</p>\n                    <img src=\"bees-with-color/bee-A1SM.svg\" width=\"200\">\n                    <p><span class=\"redText\">Bad choice,</span> the bee was friendly.<br>Your bonus pay is unchanged, and remains at $0.80.</p>\n            ","response":0,"trial_type":"html-button-response","trial_index":108,"time_elapsed":383643,"internal_node_id":"0.0-4.0-1.50","subject_id":"5fe0c7aac9707da1c9f069dc","study_id":"60edd13110225f80f9f3709b","session_id":"6196baaa2156b3342518a090","condition":"full-information","relevant_dimensions":["wings","legs"],"bee_group":{"antennae":"X","wings":"1","pattern":"X","legs":"F"},"bonus":0.6600000000000008},{"rt":1616,"stimulus":"bees-with-color/bee-B2DF.svg","response":0,"trial_type":"image-button-response","trial_index":109,"time_elapsed":385260,"internal_node_id":"0.0-4.0-0.51","subject_id":"5fe0c7aac9707da1c9f069dc","study_id":"60edd13110225f80f9f3709b","session_id":"6196baaa2156b3342518a090","condition":"full-information","relevant_dimensions":["wings","legs"],"bee_group":{"antennae":"X","wings":"1","pattern":"X","legs":"F"},"action":"harvest","summary":"good-harvest","bonus":0.6600000000000008},{"rt":836,"stimulus":"\n                    <p><b>Action: <em>harvest</em></b></p>\n                    <p>This is the bee that you just saw.</p>\n                    <img src=\"bees-with-color/bee-B2DF.svg\" width=\"200\">\n                    <p><span class=\"greenText\"><b>Successful harvest!</b></span><br>Your pay has increased by $0.02. Your bonus pay is now $0.82.</p>\n            ","response":0,"trial_type":"html-button-response","trial_index":110,"time_elapsed":386096,"internal_node_id":"0.0-4.0-1.51","subject_id":"5fe0c7aac9707da1c9f069dc","study_id":"60edd13110225f80f9f3709b","session_id":"6196baaa2156b3342518a090","condition":"full-information","relevant_dimensions":["wings","legs"],"bee_group":{"antennae":"X","wings":"1","pattern":"X","legs":"F"},"bonus":0.6600000000000008},{"rt":1105,"stimulus":"bees-with-color/bee-A2SM.svg","response":0,"trial_type":"image-button-response","trial_index":111,"time_elapsed":387202,"internal_node_id":"0.0-4.0-0.52","subject_id":"5fe0c7aac9707da1c9f069dc","study_id":"60edd13110225f80f9f3709b","session_id":"6196baaa2156b3342518a090","condition":"full-information","relevant_dimensions":["wings","legs"],"bee_group":{"antennae":"X","wings":"1","pattern":"X","legs":"F"},"action":"harvest","summary":"good-harvest","bonus":0.6600000000000008},{"rt":528,"stimulus":"\n                    <p><b>Action: <em>harvest</em></b></p>\n                    <p>This is the bee that you just saw.</p>\n                    <img src=\"bees-with-color/bee-A2SM.svg\" width=\"200\">\n                    <p><span class=\"greenText\"><b>Successful harvest!</b></span><br>Your pay has increased by $0.02. Your bonus pay is now $0.84.</p>\n            ","response":0,"trial_type":"html-button-response","trial_index":112,"time_elapsed":387732,"internal_node_id":"0.0-4.0-1.52","subject_id":"5fe0c7aac9707da1c9f069dc","study_id":"60edd13110225f80f9f3709b","session_id":"6196baaa2156b3342518a090","condition":"full-information","relevant_dimensions":["wings","legs"],"bee_group":{"antennae":"X","wings":"1","pattern":"X","legs":"F"},"bonus":0.6600000000000008},{"rt":590,"stimulus":"bees-with-color/bee-A2DM.svg","response":0,"trial_type":"image-button-response","trial_index":113,"time_elapsed":388323,"internal_node_id":"0.0-4.0-0.53","subject_id":"5fe0c7aac9707da1c9f069dc","study_id":"60edd13110225f80f9f3709b","session_id":"6196baaa2156b3342518a090","condition":"full-information","relevant_dimensions":["wings","legs"],"bee_group":{"antennae":"X","wings":"1","pattern":"X","legs":"F"},"action":"harvest","summary":"good-harvest","bonus":0.6600000000000008},{"rt":692,"stimulus":"\n                    <p><b>Action: <em>harvest</em></b></p>\n                    <p>This is the bee that you just saw.</p>\n                    <img src=\"bees-with-color/bee-A2DM.svg\" width=\"200\">\n                    <p><span class=\"greenText\"><b>Successful harvest!</b></span><br>Your pay has increased by $0.02. Your bonus pay is now $0.86.</p>\n            ","response":0,"trial_type":"html-button-response","trial_index":114,"time_elapsed":389016,"internal_node_id":"0.0-4.0-1.53","subject_id":"5fe0c7aac9707da1c9f069dc","study_id":"60edd13110225f80f9f3709b","session_id":"6196baaa2156b3342518a090","condition":"full-information","relevant_dimensions":["wings","legs"],"bee_group":{"antennae":"X","wings":"1","pattern":"X","legs":"F"},"bonus":0.6600000000000008},{"rt":1866,"stimulus":"bees-with-color/bee-B2DM.svg","response":1,"trial_type":"image-button-response","trial_index":115,"time_elapsed":390883,"internal_node_id":"0.0-4.0-0.54","subject_id":"5fe0c7aac9707da1c9f069dc","study_id":"60edd13110225f80f9f3709b","session_id":"6196baaa2156b3342518a090","condition":"full-information","relevant_dimensions":["wings","legs"],"bee_group":{"antennae":"X","wings":"1","pattern":"X","legs":"F"},"action":"avoid","summary":"bad-avoid","bonus":0.6600000000000008},{"rt":859,"stimulus":"\n                    <p><b>Action: <em>avoid</em></b></p>\n                    <p>This is the bee that you just saw.</p>\n                    <img src=\"bees-with-color/bee-B2DM.svg\" width=\"200\">\n                    <p><span class=\"redText\">Bad choice,</span> the bee was friendly.<br>Your bonus pay is unchanged, and remains at $0.86.</p>\n            ","response":0,"trial_type":"html-button-response","trial_index":116,"time_elapsed":391743,"internal_node_id":"0.0-4.0-1.54","subject_id":"5fe0c7aac9707da1c9f069dc","study_id":"60edd13110225f80f9f3709b","session_id":"6196baaa2156b3342518a090","condition":"full-information","relevant_dimensions":["wings","legs"],"bee_group":{"antennae":"X","wings":"1","pattern":"X","legs":"F"},"bonus":0.6600000000000008},{"rt":950,"stimulus":"bees-with-color/bee-A1DF.svg","response":1,"trial_type":"image-button-response","trial_index":117,"time_elapsed":392695,"internal_node_id":"0.0-4.0-0.55","subject_id":"5fe0c7aac9707da1c9f069dc","study_id":"60edd13110225f80f9f3709b","session_id":"6196baaa2156b3342518a090","condition":"full-information","relevant_dimensions":["wings","legs"],"bee_group":{"antennae":"X","wings":"1","pattern":"X","legs":"F"},"action":"avoid","summary":"good-avoid","bonus":0.6600000000000008},{"rt":570,"stimulus":"\n                    <p><b>Action: <em>avoid</em></b></p>\n                    <p>This is the bee that you just saw.</p>\n                    <img src=\"bees-with-color/bee-A1DF.svg\" width=\"200\">\n                    <p><span class=\"greenText\">Good choice!</span>  This bee would have stung you.<br>Your bonus pay is unchanged, and remains at $0.86.</p>\n            ","response":0,"trial_type":"html-button-response","trial_index":118,"time_elapsed":393266,"internal_node_id":"0.0-4.0-1.55","subject_id":"5fe0c7aac9707da1c9f069dc","study_id":"60edd13110225f80f9f3709b","session_id":"6196baaa2156b3342518a090","condition":"full-information","relevant_dimensions":["wings","legs"],"bee_group":{"antennae":"X","wings":"1","pattern":"X","legs":"F"},"bonus":0.6600000000000008},{"rt":862,"stimulus":"bees-with-color/bee-A2SF.svg","response":0,"trial_type":"image-button-response","trial_index":119,"time_elapsed":394130,"internal_node_id":"0.0-4.0-0.56","subject_id":"5fe0c7aac9707da1c9f069dc","study_id":"60edd13110225f80f9f3709b","session_id":"6196baaa2156b3342518a090","condition":"full-information","relevant_dimensions":["wings","legs"],"bee_group":{"antennae":"X","wings":"1","pattern":"X","legs":"F"},"action":"harvest","summary":"good-harvest","bonus":0.6600000000000008},{"rt":705,"stimulus":"\n                    <p><b>Action: <em>harvest</em></b></p>\n                    <p>This is the bee that you just saw.</p>\n                    <img src=\"bees-with-color/bee-A2SF.svg\" width=\"200\">\n                    <p><span class=\"greenText\"><b>Successful harvest!</b></span><br>Your pay has increased by $0.02. Your bonus pay is now $0.88.</p>\n            ","response":0,"trial_type":"html-button-response","trial_index":120,"time_elapsed":394835,"internal_node_id":"0.0-4.0-1.56","subject_id":"5fe0c7aac9707da1c9f069dc","study_id":"60edd13110225f80f9f3709b","session_id":"6196baaa2156b3342518a090","condition":"full-information","relevant_dimensions":["wings","legs"],"bee_group":{"antennae":"X","wings":"1","pattern":"X","legs":"F"},"bonus":0.6600000000000008},{"rt":604,"stimulus":"bees-with-color/bee-B2SF.svg","response":0,"trial_type":"image-button-response","trial_index":121,"time_elapsed":395440,"internal_node_id":"0.0-4.0-0.57","subject_id":"5fe0c7aac9707da1c9f069dc","study_id":"60edd13110225f80f9f3709b","session_id":"6196baaa2156b3342518a090","condition":"full-information","relevant_dimensions":["wings","legs"],"bee_group":{"antennae":"X","wings":"1","pattern":"X","legs":"F"},"action":"harvest","summary":"good-harvest","bonus":0.6600000000000008},{"rt":516,"stimulus":"\n                    <p><b>Action: <em>harvest</em></b></p>\n                    <p>This is the bee that you just saw.</p>\n                    <img src=\"bees-with-color/bee-B2SF.svg\" width=\"200\">\n                    <p><span class=\"greenText\"><b>Successful harvest!</b></span><br>Your pay has increased by $0.02. Your bonus pay is now $0.90.</p>\n            ","response":0,"trial_type":"html-button-response","trial_index":122,"time_elapsed":395956,"internal_node_id":"0.0-4.0-1.57","subject_id":"5fe0c7aac9707da1c9f069dc","study_id":"60edd13110225f80f9f3709b","session_id":"6196baaa2156b3342518a090","condition":"full-information","relevant_dimensions":["wings","legs"],"bee_group":{"antennae":"X","wings":"1","pattern":"X","legs":"F"},"bonus":0.6600000000000008},{"rt":1061,"stimulus":"bees-with-color/bee-A2DF.svg","response":0,"trial_type":"image-button-response","trial_index":123,"time_elapsed":397019,"internal_node_id":"0.0-4.0-0.58","subject_id":"5fe0c7aac9707da1c9f069dc","study_id":"60edd13110225f80f9f3709b","session_id":"6196baaa2156b3342518a090","condition":"full-information","relevant_dimensions":["wings","legs"],"bee_group":{"antennae":"X","wings":"1","pattern":"X","legs":"F"},"action":"harvest","summary":"good-harvest","bonus":0.6600000000000008},{"rt":812,"stimulus":"\n                    <p><b>Action: <em>harvest</em></b></p>\n                    <p>This is the bee that you just saw.</p>\n                    <img src=\"bees-with-color/bee-A2DF.svg\" width=\"200\">\n                    <p><span class=\"greenText\"><b>Successful harvest!</b></span><br>Your pay has increased by $0.02. Your bonus pay is now $0.92.</p>\n            ","response":0,"trial_type":"html-button-response","trial_index":124,"time_elapsed":397833,"internal_node_id":"0.0-4.0-1.58","subject_id":"5fe0c7aac9707da1c9f069dc","study_id":"60edd13110225f80f9f3709b","session_id":"6196baaa2156b3342518a090","condition":"full-information","relevant_dimensions":["wings","legs"],"bee_group":{"antennae":"X","wings":"1","pattern":"X","legs":"F"},"bonus":0.6600000000000008},{"rt":985,"stimulus":"bees-with-color/bee-B1DM.svg","response":1,"trial_type":"image-button-response","trial_index":125,"time_elapsed":398818,"internal_node_id":"0.0-4.0-0.59","subject_id":"5fe0c7aac9707da1c9f069dc","study_id":"60edd13110225f80f9f3709b","session_id":"6196baaa2156b3342518a090","condition":"full-information","relevant_dimensions":["wings","legs"],"bee_group":{"antennae":"X","wings":"1","pattern":"X","legs":"F"},"action":"avoid","summary":"bad-avoid","bonus":0.6600000000000008},{"rt":790,"stimulus":"\n                    <p><b>Action: <em>avoid</em></b></p>\n                    <p>This is the bee that you just saw.</p>\n                    <img src=\"bees-with-color/bee-B1DM.svg\" width=\"200\">\n                    <p><span class=\"redText\">Bad choice,</span> the bee was friendly.<br>Your bonus pay is unchanged, and remains at $0.92.</p>\n            ","response":0,"trial_type":"html-button-response","trial_index":126,"time_elapsed":399610,"internal_node_id":"0.0-4.0-1.59","subject_id":"5fe0c7aac9707da1c9f069dc","study_id":"60edd13110225f80f9f3709b","session_id":"6196baaa2156b3342518a090","condition":"full-information","relevant_dimensions":["wings","legs"],"bee_group":{"antennae":"X","wings":"1","pattern":"X","legs":"F"},"bonus":0.6600000000000008},{"rt":1516,"stimulus":"bees-with-color/bee-A1DM.svg","response":0,"trial_type":"image-button-response","trial_index":127,"time_elapsed":401127,"internal_node_id":"0.0-4.0-0.60","subject_id":"5fe0c7aac9707da1c9f069dc","study_id":"60edd13110225f80f9f3709b","session_id":"6196baaa2156b3342518a090","condition":"full-information","relevant_dimensions":["wings","legs"],"bee_group":{"antennae":"X","wings":"1","pattern":"X","legs":"F"},"action":"harvest","summary":"good-harvest","bonus":0.6600000000000008},{"rt":633,"stimulus":"\n                    <p><b>Action: <em>harvest</em></b></p>\n                    <p>This is the bee that you just saw.</p>\n                    <img src=\"bees-with-color/bee-A1DM.svg\" width=\"200\">\n                    <p><span class=\"greenText\"><b>Successful harvest!</b></span><br>Your pay has increased by $0.02. Your bonus pay is now $0.94.</p>\n            ","response":0,"trial_type":"html-button-response","trial_index":128,"time_elapsed":401761,"internal_node_id":"0.0-4.0-1.60","subject_id":"5fe0c7aac9707da1c9f069dc","study_id":"60edd13110225f80f9f3709b","session_id":"6196baaa2156b3342518a090","condition":"full-information","relevant_dimensions":["wings","legs"],"bee_group":{"antennae":"X","wings":"1","pattern":"X","legs":"F"},"bonus":0.6600000000000008},{"rt":716,"stimulus":"bees-with-color/bee-B2SM.svg","response":0,"trial_type":"image-button-response","trial_index":129,"time_elapsed":402479,"internal_node_id":"0.0-4.0-0.61","subject_id":"5fe0c7aac9707da1c9f069dc","study_id":"60edd13110225f80f9f3709b","session_id":"6196baaa2156b3342518a090","condition":"full-information","relevant_dimensions":["wings","legs"],"bee_group":{"antennae":"X","wings":"1","pattern":"X","legs":"F"},"action":"harvest","summary":"good-harvest","bonus":0.6600000000000008},{"rt":516,"stimulus":"\n                    <p><b>Action: <em>harvest</em></b></p>\n                    <p>This is the bee that you just saw.</p>\n                    <img src=\"bees-with-color/bee-B2SM.svg\" width=\"200\">\n                    <p><span class=\"greenText\"><b>Successful harvest!</b></span><br>Your pay has increased by $0.02. Your bonus pay is now $0.96.</p>\n            ","response":0,"trial_type":"html-button-response","trial_index":130,"time_elapsed":402995,"internal_node_id":"0.0-4.0-1.61","subject_id":"5fe0c7aac9707da1c9f069dc","study_id":"60edd13110225f80f9f3709b","session_id":"6196baaa2156b3342518a090","condition":"full-information","relevant_dimensions":["wings","legs"],"bee_group":{"antennae":"X","wings":"1","pattern":"X","legs":"F"},"bonus":0.6600000000000008},{"rt":1000,"stimulus":"bees-with-color/bee-B1DF.svg","response":1,"trial_type":"image-button-response","trial_index":131,"time_elapsed":403995,"internal_node_id":"0.0-4.0-0.62","subject_id":"5fe0c7aac9707da1c9f069dc","study_id":"60edd13110225f80f9f3709b","session_id":"6196baaa2156b3342518a090","condition":"full-information","relevant_dimensions":["wings","legs"],"bee_group":{"antennae":"X","wings":"1","pattern":"X","legs":"F"},"action":"avoid","summary":"good-avoid","bonus":0.6600000000000008},{"rt":514,"stimulus":"\n                    <p><b>Action: <em>avoid</em></b></p>\n                    <p>This is the bee that you just saw.</p>\n                    <img src=\"bees-with-color/bee-B1DF.svg\" width=\"200\">\n                    <p><span class=\"greenText\">Good choice!</span>  This bee would have stung you.<br>Your bonus pay is unchanged, and remains at $0.96.</p>\n            ","response":0,"trial_type":"html-button-response","trial_index":132,"time_elapsed":404509,"internal_node_id":"0.0-4.0-1.62","subject_id":"5fe0c7aac9707da1c9f069dc","study_id":"60edd13110225f80f9f3709b","session_id":"6196baaa2156b3342518a090","condition":"full-information","relevant_dimensions":["wings","legs"],"bee_group":{"antennae":"X","wings":"1","pattern":"X","legs":"F"},"bonus":0.6600000000000008},{"rt":914,"stimulus":"bees-with-color/bee-B1SF.svg","response":1,"trial_type":"image-button-response","trial_index":133,"time_elapsed":405424,"internal_node_id":"0.0-4.0-0.63","subject_id":"5fe0c7aac9707da1c9f069dc","study_id":"60edd13110225f80f9f3709b","session_id":"6196baaa2156b3342518a090","condition":"full-information","relevant_dimensions":["wings","legs"],"bee_group":{"antennae":"X","wings":"1","pattern":"X","legs":"F"},"action":"avoid","summary":"good-avoid","bonus":0.6600000000000008},{"rt":538,"stimulus":"\n                    <p><b>Action: <em>avoid</em></b></p>\n                    <p>This is the bee that you just saw.</p>\n                    <img src=\"bees-with-color/bee-B1SF.svg\" width=\"200\">\n                    <p><span class=\"greenText\">Good choice!</span>  This bee would have stung you.<br>Your bonus pay is unchanged, and remains at $0.96.</p>\n            ","response":0,"trial_type":"html-button-response","trial_index":134,"time_elapsed":405964,"internal_node_id":"0.0-4.0-1.63","subject_id":"5fe0c7aac9707da1c9f069dc","study_id":"60edd13110225f80f9f3709b","session_id":"6196baaa2156b3342518a090","condition":"full-information","relevant_dimensions":["wings","legs"],"bee_group":{"antennae":"X","wings":"1","pattern":"X","legs":"F"},"bonus":0.6600000000000008},{"rt":15474,"stimulus":"You have completed the first part of this experiment.<br><br>You will now begin a shorter second part, in which you will receive no feedback.<br>The same rules regarding bonus pay apply.<br><br>Press any key to begin.","response":" ","trial_type":"html-keyboard-response","trial_index":135,"time_elapsed":421438,"internal_node_id":"0.0-5.0","subject_id":"5fe0c7aac9707da1c9f069dc","study_id":"60edd13110225f80f9f3709b","session_id":"6196baaa2156b3342518a090","condition":"full-information","relevant_dimensions":["wings","legs"],"bee_group":{"antennae":"X","wings":"1","pattern":"X","legs":"F"},"bonus":0.6600000000000008},{"rt":2958,"stimulus":"bees-with-color/bee-B2DM.svg","response":0,"trial_type":"image-button-response","trial_index":136,"time_elapsed":424396,"internal_node_id":"0.0-6.0-0.0","subject_id":"5fe0c7aac9707da1c9f069dc","study_id":"60edd13110225f80f9f3709b","session_id":"6196baaa2156b3342518a090","condition":"full-information","relevant_dimensions":["wings","legs"],"bee_group":{"antennae":"X","wings":"1","pattern":"X","legs":"F"},"bonus":0.6600000000000008},{"rt":2537,"stimulus":"bees-with-color/bee-B1SF.svg","response":0,"trial_type":"image-button-response","trial_index":137,"time_elapsed":426934,"internal_node_id":"0.0-6.0-0.1","subject_id":"5fe0c7aac9707da1c9f069dc","study_id":"60edd13110225f80f9f3709b","session_id":"6196baaa2156b3342518a090","condition":"full-information","relevant_dimensions":["wings","legs"],"bee_group":{"antennae":"X","wings":"1","pattern":"X","legs":"F"},"bonus":0.6600000000000008},{"rt":1096,"stimulus":"bees-with-color/bee-B2DF.svg","response":1,"trial_type":"image-button-response","trial_index":138,"time_elapsed":428032,"internal_node_id":"0.0-6.0-0.2","subject_id":"5fe0c7aac9707da1c9f069dc","study_id":"60edd13110225f80f9f3709b","session_id":"6196baaa2156b3342518a090","condition":"full-information","relevant_dimensions":["wings","legs"],"bee_group":{"antennae":"X","wings":"1","pattern":"X","legs":"F"},"bonus":0.6600000000000008},{"rt":2823,"stimulus":"bees-with-color/bee-B2SF.svg","response":0,"trial_type":"image-button-response","trial_index":139,"time_elapsed":430855,"internal_node_id":"0.0-6.0-0.3","subject_id":"5fe0c7aac9707da1c9f069dc","study_id":"60edd13110225f80f9f3709b","session_id":"6196baaa2156b3342518a090","condition":"full-information","relevant_dimensions":["wings","legs"],"bee_group":{"antennae":"X","wings":"1","pattern":"X","legs":"F"},"bonus":0.6600000000000008},{"rt":352,"stimulus":"bees-with-color/bee-A2SF.svg","response":0,"trial_type":"image-button-response","trial_index":140,"time_elapsed":431208,"internal_node_id":"0.0-6.0-0.4","subject_id":"5fe0c7aac9707da1c9f069dc","study_id":"60edd13110225f80f9f3709b","session_id":"6196baaa2156b3342518a090","condition":"full-information","relevant_dimensions":["wings","legs"],"bee_group":{"antennae":"X","wings":"1","pattern":"X","legs":"F"},"bonus":0.6600000000000008},{"rt":754,"stimulus":"bees-with-color/bee-A1DF.svg","response":0,"trial_type":"image-button-response","trial_index":141,"time_elapsed":431963,"internal_node_id":"0.0-6.0-0.5","subject_id":"5fe0c7aac9707da1c9f069dc","study_id":"60edd13110225f80f9f3709b","session_id":"6196baaa2156b3342518a090","condition":"full-information","relevant_dimensions":["wings","legs"],"bee_group":{"antennae":"X","wings":"1","pattern":"X","legs":"F"},"bonus":0.6600000000000008},{"rt":581,"stimulus":"bees-with-color/bee-B1SM.svg","response":1,"trial_type":"image-button-response","trial_index":142,"time_elapsed":432544,"internal_node_id":"0.0-6.0-0.6","subject_id":"5fe0c7aac9707da1c9f069dc","study_id":"60edd13110225f80f9f3709b","session_id":"6196baaa2156b3342518a090","condition":"full-information","relevant_dimensions":["wings","legs"],"bee_group":{"antennae":"X","wings":"1","pattern":"X","legs":"F"},"bonus":0.6600000000000008},{"rt":810,"stimulus":"bees-with-color/bee-A1DM.svg","response":0,"trial_type":"image-button-response","trial_index":143,"time_elapsed":433356,"internal_node_id":"0.0-6.0-0.7","subject_id":"5fe0c7aac9707da1c9f069dc","study_id":"60edd13110225f80f9f3709b","session_id":"6196baaa2156b3342518a090","condition":"full-information","relevant_dimensions":["wings","legs"],"bee_group":{"antennae":"X","wings":"1","pattern":"X","legs":"F"},"bonus":0.6600000000000008},{"rt":1154,"stimulus":"bees-with-color/bee-A2DF.svg","response":1,"trial_type":"image-button-response","trial_index":144,"time_elapsed":434511,"internal_node_id":"0.0-6.0-0.8","subject_id":"5fe0c7aac9707da1c9f069dc","study_id":"60edd13110225f80f9f3709b","session_id":"6196baaa2156b3342518a090","condition":"full-information","relevant_dimensions":["wings","legs"],"bee_group":{"antennae":"X","wings":"1","pattern":"X","legs":"F"},"bonus":0.6600000000000008},{"rt":1043,"stimulus":"bees-with-color/bee-B1DF.svg","response":0,"trial_type":"image-button-response","trial_index":145,"time_elapsed":435555,"internal_node_id":"0.0-6.0-0.9","subject_id":"5fe0c7aac9707da1c9f069dc","study_id":"60edd13110225f80f9f3709b","session_id":"6196baaa2156b3342518a090","condition":"full-information","relevant_dimensions":["wings","legs"],"bee_group":{"antennae":"X","wings":"1","pattern":"X","legs":"F"},"bonus":0.6600000000000008},{"rt":974,"stimulus":"bees-with-color/bee-A2SM.svg","response":0,"trial_type":"image-button-response","trial_index":146,"time_elapsed":436529,"internal_node_id":"0.0-6.0-0.10","subject_id":"5fe0c7aac9707da1c9f069dc","study_id":"60edd13110225f80f9f3709b","session_id":"6196baaa2156b3342518a090","condition":"full-information","relevant_dimensions":["wings","legs"],"bee_group":{"antennae":"X","wings":"1","pattern":"X","legs":"F"},"bonus":0.6600000000000008},{"rt":178,"stimulus":"bees-with-color/bee-A1SF.svg","response":0,"trial_type":"image-button-response","trial_index":147,"time_elapsed":436708,"internal_node_id":"0.0-6.0-0.11","subject_id":"5fe0c7aac9707da1c9f069dc","study_id":"60edd13110225f80f9f3709b","session_id":"6196baaa2156b3342518a090","condition":"full-information","relevant_dimensions":["wings","legs"],"bee_group":{"antennae":"X","wings":"1","pattern":"X","legs":"F"},"bonus":0.6600000000000008},{"rt":726,"stimulus":"bees-with-color/bee-A1SM.svg","response":1,"trial_type":"image-button-response","trial_index":148,"time_elapsed":437435,"internal_node_id":"0.0-6.0-0.12","subject_id":"5fe0c7aac9707da1c9f069dc","study_id":"60edd13110225f80f9f3709b","session_id":"6196baaa2156b3342518a090","condition":"full-information","relevant_dimensions":["wings","legs"],"bee_group":{"antennae":"X","wings":"1","pattern":"X","legs":"F"},"bonus":0.6600000000000008},{"rt":167,"stimulus":"bees-with-color/bee-B1DM.svg","response":1,"trial_type":"image-button-response","trial_index":149,"time_elapsed":437602,"internal_node_id":"0.0-6.0-0.13","subject_id":"5fe0c7aac9707da1c9f069dc","study_id":"60edd13110225f80f9f3709b","session_id":"6196baaa2156b3342518a090","condition":"full-information","relevant_dimensions":["wings","legs"],"bee_group":{"antennae":"X","wings":"1","pattern":"X","legs":"F"},"bonus":0.6600000000000008},{"rt":1412,"stimulus":"bees-with-color/bee-B2SM.svg","response":1,"trial_type":"image-button-response","trial_index":150,"time_elapsed":439015,"internal_node_id":"0.0-6.0-0.14","subject_id":"5fe0c7aac9707da1c9f069dc","study_id":"60edd13110225f80f9f3709b","session_id":"6196baaa2156b3342518a090","condition":"full-information","relevant_dimensions":["wings","legs"],"bee_group":{"antennae":"X","wings":"1","pattern":"X","legs":"F"},"bonus":0.6600000000000008},{"rt":158,"stimulus":"bees-with-color/bee-A2DM.svg","response":1,"trial_type":"image-button-response","trial_index":151,"time_elapsed":439174,"internal_node_id":"0.0-6.0-0.15","subject_id":"5fe0c7aac9707da1c9f069dc","study_id":"60edd13110225f80f9f3709b","session_id":"6196baaa2156b3342518a090","condition":"full-information","relevant_dimensions":["wings","legs"],"bee_group":{"antennae":"X","wings":"1","pattern":"X","legs":"F"},"bonus":0.6600000000000008},{"rt":171,"stimulus":"bees-with-color/bee-B2DM.svg","response":1,"trial_type":"image-button-response","trial_index":152,"time_elapsed":439346,"internal_node_id":"0.0-6.0-0.16","subject_id":"5fe0c7aac9707da1c9f069dc","study_id":"60edd13110225f80f9f3709b","session_id":"6196baaa2156b3342518a090","condition":"full-information","relevant_dimensions":["wings","legs"],"bee_group":{"antennae":"X","wings":"1","pattern":"X","legs":"F"},"bonus":0.6600000000000008},{"rt":163,"stimulus":"bees-with-color/bee-B2DF.svg","response":1,"trial_type":"image-button-response","trial_index":153,"time_elapsed":439511,"internal_node_id":"0.0-6.0-0.17","subject_id":"5fe0c7aac9707da1c9f069dc","study_id":"60edd13110225f80f9f3709b","session_id":"6196baaa2156b3342518a090","condition":"full-information","relevant_dimensions":["wings","legs"],"bee_group":{"antennae":"X","wings":"1","pattern":"X","legs":"F"},"bonus":0.6600000000000008},{"rt":168,"stimulus":"bees-with-color/bee-B1SF.svg","response":1,"trial_type":"image-button-response","trial_index":154,"time_elapsed":439678,"internal_node_id":"0.0-6.0-0.18","subject_id":"5fe0c7aac9707da1c9f069dc","study_id":"60edd13110225f80f9f3709b","session_id":"6196baaa2156b3342518a090","condition":"full-information","relevant_dimensions":["wings","legs"],"bee_group":{"antennae":"X","wings":"1","pattern":"X","legs":"F"},"bonus":0.6600000000000008},{"rt":168,"stimulus":"bees-with-color/bee-B2SM.svg","response":1,"trial_type":"image-button-response","trial_index":155,"time_elapsed":439848,"internal_node_id":"0.0-6.0-0.19","subject_id":"5fe0c7aac9707da1c9f069dc","study_id":"60edd13110225f80f9f3709b","session_id":"6196baaa2156b3342518a090","condition":"full-information","relevant_dimensions":["wings","legs"],"bee_group":{"antennae":"X","wings":"1","pattern":"X","legs":"F"},"bonus":0.6600000000000008},{"rt":160,"stimulus":"bees-with-color/bee-A2DM.svg","response":1,"trial_type":"image-button-response","trial_index":156,"time_elapsed":440010,"internal_node_id":"0.0-6.0-0.20","subject_id":"5fe0c7aac9707da1c9f069dc","study_id":"60edd13110225f80f9f3709b","session_id":"6196baaa2156b3342518a090","condition":"full-information","relevant_dimensions":["wings","legs"],"bee_group":{"antennae":"X","wings":"1","pattern":"X","legs":"F"},"bonus":0.6600000000000008},{"rt":163,"stimulus":"bees-with-color/bee-A1SM.svg","response":1,"trial_type":"image-button-response","trial_index":157,"time_elapsed":440173,"internal_node_id":"0.0-6.0-0.21","subject_id":"5fe0c7aac9707da1c9f069dc","study_id":"60edd13110225f80f9f3709b","session_id":"6196baaa2156b3342518a090","condition":"full-information","relevant_dimensions":["wings","legs"],"bee_group":{"antennae":"X","wings":"1","pattern":"X","legs":"F"},"bonus":0.6600000000000008},{"rt":286,"stimulus":"bees-with-color/bee-A1SF.svg","response":1,"trial_type":"image-button-response","trial_index":158,"time_elapsed":440460,"internal_node_id":"0.0-6.0-0.22","subject_id":"5fe0c7aac9707da1c9f069dc","study_id":"60edd13110225f80f9f3709b","session_id":"6196baaa2156b3342518a090","condition":"full-information","relevant_dimensions":["wings","legs"],"bee_group":{"antennae":"X","wings":"1","pattern":"X","legs":"F"},"bonus":0.6600000000000008},{"rt":262,"stimulus":"bees-with-color/bee-A1DM.svg","response":1,"trial_type":"image-button-response","trial_index":159,"time_elapsed":440722,"internal_node_id":"0.0-6.0-0.23","subject_id":"5fe0c7aac9707da1c9f069dc","study_id":"60edd13110225f80f9f3709b","session_id":"6196baaa2156b3342518a090","condition":"full-information","relevant_dimensions":["wings","legs"],"bee_group":{"antennae":"X","wings":"1","pattern":"X","legs":"F"},"bonus":0.6600000000000008},{"rt":470,"stimulus":"bees-with-color/bee-A1DF.svg","response":1,"trial_type":"image-button-response","trial_index":160,"time_elapsed":441194,"internal_node_id":"0.0-6.0-0.24","subject_id":"5fe0c7aac9707da1c9f069dc","study_id":"60edd13110225f80f9f3709b","session_id":"6196baaa2156b3342518a090","condition":"full-information","relevant_dimensions":["wings","legs"],"bee_group":{"antennae":"X","wings":"1","pattern":"X","legs":"F"},"bonus":0.6600000000000008},{"rt":235,"stimulus":"bees-with-color/bee-B1DM.svg","response":1,"trial_type":"image-button-response","trial_index":161,"time_elapsed":441430,"internal_node_id":"0.0-6.0-0.25","subject_id":"5fe0c7aac9707da1c9f069dc","study_id":"60edd13110225f80f9f3709b","session_id":"6196baaa2156b3342518a090","condition":"full-information","relevant_dimensions":["wings","legs"],"bee_group":{"antennae":"X","wings":"1","pattern":"X","legs":"F"},"bonus":0.6600000000000008},{"rt":186,"stimulus":"bees-with-color/bee-B1DF.svg","response":1,"trial_type":"image-button-response","trial_index":162,"time_elapsed":441617,"internal_node_id":"0.0-6.0-0.26","subject_id":"5fe0c7aac9707da1c9f069dc","study_id":"60edd13110225f80f9f3709b","session_id":"6196baaa2156b3342518a090","condition":"full-information","relevant_dimensions":["wings","legs"],"bee_group":{"antennae":"X","wings":"1","pattern":"X","legs":"F"},"bonus":0.6600000000000008},{"rt":283,"stimulus":"bees-with-color/bee-A2SM.svg","response":1