[{"success":true,"trial_type":"fullscreen","trial_index":0,"time_elapsed":6140,"internal_node_id":"0.0-0.0","subject_id":"61455c7caa8b0cfe8444a63b","study_id":"6197b3f67c2b5cd3b6d9596a","session_id":"6197b5ca698a415f67ddc4ce","condition":"contingent","relevant_dimensions":["antennae","legs"],"bee_group":{"antennae":"A","wings":"X","pattern":"X","legs":"M"},"bonus":1.2600000000000011},{"success":true,"timeout":false,"failed_images":[],"failed_audio":[],"failed_video":[],"trial_type":"preload","trial_index":1,"time_elapsed":9903,"internal_node_id":"0.0-1.0","subject_id":"61455c7caa8b0cfe8444a63b","study_id":"6197b3f67c2b5cd3b6d9596a","session_id":"6197b5ca698a415f67ddc4ce","condition":"contingent","relevant_dimensions":["antennae","legs"],"bee_group":{"antennae":"A","wings":"X","pattern":"X","legs":"M"},"bonus":1.2600000000000011},{"rt":2496.9000000059605,"stimulus":"Welcome! Press any key to begin.","response":"enter","trial_type":"html-keyboard-response","trial_index":2,"time_elapsed":12403,"internal_node_id":"0.0-2.0","subject_id":"61455c7caa8b0cfe8444a63b","study_id":"6197b3f67c2b5cd3b6d9596a","session_id":"6197b5ca698a415f67ddc4ce","condition":"contingent","relevant_dimensions":["antennae","legs"],"bee_group":{"antennae":"A","wings":"X","pattern":"X","legs":"M"},"bonus":1.2600000000000011},{"view_history":[{"page_index":0,"viewing_time":6820.699999988079},{"page_index":1,"viewing_time":20680.5},{"page_index":2,"viewing_time":18616.5},{"page_index":3,"viewing_time":21416.20000000298},{"page_index":4,"viewing_time":8583.70000000298},{"page_index":5,"viewing_time":21296.09999999404},{"page_index":6,"viewing_time":14511.5},{"page_index":7,"viewing_time":8943.70000000298},{"page_index":8,"viewing_time":5767.70000000298},{"page_index":9,"viewing_time":4016.7000000029802},{"page_index":10,"viewing_time":2944.2000000029802},{"page_index":11,"viewing_time":12639.699999988079},{"page_index":12,"viewing_time":15088.300000011921},{"page_index":13,"viewing_time":1783.2999999970198},{"page_index":14,"viewing_time":3672.5}],"rt":166782.89999999106,"trial_type":"instructions","trial_index":3,"time_elapsed":179189,"internal_node_id":"0.0-3.0-0.0","subject_id":"61455c7caa8b0cfe8444a63b","study_id":"6197b3f67c2b5cd3b6d9596a","session_id":"6197b5ca698a415f67ddc4ce","condition":"contingent","relevant_dimensions":["antennae","legs"],"bee_group":{"antennae":"A","wings":"X","pattern":"X","legs":"M"},"bonus":1.2600000000000011},{"rt":17615.69999998808,"response":{"Q0":["Two or six legs","Stripes or spots on body","Single or double wings","Antennae or no antennae"]},"question_order":[0],"trial_type":"survey-multi-select","trial_index":4,"time_elapsed":196813,"internal_node_id":"0.0-3.0-1.0","subject_id":"61455c7caa8b0cfe8444a63b","study_id":"6197b3f67c2b5cd3b6d9596a","session_id":"6197b5ca698a415f67ddc4ce","condition":"contingent","relevant_dimensions":["antennae","legs"],"bee_group":{"antennae":"A","wings":"X","pattern":"X","legs":"M"},"correct":true,"bonus":1.2600000000000011},{"rt":24042.80000001192,"response":{"Q1":"No.","Q2":"Based on the four features of the bee.","Q3":"You do not learn if it was friendly or dangerous, and do not alter your bonus."},"question_order":[0,1,2],"trial_type":"survey-multi-choice","trial_index":5,"time_elapsed":220860,"internal_node_id":"0.0-3.0-2.0","subject_id":"61455c7caa8b0cfe8444a63b","study_id":"6197b3f67c2b5cd3b6d9596a","session_id":"6197b5ca698a415f67ddc4ce","condition":"contingent","relevant_dimensions":["antennae","legs"],"bee_group":{"antennae":"A","wings":"X","pattern":"X","legs":"M"},"correct":true,"bonus":1.2600000000000011},{"rt":5748.800000011921,"stimulus":"<p>Congrats, you got everything right<br>When you're ready, click the button below to continue to the experiment.</p>","response":0,"trial_type":"html-button-response","trial_index":6,"time_elapsed":226612,"internal_node_id":"0.0-3.0-3.0","subject_id":"61455c7caa8b0cfe8444a63b","study_id":"6197b3f67c2b5cd3b6d9596a","session_id":"6197b5ca698a415f67ddc4ce","condition":"contingent","relevant_dimensions":["antennae","legs"],"bee_group":{"antennae":"A","wings":"X","pattern":"X","legs":"M"},"bonus":1.2600000000000011},{"rt":3795.2000000029802,"stimulus":"bees-with-color/bee-A1SM.svg","response":0,"trial_type":"image-button-response","trial_index":7,"time_elapsed":230412,"internal_node_id":"0.0-4.0-0.0","subject_id":"61455c7caa8b0cfe8444a63b","study_id":"6197b3f67c2b5cd3b6d9596a","session_id":"6197b5ca698a415f67ddc4ce","condition":"contingent","relevant_dimensions":["antennae","legs"],"bee_group":{"antennae":"A","wings":"X","pattern":"X","legs":"M"},"action":"harvest","summary":"bad-harvest","bonus":1.2600000000000011},{"rt":26402.5,"stimulus":"\n                    <p><b>Action: <em>harvest</em></b></p>\n                    <p>This is the bee that you just saw.</p>\n                    <img src=\"bees-with-color/bee-A1SM.svg\" width=\"200\">\n                    <p><span class=\"redText\">Bad choice, the bee was angry.</span><br><b>You have been stung!</b><br>Your pay has been decreased by $0.10. Your bonus pay is now $0.44.</p>\n            ","response":0,"trial_type":"html-button-response","trial_index":8,"time_elapsed":256828,"internal_node_id":"0.0-4.0-1.0","subject_id":"61455c7caa8b0cfe8444a63b","study_id":"6197b3f67c2b5cd3b6d9596a","session_id":"6197b5ca698a415f67ddc4ce","condition":"contingent","relevant_dimensions":["antennae","legs"],"bee_group":{"antennae":"A","wings":"X","pattern":"X","legs":"M"},"bonus":1.2600000000000011},{"rt":3179.2999999970198,"stimulus":"bees-with-color/bee-A2SF.svg","response":0,"trial_type":"image-button-response","trial_index":9,"time_elapsed":260012,"internal_node_id":"0.0-4.0-0.1","subject_id":"61455c7caa8b0cfe8444a63b","study_id":"6197b3f67c2b5cd3b6d9596a","session_id":"6197b5ca698a415f67ddc4ce","condition":"contingent","relevant_dimensions":["antennae","legs"],"bee_group":{"antennae":"A","wings":"X","pattern":"X","legs":"M"},"action":"harvest","summary":"good-harvest","bonus":1.2600000000000011},{"rt":10052.60000000894,"stimulus":"\n                    <p><b>Action: <em>harvest</em></b></p>\n                    <p>This is the bee that you just saw.</p>\n                    <img src=\"bees-with-color/bee-A2SF.svg\" width=\"200\">\n                    <p><span class=\"greenText\"><b>Successful harvest!</b></span><br>Your pay has increased by $0.02. Your bonus pay is now $0.46.</p>\n            ","response":0,"trial_type":"html-button-response","trial_index":10,"time_elapsed":270068,"internal_node_id":"0.0-4.0-1.1","subject_id":"61455c7caa8b0cfe8444a63b","study_id":"6197b3f67c2b5cd3b6d9596a","session_id":"6197b5ca698a415f67ddc4ce","condition":"contingent","relevant_dimensions":["antennae","legs"],"bee_group":{"antennae":"A","wings":"X","pattern":"X","legs":"M"},"bonus":1.2600000000000011},{"rt":3211.1000000089407,"stimulus":"bees-with-color/bee-B1DM.svg","response":0,"trial_type":"image-button-response","trial_index":11,"time_elapsed":273284,"internal_node_id":"0.0-4.0-0.2","subject_id":"61455c7caa8b0cfe8444a63b","study_id":"6197b3f67c2b5cd3b6d9596a","session_id":"6197b5ca698a415f67ddc4ce","condition":"contingent","relevant_dimensions":["antennae","legs"],"bee_group":{"antennae":"A","wings":"X","pattern":"X","legs":"M"},"action":"harvest","summary":"good-harvest","bonus":1.2600000000000011},{"rt":12804.29999999702,"stimulus":"\n                    <p><b>Action: <em>harvest</em></b></p>\n                    <p>This is the bee that you just saw.</p>\n                    <img src=\"bees-with-color/bee-B1DM.svg\" width=\"200\">\n                    <p><span class=\"greenText\"><b>Successful harvest!</b></span><br>Your pay has increased by $0.02. Your bonus pay is now $0.48.</p>\n            ","response":0,"trial_type":"html-button-response","trial_index":12,"time_elapsed":286091,"internal_node_id":"0.0-4.0-1.2","subject_id":"61455c7caa8b0cfe8444a63b","study_id":"6197b3f67c2b5cd3b6d9596a","session_id":"6197b5ca698a415f67ddc4ce","condition":"contingent","relevant_dimensions":["antennae","legs"],"bee_group":{"antennae":"A","wings":"X","pattern":"X","legs":"M"},"bonus":1.2600000000000011},{"rt":3205.7000000029802,"stimulus":"bees-with-color/bee-A1DM.svg","response":0,"trial_type":"image-button-response","trial_index":13,"time_elapsed":289300,"internal_node_id":"0.0-4.0-0.3","subject_id":"61455c7caa8b0cfe8444a63b","study_id":"6197b3f67c2b5cd3b6d9596a","session_id":"6197b5ca698a415f67ddc4ce","condition":"contingent","relevant_dimensions":["antennae","legs"],"bee_group":{"antennae":"A","wings":"X","pattern":"X","legs":"M"},"action":"harvest","summary":"bad-harvest","bonus":1.2600000000000011},{"rt":7212.79999999702,"stimulus":"\n                    <p><b>Action: <em>harvest</em></b></p>\n                    <p>This is the bee that you just saw.</p>\n                    <img src=\"bees-with-color/bee-A1DM.svg\" width=\"200\">\n                    <p><span class=\"redText\">Bad choice, the bee was angry.</span><br><b>You have been stung!</b><br>Your pay has been decreased by $0.10. Your bonus pay is now $0.38.</p>\n            ","response":0,"trial_type":"html-button-response","trial_index":14,"time_elapsed":296515,"internal_node_id":"0.0-4.0-1.3","subject_id":"61455c7caa8b0cfe8444a63b","study_id":"6197b3f67c2b5cd3b6d9596a","session_id":"6197b5ca698a415f67ddc4ce","condition":"contingent","relevant_dimensions":["antennae","legs"],"bee_group":{"antennae":"A","wings":"X","pattern":"X","legs":"M"},"bonus":1.2600000000000011},{"rt":1492.800000011921,"stimulus":"bees-with-color/bee-B2DM.svg","response":0,"trial_type":"image-button-response","trial_index":15,"time_elapsed":298012,"internal_node_id":"0.0-4.0-0.4","subject_id":"61455c7caa8b0cfe8444a63b","study_id":"6197b3f67c2b5cd3b6d9596a","session_id":"6197b5ca698a415f67ddc4ce","condition":"contingent","relevant_dimensions":["antennae","legs"],"bee_group":{"antennae":"A","wings":"X","pattern":"X","legs":"M"},"action":"harvest","summary":"good-harvest","bonus":1.2600000000000011},{"rt":3142.6000000089407,"stimulus":"\n                    <p><b>Action: <em>harvest</em></b></p>\n                    <p>This is the bee that you just saw.</p>\n                    <img src=\"bees-with-color/bee-B2DM.svg\" width=\"200\">\n                    <p><span class=\"greenText\"><b>Successful harvest!</b></span><br>Your pay has increased by $0.02. Your bonus pay is now $0.40.</p>\n            ","response":0,"trial_type":"html-button-response","trial_index":16,"time_elapsed":301157,"internal_node_id":"0.0-4.0-1.4","subject_id":"61455c7caa8b0cfe8444a63b","study_id":"6197b3f67c2b5cd3b6d9596a","session_id":"6197b5ca698a415f67ddc4ce","condition":"contingent","relevant_dimensions":["antennae","legs"],"bee_group":{"antennae":"A","wings":"X","pattern":"X","legs":"M"},"bonus":1.2600000000000011},{"rt":7243,"stimulus":"bees-with-color/bee-A1SF.svg","response":0,"trial_type":"image-button-response","trial_index":17,"time_elapsed":308403,"internal_node_id":"0.0-4.0-0.5","subject_id":"61455c7caa8b0cfe8444a63b","study_id":"6197b3f67c2b5cd3b6d9596a","session_id":"6197b5ca698a415f67ddc4ce","condition":"contingent","relevant_dimensions":["antennae","legs"],"bee_group":{"antennae":"A","wings":"X","pattern":"X","legs":"M"},"action":"harvest","summary":"good-harvest","bonus":1.2600000000000011},{"rt":1813.5,"stimulus":"\n                    <p><b>Action: <em>harvest</em></b></p>\n                    <p>This is the bee that you just saw.</p>\n                    <img src=\"bees-with-color/bee-A1SF.svg\" width=\"200\">\n                    <p><span class=\"greenText\"><b>Successful harvest!</b></span><br>Your pay has increased by $0.02. Your bonus pay is now $0.42.</p>\n            ","response":0,"trial_type":"html-button-response","trial_index":18,"time_elapsed":310221,"internal_node_id":"0.0-4.0-1.5","subject_id":"61455c7caa8b0cfe8444a63b","study_id":"6197b3f67c2b5cd3b6d9596a","session_id":"6197b5ca698a415f67ddc4ce","condition":"contingent","relevant_dimensions":["antennae","legs"],"bee_group":{"antennae":"A","wings":"X","pattern":"X","legs":"M"},"bonus":1.2600000000000011},{"rt":2082.7000000029802,"stimulus":"bees-with-color/bee-B2SM.svg","response":0,"trial_type":"image-button-response","trial_index":19,"time_elapsed":312308,"internal_node_id":"0.0-4.0-0.6","subject_id":"61455c7caa8b0cfe8444a63b","study_id":"6197b3f67c2b5cd3b6d9596a","session_id":"6197b5ca698a415f67ddc4ce","condition":"contingent","relevant_dimensions":["antennae","legs"],"bee_group":{"antennae":"A","wings":"X","pattern":"X","legs":"M"},"action":"harvest","summary":"good-harvest","bonus":1.2600000000000011},{"rt":1285.5,"stimulus":"\n                    <p><b>Action: <em>harvest</em></b></p>\n                    <p>This is the bee that you just saw.</p>\n                    <img src=\"bees-with-color/bee-B2SM.svg\" width=\"200\">\n                    <p><span class=\"greenText\"><b>Successful harvest!</b></span><br>Your pay has increased by $0.02. Your bonus pay is now $0.44.</p>\n            ","response":0,"trial_type":"html-button-response","trial_index":20,"time_elapsed":313596,"internal_node_id":"0.0-4.0-1.6","subject_id":"61455c7caa8b0cfe8444a63b","study_id":"6197b3f67c2b5cd3b6d9596a","session_id":"6197b5ca698a415f67ddc4ce","condition":"contingent","relevant_dimensions":["antennae","legs"],"bee_group":{"antennae":"A","wings":"X","pattern":"X","legs":"M"},"bonus":1.2600000000000011},{"rt":4101.4000000059605,"stimulus":"bees-with-color/bee-A1DF.svg","response":0,"trial_type":"image-button-response","trial_index":21,"time_elapsed":317701,"internal_node_id":"0.0-4.0-0.7","subject_id":"61455c7caa8b0cfe8444a63b","study_id":"6197b3f67c2b5cd3b6d9596a","session_id":"6197b5ca698a415f67ddc4ce","condition":"contingent","relevant_dimensions":["antennae","legs"],"bee_group":{"antennae":"A","wings":"X","pattern":"X","legs":"M"},"action":"harvest","summary":"good-harvest","bonus":1.2600000000000011},{"rt":1165.2000000029802,"stimulus":"\n                    <p><b>Action: <em>harvest</em></b></p>\n                    <p>This is the bee that you just saw.</p>\n                    <img src=\"bees-with-color/bee-A1DF.svg\" width=\"200\">\n                    <p><span class=\"greenText\"><b>Successful harvest!</b></span><br>Your pay has increased by $0.02. Your bonus pay is now $0.46.</p>\n            ","response":0,"trial_type":"html-button-response","trial_index":22,"time_elapsed":318869,"internal_node_id":"0.0-4.0-1.7","subject_id":"61455c7caa8b0cfe8444a63b","study_id":"6197b3f67c2b5cd3b6d9596a","session_id":"6197b5ca698a415f67ddc4ce","condition":"contingent","relevant_dimensions":["antennae","legs"],"bee_group":{"antennae":"A","wings":"X","pattern":"X","legs":"M"},"bonus":1.2600000000000011},{"rt":1939.1000000089407,"stimulus":"bees-with-color/bee-B2DF.svg","response":0,"trial_type":"image-button-response","trial_index":23,"time_elapsed":320813,"internal_node_id":"0.0-4.0-0.8","subject_id":"61455c7caa8b0cfe8444a63b","study_id":"6197b3f67c2b5cd3b6d9596a","session_id":"6197b5ca698a415f67ddc4ce","condition":"contingent","relevant_dimensions":["antennae","legs"],"bee_group":{"antennae":"A","wings":"X","pattern":"X","legs":"M"},"action":"harvest","summary":"good-harvest","bonus":1.2600000000000011},{"rt":1085.7999999970198,"stimulus":"\n                    <p><b>Action: <em>harvest</em></b></p>\n                    <p>This is the bee that you just saw.</p>\n                    <img src=\"bees-with-color/bee-B2DF.svg\" width=\"200\">\n                    <p><span class=\"greenText\"><b>Successful harvest!</b></span><br>Your pay has increased by $0.02. Your bonus pay is now $0.48.</p>\n            ","response":0,"trial_type":"html-button-response","trial_index":24,"time_elapsed":321902,"internal_node_id":"0.0-4.0-1.8","subject_id":"61455c7caa8b0cfe8444a63b","study_id":"6197b3f67c2b5cd3b6d9596a","session_id":"6197b5ca698a415f67ddc4ce","condition":"contingent","relevant_dimensions":["antennae","legs"],"bee_group":{"antennae":"A","wings":"X","pattern":"X","legs":"M"},"bonus":1.2600000000000011},{"rt":2180.5,"stimulus":"bees-with-color/bee-B1DF.svg","response":0,"trial_type":"image-button-response","trial_index":25,"time_elapsed":324084,"internal_node_id":"0.0-4.0-0.9","subject_id":"61455c7caa8b0cfe8444a63b","study_id":"6197b3f67c2b5cd3b6d9596a","session_id":"6197b5ca698a415f67ddc4ce","condition":"contingent","relevant_dimensions":["antennae","legs"],"bee_group":{"antennae":"A","wings":"X","pattern":"X","legs":"M"},"action":"harvest","summary":"good-harvest","bonus":1.2600000000000011},{"rt":958,"stimulus":"\n                    <p><b>Action: <em>harvest</em></b></p>\n                    <p>This is the bee that you just saw.</p>\n                    <img src=\"bees-with-color/bee-B1DF.svg\" width=\"200\">\n                    <p><span class=\"greenText\"><b>Successful harvest!</b></span><br>Your pay has increased by $0.02. Your bonus pay is now $0.50.</p>\n            ","response":0,"trial_type":"html-button-response","trial_index":26,"time_elapsed":325045,"internal_node_id":"0.0-4.0-1.9","subject_id":"61455c7caa8b0cfe8444a63b","study_id":"6197b3f67c2b5cd3b6d9596a","session_id":"6197b5ca698a415f67ddc4ce","condition":"contingent","relevant_dimensions":["antennae","legs"],"bee_group":{"antennae":"A","wings":"X","pattern":"X","legs":"M"},"bonus":1.2600000000000011},{"rt":2453,"stimulus":"bees-with-color/bee-A2DF.svg","response":0,"trial_type":"image-button-response","trial_index":27,"time_elapsed":327501,"internal_node_id":"0.0-4.0-0.10","subject_id":"61455c7caa8b0cfe8444a63b","study_id":"6197b3f67c2b5cd3b6d9596a","session_id":"6197b5ca698a415f67ddc4ce","condition":"contingent","relevant_dimensions":["antennae","legs"],"bee_group":{"antennae":"A","wings":"X","pattern":"X","legs":"M"},"action":"harvest","summary":"good-harvest","bonus":1.2600000000000011},{"rt":2605,"stimulus":"\n                    <p><b>Action: <em>harvest</em></b></p>\n                    <p>This is the bee that you just saw.</p>\n                    <img src=\"bees-with-color/bee-A2DF.svg\" width=\"200\">\n                    <p><span class=\"greenText\"><b>Successful harvest!</b></span><br>Your pay has increased by $0.02. Your bonus pay is now $0.52.</p>\n            ","response":0,"trial_type":"html-button-response","trial_index":28,"time_elapsed":330109,"internal_node_id":"0.0-4.0-1.10","subject_id":"61455c7caa8b0cfe8444a63b","study_id":"6197b3f67c2b5cd3b6d9596a","session_id":"6197b5ca698a415f67ddc4ce","condition":"contingent","relevant_dimensions":["antennae","legs"],"bee_group":{"antennae":"A","wings":"X","pattern":"X","legs":"M"},"bonus":1.2600000000000011},{"rt":2701.2000000029802,"stimulus":"bees-with-color/bee-B2SF.svg","response":0,"trial_type":"image-button-response","trial_index":29,"time_elapsed":332813,"internal_node_id":"0.0-4.0-0.11","subject_id":"61455c7caa8b0cfe8444a63b","study_id":"6197b3f67c2b5cd3b6d9596a","session_id":"6197b5ca698a415f67ddc4ce","condition":"contingent","relevant_dimensions":["antennae","legs"],"bee_group":{"antennae":"A","wings":"X","pattern":"X","legs":"M"},"action":"harvest","summary":"good-harvest","bonus":1.2600000000000011},{"rt":1053.2000000029802,"stimulus":"\n                    <p><b>Action: <em>harvest</em></b></p>\n                    <p>This is the bee that you just saw.</p>\n                    <img src=\"bees-with-color/bee-B2SF.svg\" width=\"200\">\n                    <p><span class=\"greenText\"><b>Successful harvest!</b></span><br>Your pay has increased by $0.02. Your bonus pay is now $0.54.</p>\n            ","response":0,"trial_type":"html-button-response","trial_index":30,"time_elapsed":333869,"internal_node_id":"0.0-4.0-1.11","subject_id":"61455c7caa8b0cfe8444a63b","study_id":"6197b3f67c2b5cd3b6d9596a","session_id":"6197b5ca698a415f67ddc4ce","condition":"contingent","relevant_dimensions":["antennae","legs"],"bee_group":{"antennae":"A","wings":"X","pattern":"X","legs":"M"},"bonus":1.2600000000000011},{"rt":1773.7000000029802,"stimulus":"bees-with-color/bee-B1SF.svg","response":0,"trial_type":"image-button-response","trial_index":31,"time_elapsed":335645,"internal_node_id":"0.0-4.0-0.12","subject_id":"61455c7caa8b0cfe8444a63b","study_id":"6197b3f67c2b5cd3b6d9596a","session_id":"6197b5ca698a415f67ddc4ce","condition":"contingent","relevant_dimensions":["antennae","legs"],"bee_group":{"antennae":"A","wings":"X","pattern":"X","legs":"M"},"action":"harvest","summary":"good-harvest","bonus":1.2600000000000011},{"rt":1389.4000000059605,"stimulus":"\n                    <p><b>Action: <em>harvest</em></b></p>\n                    <p>This is the bee that you just saw.</p>\n                    <img src=\"bees-with-color/bee-B1SF.svg\" width=\"200\">\n                    <p><span class=\"greenText\"><b>Successful harvest!</b></span><br>Your pay has increased by $0.02. Your bonus pay is now $0.56.</p>\n            ","response":0,"trial_type":"html-button-response","trial_index":32,"time_elapsed":337037,"internal_node_id":"0.0-4.0-1.12","subject_id":"61455c7caa8b0cfe8444a63b","study_id":"6197b3f67c2b5cd3b6d9596a","session_id":"6197b5ca698a415f67ddc4ce","condition":"contingent","relevant_dimensions":["antennae","legs"],"bee_group":{"antennae":"A","wings":"X","pattern":"X","legs":"M"},"bonus":1.2600000000000011},{"rt":2788.6000000089407,"stimulus":"bees-with-color/bee-B1SM.svg","response":0,"trial_type":"image-button-response","trial_index":33,"time_elapsed":339829,"internal_node_id":"0.0-4.0-0.13","subject_id":"61455c7caa8b0cfe8444a63b","study_id":"6197b3f67c2b5cd3b6d9596a","session_id":"6197b5ca698a415f67ddc4ce","condition":"contingent","relevant_dimensions":["antennae","legs"],"bee_group":{"antennae":"A","wings":"X","pattern":"X","legs":"M"},"action":"harvest","summary":"good-harvest","bonus":1.2600000000000011},{"rt":988.8999999910593,"stimulus":"\n                    <p><b>Action: <em>harvest</em></b></p>\n                    <p>This is the bee that you just saw.</p>\n                    <img src=\"bees-with-color/bee-B1SM.svg\" width=\"200\">\n                    <p><span class=\"greenText\"><b>Successful harvest!</b></span><br>Your pay has increased by $0.02. Your bonus pay is now $0.58.</p>\n            ","response":0,"trial_type":"html-button-response","trial_index":34,"time_elapsed":340821,"internal_node_id":"0.0-4.0-1.13","subject_id":"61455c7caa8b0cfe8444a63b","study_id":"6197b3f67c2b5cd3b6d9596a","session_id":"6197b5ca698a415f67ddc4ce","condition":"contingent","relevant_dimensions":["antennae","legs"],"bee_group":{"antennae":"A","wings":"X","pattern":"X","legs":"M"},"bonus":1.2600000000000011},{"rt":2650.7999999970198,"stimulus":"bees-with-color/bee-A2SM.svg","response":0,"trial_type":"image-button-response","trial_index":35,"time_elapsed":343477,"internal_node_id":"0.0-4.0-0.14","subject_id":"61455c7caa8b0cfe8444a63b","study_id":"6197b3f67c2b5cd3b6d9596a","session_id":"6197b5ca698a415f67ddc4ce","condition":"contingent","relevant_dimensions":["antennae","legs"],"bee_group":{"antennae":"A","wings":"X","pattern":"X","legs":"M"},"action":"harvest","summary":"bad-harvest","bonus":1.2600000000000011},{"rt":12469.5,"stimulus":"\n                    <p><b>Action: <em>harvest</em></b></p>\n                    <p>This is the bee that you just saw.</p>\n                    <img src=\"bees-with-color/bee-A2SM.svg\" width=\"200\">\n                    <p><span class=\"redText\">Bad choice, the bee was angry.</span><br><b>You have been stung!</b><br>Your pay has been decreased by $0.10. Your bonus pay is now $0.48.</p>\n            ","response":0,"trial_type":"html-button-response","trial_index":36,"time_elapsed":355949,"internal_node_id":"0.0-4.0-1.14","subject_id":"61455c7caa8b0cfe8444a63b","study_id":"6197b3f67c2b5cd3b6d9596a","session_id":"6197b5ca698a415f67ddc4ce","condition":"contingent","relevant_dimensions":["antennae","legs"],"bee_group":{"antennae":"A","wings":"X","pattern":"X","legs":"M"},"bonus":1.2600000000000011},{"rt":1605.2000000029802,"stimulus":"bees-with-color/bee-A2DM.svg","response":0,"trial_type":"image-button-response","trial_index":37,"time_elapsed":357558,"internal_node_id":"0.0-4.0-0.15","subject_id":"61455c7caa8b0cfe8444a63b","study_id":"6197b3f67c2b5cd3b6d9596a","session_id":"6197b5ca698a415f67ddc4ce","condition":"contingent","relevant_dimensions":["antennae","legs"],"bee_group":{"antennae":"A","wings":"X","pattern":"X","legs":"M"},"action":"harvest","summary":"bad-harvest","bonus":1.2600000000000011},{"rt":5908.399999991059,"stimulus":"\n                    <p><b>Action: <em>harvest</em></b></p>\n                    <p>This is the bee that you just saw.</p>\n                    <img src=\"bees-with-color/bee-A2DM.svg\" width=\"200\">\n                    <p><span class=\"redText\">Bad choice, the bee was angry.</span><br><b>You have been stung!</b><br>Your pay has been decreased by $0.10. Your bonus pay is now $0.38.</p>\n            ","response":0,"trial_type":"html-button-response","trial_index":38,"time_elapsed":363468,"internal_node_id":"0.0-4.0-1.15","subject_id":"61455c7caa8b0cfe8444a63b","study_id":"6197b3f67c2b5cd3b6d9596a","session_id":"6197b5ca698a415f67ddc4ce","condition":"contingent","relevant_dimensions":["antennae","legs"],"bee_group":{"antennae":"A","wings":"X","pattern":"X","legs":"M"},"bonus":1.2600000000000011},{"rt":1437,"stimulus":"bees-with-color/bee-B2SF.svg","response":0,"trial_type":"image-button-response","trial_index":39,"time_elapsed":364909,"internal_node_id":"0.0-4.0-0.16","subject_id":"61455c7caa8b0cfe8444a63b","study_id":"6197b3f67c2b5cd3b6d9596a","session_id":"6197b5ca698a415f67ddc4ce","condition":"contingent","relevant_dimensions":["antennae","legs"],"bee_group":{"antennae":"A","wings":"X","pattern":"X","legs":"M"},"action":"harvest","summary":"good-harvest","bonus":1.2600000000000011},{"rt":981.8999999910593,"stimulus":"\n                    <p><b>Action: <em>harvest</em></b></p>\n                    <p>This is the bee that you just saw.</p>\n                    <img src=\"bees-with-color/bee-B2SF.svg\" width=\"200\">\n                    <p><span class=\"greenText\"><b>Successful harvest!</b></span><br>Your pay has increased by $0.02. Your bonus pay is now $0.40.</p>\n            ","response":0,"trial_type":"html-button-response","trial_index":40,"time_elapsed":365893,"internal_node_id":"0.0-4.0-1.16","subject_id":"61455c7caa8b0cfe8444a63b","study_id":"6197b3f67c2b5cd3b6d9596a","session_id":"6197b5ca698a415f67ddc4ce","condition":"contingent","relevant_dimensions":["antennae","legs"],"bee_group":{"antennae":"A","wings":"X","pattern":"X","legs":"M"},"bonus":1.2600000000000011},{"rt":1254.2000000029802,"stimulus":"bees-with-color/bee-B2DF.svg","response":0,"trial_type":"image-button-response","trial_index":41,"time_elapsed":367149,"internal_node_id":"0.0-4.0-0.17","subject_id":"61455c7caa8b0cfe8444a63b","study_id":"6197b3f67c2b5cd3b6d9596a","session_id":"6197b5ca698a415f67ddc4ce","condition":"contingent","relevant_dimensions":["antennae","legs"],"bee_group":{"antennae":"A","wings":"X","pattern":"X","legs":"M"},"action":"harvest","summary":"good-harvest","bonus":1.2600000000000011},{"rt":838.5,"stimulus":"\n                    <p><b>Action: <em>harvest</em></b></p>\n                    <p>This is the bee that you just saw.</p>\n                    <img src=\"bees-with-color/bee-B2DF.svg\" width=\"200\">\n                    <p><span class=\"greenText\"><b>Successful harvest!</b></span><br>Your pay has increased by $0.02. Your bonus pay is now $0.42.</p>\n            ","response":0,"trial_type":"html-button-response","trial_index":42,"time_elapsed":367990,"internal_node_id":"0.0-4.0-1.17","subject_id":"61455c7caa8b0cfe8444a63b","study_id":"6197b3f67c2b5cd3b6d9596a","session_id":"6197b5ca698a415f67ddc4ce","condition":"contingent","relevant_dimensions":["antennae","legs"],"bee_group":{"antennae":"A","wings":"X","pattern":"X","legs":"M"},"bonus":1.2600000000000011},{"rt":2117,"stimulus":"bees-with-color/bee-A2SF.svg","response":0,"trial_type":"image-button-response","trial_index":43,"time_elapsed":370110,"internal_node_id":"0.0-4.0-0.18","subject_id":"61455c7caa8b0cfe8444a63b","study_id":"6197b3f67c2b5cd3b6d9596a","session_id":"6197b5ca698a415f67ddc4ce","condition":"contingent","relevant_dimensions":["antennae","legs"],"bee_group":{"antennae":"A","wings":"X","pattern":"X","legs":"M"},"action":"harvest","summary":"good-harvest","bonus":1.2600000000000011},{"rt":803.7000000029802,"stimulus":"\n                    <p><b>Action: <em>harvest</em></b></p>\n                    <p>This is the bee that you just saw.</p>\n                    <img src=\"bees-with-color/bee-A2SF.svg\" width=\"200\">\n                    <p><span class=\"greenText\"><b>Successful harvest!</b></span><br>Your pay has increased by $0.02. Your bonus pay is now $0.44.</p>\n            ","response":0,"trial_type":"html-button-response","trial_index":44,"time_elapsed":370917,"internal_node_id":"0.0-4.0-1.18","subject_id":"61455c7caa8b0cfe8444a63b","study_id":"6197b3f67c2b5cd3b6d9596a","session_id":"6197b5ca698a415f67ddc4ce","condition":"contingent","relevant_dimensions":["antennae","legs"],"bee_group":{"antennae":"A","wings":"X","pattern":"X","legs":"M"},"bonus":1.2600000000000011},{"rt":2487.5999999940395,"stimulus":"bees-with-color/bee-A1DM.svg","response":0,"trial_type":"image-button-response","trial_index":45,"time_elapsed":373407,"internal_node_id":"0.0-4.0-0.19","subject_id":"61455c7caa8b0cfe8444a63b","study_id":"6197b3f67c2b5cd3b6d9596a","session_id":"6197b5ca698a415f67ddc4ce","condition":"contingent","relevant_dimensions":["antennae","legs"],"bee_group":{"antennae":"A","wings":"X","pattern":"X","legs":"M"},"action":"harvest","summary":"bad-harvest","bonus":1.2600000000000011},{"rt":7563.899999991059,"stimulus":"\n                    <p><b>Action: <em>harvest</em></b></p>\n                    <p>This is the bee that you just saw.</p>\n                    <img src=\"bees-with-color/bee-A1DM.svg\" width=\"200\">\n                    <p><span class=\"redText\">Bad choice, the bee was angry.</span><br><b>You have been stung!</b><br>Your pay has been decreased by $0.10. Your bonus pay is now $0.34.</p>\n            ","response":0,"trial_type":"html-button-response","trial_index":46,"time_elapsed":380975,"internal_node_id":"0.0-4.0-1.19","subject_id":"61455c7caa8b0cfe8444a63b","study_id":"6197b3f67c2b5cd3b6d9596a","session_id":"6197b5ca698a415f67ddc4ce","condition":"contingent","relevant_dimensions":["antennae","legs"],"bee_group":{"antennae":"A","wings":"X","pattern":"X","legs":"M"},"bonus":1.2600000000000011},{"rt":2684.2000000029802,"stimulus":"bees-with-color/bee-B1DF.svg","response":0,"trial_type":"image-button-response","trial_index":47,"time_elapsed":383662,"internal_node_id":"0.0-4.0-0.20","subject_id":"61455c7caa8b0cfe8444a63b","study_id":"6197b3f67c2b5cd3b6d9596a","session_id":"6197b5ca698a415f67ddc4ce","condition":"contingent","relevant_dimensions":["antennae","legs"],"bee_group":{"antennae":"A","wings":"X","pattern":"X","legs":"M"},"action":"harvest","summary":"good-harvest","bonus":1.2600000000000011},{"rt":838.5999999940395,"stimulus":"\n                    <p><b>Action: <em>harvest</em></b></p>\n                    <p>This is the bee that you just saw.</p>\n                    <img src=\"bees-with-color/bee-B1DF.svg\" width=\"200\">\n                    <p><span class=\"greenText\"><b>Successful harvest!</b></span><br>Your pay has increased by $0.02. Your bonus pay is now $0.36.</p>\n            ","response":0,"trial_type":"html-button-response","trial_index":48,"time_elapsed":384503,"internal_node_id":"0.0-4.0-1.20","subject_id":"61455c7caa8b0cfe8444a63b","study_id":"6197b3f67c2b5cd3b6d9596a","session_id":"6197b5ca698a415f67ddc4ce","condition":"contingent","relevant_dimensions":["antennae","legs"],"bee_group":{"antennae":"A","wings":"X","pattern":"X","legs":"M"},"bonus":1.2600000000000011},{"rt":3261.0999999940395,"stimulus":"bees-with-color/bee-A2DF.svg","response":1,"trial_type":"image-button-response","trial_index":49,"time_elapsed":387767,"internal_node_id":"0.0-4.0-0.21","subject_id":"61455c7caa8b0cfe8444a63b","study_id":"6197b3f67c2b5cd3b6d9596a","session_id":"6197b5ca698a415f67ddc4ce","condition":"contingent","relevant_dimensions":["antennae","legs"],"bee_group":{"antennae":"A","wings":"X","pattern":"X","legs":"M"},"action":"avoid","summary":"bad-avoid","bonus":1.2600000000000011},{"rt":2437.4000000059605,"stimulus":"\n                    <p><b>Action: <em>avoid</em></b></p>\n                    <p>This is the bee that you just saw.</p>\n                    <img src=\"bees-with-color/bee-A2DF.svg\" width=\"200\">\n                    <p><br>Your bonus pay is unchanged, and remains at $0.36.</p>\n            ","response":0,"trial_type":"html-button-response","trial_index":50,"time_elapsed":390208,"internal_node_id":"0.0-4.0-1.21","subject_id":"61455c7caa8b0cfe8444a63b","study_id":"6197b3f67c2b5cd3b6d9596a","session_id":"6197b5ca698a415f67ddc4ce","condition":"contingent","relevant_dimensions":["antennae","legs"],"bee_group":{"antennae":"A","wings":"X","pattern":"X","legs":"M"},"bonus":1.2600000000000011},{"rt":3540.0999999940395,"stimulus":"bees-with-color/bee-A2DM.svg","response":1,"trial_type":"image-button-response","trial_index":51,"time_elapsed":393750,"internal_node_id":"0.0-4.0-0.22","subject_id":"61455c7caa8b0cfe8444a63b","study_id":"6197b3f67c2b5cd3b6d9596a","session_id":"6197b5ca698a415f67ddc4ce","condition":"contingent","relevant_dimensions":["antennae","legs"],"bee_group":{"antennae":"A","wings":"X","pattern":"X","legs":"M"},"action":"avoid","summary":"good-avoid","bonus":1.2600000000000011},{"rt":1549.7000000029802,"stimulus":"\n                    <p><b>Action: <em>avoid</em></b></p>\n                    <p>This is the bee that you just saw.</p>\n                    <img src=\"bees-with-color/bee-A2DM.svg\" width=\"200\">\n                    <p><br>Your bonus pay is unchanged, and remains at $0.36.</p>\n            ","response":0,"trial_type":"html-button-response","trial_index":52,"time_elapsed":395302,"internal_node_id":"0.0-4.0-1.22","subject_id":"61455c7caa8b0cfe8444a63b","study_id":"6197b3f67c2b5cd3b6d9596a","session_id":"6197b5ca698a415f67ddc4ce","condition":"contingent","relevant_dimensions":["antennae","legs"],"bee_group":{"antennae":"A","wings":"X","pattern":"X","legs":"M"},"bonus":1.2600000000000011},{"rt":3094.2999999970198,"stimulus":"bees-with-color/bee-B1SF.svg","response":0,"trial_type":"image-button-response","trial_index":53,"time_elapsed":398400,"internal_node_id":"0.0-4.0-0.23","subject_id":"61455c7caa8b0cfe8444a63b","study_id":"6197b3f67c2b5cd3b6d9596a","session_id":"6197b5ca698a415f67ddc4ce","condition":"contingent","relevant_dimensions":["antennae","legs"],"bee_group":{"antennae":"A","wings":"X","pattern":"X","legs":"M"},"action":"harvest","summary":"good-harvest","bonus":1.2600000000000011},{"rt":1020.7999999970198,"stimulus":"\n                    <p><b>Action: <em>harvest</em></b></p>\n                    <p>This is the bee that you just saw.</p>\n                    <img src=\"bees-with-color/bee-B1SF.svg\" width=\"200\">\n                    <p><span class=\"greenText\"><b>Successful harvest!</b></span><br>Your pay has increased by $0.02. Your bonus pay is now $0.38.</p>\n            ","response":0,"trial_type":"html-button-response","trial_index":54,"time_elapsed":399423,"internal_node_id":"0.0-4.0-1.23","subject_id":"61455c7caa8b0cfe8444a63b","study_id":"6197b3f67c2b5cd3b6d9596a","session_id":"6197b5ca698a415f67ddc4ce","condition":"contingent","relevant_dimensions":["antennae","legs"],"bee_group":{"antennae":"A","wings":"X","pattern":"X","legs":"M"},"bonus":1.2600000000000011},{"rt":3420.0999999940395,"stimulus":"bees-with-color/bee-A1SM.svg","response":1,"trial_type":"image-button-response","trial_index":55,"time_elapsed":402847,"internal_node_id":"0.0-4.0-0.24","subject_id":"61455c7caa8b0cfe8444a63b","study_id":"6197b3f67c2b5cd3b6d9596a","session_id":"6197b5ca698a415f67ddc4ce","condition":"contingent","relevant_dimensions":["antennae","legs"],"bee_group":{"antennae":"A","wings":"X","pattern":"X","legs":"M"},"action":"avoid","summary":"good-avoid","bonus":1.2600000000000011},{"rt":1478.0999999940395,"stimulus":"\n                    <p><b>Action: <em>avoid</em></b></p>\n                    <p>This is the bee that you just saw.</p>\n                    <img src=\"bees-with-color/bee-A1SM.svg\" width=\"200\">\n                    <p><br>Your bonus pay is unchanged, and remains at $0.38.</p>\n            ","response":0,"trial_type":"html-button-response","trial_index":56,"time_elapsed":404328,"internal_node_id":"0.0-4.0-1.24","subject_id":"61455c7caa8b0cfe8444a63b","study_id":"6197b3f67c2b5cd3b6d9596a","session_id":"6197b5ca698a415f67ddc4ce","condition":"contingent","relevant_dimensions":["antennae","legs"],"bee_group":{"antennae":"A","wings":"X","pattern":"X","legs":"M"},"bonus":1.2600000000000011},{"rt":2034.2000000029802,"stimulus":"bees-with-color/bee-A2SM.svg","response":1,"trial_type":"image-button-response","trial_index":57,"time_elapsed":406367,"internal_node_id":"0.0-4.0-0.25","subject_id":"61455c7caa8b0cfe8444a63b","study_id":"6197b3f67c2b5cd3b6d9596a","session_id":"6197b5ca698a415f67ddc4ce","condition":"contingent","relevant_dimensions":["antennae","legs"],"bee_group":{"antennae":"A","wings":"X","pattern":"X","legs":"M"},"action":"avoid","summary":"good-avoid","bonus":1.2600000000000011},{"rt":941.8999999910593,"stimulus":"\n                    <p><b>Action: <em>avoid</em></b></p>\n                    <p>This is the bee that you just saw.</p>\n                    <img src=\"bees-with-color/bee-A2SM.svg\" width=\"200\">\n                    <p><br>Your bonus pay is unchanged, and remains at $0.38.</p>\n            ","response":0,"trial_type":"html-button-response","trial_index":58,"time_elapsed":407311,"internal_node_id":"0.0-4.0-1.25","subject_id":"61455c7caa8b0cfe8444a63b","study_id":"6197b3f67c2b5cd3b6d9596a","session_id":"6197b5ca698a415f67ddc4ce","condition":"contingent","relevant_dimensions":["antennae","legs"],"bee_group":{"antennae":"A","wings":"X","pattern":"X","legs":"M"},"bonus":1.2600000000000011},{"rt":1701.3999999910593,"stimulus":"bees-with-color/bee-B1SM.svg","response":0,"trial_type":"image-button-response","trial_index":59,"time_elapsed":409015,"internal_node_id":"0.0-4.0-0.26","subject_id":"61455c7caa8b0cfe8444a63b","study_id":"6197b3f67c2b5cd3b6d9596a","session_id":"6197b5ca698a415f67ddc4ce","condition":"contingent","relevant_dimensions":["antennae","legs"],"bee_group":{"antennae":"A","wings":"X","pattern":"X","legs":"M"},"action":"harvest","summary":"good-harvest","bonus":1.2600000000000011},{"rt":1165.300000011921,"stimulus":"\n                    <p><b>Action: <em>harvest</em></b></p>\n                    <p>This is the bee that you just saw.</p>\n                    <img src=\"bees-with-color/bee-B1SM.svg\" width=\"200\">\n                    <p><span class=\"greenText\"><b>Successful harvest!</b></span><br>Your pay has increased by $0.02. Your bonus pay is now $0.40.</p>\n            ","response":0,"trial_type":"html-button-response","trial_index":60,"time_elapsed":410183,"internal_node_id":"0.0-4.0-1.26","subject_id":"61455c7caa8b0cfe8444a63b","study_id":"6197b3f67c2b5cd3b6d9596a","session_id":"6197b5ca698a415f67ddc4ce","condition":"contingent","relevant_dimensions":["antennae","legs"],"bee_group":{"antennae":"A","wings":"X","pattern":"X","legs":"M"},"bonus":1.2600000000000011},{"rt":3549.4000000059605,"stimulus":"bees-with-color/bee-B2SM.svg","response":0,"trial_type":"image-button-response","trial_index":61,"time_elapsed":413735,"internal_node_id":"0.0-4.0-0.27","subject_id":"61455c7caa8b0cfe8444a63b","study_id":"6197b3f67c2b5cd3b6d9596a","session_id":"6197b5ca698a415f67ddc4ce","condition":"contingent","relevant_dimensions":["antennae","legs"],"bee_group":{"antennae":"A","wings":"X","pattern":"X","legs":"M"},"action":"harvest","summary":"good-harvest","bonus":1.2600000000000011},{"rt":1012.7000000029802,"stimulus":"\n                    <p><b>Action: <em>harvest</em></b></p>\n                    <p>This is the bee that you just saw.</p>\n                    <img src=\"bees-with-color/bee-B2SM.svg\" width=\"200\">\n                    <p><span class=\"greenText\"><b>Successful harvest!</b></span><br>Your pay has increased by $0.02. Your bonus pay is now $0.42.</p>\n            ","response":0,"trial_type":"html-button-response","trial_index":62,"time_elapsed":414751,"internal_node_id":"0.0-4.0-1.27","subject_id":"61455c7caa8b0cfe8444a63b","study_id":"6197b3f67c2b5cd3b6d9596a","session_id":"6197b5ca698a415f67ddc4ce","condition":"contingent","relevant_dimensions":["antennae","legs"],"bee_group":{"antennae":"A","wings":"X","pattern":"X","legs":"M"},"bonus":1.2600000000000011},{"rt":1501.4000000059605,"stimulus":"bees-with-color/bee-B1DM.svg","response":0,"trial_type":"image-button-response","trial_index":63,"time_elapsed":416255,"internal_node_id":"0.0-4.0-0.28","subject_id":"61455c7caa8b0cfe8444a63b","study_id":"6197b3f67c2b5cd3b6d9596a","session_id":"6197b5ca698a415f67ddc4ce","condition":"contingent","relevant_dimensions":["antennae","legs"],"bee_group":{"antennae":"A","wings":"X","pattern":"X","legs":"M"},"action":"harvest","summary":"good-harvest","bonus":1.2600000000000011},{"rt":902.2000000029802,"stimulus":"\n                    <p><b>Action: <em>harvest</em></b></p>\n                    <p>This is the bee that you just saw.</p>\n                    <img src=\"bees-with-color/bee-B1DM.svg\" width=\"200\">\n                    <p><span class=\"greenText\"><b>Successful harvest!</b></span><br>Your pay has increased by $0.02. Your bonus pay is now $0.44.</p>\n            ","response":0,"trial_type":"html-button-response","trial_index":64,"time_elapsed":417160,"internal_node_id":"0.0-4.0-1.28","subject_id":"61455c7caa8b0cfe8444a63b","study_id":"6197b3f67c2b5cd3b6d9596a","session_id":"6197b5ca698a415f67ddc4ce","condition":"contingent","relevant_dimensions":["antennae","legs"],"bee_group":{"antennae":"A","wings":"X","pattern":"X","legs":"M"},"bonus":1.2600000000000011},{"rt":3139.2000000029802,"stimulus":"bees-with-color/bee-A1SF.svg","response":0,"trial_type":"image-button-response","trial_index":65,"time_elapsed":420303,"internal_node_id":"0.0-4.0-0.29","subject_id":"61455c7caa8b0cfe8444a63b","study_id":"6197b3f67c2b5cd3b6d9596a","session_id":"6197b5ca698a415f67ddc4ce","condition":"contingent","relevant_dimensions":["antennae","legs"],"bee_group":{"antennae":"A","wings":"X","pattern":"X","legs":"M"},"action":"harvest","summary":"good-harvest","bonus":1.2600000000000011},{"rt":1118.5,"stimulus":"\n                    <p><b>Action: <em>harvest</em></b></p>\n                    <p>This is the bee that you just saw.</p>\n                    <img src=\"bees-with-color/bee-A1SF.svg\" width=\"200\">\n                    <p><span class=\"greenText\"><b>Successful harvest!</b></span><br>Your pay has increased by $0.02. Your bonus pay is now $0.46.</p>\n            ","response":0,"trial_type":"html-button-response","trial_index":66,"time_elapsed":421423,"internal_node_id":"0.0-4.0-1.29","subject_id":"61455c7caa8b0cfe8444a63b","study_id":"6197b3f67c2b5cd3b6d9596a","session_id":"6197b5ca698a415f67ddc4ce","condition":"contingent","relevant_dimensions":["antennae","legs"],"bee_group":{"antennae":"A","wings":"X","pattern":"X","legs":"M"},"bonus":1.2600000000000011},{"rt":1804.2999999970198,"stimulus":"bees-with-color/bee-A1DF.svg","response":0,"trial_type":"image-button-response","trial_index":67,"time_elapsed":423231,"internal_node_id":"0.0-4.0-0.30","subject_id":"61455c7caa8b0cfe8444a63b","study_id":"6197b3f67c2b5cd3b6d9596a","session_id":"6197b5ca698a415f67ddc4ce","condition":"contingent","relevant_dimensions":["antennae","legs"],"bee_group":{"antennae":"A","wings":"X","pattern":"X","legs":"M"},"action":"harvest","summary":"good-harvest","bonus":1.2600000000000011},{"rt":877.1000000089407,"stimulus":"\n                    <p><b>Action: <em>harvest</em></b></p>\n                    <p>This is the bee that you just saw.</p>\n                    <img src=\"bees-with-color/bee-A1DF.svg\" width=\"200\">\n                    <p><span class=\"greenText\"><b>Successful harvest!</b></span><br>Your pay has increased by $0.02. Your bonus pay is now $0.48.</p>\n            ","response":0,"trial_type":"html-button-response","trial_index":68,"time_elapsed":424111,"internal_node_id":"0.0-4.0-1.30","subject_id":"61455c7caa8b0cfe8444a63b","study_id":"6197b3f67c2b5cd3b6d9596a","session_id":"6197b5ca698a415f67ddc4ce","condition":"contingent","relevant_dimensions":["antennae","legs"],"bee_group":{"antennae":"A","wings":"X","pattern":"X","legs":"M"},"bonus":1.2600000000000011},{"rt":2030.6000000089407,"stimulus":"bees-with-color/bee-B2DM.svg","response":0,"trial_type":"image-button-response","trial_index":69,"time_elapsed":426144,"internal_node_id":"0.0-4.0-0.31","subject_id":"61455c7caa8b0cfe8444a63b","study_id":"6197b3f67c2b5cd3b6d9596a","session_id":"6197b5ca698a415f67ddc4ce","condition":"contingent","relevant_dimensions":["antennae","legs"],"bee_group":{"antennae":"A","wings":"X","pattern":"X","legs":"M"},"action":"harvest","summary":"good-harvest","bonus":1.2600000000000011},{"rt":1100.2000000029802,"stimulus":"\n                    <p><b>Action: <em>harvest</em></b></p>\n                    <p>This is the bee that you just saw.</p>\n                    <img src=\"bees-with-color/bee-B2DM.svg\" width=\"200\">\n                    <p><span class=\"greenText\"><b>Successful harvest!</b></span><br>Your pay has increased by $0.02. Your bonus pay is now $0.50.</p>\n            ","response":0,"trial_type":"html-button-response","trial_index":70,"time_elapsed":427247,"internal_node_id":"0.0-4.0-1.31","subject_id":"61455c7caa8b0cfe8444a63b","study_id":"6197b3f67c2b5cd3b6d9596a","session_id":"6197b5ca698a415f67ddc4ce","condition":"contingent","relevant_dimensions":["antennae","legs"],"bee_group":{"antennae":"A","wings":"X","pattern":"X","legs":"M"},"bonus":1.2600000000000011},{"rt":3028.0999999940395,"stimulus":"bees-with-color/bee-A1DM.svg","response":1,"trial_type":"image-button-response","trial_index":71,"time_elapsed":430278,"internal_node_id":"0.0-4.0-0.32","subject_id":"61455c7caa8b0cfe8444a63b","study_id":"6197b3f67c2b5cd3b6d9596a","session_id":"6197b5ca698a415f67ddc4ce","condition":"contingent","relevant_dimensions":["antennae","legs"],"bee_group":{"antennae":"A","wings":"X","pattern":"X","legs":"M"},"action":"avoid","summary":"good-avoid","bonus":1.2600000000000011},{"rt":1269.300000011921,"stimulus":"\n                    <p><b>Action: <em>avoid</em></b></p>\n                    <p>This is the bee that you just saw.</p>\n                    <img src=\"bees-with-color/bee-A1DM.svg\" width=\"200\">\n                    <p><br>Your bonus pay is unchanged, and remains at $0.50.</p>\n            ","response":0,"trial_type":"html-button-response","trial_index":72,"time_elapsed":431551,"internal_node_id":"0.0-4.0-1.32","subject_id":"61455c7caa8b0cfe8444a63b","study_id":"6197b3f67c2b5cd3b6d9596a","session_id":"6197b5ca698a415f67ddc4ce","condition":"contingent","relevant_dimensions":["antennae","legs"],"bee_group":{"antennae":"A","wings":"X","pattern":"X","legs":"M"},"bonus":1.2600000000000011},{"rt":2206.7000000029802,"stimulus":"bees-with-color/bee-B1DF.svg","response":0,"trial_type":"image-button-response","trial_index":73,"time_elapsed":433760,"internal_node_id":"0.0-4.0-0.33","subject_id":"61455c7caa8b0cfe8444a63b","study_id":"6197b3f67c2b5cd3b6d9596a","session_id":"6197b5ca698a415f67ddc4ce","condition":"contingent","relevant_dimensions":["antennae","legs"],"bee_group":{"antennae":"A","wings":"X","pattern":"X","legs":"M"},"action":"harvest","summary":"good-harvest","bonus":1.2600000000000011},{"rt":845.7000000029802,"stimulus":"\n                    <p><b>Action: <em>harvest</em></b></p>\n                    <p>This is the bee that you just saw.</p>\n                    <img src=\"bees-with-color/bee-B1DF.svg\" width=\"200\">\n                    <p><span class=\"greenText\"><b>Successful harvest!</b></span><br>Your pay has increased by $0.02. Your bonus pay is now $0.52.</p>\n            ","response":0,"trial_type":"html-button-response","trial_index":74,"time_elapsed":434608,"internal_node_id":"0.0-4.0-1.33","subject_id":"61455c7caa8b0cfe8444a63b","study_id":"6197b3f67c2b5cd3b6d9596a","session_id":"6197b5ca698a415f67ddc4ce","condition":"contingent","relevant_dimensions":["antennae","legs"],"bee_group":{"antennae":"A","wings":"X","pattern":"X","legs":"M"},"bonus":1.2600000000000011},{"rt":1628.7000000029802,"stimulus":"bees-with-color/bee-B1SM.svg","response":0,"trial_type":"image-button-response","trial_index":75,"time_elapsed":436239,"internal_node_id":"0.0-4.0-0.34","subject_id":"61455c7caa8b0cfe8444a63b","study_id":"6197b3f67c2b5cd3b6d9596a","session_id":"6197b5ca698a415f67ddc4ce","condition":"contingent","relevant_dimensions":["antennae","legs"],"bee_group":{"antennae":"A","wings":"X","pattern":"X","legs":"M"},"action":"harvest","summary":"good-harvest","bonus":1.2600000000000011},{"rt":925.2000000029802,"stimulus":"\n                    <p><b>Action: <em>harvest</em></b></p>\n                    <p>This is the bee that you just saw.</p>\n                    <img src=\"bees-with-color/bee-B1SM.svg\" width=\"200\">\n                    <p><span class=\"greenText\"><b>Successful harvest!</b></span><br>Your pay has increased by $0.02. Your bonus pay is now $0.54.</p>\n            ","response":0,"trial_type":"html-button-response","trial_index":76,"time_elapsed":437167,"internal_node_id":"0.0-4.0-1.34","subject_id":"61455c7caa8b0cfe8444a63b","study_id":"6197b3f67c2b5cd3b6d9596a","session_id":"6197b5ca698a415f67ddc4ce","condition":"contingent","relevant_dimensions":["antennae","legs"],"bee_group":{"antennae":"A","wings":"X","pattern":"X","legs":"M"},"bonus":1.2600000000000011},{"rt":1501.2000000029802,"stimulus":"bees-with-color/bee-B1SF.svg","response":0,"trial_type":"image-button-response","trial_index":77,"time_elapsed":438671,"internal_node_id":"0.0-4.0-0.35","subject_id":"61455c7caa8b0cfe8444a63b","study_id":"6197b3f67c2b5cd3b6d9596a","session_id":"6197b5ca698a415f67ddc4ce","condition":"contingent","relevant_dimensions":["antennae","legs"],"bee_group":{"antennae":"A","wings":"X","pattern":"X","legs":"M"},"action":"harvest","summary":"good-harvest","bonus":1.2600000000000011},{"rt":1077.7000000029802,"stimulus":"\n                    <p><b>Action: <em>harvest</em></b></p>\n                    <p>This is the bee that you just saw.</p>\n                    <img src=\"bees-with-color/bee-B1SF.svg\" width=\"200\">\n                    <p><span class=\"greenText\"><b>Successful harvest!</b></span><br>Your pay has increased by $0.02. Your bonus pay is now $0.56.</p>\n            ","response":0,"trial_type":"html-button-response","trial_index":78,"time_elapsed":439751,"internal_node_id":"0.0-4.0-1.35","subject_id":"61455c7caa8b0cfe8444a63b","study_id":"6197b3f67c2b5cd3b6d9596a","session_id":"6197b5ca698a415f67ddc4ce","condition":"contingent","relevant_dimensions":["antennae","legs"],"bee_group":{"antennae":"A","wings":"X","pattern":"X","legs":"M"},"bonus":1.2600000000000011},{"rt":2773.4000000059605,"stimulus":"bees-with-color/bee-B2DM.svg","response":0,"trial_type":"image-button-response","trial_index":79,"time_elapsed":442529,"internal_node_id":"0.0-4.0-0.36","subject_id":"61455c7caa8b0cfe8444a63b","study_id":"6197b3f67c2b5cd3b6d9596a","session_id":"6197b5ca698a415f67ddc4ce","condition":"contingent","relevant_dimensions":["antennae","legs"],"bee_group":{"antennae":"A","wings":"X","pattern":"X","legs":"M"},"action":"harvest","summary":"good-harvest","bonus":1.2600000000000011},{"rt":909.7000000029802,"stimulus":"\n                    <p><b>Action: <em>harvest</em></b></p>\n                    <p>This is the bee that you just saw.</p>\n                    <img src=\"bees-with-color/bee-B2DM.svg\" width=\"200\">\n                    <p><span class=\"greenText\"><b>Successful harvest!</b></span><br>Your pay has increased by $0.02. Your bonus pay is now $0.58.</p>\n            ","response":0,"trial_type":"html-button-response","trial_index":80,"time_elapsed":443441,"internal_node_id":"0.0-4.0-1.36","subject_id":"61455c7caa8b0cfe8444a63b","study_id":"6197b3f67c2b5cd3b6d9596a","session_id":"6197b5ca698a415f67ddc4ce","condition":"contingent","relevant_dimensions":["antennae","legs"],"bee_group":{"antennae":"A","wings":"X","pattern":"X","legs":"M"},"bonus":1.2600000000000011},{"rt":2044,"stimulus":"bees-with-color/bee-A2SF.svg","response":1,"trial_type":"image-button-response","trial_index":81,"time_elapsed":445488,"internal_node_id":"0.0-4.0-0.37","subject_id":"61455c7caa8b0cfe8444a63b","study_id":"6197b3f67c2b5cd3b6d9596a","session_id":"6197b5ca698a415f67ddc4ce","condition":"contingent","relevant_dimensions":["antennae","legs"],"bee_group":{"antennae":"A","wings":"X","pattern":"X","legs":"M"},"action":"avoid","summary":"bad-avoid","bonus":1.2600000000000011},{"rt":1030.0999999940395,"stimulus":"\n                    <p><b>Action: <em>avoid</em></b></p>\n                    <p>This is the bee that you just saw.</p>\n                    <img src=\"bees-with-color/bee-A2SF.svg\" width=\"200\">\n                    <p><br>Your bonus pay is unchanged, and remains at $0.58.</p>\n            ","response":0,"trial_type":"html-button-response","trial_index":82,"time_elapsed":446521,"internal_node_id":"0.0-4.0-1.37","subject_id":"61455c7caa8b0cfe8444a63b","study_id":"6197b3f67c2b5cd3b6d9596a","session_id":"6197b5ca698a415f67ddc4ce","condition":"contingent","relevant_dimensions":["antennae","legs"],"bee_group":{"antennae":"A","wings":"X","pattern":"X","legs":"M"},"bonus":1.2600000000000011},{"rt":1581.7000000029802,"stimulus":"bees-with-color/bee-B2DF.svg","response":0,"trial_type":"image-button-response","trial_index":83,"time_elapsed":448105,"internal_node_id":"0.0-4.0-0.38","subject_id":"61455c7caa8b0cfe8444a63b","study_id":"6197b3f67c2b5cd3b6d9596a","session_id":"6197b5ca698a415f67ddc4ce","condition":"contingent","relevant_dimensions":["antennae","legs"],"bee_group":{"antennae":"A","wings":"X","pattern":"X","legs":"M"},"action":"harvest","summary":"good-harvest","bonus":1.2600000000000011},{"rt":781.3000000119209,"stimulus":"\n                    <p><b>Action: <em>harvest</em></b></p>\n                    <p>This is the bee that you just saw.</p>\n                    <img src=\"bees-with-color/bee-B2DF.svg\" width=\"200\">\n                    <p><span class=\"greenText\"><b>Successful harvest!</b></span><br>Your pay has increased by $0.02. Your bonus pay is now $0.60.</p>\n            ","response":0,"trial_type":"html-button-response","trial_index":84,"time_elapsed":448889,"internal_node_id":"0.0-4.0-1.38","subject_id":"61455c7caa8b0cfe8444a63b","study_id":"6197b3f67c2b5cd3b6d9596a","session_id":"6197b5ca698a415f67ddc4ce","condition":"contingent","relevant_dimensions":["antennae","legs"],"bee_group":{"antennae":"A","wings":"X","pattern":"X","legs":"M"},"bonus":1.2600000000000011},{"rt":3029.4000000059605,"stimulus":"bees-with-color/bee-A1SM.svg","response":1,"trial_type":"image-button-response","trial_index":85,"time_elapsed":451920,"internal_node_id":"0.0-4.0-0.39","subject_id":"61455c7caa8b0cfe8444a63b","study_id":"6197b3f67c2b5cd3b6d9596a","session_id":"6197b5ca698a415f67ddc4ce","condition":"contingent","relevant_dimensions":["antennae","legs"],"bee_group":{"antennae":"A","wings":"X","pattern":"X","legs":"M"},"action":"avoid","summary":"good-avoid","bonus":1.2600000000000011},{"rt":1077,"stimulus":"\n                    <p><b>Action: <em>avoid</em></b></p>\n                    <p>This is the bee that you just saw.</p>\n                    <img src=\"bees-with-color/bee-A1SM.svg\" width=\"200\">\n                    <p><br>Your bonus pay is unchanged, and remains at $0.60.</p>\n            ","response":0,"trial_type":"html-button-response","trial_index":86,"time_elapsed":453000,"internal_node_id":"0.0-4.0-1.39","subject_id":"61455c7caa8b0cfe8444a63b","study_id":"6197b3f67c2b5cd3b6d9596a","session_id":"6197b5ca698a415f67ddc4ce","condition":"contingent","relevant_dimensions":["antennae","legs"],"bee_group":{"antennae":"A","wings":"X","pattern":"X","legs":"M"},"bonus":1.2600000000000011},{"rt":2493.0999999940395,"stimulus":"bees-with-color/bee-A1DF.svg","response":0,"trial_type":"image-button-response","trial_index":87,"time_elapsed":455496,"internal_node_id":"0.0-4.0-0.40","subject_id":"61455c7caa8b0cfe8444a63b","study_id":"6197b3f67c2b5cd3b6d9596a","session_id":"6197b5ca698a415f67ddc4ce","condition":"contingent","relevant_dimensions":["antennae","legs"],"bee_group":{"antennae":"A","wings":"X","pattern":"X","legs":"M"},"action":"harvest","summary":"good-harvest","bonus":1.2600000000000011},{"rt":863.6000000089407,"stimulus":"\n                    <p><b>Action: <em>harvest</em></b></p>\n                    <p>This is the bee that you just saw.</p>\n                    <img src=\"bees-with-color/bee-A1DF.svg\" width=\"200\">\n                    <p><span class=\"greenText\"><b>Successful harvest!</b></span><br>Your pay has increased by $0.02. Your bonus pay is now $0.62.</p>\n            ","response":0,"trial_type":"html-button-response","trial_index":88,"time_elapsed":456362,"internal_node_id":"0.0-4.0-1.40","subject_id":"61455c7caa8b0cfe8444a63b","study_id":"6197b3f67c2b5cd3b6d9596a","session_id":"6197b5ca698a415f67ddc4ce","condition":"contingent","relevant_dimensions":["antennae","legs"],"bee_group":{"antennae":"A","wings":"X","pattern":"X","legs":"M"},"bonus":1.2600000000000011},{"rt":3955.6000000089407,"stimulus":"bees-with-color/bee-A2DF.svg","response":1,"trial_type":"image-button-response","trial_index":89,"time_elapsed":460321,"internal_node_id":"0.0-4.0-0.41","subject_id":"61455c7caa8b0cfe8444a63b","study_id":"6197b3f67c2b5cd3b6d9596a","session_id":"6197b5ca698a415f67ddc4ce","condition":"contingent","relevant_dimensions":["antennae","legs"],"bee_group":{"antennae":"A","wings":"X","pattern":"X","legs":"M"},"action":"avoid","summary":"bad-avoid","bonus":1.2600000000000011},{"rt":997.3999999910593,"stimulus":"\n                    <p><b>Action: <em>avoid</em></b></p>\n                    <p>This is the bee that you just saw.</p>\n                    <img src=\"bees-with-color/bee-A2DF.svg\" width=\"200\">\n                    <p><br>Your bonus pay is unchanged, and remains at $0.62.</p>\n            ","response":0,"trial_type":"html-button-response","trial_index":90,"time_elapsed":461321,"internal_node_id":"0.0-4.0-1.41","subject_id":"61455c7caa8b0cfe8444a63b","study_id":"6197b3f67c2b5cd3b6d9596a","session_id":"6197b5ca698a415f67ddc4ce","condition":"contingent","relevant_dimensions":["antennae","legs"],"bee_group":{"antennae":"A","wings":"X","pattern":"X","legs":"M"},"bonus":1.2600000000000011},{"rt":1924.7999999970198,"stimulus":"bees-with-color/bee-A1SF.svg","response":0,"trial_type":"image-button-response","trial_index":91,"time_elapsed":463248,"internal_node_id":"0.0-4.0-0.42","subject_id":"61455c7caa8b0cfe8444a63b","study_id":"6197b3f67c2b5cd3b6d9596a","session_id":"6197b5ca698a415f67ddc4ce","condition":"contingent","relevant_dimensions":["antennae","legs"],"bee_group":{"antennae":"A","wings":"X","pattern":"X","legs":"M"},"action":"harvest","summary":"good-harvest","bonus":1.2600000000000011},{"rt":1117,"stimulus":"\n                    <p><b>Action: <em>harvest</em></b></p>\n                    <p>This is the bee that you just saw.</p>\n                    <img src=\"bees-with-color/bee-A1SF.svg\" width=\"200\">\n                    <p><span class=\"greenText\"><b>Successful harvest!</b></span><br>Your pay has increased by $0.02. Your bonus pay is now $0.64.</p>\n            ","response":0,"trial_type":"html-button-response","trial_index":92,"time_elapsed":464368,"internal_node_id":"0.0-4.0-1.42","subject_id":"61455c7caa8b0cfe8444a63b","study_id":"6197b3f67c2b5cd3b6d9596a","session_id":"6197b5ca698a415f67ddc4ce","condition":"contingent","relevant_dimensions":["antennae","legs"],"bee_group":{"antennae":"A","wings":"X","pattern":"X","legs":"M"},"bonus":1.2600000000000011},{"rt":2485.7999999970198,"stimulus":"bees-with-color/bee-B1DM.svg","response":0,"trial_type":"image-button-response","trial_index":93,"time_elapsed":466856,"internal_node_id":"0.0-4.0-0.43","subject_id":"61455c7caa8b0cfe8444a63b","study_id":"6197b3f67c2b5cd3b6d9596a","session_id":"6197b5ca698a415f67ddc4ce","condition":"contingent","relevant_dimensions":["antennae","legs"],"bee_group":{"antennae":"A","wings":"X","pattern":"X","legs":"M"},"action":"harvest","summary":"good-harvest","bonus":1.2600000000000011},{"rt":1005.4000000059605,"stimulus":"\n                    <p><b>Action: <em>harvest</em></b></p>\n                    <p>This is the bee that you just saw.</p>\n                    <img src=\"bees-with-color/bee-B1DM.svg\" width=\"200\">\n                    <p><span class=\"greenText\"><b>Successful harvest!</b></span><br>Your pay has increased by $0.02. Your bonus pay is now $0.66.</p>\n            ","response":0,"trial_type":"html-button-response","trial_index":94,"time_elapsed":467864,"internal_node_id":"0.0-4.0-1.43","subject_id":"61455c7caa8b0cfe8444a63b","study_id":"6197b3f67c2b5cd3b6d9596a","session_id":"6197b5ca698a415f67ddc4ce","condition":"contingent","relevant_dimensions":["antennae","legs"],"bee_group":{"antennae":"A","wings":"X","pattern":"X","legs":"M"},"bonus":1.2600000000000011},{"rt":1645.7000000029802,"stimulus":"bees-with-color/bee-A2SM.svg","response":1,"trial_type":"image-button-response","trial_index":95,"time_elapsed":469512,"internal_node_id":"0.0-4.0-0.44","subject_id":"61455c7caa8b0cfe8444a63b","study_id":"6197b3f67c2b5cd3b6d9596a","session_id":"6197b5ca698a415f67ddc4ce","condition":"contingent","relevant_dimensions":["antennae","legs"],"bee_group":{"antennae":"A","wings":"X","pattern":"X","legs":"M"},"action":"avoid","summary":"good-avoid","bonus":1.2600000000000011},{"rt":974,"stimulus":"\n                    <p><b>Action: <em>avoid</em></b></p>\n                    <p>This is the bee that you just saw.</p>\n                    <img src=\"bees-with-color/bee-A2SM.svg\" width=\"200\">\n                    <p><br>Your bonus pay is unchanged, and remains at $0.66.</p>\n            ","response":0,"trial_type":"html-button-response","trial_index":96,"time_elapsed":470489,"internal_node_id":"0.0-4.0-1.44","subject_id":"61455c7caa8b0cfe8444a63b","study_id":"6197b3f67c2b5cd3b6d9596a","session_id":"6197b5ca698a415f67ddc4ce","condition":"contingent","relevant_dimensions":["antennae","legs"],"bee_group":{"antennae":"A","wings":"X","pattern":"X","legs":"M"},"bonus":1.2600000000000011},{"rt":1757.4000000059605,"stimulus":"bees-with-color/bee-B2SF.svg","response":0,"trial_type":"image-button-response","trial_index":97,"time_elapsed":472248,"internal_node_id":"0.0-4.0-0.45","subject_id":"61455c7caa8b0cfe8444a63b","study_id":"6197b3f67c2b5cd3b6d9596a","session_id":"6197b5ca698a415f67ddc4ce","condition":"contingent","relevant_dimensions":["antennae","legs"],"bee_group":{"antennae":"A","wings":"X","pattern":"X","legs":"M"},"action":"harvest","summary":"good-harvest","bonus":1.2600000000000011},{"rt":1069.5,"stimulus":"\n                    <p><b>Action: <em>harvest</em></b></p>\n                    <p>This is the bee that you just saw.</p>\n                    <img src=\"bees-with-color/bee-B2SF.svg\" width=\"200\">\n                    <p><span class=\"greenText\"><b>Successful harvest!</b></span><br>Your pay has increased by $0.02. Your bonus pay is now $0.68.</p>\n            ","response":0,"trial_type":"html-button-response","trial_index":98,"time_elapsed":473320,"internal_node_id":"0.0-4.0-1.45","subject_id":"61455c7caa8b0cfe8444a63b","study_id":"6197b3f67c2b5cd3b6d9596a","session_id":"6197b5ca698a415f67ddc4ce","condition":"contingent","relevant_dimensions":["antennae","legs"],"bee_group":{"antennae":"A","wings":"X","pattern":"X","legs":"M"},"bonus":1.2600000000000011},{"rt":1678.2999999970198,"stimulus":"bees-with-color/bee-B2SM.svg","response":0,"trial_type":"image-button-response","trial_index":99,"time_elapsed":475001,"internal_node_id":"0.0-4.0-0.46","subject_id":"61455c7caa8b0cfe8444a63b","study_id":"6197b3f67c2b5cd3b6d9596a","session_id":"6197b5ca698a415f67ddc4ce","condition":"contingent","relevant_dimensions":["antennae","legs"],"bee_group":{"antennae":"A","wings":"X","pattern":"X","legs":"M"},"action":"harvest","summary":"good-harvest","bonus":1.2600000000000011},{"rt":1046.2000000029802,"stimulus":"\n                    <p><b>Action: <em>harvest</em></b></p>\n                    <p>This is the bee that you just saw.</p>\n                    <img src=\"bees-with-color/bee-B2SM.svg\" width=\"200\">\n                    <p><span class=\"greenText\"><b>Successful harvest!</b></span><br>Your pay has increased by $0.02. Your bonus pay is now $0.70.</p>\n            ","response":0,"trial_type":"html-button-response","trial_index":100,"time_elapsed":476049,"internal_node_id":"0.0-4.0-1.46","subject_id":"61455c7caa8b0cfe8444a63b","study_id":"6197b3f67c2b5cd3b6d9596a","session_id":"6197b5ca698a415f67ddc4ce","condition":"contingent","relevant_dimensions":["antennae","legs"],"bee_group":{"antennae":"A","wings":"X","pattern":"X","legs":"M"},"bonus":1.2600000000000011},{"rt":1780.7000000029802,"stimulus":"bees-with-color/bee-A2DM.svg","response":1,"trial_type":"image-button-response","trial_index":101,"time_elapsed":477833,"internal_node_id":"0.0-4.0-0.47","subject_id":"61455c7caa8b0cfe8444a63b","study_id":"6197b3f67c2b5cd3b6d9596a","session_id":"6197b5ca698a415f67ddc4ce","condition":"contingent","relevant_dimensions":["antennae","legs"],"bee_group":{"antennae":"A","wings":"X","pattern":"X","legs":"M"},"action":"avoid","summary":"good-avoid","bonus":1.2600000000000011},{"rt":1012.2999999970198,"stimulus":"\n                    <p><b>Action: <em>avoid</em></b></p>\n                    <p>This is the bee that you just saw.</p>\n                    <img src=\"bees-with-color/bee-A2DM.svg\" width=\"200\">\n                    <p><br>Your bonus pay is unchanged, and remains at $0.70.</p>\n            ","response":0,"trial_type":"html-button-response","trial_index":102,"time_elapsed":478849,"internal_node_id":"0.0-4.0-1.47","subject_id":"61455c7caa8b0cfe8444a63b","study_id":"6197b3f67c2b5cd3b6d9596a","session_id":"6197b5ca698a415f67ddc4ce","condition":"contingent","relevant_dimensions":["antennae","legs"],"bee_group":{"antennae":"A","wings":"X","pattern":"X","legs":"M"},"bonus":1.2600000000000011},{"rt":1412.699999988079,"stimulus":"bees-with-color/bee-B2DM.svg","response":0,"trial_type":"image-button-response","trial_index":103,"time_elapsed":480264,"internal_node_id":"0.0-4.0-0.48","subject_id":"61455c7caa8b0cfe8444a63b","study_id":"6197b3f67c2b5cd3b6d9596a","session_id":"6197b5ca698a415f67ddc4ce","condition":"contingent","relevant_dimensions":["antennae","legs"],"bee_group":{"antennae":"A","wings":"X","pattern":"X","legs":"M"},"action":"harvest","summary":"good-harvest","bonus":1.2600000000000011},{"rt":981,"stimulus":"\n                    <p><b>Action: <em>harvest</em></b></p>\n                    <p>This is the bee that you just saw.</p>\n                    <img src=\"bees-with-color/bee-B2DM.svg\" width=\"200\">\n                    <p><span class=\"greenText\"><b>Successful harvest!</b></span><br>Your pay has increased by $0.02. Your bonus pay is now $0.72.</p>\n            ","response":0,"trial_type":"html-button-response","trial_index":104,"time_elapsed":481248,"internal_node_id":"0.0-4.0-1.48","subject_id":"61455c7caa8b0cfe8444a63b","study_id":"6197b3f67c2b5cd3b6d9596a","session_id":"6197b5ca698a415f67ddc4ce","condition":"contingent","relevant_dimensions":["antennae","legs"],"bee_group":{"antennae":"A","wings":"X","pattern":"X","legs":"M"},"bonus":1.2600000000000011},{"rt":1102.2999999970198,"stimulus":"bees-with-color/bee-B2DF.svg","response":0,"trial_type":"image-button-response","trial_index":105,"time_elapsed":482352,"internal_node_id":"0.0-4.0-0.49","subject_id":"61455c7caa8b0cfe8444a63b","study_id":"6197b3f67c2b5cd3b6d9596a","session_id":"6197b5ca698a415f67ddc4ce","condition":"contingent","relevant_dimensions":["antennae","legs"],"bee_group":{"antennae":"A","wings":"X","pattern":"X","legs":"M"},"action":"harvest","summary":"good-harvest","bonus":1.2600000000000011},{"rt":877.7000000029802,"stimulus":"\n                    <p><b>Action: <em>harvest</em></b></p>\n                    <p>This is the bee that you just saw.</p>\n                    <img src=\"bees-with-color/bee-B2DF.svg\" width=\"200\">\n                    <p><span class=\"greenText\"><b>Successful harvest!</b></span><br>Your pay has increased by $0.02. Your bonus pay is now $0.74.</p>\n            ","response":0,"trial_type":"html-button-response","trial_index":106,"time_elapsed":483232,"internal_node_id":"0.0-4.0-1.49","subject_id":"61455c7caa8b0cfe8444a63b","study_id":"6197b3f67c2b5cd3b6d9596a","session_id":"6197b5ca698a415f67ddc4ce","condition":"contingent","relevant_dimensions":["antennae","legs"],"bee_group":{"antennae":"A","wings":"X","pattern":"X","legs":"M"},"bonus":1.2600000000000011},{"rt":1245.6000000089407,"stimulus":"bees-with-color/bee-A2SM.svg","response":1,"trial_type":"image-button-response","trial_index":107,"time_elapsed":484480,"internal_node_id":"0.0-4.0-0.50","subject_id":"61455c7caa8b0cfe8444a63b","study_id":"6197b3f67c2b5cd3b6d9596a","session_id":"6197b5ca698a415f67ddc4ce","condition":"contingent","relevant_dimensions":["antennae","legs"],"bee_group":{"antennae":"A","wings":"X","pattern":"X","legs":"M"},"action":"avoid","summary":"good-avoid","bonus":1.2600000000000011},{"rt":789.9000000059605,"stimulus":"\n                    <p><b>Action: <em>avoid</em></b></p>\n                    <p>This is the bee that you just saw.</p>\n                    <img src=\"bees-with-color/bee-A2SM.svg\" width=\"200\">\n                    <p><br>Your bonus pay is unchanged, and remains at $0.74.</p>\n            ","response":0,"trial_type":"html-button-response","trial_index":108,"time_elapsed":485273,"internal_node_id":"0.0-4.0-1.50","subject_id":"61455c7caa8b0cfe8444a63b","study_id":"6197b3f67c2b5cd3b6d9596a","session_id":"6197b5ca698a415f67ddc4ce","condition":"contingent","relevant_dimensions":["antennae","legs"],"bee_group":{"antennae":"A","wings":"X","pattern":"X","legs":"M"},"bonus":1.2600000000000011},{"rt":1444.9000000059605,"stimulus":"bees-with-color/bee-B2SF.svg","response":0,"trial_type":"image-button-response","trial_index":109,"time_elapsed":486720,"internal_node_id":"0.0-4.0-0.51","subject_id":"61455c7caa8b0cfe8444a63b","study_id":"6197b3f67c2b5cd3b6d9596a","session_id":"6197b5ca698a415f67ddc4ce","condition":"contingent","relevant_dimensions":["antennae","legs"],"bee_group":{"antennae":"A","wings":"X","pattern":"X","legs":"M"},"action":"harvest","summary":"good-harvest","bonus":1.2600000000000011},{"rt":958,"stimulus":"\n                    <p><b>Action: <em>harvest</em></b></p>\n                    <p>This is the bee that you just saw.</p>\n                    <img src=\"bees-with-color/bee-B2SF.svg\" width=\"200\">\n                    <p><span class=\"greenText\"><b>Successful harvest!</b></span><br>Your pay has increased by $0.02. Your bonus pay is now $0.76.</p>\n            ","response":0,"trial_type":"html-button-response","trial_index":110,"time_elapsed":487680,"internal_node_id":"0.0-4.0-1.51","subject_id":"61455c7caa8b0cfe8444a63b","study_id":"6197b3f67c2b5cd3b6d9596a","session_id":"6197b5ca698a415f67ddc4ce","condition":"contingent","relevant_dimensions":["antennae","legs"],"bee_group":{"antennae":"A","wings":"X","pattern":"X","legs":"M"},"bonus":1.2600000000000011},{"rt":1636.9000000059605,"stimulus":"bees-with-color/bee-A2SF.svg","response":1,"trial_type":"image-button-response","trial_index":111,"time_elapsed":489320,"internal_node_id":"0.0-4.0-0.52","subject_id":"61455c7caa8b0cfe8444a63b","study_id":"6197b3f67c2b5cd3b6d9596a","session_id":"6197b5ca698a415f67ddc4ce","condition":"contingent","relevant_dimensions":["antennae","legs"],"bee_group":{"antennae":"A","wings":"X","pattern":"X","legs":"M"},"action":"avoid","summary":"bad-avoid","bonus":1.2600000000000011},{"rt":821.8999999910593,"stimulus":"\n                    <p><b>Action: <em>avoid</em></b></p>\n                    <p>This is the bee that you just saw.</p>\n                    <img src=\"bees-with-color/bee-A2SF.svg\" width=\"200\">\n                    <p><br>Your bonus pay is unchanged, and remains at $0.76.</p>\n            ","response":0,"trial_type":"html-button-response","trial_index":112,"time_elapsed":490145,"internal_node_id":"0.0-4.0-1.52","subject_id":"61455c7caa8b0cfe8444a63b","study_id":"6197b3f67c2b5cd3b6d9596a","session_id":"6197b5ca698a415f67ddc4ce","condition":"contingent","relevant_dimensions":["antennae","legs"],"bee_group":{"antennae":"A","wings":"X","pattern":"X","legs":"M"},"bonus":1.2600000000000011},{"rt":2493.6000000089407,"stimulus":"bees-with-color/bee-A1SF.svg","response":0,"trial_type":"image-button-response","trial_index":113,"time_elapsed":492640,"internal_node_id":"0.0-4.0-0.53","subject_id":"61455c7caa8b0cfe8444a63b","study_id":"6197b3f67c2b5cd3b6d9596a","session_id":"6197b5ca698a415f67ddc4ce","condition":"contingent","relevant_dimensions":["antennae","legs"],"bee_group":{"antennae":"A","wings":"X","pattern":"X","legs":"M"},"action":"harvest","summary":"good-harvest","bonus":1.2600000000000011},{"rt":972.3999999910593,"stimulus":"\n                    <p><b>Action: <em>harvest</em></b></p>\n                    <p>This is the bee that you just saw.</p>\n                    <img src=\"bees-with-color/bee-A1SF.svg\" width=\"200\">\n                    <p><span class=\"greenText\"><b>Successful harvest!</b></span><br>Your pay has increased by $0.02. Your bonus pay is now $0.78.</p>\n            ","response":0,"trial_type":"html-button-response","trial_index":114,"time_elapsed":493617,"internal_node_id":"0.0-4.0-1.53","subject_id":"61455c7caa8b0cfe8444a63b","study_id":"6197b3f67c2b5cd3b6d9596a","session_id":"6197b5ca698a415f67ddc4ce","condition":"contingent","relevant_dimensions":["antennae","legs"],"bee_group":{"antennae":"A","wings":"X","pattern":"X","legs":"M"},"bonus":1.2600000000000011},{"rt":3205.300000011921,"stimulus":"bees-with-color/bee-A1SM.svg","response":1,"trial_type":"image-button-response","trial_index":115,"time_elapsed":496826,"internal_node_id":"0.0-4.0-0.54","subject_id":"61455c7caa8b0cfe8444a63b","study_id":"6197b3f67c2b5cd3b6d9596a","session_id":"6197b5ca698a415f67ddc4ce","condition":"contingent","relevant_dimensions":["antennae","legs"],"bee_group":{"antennae":"A","wings":"X","pattern":"X","legs":"M"},"action":"avoid","summary":"good-avoid","bonus":1.2600000000000011},{"rt":1123,"stimulus":"\n                    <p><b>Action: <em>avoid</em></b></p>\n                    <p>This is the bee that you just saw.</p>\n                    <img src=\"bees-with-color/bee-A1SM.svg\" width=\"200\">\n                    <p><br>Your bonus pay is unchanged, and remains at $0.78.</p>\n            ","response":0,"trial_type":"html-button-response","trial_index":116,"time_elapsed":497952,"internal_node_id":"0.0-4.0-1.54","subject_id":"61455c7caa8b0cfe8444a63b","study_id":"6197b3f67c2b5cd3b6d9596a","session_id":"6197b5ca698a415f67ddc4ce","condition":"contingent","relevant_dimensions":["antennae","legs"],"bee_group":{"antennae":"A","wings":"X","pattern":"X","legs":"M"},"bonus":1.2600000000000011},{"rt":1454.7999999970198,"stimulus":"bees-with-color/bee-B1SF.svg","response":0,"trial_type":"image-button-response","trial_index":117,"time_elapsed":499410,"internal_node_id":"0.0-4.0-0.55","subject_id":"61455c7caa8b0cfe8444a63b","study_id":"6197b3f67c2b5cd3b6d9596a","session_id":"6197b5ca698a415f67ddc4ce","condition":"contingent","relevant_dimensions":["antennae","legs"],"bee_group":{"antennae":"A","wings":"X","pattern":"X","legs":"M"},"action":"harvest","summary":"good-harvest","bonus":1.2600000000000011},{"rt":965.3000000119209,"stimulus":"\n                    <p><b>Action: <em>harvest</em></b></p>\n                    <p>This is the bee that you just saw.</p>\n                    <img src=\"bees-with-color/bee-B1SF.svg\" width=\"200\">\n                    <p><span class=\"greenText\"><b>Successful harvest!</b></span><br>Your pay has increased by $0.02. Your bonus pay is now $0.80.</p>\n            ","response":0,"trial_type":"html-button-response","trial_index":118,"time_elapsed":500377,"internal_node_id":"0.0-4.0-1.55","subject_id":"61455c7caa8b0cfe8444a63b","study_id":"6197b3f67c2b5cd3b6d9596a","session_id":"6197b5ca698a415f67ddc4ce","condition":"contingent","relevant_dimensions":["antennae","legs"],"bee_group":{"antennae":"A","wings":"X","pattern":"X","legs":"M"},"bonus":1.2600000000000011},{"rt":1516.8999999910593,"stimulus":"bees-with-color/bee-A1DF.svg","response":0,"trial_type":"image-button-response","trial_index":119,"time_elapsed":501898,"internal_node_id":"0.0-4.0-0.56","subject_id":"61455c7caa8b0cfe8444a63b","study_id":"6197b3f67c2b5cd3b6d9596a","session_id":"6197b5ca698a415f67ddc4ce","condition":"contingent","relevant_dimensions":["antennae","legs"],"bee_group":{"antennae":"A","wings":"X","pattern":"X","legs":"M"},"action":"harvest","summary":"good-harvest","bonus":1.2600000000000011},{"rt":1085.4000000059605,"stimulus":"\n                    <p><b>Action: <em>harvest</em></b></p>\n                    <p>This is the bee that you just saw.</p>\n                    <img src=\"bees-with-color/bee-A1DF.svg\" width=\"200\">\n                    <p><span class=\"greenText\"><b>Successful harvest!</b></span><br>Your pay has increased by $0.02. Your bonus pay is now $0.82.</p>\n            ","response":0,"trial_type":"html-button-response","trial_index":120,"time_elapsed":502986,"internal_node_id":"0.0-4.0-1.56","subject_id":"61455c7caa8b0cfe8444a63b","study_id":"6197b3f67c2b5cd3b6d9596a","session_id":"6197b5ca698a415f67ddc4ce","condition":"contingent","relevant_dimensions":["antennae","legs"],"bee_group":{"antennae":"A","wings":"X","pattern":"X","legs":"M"},"bonus":1.2600000000000011},{"rt":3391.5999999940395,"stimulus":"bees-with-color/bee-A1DM.svg","response":1,"trial_type":"image-button-response","trial_index":121,"time_elapsed":506379,"internal_node_id":"0.0-4.0-0.57","subject_id":"61455c7caa8b0cfe8444a63b","study_id":"6197b3f67c2b5cd3b6d9596a","session_id":"6197b5ca698a415f67ddc4ce","condition":"contingent","relevant_dimensions":["antennae","legs"],"bee_group":{"antennae":"A","wings":"X","pattern":"X","legs":"M"},"action":"avoid","summary":"good-avoid","bonus":1.2600000000000011},{"rt":948.5,"stimulus":"\n                    <p><b>Action: <em>avoid</em></b></p>\n                    <p>This is the bee that you just saw.</p>\n                    <img src=\"bees-with-color/bee-A1DM.svg\" width=\"200\">\n                    <p><br>Your bonus pay is unchanged, and remains at $0.82.</p>\n            ","response":0,"trial_type":"html-button-response","trial_index":122,"time_elapsed":507331,"internal_node_id":"0.0-4.0-1.57","subject_id":"61455c7caa8b0cfe8444a63b","study_id":"6197b3f67c2b5cd3b6d9596a","session_id":"6197b5ca698a415f67ddc4ce","condition":"contingent","relevant_dimensions":["antennae","legs"],"bee_group":{"antennae":"A","wings":"X","pattern":"X","legs":"M"},"bonus":1.2600000000000011},{"rt":1724.4000000059605,"stimulus":"bees-with-color/bee-B2SM.svg","response":0,"trial_type":"image-button-response","trial_index":123,"time_elapsed":509058,"internal_node_id":"0.0-4.0-0.58","subject_id":"61455c7caa8b0cfe8444a63b","study_id":"6197b3f67c2b5cd3b6d9596a","session_id":"6197b5ca698a415f67ddc4ce","condition":"contingent","relevant_dimensions":["antennae","legs"],"bee_group":{"antennae":"A","wings":"X","pattern":"X","legs":"M"},"action":"harvest","summary":"good-harvest","bonus":1.2600000000000011},{"rt":935.3000000119209,"stimulus":"\n                    <p><b>Action: <em>harvest</em></b></p>\n                    <p>This is the bee that you just saw.</p>\n                    <img src=\"bees-with-color/bee-B2SM.svg\" width=\"200\">\n                    <p><span class=\"greenText\"><b>Successful harvest!</b></span><br>Your pay has increased by $0.02. Your bonus pay is now $0.84.</p>\n            ","response":0,"trial_type":"html-button-response","trial_index":124,"time_elapsed":509995,"internal_node_id":"0.0-4.0-1.58","subject_id":"61455c7caa8b0cfe8444a63b","study_id":"6197b3f67c2b5cd3b6d9596a","session_id":"6197b5ca698a415f67ddc4ce","condition":"contingent","relevant_dimensions":["antennae","legs"],"bee_group":{"antennae":"A","wings":"X","pattern":"X","legs":"M"},"bonus":1.2600000000000011},{"rt":1899.7999999970198,"stimulus":"bees-with-color/bee-A2DM.svg","response":1,"trial_type":"image-button-response","trial_index":125,"time_elapsed":511898,"internal_node_id":"0.0-4.0-0.59","subject_id":"61455c7caa8b0cfe8444a63b","study_id":"6197b3f67c2b5cd3b6d9596a","session_id":"6197b5ca698a415f67ddc4ce","condition":"contingent","relevant_dimensions":["antennae","legs"],"bee_group":{"antennae":"A","wings":"X","pattern":"X","legs":"M"},"action":"avoid","summary":"good-avoid","bonus":1.2600000000000011},{"rt":981.5,"stimulus":"\n                    <p><b>Action: <em>avoid</em></b></p>\n                    <p>This is the bee that you just saw.</p>\n                    <img src=\"bees-with-color/bee-A2DM.svg\" width=\"200\">\n                    <p><br>Your bonus pay is unchanged, and remains at $0.84.</p>\n            ","response":0,"trial_type":"html-button-response","trial_index":126,"time_elapsed":512882,"internal_node_id":"0.0-4.0-1.59","subject_id":"61455c7caa8b0cfe8444a63b","study_id":"6197b3f67c2b5cd3b6d9596a","session_id":"6197b5ca698a415f67ddc4ce","condition":"contingent","relevant_dimensions":["antennae","legs"],"bee_group":{"antennae":"A","wings":"X","pattern":"X","legs":"M"},"bonus":1.2600000000000011},{"rt":2534.2999999970198,"stimulus":"bees-with-color/bee-B1SM.svg","response":0,"trial_type":"image-button-response","trial_index":127,"time_elapsed":515418,"internal_node_id":"0.0-4.0-0.60","subject_id":"61455c7caa8b0cfe8444a63b","study_id":"6197b3f67c2b5cd3b6d9596a","session_id":"6197b5ca698a415f67ddc4ce","condition":"contingent","relevant_dimensions":["antennae","legs"],"bee_group":{"antennae":"A","wings":"X","pattern":"X","legs":"M"},"action":"harvest","summary":"good-harvest","bonus":1.2600000000000011},{"rt":1461.2000000029802,"stimulus":"\n                    <p><b>Action: <em>harvest</em></b></p>\n                    <p>This is the bee that you just saw.</p>\n                    <img src=\"bees-with-color/bee-B1SM.svg\" width=\"200\">\n                    <p><span class=\"greenText\"><b>Successful harvest!</b></span><br>Your pay has increased by $0.02. Your bonus pay is now $0.86.</p>\n            ","response":0,"trial_type":"html-button-response","trial_index":128,"time_elapsed":516882,"internal_node_id":"0.0-4.0-1.60","subject_id":"61455c7caa8b0cfe8444a63b","study_id":"6197b3f67c2b5cd3b6d9596a","session_id":"6197b5ca698a415f67ddc4ce","condition":"contingent","relevant_dimensions":["antennae","legs"],"bee_group":{"antennae":"A","wings":"X","pattern":"X","legs":"M"},"bonus":1.2600000000000011},{"rt":1511.0999999940395,"stimulus":"bees-with-color/bee-B1DF.svg","response":0,"trial_type":"image-button-response","trial_index":129,"time_elapsed":518396,"internal_node_id":"0.0-4.0-0.61","subject_id":"61455c7caa8b0cfe8444a63b","study_id":"6197b3f67c2b5cd3b6d9596a","session_id":"6197b5ca698a415f67ddc4ce","condition":"contingent","relevant_dimensions":["antennae","legs"],"bee_group":{"antennae":"A","wings":"X","pattern":"X","legs":"M"},"action":"harvest","summary":"good-harvest","bonus":1.2600000000000011},{"rt":1043.8999999910593,"stimulus":"\n                    <p><b>Action: <em>harvest</em></b></p>\n                    <p>This is the bee that you just saw.</p>\n                    <img src=\"bees-with-color/bee-B1DF.svg\" width=\"200\">\n                    <p><span class=\"greenText\"><b>Successful harvest!</b></span><br>Your pay has increased by $0.02. Your bonus pay is now $0.88.</p>\n            ","response":0,"trial_type":"html-button-response","trial_index":130,"time_elapsed":519443,"internal_node_id":"0.0-4.0-1.61","subject_id":"61455c7caa8b0cfe8444a63b","study_id":"6197b3f67c2b5cd3b6d9596a","session_id":"6197b5ca698a415f67ddc4ce","condition":"contingent","relevant_dimensions":["antennae","legs"],"bee_group":{"antennae":"A","wings":"X","pattern":"X","legs":"M"},"bonus":1.2600000000000011},{"rt":2588.0999999940395,"stimulus":"bees-with-color/bee-B1DM.svg","response":0,"trial_type":"image-button-response","trial_index":131,"time_elapsed":522034,"internal_node_id":"0.0-4.0-0.62","subject_id":"61455c7caa8b0cfe8444a63b","study_id":"6197b3f67c2b5cd3b6d9596a","session_id":"6197b5ca698a415f67ddc4ce","condition":"contingent","relevant_dimensions":["antennae","legs"],"bee_group":{"antennae":"A","wings":"X","pattern":"X","legs":"M"},"action":"harvest","summary":"good-harvest","bonus":1.2600000000000011},{"rt":1085.2000000029802,"stimulus":"\n                    <p><b>Action: <em>harvest</em></b></p>\n                    <p>This is the bee that you just saw.</p>\n                    <img src=\"bees-with-color/bee-B1DM.svg\" width=\"200\">\n                    <p><span class=\"greenText\"><b>Successful harvest!</b></span><br>Your pay has increased by $0.02. Your bonus pay is now $0.90.</p>\n            ","response":0,"trial_type":"html-button-response","trial_index":132,"time_elapsed":523122,"internal_node_id":"0.0-4.0-1.62","subject_id":"61455c7caa8b0cfe8444a63b","study_id":"6197b3f67c2b5cd3b6d9596a","session_id":"6197b5ca698a415f67ddc4ce","condition":"contingent","relevant_dimensions":["antennae","legs"],"bee_group":{"antennae":"A","wings":"X","pattern":"X","legs":"M"},"bonus":1.2600000000000011},{"rt":2470.6000000089407,"stimulus":"bees-with-color/bee-A2DF.svg","response":0,"trial_type":"image-button-response","trial_index":133,"time_elapsed":525595,"internal_node_id":"0.0-4.0-0.63","subject_id":"61455c7caa8b0cfe8444a63b","study_id":"6197b3f67c2b5cd3b6d9596a","session_id":"6197b5ca698a415f67ddc4ce","condition":"contingent","relevant_dimensions":["antennae","legs"],"bee_group":{"antennae":"A","wings":"X","pattern":"X","legs":"M"},"action":"harvest","summary":"good-harvest","bonus":1.2600000000000011},{"rt":1188.0999999940395,"stimulus":"\n                    <p><b>Action: <em>harvest</em></b></p>\n                    <p>This is the bee that you just saw.</p>\n                    <img src=\"bees-with-color/bee-A2DF.svg\" width=\"200\">\n                    <p><span class=\"greenText\"><b>Successful harvest!</b></span><br>Your pay has increased by $0.02. Your bonus pay is now $0.92.</p>\n            ","response":0,"trial_type":"html-button-response","trial_index":134,"time_elapsed":526786,"internal_node_id":"0.0-4.0-1.63","subject_id":"61455c7caa8b0cfe8444a63b","study_id":"6197b3f67c2b5cd3b6d9596a","session_id":"6197b5ca698a415f67ddc4ce","condition":"contingent","relevant_dimensions":["antennae","legs"],"bee_group":{"antennae":"A","wings":"X","pattern":"X","legs":"M"},"bonus":1.2600000000000011},{"rt":11545,"stimulus":"You have completed the first part of this experiment.<br><br>You will now begin a shorter second part, in which you will receive no feedback.<br>The same rules regarding bonus pay apply.<br><br>Press any key to begin.","response":" ","trial_type":"html-keyboard-response","trial_index":135,"time_elapsed":538334,"internal_node_id":"0.0-5.0","subject_id":"61455c7caa8b0cfe8444a63b","study_id":"6197b3f67c2b5cd3b6d9596a","session_id":"6197b5ca698a415f67ddc4ce","condition":"contingent","relevant_dimensions":["antennae","legs"],"bee_group":{"antennae":"A","wings":"X","pattern":"X","legs":"M"},"bonus":1.2600000000000011},{"rt":4312,"stimulus":"bees-with-color/bee-B1SF.svg","response":0,"trial_type":"image-button-response","trial_index":136,"time_elapsed":542674,"internal_node_id":"0.0-6.0-0.0","subject_id":"61455c7caa8b0cfe8444a63b","study_id":"6197b3f67c2b5cd3b6d9596a","session_id":"6197b5ca698a415f67ddc4ce","condition":"contingent","relevant_dimensions":["antennae","legs"],"bee_group":{"antennae":"A","wings":"X","pattern":"X","legs":"M"},"bonus":1.2600000000000011},{"rt":5306.899999991059,"stimulus":"bees-with-color/bee-A1DF.svg","response":0,"trial_type":"image-button-response","trial_index":137,"time_elapsed":547986,"internal_node_id":"0.0-6.0-0.1","subject_id":"61455c7caa8b0cfe8444a63b","study_id":"6197b3f67c2b5cd3b6d9596a","session_id":"6197b5ca698a415f67ddc4ce","condition":"contingent","relevant_dimensions":["antennae","legs"],"bee_group":{"antennae":"A","wings":"X","pattern":"X","legs":"M"},"bonus":1.2600000000000011},{"rt":1059.5999999940395,"stimulus":"bees-with-color/bee-B1DF.svg","response":0,"trial_type":"image-button-response","trial_index":138,"time_elapsed":549050,"internal_node_id":"0.0-6.0-0.2","subject_id":"61455c7caa8b0cfe8444a63b","study_id":"6197b3f67c2b5cd3b6d9596a","session_id":"6197b5ca698a415f67ddc4ce","condition":"contingent","relevant_dimensions":["antennae","legs"],"bee_group":{"antennae":"A","wings":"X","pattern":"X","legs":"M"},"bonus":1.2600000000000011},{"rt":2212.2999999970198,"stimulus":"bees-with-color/bee-A1DM.svg","response":1,"trial_type":"image-button-response","trial_index":139,"time_elapsed":551266,"internal_node_id":"0.0-6.0-0.3","subject_id":"61455c7caa8b0cfe8444a63b","study_id":"6197b3f67c2b5cd3b6d9596a","session_id":"6197b5ca698a415f67ddc4ce","condition":"contingent","relevant_dimensions":["antennae","legs"],"bee_group":{"antennae":"A","wings":"X","pattern":"X","legs":"M"},"bonus":1.2600000000000011},{"rt":1542.2000000029802,"stimulus":"bees-with-color/bee-B2SF.svg","response":0,"trial_type":"image-button-response","trial_index":140,"time_elapsed":552812,"internal_node_id":"0.0-6.0-0.4","subject_id":"61455c7caa8b0cfe8444a63b","study_id":"6197b3f67c2b5cd3b6d9596a","session_id":"6197b5ca698a415f67ddc4ce","condition":"contingent","relevant_dimensions":["antennae","legs"],"bee_group":{"antennae":"A","wings":"X","pattern":"X","legs":"M"},"bonus":1.2600000000000011},{"rt":5354.699999988079,"stimulus":"bees-with-color/bee-A1SF.svg","response":0,"trial_type":"image-button-response","trial_index":141,"time_elapsed":558170,"internal_node_id":"0.0-6.0-0.5","subject_id":"61455c7caa8b0cfe8444a63b","study_id":"6197b3f67c2b5cd3b6d9596a","session_id":"6197b5ca698a415f67ddc4ce","condition":"contingent","relevant_dimensions":["antennae","legs"],"bee_group":{"antennae":"A","wings":"X","pattern":"X","legs":"M"},"bonus":1.2600000000000011},{"rt":2764,"stimulus":"bees-with-color/bee-A2SM.svg","response":1,"trial_type":"image-button-response","trial_index":142,"time_elapsed":560939,"internal_node_id":"0.0-6.0-0.6","subject_id":"61455c7caa8b0cfe8444a63b","study_id":"6197b3f67c2b5cd3b6d9596a","session_id":"6197b5ca698a415f67ddc4ce","condition":"contingent","relevant_dimensions":["antennae","legs"],"bee_group":{"antennae":"A","wings":"X","pattern":"X","legs":"M"},"bonus":1.2600000000000011},{"rt":1371.0999999940395,"stimulus":"bees-with-color/bee-B2SM.svg","response":0,"trial_type":"image-button-response","trial_index":143,"time_elapsed":562316,"internal_node_id":"0.0-6.0-0.7","subject_id":"61455c7caa8b0cfe8444a63b","study_id":"6197b3f67c2b5cd3b6d9596a","session_id":"6197b5ca698a415f67ddc4ce","condition":"contingent","relevant_dimensions":["antennae","legs"],"bee_group":{"antennae":"A","wings":"X","pattern":"X","legs":"M"},"bonus":1.2600000000000011},{"rt":1940.2999999970198,"stimulus":"bees-with-color/bee-B2DF.svg","response":0,"trial_type":"image-button-response","trial_index":144,"time_elapsed":564260,"internal_node_id":"0.0-6.0-0.8","subject_id":"61455c7caa8b0cfe8444a63b","study_id":"6197b3f67c2b5cd3b6d9596a","session_id":"6197b5ca698a415f67ddc4ce","condition":"contingent","relevant_dimensions":["antennae","legs"],"bee_group":{"antennae":"A","wings":"X","pattern":"X","legs":"M"},"bonus":1.2600000000000011},{"rt":1617.5,"stimulus":"bees-with-color/bee-B1DM.svg","response":0,"trial_type":"image-button-response","trial_index":145,"time_elapsed":565883,"internal_node_id":"0.0-6.0-0.9","subject_id":"61455c7caa8b0cfe8444a63b","study_id":"6197b3f67c2b5cd3b6d9596a","session_id":"6197b5ca698a415f67ddc4ce","condition":"contingent","relevant_dimensions":["antennae","legs"],"bee_group":{"antennae":"A","wings":"X","pattern":"X","legs":"M"},"bonus":1.2600000000000011},{"rt":1236.9000000059605,"stimulus":"bees-with-color/bee-A2DM.svg","response":1,"trial_type":"image-button-response","trial_index":146,"time_elapsed":567124,"internal_node_id":"0.0-6.0-0.10","subject_id":"61455c7caa8b0cfe8444a63b","study_id":"6197b3f67c2b5cd3b6d9596a","session_id":"6197b5ca698a415f67ddc4ce","condition":"contingent","relevant_dimensions":["antennae","legs"],"bee_group":{"antennae":"A","wings":"X","pattern":"X","legs":"M"},"bonus":1.2600000000000011},{"rt":2130.300000011921,"stimulus":"bees-with-color/bee-A1SM.svg","response":1,"trial_type":"image-button-response","trial_index":147,"time_elapsed":569260,"internal_node_id":"0.0-6.0-0.11","subject_id":"61455c7caa8b0cfe8444a63b","study_id":"6197b3f67c2b5cd3b6d9596a","session_id":"6197b5ca698a415f67ddc4ce","condition":"contingent","relevant_dimensions":["antennae","legs"],"bee_group":{"antennae":"A","wings":"X","pattern":"X","legs":"M"},"bonus":1.2600000000000011},{"rt":2986.5999999940395,"stimulus":"bees-with-color/bee-A2DF.svg","response":0,"trial_type":"image-button-response","trial_index":148,"time_elapsed":572252,"internal_node_id":"0.0-6.0-0.12","subject_id":"61455c7caa8b0cfe8444a63b","study_id":"6197b3f67c2b5cd3b6d9596a","session_id":"6197b5ca698a415f67ddc4ce","condition":"contingent","relevant_dimensions":["antennae","legs"],"bee_group":{"antennae":"A","wings":"X","pattern":"X","legs":"M"},"bonus":1.2600000000000011},{"rt":1667.7999999970198,"stimulus":"bees-with-color/bee-B2DM.svg","response":0,"trial_type":"image-button-response","trial_index":149,"time_elapsed":573924,"internal_node_id":"0.0-6.0-0.13","subject_id":"61455c7caa8b0cfe8444a63b","study_id":"6197b3f67c2b5cd3b6d9596a","session_id":"6197b5ca698a415f67ddc4ce","condition":"contingent","relevant_dimensions":["antennae","legs"],"bee_group":{"antennae":"A","wings":"X","pattern":"X","legs":"M"},"bonus":1.2600000000000011},{"rt":1595.9000000059605,"stimulus":"bees-with-color/bee-B1SM.svg","response":0,"trial_type":"image-button-response","trial_index":150,"time_elapsed":575524,"internal_node_id":"0.0-6.0-0.14","subject_id":"61455c7caa8b0cfe8444a63b","study_id":"6197b3f67c2b5cd3b6d9596a","session_id":"6197b5ca698a415f67ddc4ce","condition":"contingent","relevant_dimensions":["antennae","legs"],"bee_group":{"antennae":"A","wings":"X","pattern":"X","legs":"M"},"bonus":1.2600000000000011},{"rt":1524.2000000029802,"stimulus":"bees-with-color/bee-A2SF.svg","response":1,"trial_type":"image-button-response","trial_index":151,"time_elapsed":577052,"internal_node_id":"0.0-6.0-0.15","subject_id":"61455c7caa8b0cfe8444a63b","study_id":"6197b3f67c2b5cd3b6d9596a","session_id":"6197b5ca698a415f67ddc4ce","condition":"contingent","relevant_dimensions":["antennae","legs"],"bee_group":{"antennae":"A","wings":"X","pattern":"X","legs":"M"},"bonus":1.2600000000000011},{"rt":2125.2999999970198,"stimulus":"bees-with-color/bee-A1SF.svg","response":0,"trial_type":"image-button-response","trial_index":152,"time_elapsed":579180,"internal_node_id":"0.0-6.0-0.16","subject_id":"61455c7caa8b0cfe8444a63b","study_id":"6197b3f67c2b5cd3b6d9596a","session_id":"6197b5ca698a415f67ddc4ce","condition":"contingent","relevant_dimensions":["antennae","legs"],"bee_group":{"antennae":"A","wings":"X","pattern":"X","legs":"M"},"bonus":1.2600000000000011},{"rt":3437.7000000029802,"stimulus":"bees-with-color/bee-A2DF.svg","response":1,"trial_type":"image-button-response","trial_index":153,"time_elapsed":582620,"internal_node_id":"0.0-6.0-0.17","subject_id":"61455c7caa8b0cfe8444a63b","study_id":"6197b3f67c2b5cd3b6d9596a","session_id":"6197b5ca698a415f67ddc4ce","condition":"contingent","relevant_dimensions":["antennae","legs"],"bee_group":{"antennae":"A","wings":"X","pattern":"X","legs":"M"},"bonus":1.2600000000000011},{"rt":1116.5,"stimulus":"bees-with-color/bee-B2DF.svg","response":0,"trial_type":"image-button-response","trial_index":154,"time_elapsed":583741,"internal_node_id":"0.0-6.0-0.18","subject_id":"61455c7caa8b0cfe8444a63b","study_id":"6197b3f67c2b5cd3b6d9596a","session_id":"6197b5ca698a415f67ddc4ce","condition":"contingent","relevant_dimensions":["antennae","legs"],"bee_group":{"antennae":"A","wings":"X","pattern":"X","legs":"M"},"bonus":1.2600000000000011},{"rt":4332.4000000059605,"stimulus":"bees-with-color/bee-A2DM.svg","response":1,"trial_type":"image-button-response","trial_index":155,"time_elapsed":588076,"internal_node_id":"0.0-6.0-0.19","subject_id":"61455c7caa8b0cfe8444a63b","study_id":"6197b3f67c2b5cd3b6d9596a","session_id":"6197b5ca698a415f67ddc4ce","condition":"contingent","relevant_dimensions":["antennae","legs"],"bee_group":{"antennae":"A","wings":"X","pattern":"X","legs":"M"},"bonus":1.2600000000000011},{"rt":1073.9000000059605,"stimulus":"bees-with-color/bee-B2DM.svg","response":0,"trial_type":"image-button-response","trial_index":156,"time_elapsed":589156,"internal_node_id":"0.0-6.0-0.20","subject_id":"61455c7caa8b0cfe8444a63b","study_id":"6197b3f67c2b5cd3b6d9596a","session_id":"6197b5ca698a415f67ddc4ce","condition":"contingent","relevant_dimensions":["antennae","legs"],"bee_group":{"antennae":"A","wings":"X","pattern":"X","legs":"M"},"bonus":1.2600000000000011},{"rt":1309.2000000029802,"stimulus":"bees-with-color/bee-B2SM.svg","response":0,"trial_type":"image-button-response","trial_index":157,"time_elapsed":590468,"internal_node_id":"0.0-6.0-0.21","subject_id":"61455c7caa8b0cfe8444a63b","study_id":"6197b3f67c2b5cd3b6d9596a","session_id":"6197b5ca698a415f67ddc4ce","condition":"contingent","relevant_dimensions":["antennae","legs"],"bee_group":{"antennae":"A","wings":"X","pattern":"X","legs":"M"},"bonus":1.2600000000000011},{"rt":925.5,"stimulus":"bees-with-color/bee-B2SF.svg","response":0,"trial_type":"image-button-response","trial_index":158,"time_elapsed":591397,"internal_node_id":"0.0-6.0-0.22","subject_id":"61455c7caa8b0cfe8444a63b","study_id":"6197b3f67c2b5cd3b6d9596a","session_id":"6197b5ca698a415f67ddc4ce","condition":"contingent","relevant_dimensions":["antennae","legs"],"bee_group":{"antennae":"A","wings":"X","pattern":"X","legs":"M"},"bonus":1.2600000000000011},{"rt":2844.7000000029802,"stimulus":"bees-with-color/bee-A1SM.svg","response":1,"trial_type":"image-button-response","trial_index":159,"time_elapsed":594244,"internal_node_id":"0.0-6.0-0.23","subject_id":"61455c7caa8b0cfe8444a63b","study_id":"6197b3f67c2b5cd3b6d9596a","session_id":"6197b5ca698a415f67ddc4ce","condition":"contingent","relevant_dimensions":["antennae","legs"],"bee_group":{"antennae":"A","wings":"X","pattern":"X","legs":"M"},"bonus":1.2600000000000011},{"rt":1554.8999999910593,"stimulus":"bees-with-color/bee-B1SF.svg","response":0,"trial_type":"image-button-response","trial_index":160,"time_elapsed":595804,"internal_node_id":"0.0-6.0-0.24","subject_id":"61455c7caa8b0cfe8444a63b","study_id":"6197b3f67c2b5cd3b6d9596a","session_id":"6197b5ca698a415f67ddc4ce","condition":"contingent","relevant_dimensions":["antennae","legs"],"bee_group":{"antennae":"A","wings":"X","pattern":"X","legs":"M"},"bonus":1.2600000000000011},{"rt":980.6999999880791,"stimulus":"bees-with-color/bee-B1DF.svg","response":0,"trial_type":"image-button-response","trial_index":161,"time_elapsed":596788,"internal_node_id":"0.0-6.0-0.25","subject_id":"61455c7caa8b0cfe8444a63b","study_id":"6197b3f67c2b