[{"success":true,"trial_type":"fullscreen","trial_index":0,"time_elapsed":63737,"internal_node_id":"0.0-0.0","subject_id":"5f07759f859dcb38b8d4c6b5","study_id":"60edd13110225f80f9f3709b","session_id":"6196c3b5ebfa14b524c5e0d2","condition":"full-information","relevant_dimensions":["wings","pattern"],"bee_group":{"antennae":"X","wings":"2","pattern":"S","legs":"X"},"bonus":0.02},{"success":true,"timeout":false,"failed_images":[],"failed_audio":[],"failed_video":[],"trial_type":"preload","trial_index":1,"time_elapsed":65615,"internal_node_id":"0.0-1.0","subject_id":"5f07759f859dcb38b8d4c6b5","study_id":"60edd13110225f80f9f3709b","session_id":"6196c3b5ebfa14b524c5e0d2","condition":"full-information","relevant_dimensions":["wings","pattern"],"bee_group":{"antennae":"X","wings":"2","pattern":"S","legs":"X"},"bonus":0.02},{"rt":3531.5,"stimulus":"Welcome! Press any key to begin.","response":"h","trial_type":"html-keyboard-response","trial_index":2,"time_elapsed":69147,"internal_node_id":"0.0-2.0","subject_id":"5f07759f859dcb38b8d4c6b5","study_id":"60edd13110225f80f9f3709b","session_id":"6196c3b5ebfa14b524c5e0d2","condition":"full-information","relevant_dimensions":["wings","pattern"],"bee_group":{"antennae":"X","wings":"2","pattern":"S","legs":"X"},"bonus":0.02},{"view_history":[{"page_index":0,"viewing_time":3645.2999999970198},{"page_index":1,"viewing_time":10567.10000000149},{"page_index":2,"viewing_time":37590.79999999702},{"page_index":3,"viewing_time":24457.30000000447},{"page_index":4,"viewing_time":7798.89999999851},{"page_index":5,"viewing_time":7590.89999999851},{"page_index":6,"viewing_time":11322},{"page_index":7,"viewing_time":6520.10000000149},{"page_index":8,"viewing_time":3927},{"page_index":9,"viewing_time":2997.89999999851},{"page_index":10,"viewing_time":3304},{"page_index":11,"viewing_time":11864.89999999851},{"page_index":12,"viewing_time":10552.10000000149},{"page_index":13,"viewing_time":1032},{"page_index":14,"viewing_time":1578.8999999985099}],"rt":144749.59999999404,"trial_type":"instructions","trial_index":3,"time_elapsed":213897,"internal_node_id":"0.0-3.0-0.0","subject_id":"5f07759f859dcb38b8d4c6b5","study_id":"60edd13110225f80f9f3709b","session_id":"6196c3b5ebfa14b524c5e0d2","condition":"full-information","relevant_dimensions":["wings","pattern"],"bee_group":{"antennae":"X","wings":"2","pattern":"S","legs":"X"},"bonus":0.02},{"rt":18318.39999999851,"response":{"Q0":["Two or six legs","Stripes or spots on body","Single or double wings","Antennae or no antennae"]},"question_order":[0],"trial_type":"survey-multi-select","trial_index":4,"time_elapsed":232221,"internal_node_id":"0.0-3.0-1.0","subject_id":"5f07759f859dcb38b8d4c6b5","study_id":"60edd13110225f80f9f3709b","session_id":"6196c3b5ebfa14b524c5e0d2","condition":"full-information","relevant_dimensions":["wings","pattern"],"bee_group":{"antennae":"X","wings":"2","pattern":"S","legs":"X"},"correct":true,"bonus":0.02},{"rt":26079.29999999702,"response":{"Q1":"No.","Q2":"Based on the four features of the bee.","Q3":"You do not learn if it was friendly or dangerous, and do not alter your bonus."},"question_order":[0,1,2],"trial_type":"survey-multi-choice","trial_index":5,"time_elapsed":258303,"internal_node_id":"0.0-3.0-2.0","subject_id":"5f07759f859dcb38b8d4c6b5","study_id":"60edd13110225f80f9f3709b","session_id":"6196c3b5ebfa14b524c5e0d2","condition":"full-information","relevant_dimensions":["wings","pattern"],"bee_group":{"antennae":"X","wings":"2","pattern":"S","legs":"X"},"correct":false,"bonus":0.02},{"rt":3753.2000000029802,"stimulus":"<p>You did not answer all comprehension questions correctly.<br>Press <b>continue</b> to review the instructions again.</p>","response":0,"trial_type":"html-button-response","trial_index":6,"time_elapsed":262058,"internal_node_id":"0.0-3.0-3.0","subject_id":"5f07759f859dcb38b8d4c6b5","study_id":"60edd13110225f80f9f3709b","session_id":"6196c3b5ebfa14b524c5e0d2","condition":"full-information","relevant_dimensions":["wings","pattern"],"bee_group":{"antennae":"X","wings":"2","pattern":"S","legs":"X"},"bonus":0.02},{"view_history":[{"page_index":0,"viewing_time":10402.29999999702},{"page_index":1,"viewing_time":6209},{"page_index":2,"viewing_time":3632},{"page_index":3,"viewing_time":3682.10000000149},{"page_index":4,"viewing_time":4060.2000000029802},{"page_index":5,"viewing_time":2314.6999999955297},{"page_index":6,"viewing_time":2699.10000000149},{"page_index":7,"viewing_time":2940.7000000029802},{"page_index":8,"viewing_time":2182.1999999955297},{"page_index":9,"viewing_time":2503.10000000149},{"page_index":10,"viewing_time":2465},{"page_index":11,"viewing_time":3733},{"page_index":12,"viewing_time":3178},{"page_index":13,"viewing_time":924.8999999985099},{"page_index":14,"viewing_time":1244}],"rt":52170.60000000149,"trial_type":"instructions","trial_index":7,"time_elapsed":314229,"internal_node_id":"0.0-3.0-4.0-0.0","subject_id":"5f07759f859dcb38b8d4c6b5","study_id":"60edd13110225f80f9f3709b","session_id":"6196c3b5ebfa14b524c5e0d2","condition":"full-information","relevant_dimensions":["wings","pattern"],"bee_group":{"antennae":"X","wings":"2","pattern":"S","legs":"X"},"bonus":0.02},{"rt":36817.80000000447,"response":{"Q0":["Two or six legs","Stripes or spots on body","Single or double wings","Antennae or no antennae"]},"question_order":[0],"trial_type":"survey-multi-select","trial_index":8,"time_elapsed":351050,"internal_node_id":"0.0-3.0-4.0-1.0","subject_id":"5f07759f859dcb38b8d4c6b5","study_id":"60edd13110225f80f9f3709b","session_id":"6196c3b5ebfa14b524c5e0d2","condition":"full-information","relevant_dimensions":["wings","pattern"],"bee_group":{"antennae":"X","wings":"2","pattern":"S","legs":"X"},"correct":true,"bonus":0.02},{"rt":92213.60000000149,"response":{"Q1":"No.","Q2":"Based on the four features of the bee.","Q3":"You learn if it was friendly or dangerous, but do not alter your bonus."},"question_order":[0,1,2],"trial_type":"survey-multi-choice","trial_index":9,"time_elapsed":443266,"internal_node_id":"0.0-3.0-4.0-2.0","subject_id":"5f07759f859dcb38b8d4c6b5","study_id":"60edd13110225f80f9f3709b","session_id":"6196c3b5ebfa14b524c5e0d2","condition":"full-information","relevant_dimensions":["wings","pattern"],"bee_group":{"antennae":"X","wings":"2","pattern":"S","legs":"X"},"correct":true,"bonus":0.02},{"rt":2684,"stimulus":"<p>Congrats, you got everything right<br>When you're ready, click the button below to continue to the experiment.</p>","response":0,"trial_type":"html-button-response","trial_index":10,"time_elapsed":445951,"internal_node_id":"0.0-3.0-4.0-3.0","subject_id":"5f07759f859dcb38b8d4c6b5","study_id":"60edd13110225f80f9f3709b","session_id":"6196c3b5ebfa14b524c5e0d2","condition":"full-information","relevant_dimensions":["wings","pattern"],"bee_group":{"antennae":"X","wings":"2","pattern":"S","legs":"X"},"bonus":0.02},{"rt":4644.60000000149,"stimulus":"bees-with-color/bee-A1DM.svg","response":0,"trial_type":"image-button-response","trial_index":11,"time_elapsed":450598,"internal_node_id":"0.0-4.0-0.0","subject_id":"5f07759f859dcb38b8d4c6b5","study_id":"60edd13110225f80f9f3709b","session_id":"6196c3b5ebfa14b524c5e0d2","condition":"full-information","relevant_dimensions":["wings","pattern"],"bee_group":{"antennae":"X","wings":"2","pattern":"S","legs":"X"},"action":"harvest","summary":"good-harvest","bonus":0.02},{"rt":7256.29999999702,"stimulus":"\n                    <p><b>Action: <em>harvest</em></b></p>\n                    <p>This is the bee that you just saw.</p>\n                    <img src=\"bees-with-color/bee-A1DM.svg\" width=\"200\">\n                    <p><span class=\"greenText\"><b>Successful harvest!</b></span><br>Your pay has increased by $0.02. Your bonus pay is now $0.56.</p>\n            ","response":0,"trial_type":"html-button-response","trial_index":12,"time_elapsed":457857,"internal_node_id":"0.0-4.0-1.0","subject_id":"5f07759f859dcb38b8d4c6b5","study_id":"60edd13110225f80f9f3709b","session_id":"6196c3b5ebfa14b524c5e0d2","condition":"full-information","relevant_dimensions":["wings","pattern"],"bee_group":{"antennae":"X","wings":"2","pattern":"S","legs":"X"},"bonus":0.02},{"rt":6072.79999999702,"stimulus":"bees-with-color/bee-B2DF.svg","response":1,"trial_type":"image-button-response","trial_index":13,"time_elapsed":463932,"internal_node_id":"0.0-4.0-0.1","subject_id":"5f07759f859dcb38b8d4c6b5","study_id":"60edd13110225f80f9f3709b","session_id":"6196c3b5ebfa14b524c5e0d2","condition":"full-information","relevant_dimensions":["wings","pattern"],"bee_group":{"antennae":"X","wings":"2","pattern":"S","legs":"X"},"action":"avoid","summary":"bad-avoid","bonus":0.02},{"rt":7426.19999999553,"stimulus":"\n                    <p><b>Action: <em>avoid</em></b></p>\n                    <p>This is the bee that you just saw.</p>\n                    <img src=\"bees-with-color/bee-B2DF.svg\" width=\"200\">\n                    <p><span class=\"redText\">Bad choice,</span> the bee was friendly.<br>Your bonus pay is unchanged, and remains at $0.56.</p>\n            ","response":0,"trial_type":"html-button-response","trial_index":14,"time_elapsed":471360,"internal_node_id":"0.0-4.0-1.1","subject_id":"5f07759f859dcb38b8d4c6b5","study_id":"60edd13110225f80f9f3709b","session_id":"6196c3b5ebfa14b524c5e0d2","condition":"full-information","relevant_dimensions":["wings","pattern"],"bee_group":{"antennae":"X","wings":"2","pattern":"S","legs":"X"},"bonus":0.02},{"rt":1771.6999999955297,"stimulus":"bees-with-color/bee-A2DF.svg","response":0,"trial_type":"image-button-response","trial_index":15,"time_elapsed":473134,"internal_node_id":"0.0-4.0-0.2","subject_id":"5f07759f859dcb38b8d4c6b5","study_id":"60edd13110225f80f9f3709b","session_id":"6196c3b5ebfa14b524c5e0d2","condition":"full-information","relevant_dimensions":["wings","pattern"],"bee_group":{"antennae":"X","wings":"2","pattern":"S","legs":"X"},"action":"harvest","summary":"good-harvest","bonus":0.02},{"rt":1389.7999999970198,"stimulus":"\n                    <p><b>Action: <em>harvest</em></b></p>\n                    <p>This is the bee that you just saw.</p>\n                    <img src=\"bees-with-color/bee-A2DF.svg\" width=\"200\">\n                    <p><span class=\"greenText\"><b>Successful harvest!</b></span><br>Your pay has increased by $0.02. Your bonus pay is now $0.58.</p>\n            ","response":0,"trial_type":"html-button-response","trial_index":16,"time_elapsed":474526,"internal_node_id":"0.0-4.0-1.2","subject_id":"5f07759f859dcb38b8d4c6b5","study_id":"60edd13110225f80f9f3709b","session_id":"6196c3b5ebfa14b524c5e0d2","condition":"full-information","relevant_dimensions":["wings","pattern"],"bee_group":{"antennae":"X","wings":"2","pattern":"S","legs":"X"},"bonus":0.02},{"rt":2459.7999999970198,"stimulus":"bees-with-color/bee-B1SM.svg","response":1,"trial_type":"image-button-response","trial_index":17,"time_elapsed":476987,"internal_node_id":"0.0-4.0-0.3","subject_id":"5f07759f859dcb38b8d4c6b5","study_id":"60edd13110225f80f9f3709b","session_id":"6196c3b5ebfa14b524c5e0d2","condition":"full-information","relevant_dimensions":["wings","pattern"],"bee_group":{"antennae":"X","wings":"2","pattern":"S","legs":"X"},"action":"avoid","summary":"bad-avoid","bonus":0.02},{"rt":7984.89999999851,"stimulus":"\n                    <p><b>Action: <em>avoid</em></b></p>\n                    <p>This is the bee that you just saw.</p>\n                    <img src=\"bees-with-color/bee-B1SM.svg\" width=\"200\">\n                    <p><span class=\"redText\">Bad choice,</span> the bee was friendly.<br>Your bonus pay is unchanged, and remains at $0.58.</p>\n            ","response":0,"trial_type":"html-button-response","trial_index":18,"time_elapsed":484974,"internal_node_id":"0.0-4.0-1.3","subject_id":"5f07759f859dcb38b8d4c6b5","study_id":"60edd13110225f80f9f3709b","session_id":"6196c3b5ebfa14b524c5e0d2","condition":"full-information","relevant_dimensions":["wings","pattern"],"bee_group":{"antennae":"X","wings":"2","pattern":"S","legs":"X"},"bonus":0.02},{"rt":5225.5,"stimulus":"bees-with-color/bee-B2SF.svg","response":1,"trial_type":"image-button-response","trial_index":19,"time_elapsed":490202,"internal_node_id":"0.0-4.0-0.4","subject_id":"5f07759f859dcb38b8d4c6b5","study_id":"60edd13110225f80f9f3709b","session_id":"6196c3b5ebfa14b524c5e0d2","condition":"full-information","relevant_dimensions":["wings","pattern"],"bee_group":{"antennae":"X","wings":"2","pattern":"S","legs":"X"},"action":"avoid","summary":"good-avoid","bonus":0.02},{"rt":7264.79999999702,"stimulus":"\n                    <p><b>Action: <em>avoid</em></b></p>\n                    <p>This is the bee that you just saw.</p>\n                    <img src=\"bees-with-color/bee-B2SF.svg\" width=\"200\">\n                    <p><span class=\"greenText\">Good choice!</span>  This bee would have stung you.<br>Your bonus pay is unchanged, and remains at $0.58.</p>\n            ","response":0,"trial_type":"html-button-response","trial_index":20,"time_elapsed":497468,"internal_node_id":"0.0-4.0-1.4","subject_id":"5f07759f859dcb38b8d4c6b5","study_id":"60edd13110225f80f9f3709b","session_id":"6196c3b5ebfa14b524c5e0d2","condition":"full-information","relevant_dimensions":["wings","pattern"],"bee_group":{"antennae":"X","wings":"2","pattern":"S","legs":"X"},"bonus":0.02},{"rt":1875.2999999970198,"stimulus":"bees-with-color/bee-B2DM.svg","response":0,"trial_type":"image-button-response","trial_index":21,"time_elapsed":499345,"internal_node_id":"0.0-4.0-0.5","subject_id":"5f07759f859dcb38b8d4c6b5","study_id":"60edd13110225f80f9f3709b","session_id":"6196c3b5ebfa14b524c5e0d2","condition":"full-information","relevant_dimensions":["wings","pattern"],"bee_group":{"antennae":"X","wings":"2","pattern":"S","legs":"X"},"action":"harvest","summary":"good-harvest","bonus":0.02},{"rt":1481.8999999985099,"stimulus":"\n                    <p><b>Action: <em>harvest</em></b></p>\n                    <p>This is the bee that you just saw.</p>\n                    <img src=\"bees-with-color/bee-B2DM.svg\" width=\"200\">\n                    <p><span class=\"greenText\"><b>Successful harvest!</b></span><br>Your pay has increased by $0.02. Your bonus pay is now $0.60.</p>\n            ","response":0,"trial_type":"html-button-response","trial_index":22,"time_elapsed":500829,"internal_node_id":"0.0-4.0-1.5","subject_id":"5f07759f859dcb38b8d4c6b5","study_id":"60edd13110225f80f9f3709b","session_id":"6196c3b5ebfa14b524c5e0d2","condition":"full-information","relevant_dimensions":["wings","pattern"],"bee_group":{"antennae":"X","wings":"2","pattern":"S","legs":"X"},"bonus":0.02},{"rt":5815.0999999940395,"stimulus":"bees-with-color/bee-A2SM.svg","response":1,"trial_type":"image-button-response","trial_index":23,"time_elapsed":506646,"internal_node_id":"0.0-4.0-0.6","subject_id":"5f07759f859dcb38b8d4c6b5","study_id":"60edd13110225f80f9f3709b","session_id":"6196c3b5ebfa14b524c5e0d2","condition":"full-information","relevant_dimensions":["wings","pattern"],"bee_group":{"antennae":"X","wings":"2","pattern":"S","legs":"X"},"action":"avoid","summary":"good-avoid","bonus":0.02},{"rt":1135.1000000014901,"stimulus":"\n                    <p><b>Action: <em>avoid</em></b></p>\n                    <p>This is the bee that you just saw.</p>\n                    <img src=\"bees-with-color/bee-A2SM.svg\" width=\"200\">\n                    <p><span class=\"greenText\">Good choice!</span>  This bee would have stung you.<br>Your bonus pay is unchanged, and remains at $0.60.</p>\n            ","response":0,"trial_type":"html-button-response","trial_index":24,"time_elapsed":507783,"internal_node_id":"0.0-4.0-1.6","subject_id":"5f07759f859dcb38b8d4c6b5","study_id":"60edd13110225f80f9f3709b","session_id":"6196c3b5ebfa14b524c5e0d2","condition":"full-information","relevant_dimensions":["wings","pattern"],"bee_group":{"antennae":"X","wings":"2","pattern":"S","legs":"X"},"bonus":0.02},{"rt":12329.19999999553,"stimulus":"bees-with-color/bee-B1DM.svg","response":1,"trial_type":"image-button-response","trial_index":25,"time_elapsed":520114,"internal_node_id":"0.0-4.0-0.7","subject_id":"5f07759f859dcb38b8d4c6b5","study_id":"60edd13110225f80f9f3709b","session_id":"6196c3b5ebfa14b524c5e0d2","condition":"full-information","relevant_dimensions":["wings","pattern"],"bee_group":{"antennae":"X","wings":"2","pattern":"S","legs":"X"},"action":"avoid","summary":"bad-avoid","bonus":0.02},{"rt":5493.19999999553,"stimulus":"\n                    <p><b>Action: <em>avoid</em></b></p>\n                    <p>This is the bee that you just saw.</p>\n                    <img src=\"bees-with-color/bee-B1DM.svg\" width=\"200\">\n                    <p><span class=\"redText\">Bad choice,</span> the bee was friendly.<br>Your bonus pay is unchanged, and remains at $0.60.</p>\n            ","response":0,"trial_type":"html-button-response","trial_index":26,"time_elapsed":525609,"internal_node_id":"0.0-4.0-1.7","subject_id":"5f07759f859dcb38b8d4c6b5","study_id":"60edd13110225f80f9f3709b","session_id":"6196c3b5ebfa14b524c5e0d2","condition":"full-information","relevant_dimensions":["wings","pattern"],"bee_group":{"antennae":"X","wings":"2","pattern":"S","legs":"X"},"bonus":0.02},{"rt":2122.7999999970198,"stimulus":"bees-with-color/bee-B1SF.svg","response":1,"trial_type":"image-button-response","trial_index":27,"time_elapsed":527734,"internal_node_id":"0.0-4.0-0.8","subject_id":"5f07759f859dcb38b8d4c6b5","study_id":"60edd13110225f80f9f3709b","session_id":"6196c3b5ebfa14b524c5e0d2","condition":"full-information","relevant_dimensions":["wings","pattern"],"bee_group":{"antennae":"X","wings":"2","pattern":"S","legs":"X"},"action":"avoid","summary":"bad-avoid","bonus":0.02},{"rt":1233,"stimulus":"\n                    <p><b>Action: <em>avoid</em></b></p>\n                    <p>This is the bee that you just saw.</p>\n                    <img src=\"bees-with-color/bee-B1SF.svg\" width=\"200\">\n                    <p><span class=\"redText\">Bad choice,</span> the bee was friendly.<br>Your bonus pay is unchanged, and remains at $0.60.</p>\n            ","response":0,"trial_type":"html-button-response","trial_index":28,"time_elapsed":528969,"internal_node_id":"0.0-4.0-1.8","subject_id":"5f07759f859dcb38b8d4c6b5","study_id":"60edd13110225f80f9f3709b","session_id":"6196c3b5ebfa14b524c5e0d2","condition":"full-information","relevant_dimensions":["wings","pattern"],"bee_group":{"antennae":"X","wings":"2","pattern":"S","legs":"X"},"bonus":0.02},{"rt":16214.79999999702,"stimulus":"bees-with-color/bee-A2DM.svg","response":1,"trial_type":"image-button-response","trial_index":29,"time_elapsed":545185,"internal_node_id":"0.0-4.0-0.9","subject_id":"5f07759f859dcb38b8d4c6b5","study_id":"60edd13110225f80f9f3709b","session_id":"6196c3b5ebfa14b524c5e0d2","condition":"full-information","relevant_dimensions":["wings","pattern"],"bee_group":{"antennae":"X","wings":"2","pattern":"S","legs":"X"},"action":"avoid","summary":"bad-avoid","bonus":0.02},{"rt":1086.8999999985099,"stimulus":"\n                    <p><b>Action: <em>avoid</em></b></p>\n                    <p>This is the bee that you just saw.</p>\n                    <img src=\"bees-with-color/bee-A2DM.svg\" width=\"200\">\n                    <p><span class=\"redText\">Bad choice,</span> the bee was friendly.<br>Your bonus pay is unchanged, and remains at $0.60.</p>\n            ","response":0,"trial_type":"html-button-response","trial_index":30,"time_elapsed":546274,"internal_node_id":"0.0-4.0-1.9","subject_id":"5f07759f859dcb38b8d4c6b5","study_id":"60edd13110225f80f9f3709b","session_id":"6196c3b5ebfa14b524c5e0d2","condition":"full-information","relevant_dimensions":["wings","pattern"],"bee_group":{"antennae":"X","wings":"2","pattern":"S","legs":"X"},"bonus":0.02},{"rt":1691.1000000014901,"stimulus":"bees-with-color/bee-B2SM.svg","response":1,"trial_type":"image-button-response","trial_index":31,"time_elapsed":547967,"internal_node_id":"0.0-4.0-0.10","subject_id":"5f07759f859dcb38b8d4c6b5","study_id":"60edd13110225f80f9f3709b","session_id":"6196c3b5ebfa14b524c5e0d2","condition":"full-information","relevant_dimensions":["wings","pattern"],"bee_group":{"antennae":"X","wings":"2","pattern":"S","legs":"X"},"action":"avoid","summary":"good-avoid","bonus":0.02},{"rt":685.5,"stimulus":"\n                    <p><b>Action: <em>avoid</em></b></p>\n                    <p>This is the bee that you just saw.</p>\n                    <img src=\"bees-with-color/bee-B2SM.svg\" width=\"200\">\n                    <p><span class=\"greenText\">Good choice!</span>  This bee would have stung you.<br>Your bonus pay is unchanged, and remains at $0.60.</p>\n            ","response":0,"trial_type":"html-button-response","trial_index":32,"time_elapsed":548655,"internal_node_id":"0.0-4.0-1.10","subject_id":"5f07759f859dcb38b8d4c6b5","study_id":"60edd13110225f80f9f3709b","session_id":"6196c3b5ebfa14b524c5e0d2","condition":"full-information","relevant_dimensions":["wings","pattern"],"bee_group":{"antennae":"X","wings":"2","pattern":"S","legs":"X"},"bonus":0.02},{"rt":935.5,"stimulus":"bees-with-color/bee-A1SM.svg","response":0,"trial_type":"image-button-response","trial_index":33,"time_elapsed":549591,"internal_node_id":"0.0-4.0-0.11","subject_id":"5f07759f859dcb38b8d4c6b5","study_id":"60edd13110225f80f9f3709b","session_id":"6196c3b5ebfa14b524c5e0d2","condition":"full-information","relevant_dimensions":["wings","pattern"],"bee_group":{"antennae":"X","wings":"2","pattern":"S","legs":"X"},"action":"harvest","summary":"good-harvest","bonus":0.02},{"rt":676.1999999955297,"stimulus":"\n                    <p><b>Action: <em>harvest</em></b></p>\n                    <p>This is the bee that you just saw.</p>\n                    <img src=\"bees-with-color/bee-A1SM.svg\" width=\"200\">\n                    <p><span class=\"greenText\"><b>Successful harvest!</b></span><br>Your pay has increased by $0.02. Your bonus pay is now $0.62.</p>\n            ","response":0,"trial_type":"html-button-response","trial_index":34,"time_elapsed":550269,"internal_node_id":"0.0-4.0-1.11","subject_id":"5f07759f859dcb38b8d4c6b5","study_id":"60edd13110225f80f9f3709b","session_id":"6196c3b5ebfa14b524c5e0d2","condition":"full-information","relevant_dimensions":["wings","pattern"],"bee_group":{"antennae":"X","wings":"2","pattern":"S","legs":"X"},"bonus":0.02},{"rt":1315.5999999940395,"stimulus":"bees-with-color/bee-B1DF.svg","response":0,"trial_type":"image-button-response","trial_index":35,"time_elapsed":551586,"internal_node_id":"0.0-4.0-0.12","subject_id":"5f07759f859dcb38b8d4c6b5","study_id":"60edd13110225f80f9f3709b","session_id":"6196c3b5ebfa14b524c5e0d2","condition":"full-information","relevant_dimensions":["wings","pattern"],"bee_group":{"antennae":"X","wings":"2","pattern":"S","legs":"X"},"action":"harvest","summary":"good-harvest","bonus":0.02},{"rt":630.0999999940395,"stimulus":"\n                    <p><b>Action: <em>harvest</em></b></p>\n                    <p>This is the bee that you just saw.</p>\n                    <img src=\"bees-with-color/bee-B1DF.svg\" width=\"200\">\n                    <p><span class=\"greenText\"><b>Successful harvest!</b></span><br>Your pay has increased by $0.02. Your bonus pay is now $0.64.</p>\n            ","response":0,"trial_type":"html-button-response","trial_index":36,"time_elapsed":552218,"internal_node_id":"0.0-4.0-1.12","subject_id":"5f07759f859dcb38b8d4c6b5","study_id":"60edd13110225f80f9f3709b","session_id":"6196c3b5ebfa14b524c5e0d2","condition":"full-information","relevant_dimensions":["wings","pattern"],"bee_group":{"antennae":"X","wings":"2","pattern":"S","legs":"X"},"bonus":0.02},{"rt":1378.5999999940395,"stimulus":"bees-with-color/bee-A1DF.svg","response":1,"trial_type":"image-button-response","trial_index":37,"time_elapsed":553598,"internal_node_id":"0.0-4.0-0.13","subject_id":"5f07759f859dcb38b8d4c6b5","study_id":"60edd13110225f80f9f3709b","session_id":"6196c3b5ebfa14b524c5e0d2","condition":"full-information","relevant_dimensions":["wings","pattern"],"bee_group":{"antennae":"X","wings":"2","pattern":"S","legs":"X"},"action":"avoid","summary":"bad-avoid","bonus":0.02},{"rt":618.1000000014901,"stimulus":"\n                    <p><b>Action: <em>avoid</em></b></p>\n                    <p>This is the bee that you just saw.</p>\n                    <img src=\"bees-with-color/bee-A1DF.svg\" width=\"200\">\n                    <p><span class=\"redText\">Bad choice,</span> the bee was friendly.<br>Your bonus pay is unchanged, and remains at $0.64.</p>\n            ","response":0,"trial_type":"html-button-response","trial_index":38,"time_elapsed":554218,"internal_node_id":"0.0-4.0-1.13","subject_id":"5f07759f859dcb38b8d4c6b5","study_id":"60edd13110225f80f9f3709b","session_id":"6196c3b5ebfa14b524c5e0d2","condition":"full-information","relevant_dimensions":["wings","pattern"],"bee_group":{"antennae":"X","wings":"2","pattern":"S","legs":"X"},"bonus":0.02},{"rt":1220.7999999970198,"stimulus":"bees-with-color/bee-A1SF.svg","response":0,"trial_type":"image-button-response","trial_index":39,"time_elapsed":555440,"internal_node_id":"0.0-4.0-0.14","subject_id":"5f07759f859dcb38b8d4c6b5","study_id":"60edd13110225f80f9f3709b","session_id":"6196c3b5ebfa14b524c5e0d2","condition":"full-information","relevant_dimensions":["wings","pattern"],"bee_group":{"antennae":"X","wings":"2","pattern":"S","legs":"X"},"action":"harvest","summary":"good-harvest","bonus":0.02},{"rt":566.1999999955297,"stimulus":"\n                    <p><b>Action: <em>harvest</em></b></p>\n                    <p>This is the bee that you just saw.</p>\n                    <img src=\"bees-with-color/bee-A1SF.svg\" width=\"200\">\n                    <p><span class=\"greenText\"><b>Successful harvest!</b></span><br>Your pay has increased by $0.02. Your bonus pay is now $0.66.</p>\n            ","response":0,"trial_type":"html-button-response","trial_index":40,"time_elapsed":556008,"internal_node_id":"0.0-4.0-1.14","subject_id":"5f07759f859dcb38b8d4c6b5","study_id":"60edd13110225f80f9f3709b","session_id":"6196c3b5ebfa14b524c5e0d2","condition":"full-information","relevant_dimensions":["wings","pattern"],"bee_group":{"antennae":"X","wings":"2","pattern":"S","legs":"X"},"bonus":0.02},{"rt":1080.5,"stimulus":"bees-with-color/bee-A2SF.svg","response":0,"trial_type":"image-button-response","trial_index":41,"time_elapsed":557090,"internal_node_id":"0.0-4.0-0.15","subject_id":"5f07759f859dcb38b8d4c6b5","study_id":"60edd13110225f80f9f3709b","session_id":"6196c3b5ebfa14b524c5e0d2","condition":"full-information","relevant_dimensions":["wings","pattern"],"bee_group":{"antennae":"X","wings":"2","pattern":"S","legs":"X"},"action":"harvest","summary":"bad-harvest","bonus":0.02},{"rt":1972,"stimulus":"\n                    <p><b>Action: <em>harvest</em></b></p>\n                    <p>This is the bee that you just saw.</p>\n                    <img src=\"bees-with-color/bee-A2SF.svg\" width=\"200\">\n                    <p><span class=\"redText\">Bad choice, the bee was angry.</span><br><b>You have been stung!</b><br>Your pay has been decreased by $0.10. Your bonus pay is now $0.56.</p>\n            ","response":0,"trial_type":"html-button-response","trial_index":42,"time_elapsed":559064,"internal_node_id":"0.0-4.0-1.15","subject_id":"5f07759f859dcb38b8d4c6b5","study_id":"60edd13110225f80f9f3709b","session_id":"6196c3b5ebfa14b524c5e0d2","condition":"full-information","relevant_dimensions":["wings","pattern"],"bee_group":{"antennae":"X","wings":"2","pattern":"S","legs":"X"},"bonus":0.02},{"rt":940.3999999985099,"stimulus":"bees-with-color/bee-B1SM.svg","response":0,"trial_type":"image-button-response","trial_index":43,"time_elapsed":560006,"internal_node_id":"0.0-4.0-0.16","subject_id":"5f07759f859dcb38b8d4c6b5","study_id":"60edd13110225f80f9f3709b","session_id":"6196c3b5ebfa14b524c5e0d2","condition":"full-information","relevant_dimensions":["wings","pattern"],"bee_group":{"antennae":"X","wings":"2","pattern":"S","legs":"X"},"action":"harvest","summary":"good-harvest","bonus":0.02},{"rt":619.3000000044703,"stimulus":"\n                    <p><b>Action: <em>harvest</em></b></p>\n                    <p>This is the bee that you just saw.</p>\n                    <img src=\"bees-with-color/bee-B1SM.svg\" width=\"200\">\n                    <p><span class=\"greenText\"><b>Successful harvest!</b></span><br>Your pay has increased by $0.02. Your bonus pay is now $0.58.</p>\n            ","response":0,"trial_type":"html-button-response","trial_index":44,"time_elapsed":560628,"internal_node_id":"0.0-4.0-1.16","subject_id":"5f07759f859dcb38b8d4c6b5","study_id":"60edd13110225f80f9f3709b","session_id":"6196c3b5ebfa14b524c5e0d2","condition":"full-information","relevant_dimensions":["wings","pattern"],"bee_group":{"antennae":"X","wings":"2","pattern":"S","legs":"X"},"bonus":0.02},{"rt":1311.3999999985099,"stimulus":"bees-with-color/bee-A1SF.svg","response":0,"trial_type":"image-button-response","trial_index":45,"time_elapsed":561940,"internal_node_id":"0.0-4.0-0.17","subject_id":"5f07759f859dcb38b8d4c6b5","study_id":"60edd13110225f80f9f3709b","session_id":"6196c3b5ebfa14b524c5e0d2","condition":"full-information","relevant_dimensions":["wings","pattern"],"bee_group":{"antennae":"X","wings":"2","pattern":"S","legs":"X"},"action":"harvest","summary":"good-harvest","bonus":0.02},{"rt":538.1000000014901,"stimulus":"\n                    <p><b>Action: <em>harvest</em></b></p>\n                    <p>This is the bee that you just saw.</p>\n                    <img src=\"bees-with-color/bee-A1SF.svg\" width=\"200\">\n                    <p><span class=\"greenText\"><b>Successful harvest!</b></span><br>Your pay has increased by $0.02. Your bonus pay is now $0.60.</p>\n            ","response":0,"trial_type":"html-button-response","trial_index":46,"time_elapsed":562480,"internal_node_id":"0.0-4.0-1.17","subject_id":"5f07759f859dcb38b8d4c6b5","study_id":"60edd13110225f80f9f3709b","session_id":"6196c3b5ebfa14b524c5e0d2","condition":"full-information","relevant_dimensions":["wings","pattern"],"bee_group":{"antennae":"X","wings":"2","pattern":"S","legs":"X"},"bonus":0.02},{"rt":2008.8999999985099,"stimulus":"bees-with-color/bee-B1DM.svg","response":0,"trial_type":"image-button-response","trial_index":47,"time_elapsed":564490,"internal_node_id":"0.0-4.0-0.18","subject_id":"5f07759f859dcb38b8d4c6b5","study_id":"60edd13110225f80f9f3709b","session_id":"6196c3b5ebfa14b524c5e0d2","condition":"full-information","relevant_dimensions":["wings","pattern"],"bee_group":{"antennae":"X","wings":"2","pattern":"S","legs":"X"},"action":"harvest","summary":"good-harvest","bonus":0.02},{"rt":515.2999999970198,"stimulus":"\n                    <p><b>Action: <em>harvest</em></b></p>\n                    <p>This is the bee that you just saw.</p>\n                    <img src=\"bees-with-color/bee-B1DM.svg\" width=\"200\">\n                    <p><span class=\"greenText\"><b>Successful harvest!</b></span><br>Your pay has increased by $0.02. Your bonus pay is now $0.62.</p>\n            ","response":0,"trial_type":"html-button-response","trial_index":48,"time_elapsed":565007,"internal_node_id":"0.0-4.0-1.18","subject_id":"5f07759f859dcb38b8d4c6b5","study_id":"60edd13110225f80f9f3709b","session_id":"6196c3b5ebfa14b524c5e0d2","condition":"full-information","relevant_dimensions":["wings","pattern"],"bee_group":{"antennae":"X","wings":"2","pattern":"S","legs":"X"},"bonus":0.02},{"rt":2394.5,"stimulus":"bees-with-color/bee-A2SF.svg","response":1,"trial_type":"image-button-response","trial_index":49,"time_elapsed":567403,"internal_node_id":"0.0-4.0-0.19","subject_id":"5f07759f859dcb38b8d4c6b5","study_id":"60edd13110225f80f9f3709b","session_id":"6196c3b5ebfa14b524c5e0d2","condition":"full-information","relevant_dimensions":["wings","pattern"],"bee_group":{"antennae":"X","wings":"2","pattern":"S","legs":"X"},"action":"avoid","summary":"good-avoid","bonus":0.02},{"rt":866.5,"stimulus":"\n                    <p><b>Action: <em>avoid</em></b></p>\n                    <p>This is the bee that you just saw.</p>\n                    <img src=\"bees-with-color/bee-A2SF.svg\" width=\"200\">\n                    <p><span class=\"greenText\">Good choice!</span>  This bee would have stung you.<br>Your bonus pay is unchanged, and remains at $0.62.</p>\n            ","response":0,"trial_type":"html-button-response","trial_index":50,"time_elapsed":568271,"internal_node_id":"0.0-4.0-1.19","subject_id":"5f07759f859dcb38b8d4c6b5","study_id":"60edd13110225f80f9f3709b","session_id":"6196c3b5ebfa14b524c5e0d2","condition":"full-information","relevant_dimensions":["wings","pattern"],"bee_group":{"antennae":"X","wings":"2","pattern":"S","legs":"X"},"bonus":0.02},{"rt":947.7000000029802,"stimulus":"bees-with-color/bee-A1DM.svg","response":0,"trial_type":"image-button-response","trial_index":51,"time_elapsed":569220,"internal_node_id":"0.0-4.0-0.20","subject_id":"5f07759f859dcb38b8d4c6b5","study_id":"60edd13110225f80f9f3709b","session_id":"6196c3b5ebfa14b524c5e0d2","condition":"full-information","relevant_dimensions":["wings","pattern"],"bee_group":{"antennae":"X","wings":"2","pattern":"S","legs":"X"},"action":"harvest","summary":"good-harvest","bonus":0.02},{"rt":533.6000000014901,"stimulus":"\n                    <p><b>Action: <em>harvest</em></b></p>\n                    <p>This is the bee that you just saw.</p>\n                    <img src=\"bees-with-color/bee-A1DM.svg\" width=\"200\">\n                    <p><span class=\"greenText\"><b>Successful harvest!</b></span><br>Your pay has increased by $0.02. Your bonus pay is now $0.64.</p>\n            ","response":0,"trial_type":"html-button-response","trial_index":52,"time_elapsed":569755,"internal_node_id":"0.0-4.0-1.20","subject_id":"5f07759f859dcb38b8d4c6b5","study_id":"60edd13110225f80f9f3709b","session_id":"6196c3b5ebfa14b524c5e0d2","condition":"full-information","relevant_dimensions":["wings","pattern"],"bee_group":{"antennae":"X","wings":"2","pattern":"S","legs":"X"},"bonus":0.02},{"rt":4192.69999999553,"stimulus":"bees-with-color/bee-A2DF.svg","response":0,"trial_type":"image-button-response","trial_index":53,"time_elapsed":573949,"internal_node_id":"0.0-4.0-0.21","subject_id":"5f07759f859dcb38b8d4c6b5","study_id":"60edd13110225f80f9f3709b","session_id":"6196c3b5ebfa14b524c5e0d2","condition":"full-information","relevant_dimensions":["wings","pattern"],"bee_group":{"antennae":"X","wings":"2","pattern":"S","legs":"X"},"action":"harvest","summary":"good-harvest","bonus":0.02},{"rt":566,"stimulus":"\n                    <p><b>Action: <em>harvest</em></b></p>\n                    <p>This is the bee that you just saw.</p>\n                    <img src=\"bees-with-color/bee-A2DF.svg\" width=\"200\">\n                    <p><span class=\"greenText\"><b>Successful harvest!</b></span><br>Your pay has increased by $0.02. Your bonus pay is now $0.66.</p>\n            ","response":0,"trial_type":"html-button-response","trial_index":54,"time_elapsed":574517,"internal_node_id":"0.0-4.0-1.21","subject_id":"5f07759f859dcb38b8d4c6b5","study_id":"60edd13110225f80f9f3709b","session_id":"6196c3b5ebfa14b524c5e0d2","condition":"full-information","relevant_dimensions":["wings","pattern"],"bee_group":{"antennae":"X","wings":"2","pattern":"S","legs":"X"},"bonus":0.02},{"rt":2977.5,"stimulus":"bees-with-color/bee-B2DF.svg","response":0,"trial_type":"image-button-response","trial_index":55,"time_elapsed":577496,"internal_node_id":"0.0-4.0-0.22","subject_id":"5f07759f859dcb38b8d4c6b5","study_id":"60edd13110225f80f9f3709b","session_id":"6196c3b5ebfa14b524c5e0d2","condition":"full-information","relevant_dimensions":["wings","pattern"],"bee_group":{"antennae":"X","wings":"2","pattern":"S","legs":"X"},"action":"harvest","summary":"good-harvest","bonus":0.02},{"rt":669.2999999970198,"stimulus":"\n                    <p><b>Action: <em>harvest</em></b></p>\n                    <p>This is the bee that you just saw.</p>\n                    <img src=\"bees-with-color/bee-B2DF.svg\" width=\"200\">\n                    <p><span class=\"greenText\"><b>Successful harvest!</b></span><br>Your pay has increased by $0.02. Your bonus pay is now $0.68.</p>\n            ","response":0,"trial_type":"html-button-response","trial_index":56,"time_elapsed":578168,"internal_node_id":"0.0-4.0-1.22","subject_id":"5f07759f859dcb38b8d4c6b5","study_id":"60edd13110225f80f9f3709b","session_id":"6196c3b5ebfa14b524c5e0d2","condition":"full-information","relevant_dimensions":["wings","pattern"],"bee_group":{"antennae":"X","wings":"2","pattern":"S","legs":"X"},"bonus":0.02},{"rt":1864.5999999940395,"stimulus":"bees-with-color/bee-A2SM.svg","response":0,"trial_type":"image-button-response","trial_index":57,"time_elapsed":580034,"internal_node_id":"0.0-4.0-0.23","subject_id":"5f07759f859dcb38b8d4c6b5","study_id":"60edd13110225f80f9f3709b","session_id":"6196c3b5ebfa14b524c5e0d2","condition":"full-information","relevant_dimensions":["wings","pattern"],"bee_group":{"antennae":"X","wings":"2","pattern":"S","legs":"X"},"action":"harvest","summary":"bad-harvest","bonus":0.02},{"rt":795.1999999955297,"stimulus":"\n                    <p><b>Action: <em>harvest</em></b></p>\n                    <p>This is the bee that you just saw.</p>\n                    <img src=\"bees-with-color/bee-A2SM.svg\" width=\"200\">\n                    <p><span class=\"redText\">Bad choice, the bee was angry.</span><br><b>You have been stung!</b><br>Your pay has been decreased by $0.10. Your bonus pay is now $0.58.</p>\n            ","response":0,"trial_type":"html-button-response","trial_index":58,"time_elapsed":580831,"internal_node_id":"0.0-4.0-1.23","subject_id":"5f07759f859dcb38b8d4c6b5","study_id":"60edd13110225f80f9f3709b","session_id":"6196c3b5ebfa14b524c5e0d2","condition":"full-information","relevant_dimensions":["wings","pattern"],"bee_group":{"antennae":"X","wings":"2","pattern":"S","legs":"X"},"bonus":0.02},{"rt":1763.2999999970198,"stimulus":"bees-with-color/bee-B1SF.svg","response":0,"trial_type":"image-button-response","trial_index":59,"time_elapsed":582596,"internal_node_id":"0.0-4.0-0.24","subject_id":"5f07759f859dcb38b8d4c6b5","study_id":"60edd13110225f80f9f3709b","session_id":"6196c3b5ebfa14b524c5e0d2","condition":"full-information","relevant_dimensions":["wings","pattern"],"bee_group":{"antennae":"X","wings":"2","pattern":"S","legs":"X"},"action":"harvest","summary":"good-harvest","bonus":0.02},{"rt":434.90000000596046,"stimulus":"\n                    <p><b>Action: <em>harvest</em></b></p>\n                    <p>This is the bee that you just saw.</p>\n                    <img src=\"bees-with-color/bee-B1SF.svg\" width=\"200\">\n                    <p><span class=\"greenText\"><b>Successful harvest!</b></span><br>Your pay has increased by $0.02. Your bonus pay is now $0.60.</p>\n            ","response":0,"trial_type":"html-button-response","trial_index":60,"time_elapsed":583033,"internal_node_id":"0.0-4.0-1.24","subject_id":"5f07759f859dcb38b8d4c6b5","study_id":"60edd13110225f80f9f3709b","session_id":"6196c3b5ebfa14b524c5e0d2","condition":"full-information","relevant_dimensions":["wings","pattern"],"bee_group":{"antennae":"X","wings":"2","pattern":"S","legs":"X"},"bonus":0.02},{"rt":1225.7999999970198,"stimulus":"bees-with-color/bee-B2SF.svg","response":0,"trial_type":"image-button-response","trial_index":61,"time_elapsed":584260,"internal_node_id":"0.0-4.0-0.25","subject_id":"5f07759f859dcb38b8d4c6b5","study_id":"60edd13110225f80f9f3709b","session_id":"6196c3b5ebfa14b524c5e0d2","condition":"full-information","relevant_dimensions":["wings","pattern"],"bee_group":{"antennae":"X","wings":"2","pattern":"S","legs":"X"},"action":"harvest","summary":"bad-harvest","bonus":0.02},{"rt":563.0999999940395,"stimulus":"\n                    <p><b>Action: <em>harvest</em></b></p>\n                    <p>This is the bee that you just saw.</p>\n                    <img src=\"bees-with-color/bee-B2SF.svg\" width=\"200\">\n                    <p><span class=\"redText\">Bad choice, the bee was angry.</span><br><b>You have been stung!</b><br>Your pay has been decreased by $0.10. Your bonus pay is now $0.50.</p>\n            ","response":0,"trial_type":"html-button-response","trial_index":62,"time_elapsed":584825,"internal_node_id":"0.0-4.0-1.25","subject_id":"5f07759f859dcb38b8d4c6b5","study_id":"60edd13110225f80f9f3709b","session_id":"6196c3b5ebfa14b524c5e0d2","condition":"full-information","relevant_dimensions":["wings","pattern"],"bee_group":{"antennae":"X","wings":"2","pattern":"S","legs":"X"},"bonus":0.02},{"rt":1761.6999999955297,"stimulus":"bees-with-color/bee-B1DF.svg","response":0,"trial_type":"image-button-response","trial_index":63,"time_elapsed":586588,"internal_node_id":"0.0-4.0-0.26","subject_id":"5f07759f859dcb38b8d4c6b5","study_id":"60edd13110225f80f9f3709b","session_id":"6196c3b5ebfa14b524c5e0d2","condition":"full-information","relevant_dimensions":["wings","pattern"],"bee_group":{"antennae":"X","wings":"2","pattern":"S","legs":"X"},"action":"harvest","summary":"good-harvest","bonus":0.02},{"rt":530.0999999940395,"stimulus":"\n                    <p><b>Action: <em>harvest</em></b></p>\n                    <p>This is the bee that you just saw.</p>\n                    <img src=\"bees-with-color/bee-B1DF.svg\" width=\"200\">\n                    <p><span class=\"greenText\"><b>Successful harvest!</b></span><br>Your pay has increased by $0.02. Your bonus pay is now $0.52.</p>\n            ","response":0,"trial_type":"html-button-response","trial_index":64,"time_elapsed":587120,"internal_node_id":"0.0-4.0-1.26","subject_id":"5f07759f859dcb38b8d4c6b5","study_id":"60edd13110225f80f9f3709b","session_id":"6196c3b5ebfa14b524c5e0d2","condition":"full-information","relevant_dimensions":["wings","pattern"],"bee_group":{"antennae":"X","wings":"2","pattern":"S","legs":"X"},"bonus":0.02},{"rt":1113.5,"stimulus":"bees-with-color/bee-A1SM.svg","response":0,"trial_type":"image-button-response","trial_index":65,"time_elapsed":588235,"internal_node_id":"0.0-4.0-0.27","subject_id":"5f07759f859dcb38b8d4c6b5","study_id":"60edd13110225f80f9f3709b","session_id":"6196c3b5ebfa14b524c5e0d2","condition":"full-information","relevant_dimensions":["wings","pattern"],"bee_group":{"antennae":"X","wings":"2","pattern":"S","legs":"X"},"action":"harvest","summary":"good-harvest","bonus":0.02},{"rt":455,"stimulus":"\n                    <p><b>Action: <em>harvest</em></b></p>\n                    <p>This is the bee that you just saw.</p>\n                    <img src=\"bees-with-color/bee-A1SM.svg\" width=\"200\">\n                    <p><span class=\"greenText\"><b>Successful harvest!</b></span><br>Your pay has increased by $0.02. Your bonus pay is now $0.54.</p>\n            ","response":0,"trial_type":"html-button-response","trial_index":66,"time_elapsed":588692,"internal_node_id":"0.0-4.0-1.27","subject_id":"5f07759f859dcb38b8d4c6b5","study_id":"60edd13110225f80f9f3709b","session_id":"6196c3b5ebfa14b524c5e0d2","condition":"full-information","relevant_dimensions":["wings","pattern"],"bee_group":{"antennae":"X","wings":"2","pattern":"S","legs":"X"},"bonus":0.02},{"rt":1035.8999999985099,"stimulus":"bees-with-color/bee-B2SM.svg","response":1,"trial_type":"image-button-response","trial_index":67,"time_elapsed":589729,"internal_node_id":"0.0-4.0-0.28","subject_id":"5f07759f859dcb38b8d4c6b5","study_id":"60edd13110225f80f9f3709b","session_id":"6196c3b5ebfa14b524c5e0d2","condition":"full-information","relevant_dimensions":["wings","pattern"],"bee_group":{"antennae":"X","wings":"2","pattern":"S","legs":"X"},"action":"avoid","summary":"good-avoid","bonus":0.02},{"rt":679,"stimulus":"\n                    <p><b>Action: <em>avoid</em></b></p>\n                    <p>This is the bee that you just saw.</p>\n                    <img src=\"bees-with-color/bee-B2SM.svg\" width=\"200\">\n                    <p><span class=\"greenText\">Good choice!</span>  This bee would have stung you.<br>Your bonus pay is unchanged, and remains at $0.54.</p>\n            ","response":0,"trial_type":"html-button-response","trial_index":68,"time_elapsed":590410,"internal_node_id":"0.0-4.0-1.28","subject_id":"5f07759f859dcb38b8d4c6b5","study_id":"60edd13110225f80f9f3709b","session_id":"6196c3b5ebfa14b524c5e0d2","condition":"full-information","relevant_dimensions":["wings","pattern"],"bee_group":{"antennae":"X","wings":"2","pattern":"S","legs":"X"},"bonus":0.02},{"rt":1745.6999999955297,"stimulus":"bees-with-color/bee-B2DM.svg","response":1,"trial_type":"image-button-response","trial_index":69,"time_elapsed":592157,"internal_node_id":"0.0-4.0-0.29","subject_id":"5f07759f859dcb38b8d4c6b5","study_id":"60edd13110225f80f9f3709b","session_id":"6196c3b5ebfa14b524c5e0d2","condition":"full-information","relevant_dimensions":["wings","pattern"],"bee_group":{"antennae":"X","wings":"2","pattern":"S","legs":"X"},"action":"avoid","summary":"bad-avoid","bonus":0.02},{"rt":593.2999999970198,"stimulus":"\n                    <p><b>Action: <em>avoid</em></b></p>\n                    <p>This is the bee that you just saw.</p>\n                    <img src=\"bees-with-color/bee-B2DM.svg\" width=\"200\">\n                    <p><span class=\"redText\">Bad choice,</span> the bee was friendly.<br>Your bonus pay is unchanged, and remains at $0.54.</p>\n            ","response":0,"trial_type":"html-button-response","trial_index":70,"time_elapsed":592752,"internal_node_id":"0.0-4.0-1.29","subject_id":"5f07759f859dcb38b8d4c6b5","study_id":"60edd13110225f80f9f3709b","session_id":"6196c3b5ebfa14b524c5e0d2","condition":"full-information","relevant_dimensions":["wings","pattern"],"bee_group":{"antennae":"X","wings":"2","pattern":"S","legs":"X"},"bonus":0.02},{"rt":849.8999999985099,"stimulus":"bees-with-color/bee-A2DM.svg","response":1,"trial_type":"image-button-response","trial_index":71,"time_elapsed":593603,"internal_node_id":"0.0-4.0-0.30","subject_id":"5f07759f859dcb38b8d4c6b5","study_id":"60edd13110225f80f9f3709b","session_id":"6196c3b5ebfa14b524c5e0d2","condition":"full-information","relevant_dimensions":["wings","pattern"],"bee_group":{"antennae":"X","wings":"2","pattern":"S","legs":"X"},"action":"avoid","summary":"bad-avoid","bonus":0.02},{"rt":787.1000000014901,"stimulus":"\n                    <p><b>Action: <em>avoid</em></b></p>\n                    <p>This is the bee that you just saw.</p>\n                    <img src=\"bees-with-color/bee-A2DM.svg\" width=\"200\">\n                    <p><span class=\"redText\">Bad choice,</span> the bee was friendly.<br>Your bonus pay is unchanged, and remains at $0.54.</p>\n            ","response":0,"trial_type":"html-button-response","trial_index":72,"time_elapsed":594392,"internal_node_id":"0.0-4.0-1.30","subject_id":"5f07759f859dcb38b8d4c6b5","study_id":"60edd13110225f80f9f3709b","session_id":"6196c3b5ebfa14b524c5e0d2","condition":"full-information","relevant_dimensions":["wings","pattern"],"bee_group":{"antennae":"X","wings":"2","pattern":"S","legs":"X"},"bonus":0.02},{"rt":1828,"stimulus":"bees-with-color/bee-A1DF.svg","response":0,"trial_type":"image-button-response","trial_index":73,"time_elapsed":596221,"internal_node_id":"0.0-4.0-0.31","subject_id":"5f07759f859dcb38b8d4c6b5","study_id":"60edd13110225f80f9f3709b","session_id":"6196c3b5ebfa14b524c5e0d2","condition":"full-information","relevant_dimensions":["wings","pattern"],"bee_group":{"antennae":"X","wings":"2","pattern":"S","legs":"X"},"action":"harvest","summary":"good-harvest","bonus":0.02},{"rt":725.2999999970198,"stimulus":"\n                    <p><b>Action: <em>harvest</em></b></p>\n                    <p>This is the bee that you just saw.</p>\n                    <img src=\"bees-with-color/bee-A1DF.svg\" width=\"200\">\n                    <p><span class=\"greenText\"><b>Successful harvest!</b></span><br>Your pay has increased by $0.02. Your bonus pay is now $0.56.</p>\n            ","response":0,"trial_type":"html-button-response","trial_index":74,"time_elapsed":596948,"internal_node_id":"0.0-4.0-1.31","subject_id":"5f07759f859dcb38b8d4c6b5","study_id":"60edd13110225f80f9f3709b","session_id":"6196c3b5ebfa14b524c5e0d2","condition":"full-information","relevant_dimensions":["wings","pattern"],"bee_group":{"antennae":"X","wings":"2","pattern":"S","legs":"X"},"bonus":0.02},{"rt":1474.7999999970198,"stimulus":"bees-with-color/bee-B2DM.svg","response":0,"trial_type":"image-button-response","trial_index":75,"time_elapsed":598424,"internal_node_id":"0.0-4.0-0.32","subject_id":"5f07759f859dcb38b8d4c6b5","study_id":"60edd13110225f80f9f3709b","session_id":"6196c3b5ebfa14b524c5e0d2","condition":"full-information","relevant_dimensions":["wings","pattern"],"bee_group":{"antennae":"X","wings":"2","pattern":"S","legs":"X"},"action":"harvest","summary":"good-harvest","bonus":0.02},{"rt":573.2999999970198,"stimulus":"\n                    <p><b>Action: <em>harvest</em></b></p>\n                    <p>This is the bee that you just saw.</p>\n                    <img src=\"bees-with-color/bee-B2DM.svg\" width=\"200\">\n                    <p><span class=\"greenText\"><b>Successful harvest!</b></span><br>Your pay has increased by $0.02. Your bonus pay is now $0.58.</p>\n            ","response":0,"trial_type":"html-button-response","trial_index":76,"time_elapsed":598999,"internal_node_id":"0.0-4.0-1.32","subject_id":"5f07759f859dcb38b8d4c6b5","study_id":"60edd13110225f80f9f3709b","session_id":"6196c3b5ebfa14b524c5e0d2","condition":"full-information","relevant_dimensions":["wings","pattern"],"bee_group":{"antennae":"X","wings":"2","pattern":"S","legs":"X"},"bonus":0.02},{"rt":2636.7000000029802,"stimulus":"bees-with-color/bee-A1SF.svg","response":0,"trial_type":"image-button-response","trial_index":77,"time_elapsed":601637,"internal_node_id":"0.0-4.0-0.33","subject_id":"5f07759f859dcb38b8d4c6b5","study_id":"60edd13110225f80f9f3709b","session_id":"6196c3b5ebfa14b524c5e0d2","condition":"full-information","relevant_dimensions":["wings","pattern"],"bee_group":{"antennae":"X","wings":"2","pattern":"S","legs":"X"},"action":"harvest","summary":"good-harvest","bonus":0.02},{"rt":474.19999999552965,"stimulus":"\n                    <p><b>Action: <em>harvest</em></b></p>\n                    <p>This is the bee that you just saw.</p>\n                    <img src=\"bees-with-color/bee-A1SF.svg\" width=\"200\">\n                    <p><span class=\"greenText\"><b>Successful harvest!</b></span><br>Your pay has increased by $0.02. Your bonus pay is now $0.60.</p>\n            ","response":0,"trial_type":"html-button-response","trial_index":78,"time_elapsed":602113,"internal_node_id":"0.0-4.0-1.33","subject_id":"5f07759f859dcb38b8d4c6b5","study_id":"60edd13110225f80f9f3709b","session_id":"6196c3b5ebfa14b524c5e0d2","condition":"full-information","relevant_dimensions":["wings","pattern"],"bee_group":{"antennae":"X","wings":"2","pattern":"S","legs":"X"},"bonus":0.02},{"rt":1067.7999999970198,"stimulus":"bees-with-color/bee-B2SF.svg","response":1,"trial_type":"image-button-response","trial_index":79,"time_elapsed":603182,"internal_node_id":"0.0-4.0-0.34","subject_id":"5f07759f859dcb38b8d4c6b5","study_id":"60edd13110225f80f9f3709b","session_id":"6196c3b5ebfa14b524c5e0d2","condition":"full-information","relevant_dimensions":["wings","pattern"],"bee_group":{"antennae":"X","wings":"2","pattern":"S","legs":"X"},"action":"avoid","summary":"good-avoid","bonus":0.02},{"rt":614.8999999985099,"stimulus":"\n                    <p><b>Action: <em>avoid</em></b></p>\n                    <p>This is the bee that you just saw.</p>\n                    <img src=\"bees-with-color/bee-B2SF.svg\" width=\"200\">\n                    <p><span class=\"greenText\">Good choice!</span>  This bee would have stung you.<br>Your bonus pay is unchanged, and remains at $0.60.</p>\n            ","response":0,"trial_type":"html-button-response","trial_index":80,"time_elapsed":603799,"internal_node_id":"0.0-4.0-1.34","subject_id":"5f07759f859dcb38b8d4c6b5","study_id":"60edd13110225f80f9f3709b","session_id":"6196c3b5ebfa14b524c5e0d2","condition":"full-information","relevant_dimensions":["wings","pattern"],"bee_group":{"antennae":"X","wings":"2","pattern":"S","legs":"X"},"bonus":0.02},{"rt":1404.7000000029802,"stimulus":"bees-with-color/bee-A1SM.svg","response":0,"trial_type":"image-button-response","trial_index":81,"time_elapsed":605205,"internal_node_id":"0.0-4.0-0.35","subject_id":"5f07759f859dcb38b8d4c6b5","study_id":"60edd13110225f80f9f3709b","session_id":"6196c3b5ebfa14b524c5e0d2","condition":"full-information","relevant_dimensions":["wings","pattern"],"bee_group":{"antennae":"X","wings":"2","pattern":"S","legs":"X"},"action":"harvest","summary":"good-harvest","bonus":0.02},{"rt":506.30000000447035,"stimulus":"\n                    <p><b>Action: <em>harvest</em></b></p>\n                    <p>This is the bee that you just saw.</p>\n                    <img src=\"bees-with-color/bee-A1SM.svg\" width=\"200\">\n                    <p><span class=\"greenText\"><b>Successful harvest!</b></span><br>Your pay has increased by $0.02. Your bonus pay is now $0.62.</p>\n            ","response":0,"trial_type":"html-button-response","trial_index":82,"time_elapsed":605713,"internal_node_id":"0.0-4.0-1.35","subject_id":"5f07759f859dcb38b8d4c6b5","study_id":"60edd13110225f80f9f3709b","session_id":"6196c3b5ebfa14b524c5e0d2","condition":"full-information","relevant_dimensions":["wings","pattern"],"bee_group":{"antennae":"X","wings":"2","pattern":"S","legs":"X"},"bonus":0.02},{"rt":1213.6000000014901,"stimulus":"bees-with-color/bee-B1SM.svg","response":1,"trial_type":"image-button-response","trial_index":83,"time_elapsed":606928,"internal_node_id":"0.0-4.0-0.36","subject_id":"5f07759f859dcb38b8d4c6b5","study_id":"60edd13110225f80f9f3709b","session_id":"6196c3b5ebfa14b524c5e0d2","condition":"full-information","relevant_dimensions":["wings","pattern"],"bee_group":{"antennae":"X","wings":"2","pattern":"S","legs":"X"},"action":"avoid","summary":"bad-avoid","bonus":0.02},{"rt":585.2999999970198,"stimulus":"\n                    <p><b>Action: <em>avoid</em></b></p>\n                    <p>This is the bee that you just saw.</p>\n                    <img src=\"bees-with-color/bee-B1SM.svg\" width=\"200\">\n                    <p><span class=\"redText\">Bad choice,</span> the bee was friendly.<br>Your bonus pay is unchanged, and remains at $0.62.</p>\n            ","response":0,"trial_type":"html-button-response","trial_index":84,"time_elapsed":607516,"internal_node_id":"0.0-4.0-1.36","subject_id":"5f07759f859dcb38b8d4c6b5","study_id":"60edd13110225f80f9f3709b","session_id":"6196c3b5ebfa14b524c5e0d2","condition":"full-information","relevant_dimensions":["wings","pattern"],"bee_group":{"antennae":"X","wings":"2","pattern":"S","legs":"X"},"bonus":0.02},{"rt":1042.2999999970198,"stimulus":"bees-with-color/bee-A2SF.svg","response":0,"trial_type":"image-button-response","trial_index":85,"time_elapsed":608559,"internal_node_id":"0.0-4.0-0.37","subject_id":"5f07759f859dcb38b8d4c6b5","study_id":"60edd13110225f80f9f3709b","session_id":"6196c3b5ebfa14b524c5e0d2","condition":"full-information","relevant_dimensions":["wings","pattern"],"bee_group":{"antennae":"X","wings":"2","pattern":"S","legs":"X"},"action":"harvest","summary":"bad-harvest","bonus":0.02},{"rt":932.0999999940395,"stimulus":"\n                    <p><b>Action: <em>harvest</em></b></p>\n                    <p>This is the bee that you just saw.</p>\n                    <img src=\"bees-with-color/bee-A2SF.svg\" width=\"200\">\n                    <p><span class=\"redText\">Bad choice, the bee was angry.</span><br><b>You have been stung!</b><br>Your pay has been decreased by $0.10. Your bonus pay is now $0.52.</p>\n            ","response":0,"trial_type":"html-button-response","trial_index":86,"time_elapsed":609493,"internal_node_id":"0.0-4.0-1.37","subject_id":"5f07759f859dcb38b8d4c6b5","study_id":"60edd13110225f80f9f3709b","session_id":"6196c3b5ebfa14b524c5e0d2","condition":"full-information","relevant_dimensions":["wings","pattern"],"bee_group":{"antennae":"X","wings":"2","pattern":"S","legs":"X"},"bonus":0.02},{"rt":1090.6999999955297,"stimulus":"bees-with-color/bee-A1DF.svg","response":0,"trial_type":"image-button-response","trial_index":87,"time_elapsed":610585,"internal_node_id":"0.0-4.0-0.38","subject_id":"5f07759f859dcb38b8d4c6b5","study_id":"60edd13110225f80f9f3709b","session_id":"6196c3b5ebfa14b524c5e0d2","condition":"full-information","relevant_dimensions":["wings","pattern"],"bee_group":{"antennae":"X","wings":"2","pattern":"S","legs":"X"},"action":"harvest","summary":"good-harvest","bonus":0.02},{"rt":575.2999999970198,"stimulus":"\n                    <p><b>Action: <em>harvest</em></b></p>\n                    <p>This is the bee that you just saw.</p>\n                    <img src=\"bees-with-color/bee-A1DF.svg\" width=\"200\">\n                    <p><span class=\"greenText\"><b>Successful harvest!</b></span><br>Your pay has increased by $0.02. Your bonus pay is now $0.54.</p>\n            ","response":0,"trial_type":"html-button-response","trial_index":88,"time_elapsed":611162,"internal_node_id":"0.0-4.0-1.38","subject_id":"5f07759f859dcb38b8d4c6b5","study_id":"60edd13110225f80f9f3709b","session_id":"6196c3b5ebfa14b524c5e0d2","condition":"full-information","relevant_dimensions":["wings","pattern"],"bee_group":{"antennae":"X","wings":"2","pattern":"S","legs":"X"},"bonus":0.02},{"rt":1299.5,"stimulus":"bees-with-color/bee-A1DM.svg","response":0,"trial_type":"image-button-response","trial_index":89,"time_elapsed":612463,"internal_node_id":"0.0-4.0-0.39","subject_id":"5f07759f859dcb38b8d4c6b5","study_id":"60edd13110225f80f9f3709b","session_id":"6196c3b5ebfa14b524c5e0d2","condition":"full-information","relevant_dimensions":["wings","pattern"],"bee_group":{"antennae":"X","wings":"2","pattern":"S","legs":"X"},"action":"harvest","summary":"good-harvest","bonus":0.02},{"rt":482.19999999552965,"stimulus":"\n                    <p><b>Action: <em>harvest</em></b></p>\n                    <p>This is the bee that you just saw.</p>\n                    <img src=\"bees-with-color/bee-A1DM.svg\" width=\"200\">\n                    <p><span class=\"greenText\"><b>Successful harvest!</b></span><br>Your pay has increased by $0.02. Your bonus pay is now $0.56.</p>\n            ","response":0,"trial_type":"html-button-response","trial_index":90,"time_elapsed":612947,"internal_node_id":"0.0-4.0-1.39","subject_id":"5f07759f859dcb38b8d4c6b5","study_id":"60edd13110225f80f9f3709b","session_id":"6196c3b5ebfa14b524c5e0d2","condition":"full-information","relevant_dimensions":["wings","pattern"],"bee_group":{"antennae":"X","wings":"2","pattern":"S","legs":"X"},"bonus":0.02},{"rt":840.5999999940395,"stimulus":"bees-with-color/bee-B1DM.svg","response":1,"trial_type":"image-button-response","trial_index":91,"time_elapsed":613789,"internal_node_id":"0.0-4.0-0.40","subject_id":"5f07759f859dcb38b8d4c6b5","study_id":"60edd13110225f80f9f3709b","session_id":"6196c3b5ebfa14b524c5e0d2","condition":"full-information","relevant_dimensions":["wings","pattern"],"bee_group":{"antennae":"X","wings":"2","pattern":"S","legs":"X"},"action":"avoid","summary":"bad-avoid","bonus":0.02},{"rt":671.2000000029802,"stimulus":"\n                    <p><b>Action: <em>avoid</em></b></p>\n                    <p>This is the bee that you just saw.</p>\n                    <img src=\"bees-with-color/bee-B1DM.svg\" width=\"200\">\n                    <p><span class=\"redText\">Bad choice,</span> the bee was friendly.<br>Your bonus pay is unchanged, and remains at $0.56.</p>\n            ","response":0,"trial_type":"html-button-response","trial_index":92,"time_elapsed":614462,"internal_node_id":"0.0-4.0-1.40","subject_id":"5f07759f859dcb38b8d4c6b5","study_id":"60edd13110225f80f9f3709b","session_id":"6196c3b5ebfa14b524c5e0d2","condition":"full-information","relevant_dimensions":["wings","pattern"],"bee_group":{"antennae":"X","wings":"2","pattern":"S","legs":"X"},"bonus":0.02},{"rt":1126.7999999970198,"stimulus":"bees-with-color/bee-B1DF.svg","response":1,"trial_type":"image-button-response","trial_index":93,"time_elapsed":615590,"internal_node_id":"0.0-4.0-0.41","subject_id":"5f07759f859dcb38b8d4c6b5","study_id":"60edd13110225f80f9f3709b","session_id":"6196c3b5ebfa14b524c5e0d2","condition":"full-information","relevant_dimensions":["wings","pattern"],"bee_group":{"antennae":"X","wings":"2","pattern":"S","legs":"X"},"action":"avoid","summary":"bad-avoid","bonus":0.02},{"rt":712.2999999970198,"stimulus":"\n                    <p><b>Action: <em>avoid</em></b></p>\n                    <p>This is the bee that you just saw.</p>\n                    <img src=\"bees-with-color/bee-B1DF.svg\" width=\"200\">\n                    <p><span class=\"redText\">Bad choice,</span> the bee was friendly.<br>Your bonus pay is unchanged, and remains at $0.56.</p>\n            ","response":0,"trial_type":"html-button-response","trial_index":94,"time_elapsed":616304,"internal_node_id":"0.0-4.0-1.41","subject_id":"5f07759f859dcb38b8d4c6b5","study_id":"60edd13110225f80f9f3709b","session_id":"6196c3b5ebfa14b524c5e0d2","condition":"full-information","relevant_dimensions":["wings","pattern"],"bee_group":{"antennae":"X","wings":"2","pattern":"S","legs":"X"},"bonus":0.02},{"rt":891.7999999970198,"stimulus":"bees-with-color/bee-B2SM.svg","response":1,"trial_type":"image-button-response","trial_index":95,"time_elapsed":617197,"internal_node_id":"0.0-4.0-0.42","subject_id":"5f07759f859dcb38b8d4c6b5","study_id":"60edd13110225f80f9f3709b","session_id":"6196c3b5ebfa14b524c5e0d2","condition":"full-information","relevant_dimensions":["wings","pattern"],"bee_group":{"antennae":"X","wings":"2","pattern":"S","legs":"X"},"action":"avoid","summary":"good-avoid","bonus":0.02},{"rt":593.1000000014901,"stimulus":"\n                    <p><b>Action: <em>avoid</em></b></p>\n                    <p>This is the bee that you just saw.</p>\n                    <img src=\"bees-with-color/bee-B2SM.svg\" width=\"200\">\n                    <p><span class=\"greenText\">Good choice!</span>  This bee would have stung you.<br>Your bonus pay is unchanged, and remains at $0.56.</p>\n            ","response":0,"trial_type":"html-button-response","trial_index":96,"time_elapsed":617792,"internal_node_id":"0.0-4.0-1.42","subject_id":"5f07759f859dcb38b8d4c6b5","study_id":"60edd13110225f80f9f3709b","session_id":"6196c3b5ebfa14b524c5e0d2","condition":"full-information","relevant_dimensions":["wings","pattern"],"bee_group":{"antennae":"X","wings":"2","pattern":"S","legs":"X"},"bonus":0.02},{"rt":804.7999999970198,"stimulus":"bees-with-color/bee-B2DF.svg","response":0,"trial_type":"image-button-response","trial_index":97,"time_elapsed":618598,"internal_node_id":"0.0-4.0-0.43","subject_id":"5f07759f859dcb38b8d4c6b5","study_id":"60edd13110225f80f9f3709b","session_id":"6196c3b5ebfa14b524c5e0d2","condition":"full-information","relevant_dimensions":["wings","pattern"],"bee_group":{"antennae":"X","wings":"2","pattern":"S","legs":"X"},"action":"harvest","summary":"good-harvest","bonus":0.02},{"rt":526.7999999970198,"stimulus":"\n                    <p><b>Action: <em>harvest</em></b></p>\n                    <p>This is the bee that you just saw.</p>\n                    <img src=\"bees-with-color/bee-B2DF.svg\" width=\"200\">\n                    <p><span class=\"greenText\"><b>Successful harvest!</b></span><br>Your pay has increased by $0.02. Your bonus pay is now $0.58.</p>\n            ","response":0,"trial_type":"html-button-response","trial_index":98,"time_elapsed":619128,"internal_node_id":"0.0-4.0-1.43","subject_id":"5f07759f859dcb38b8d4c6b5","study_id":"60edd13110225f80f9f3709b","session_id":"6196c3b5ebfa14b524c5e0d2","condition":"full-information","relevant_dimensions":["wings","pattern"],"bee_group":{"antennae":"X","wings":"2","pattern":"S","legs":"X"},"bonus":0.02},{"rt":1373,"stimulus":"bees-with-color/bee-A2DF.svg","response":0,"trial_type":"image-button-response","trial_index":99,"time_elapsed":620502,"internal_node_id":"0.0-4.0-0.44","subject_id":"5f07759f859dcb38b8d4c6b5","study_id":"60edd13110225f80f9f3709b","session_id":"6196c3b5ebfa14b524c5e0d2","condition":"full-information","relevant_dimensions":["wings","pattern"],"bee_group":{"antennae":"X","wings":"2","pattern":"S","legs":"X"},"action":"harvest","summary":"good-harvest","bonus":0.02},{"rt":481.1000000014901,"stimulus":"\n                    <p><b>Action: <em>harvest</em></b></p>\n                    <p>This is the bee that you just saw.</p>\n                    <img src=\"bees-with-color/bee-A2DF.svg\" width=\"200\">\n                    <p><span class=\"greenText\"><b>Successful harvest!</b></span><br>Your pay has increased by $0.02. Your bonus pay is now $0.60.</p>\n            ","response":0,"trial_type":"html-button-response","trial_index":100,"time_elapsed":620985,"internal_node_id":"0.0-4.0-1.44","subject_id":"5f07759f859dcb38b8d4c6b5","study_id":"60edd13110225f80f9f3709b","session_id":"6196c3b5ebfa14b524c5e0d2","condition":"full-information","relevant_dimensions":["wings","pattern"],"bee_group":{"antennae":"X","wings":"2","pattern":"S","legs":"X"},"bonus":0.02},{"rt":938,"stimulus":"bees-with-color/bee-A2DM.svg","response":0,"trial_type":"image-button-response","trial_index":101,"time_elapsed":621924,"internal_node_id":"0.0-4.0-0.45","subject_id":"5f07759f859dcb38b8d4c6b5","study_id":"60edd13110225f80f9f3709b","session_id":"6196c3b5ebfa14b524c5e0d2","condition":"full-information","relevant_dimensions":["wings","pattern"],"bee_group":{"antennae":"X","wings":"2","pattern":"S","legs":"X"},"action":"harvest","summary":"good-harvest","bonus":0.02},{"rt":523.1999999955297,"stimulus":"\n                    <p><b>Action: <em>harvest</em></b></p>\n                    <p>This is the bee that you just saw.</p>\n                    <img src=\"bees-with-color/bee-A2DM.svg\" width=\"200\">\n                    <p><span class=\"greenText\"><b>Successful harvest!</b></span><br>Your pay has increased by $0.02. Your bonus pay is now $0.62.</p>\n            ","response":0,"trial_type":"html-button-response","trial_index":102,"time_elapsed":622449,"internal_node_id":"0.0-4.0-1.45","subject_id":"5f07759f859dcb38b8d4c6b5","study_id":"60edd13110225f80f9f3709b","session_id":"6196c3b5ebfa14b524c5e0d2","condition":"full-information","relevant_dimensions":["wings","pattern"],"bee_group":{"antennae":"X","wings":"2","pattern":"S","legs":"X"},"bonus":0.02},{"rt":1246.6999999955297,"stimulus":"bees-with-color/bee-B1SF.svg","response":0,"trial_type":"image-button-response","trial_index":103,"time_elapsed":623697,"internal_node_id":"0.0-4.0-0.46","subject_id":"5f07759f859dcb38b8d4c6b5","study_id":"60edd13110225f80f9f3709b","session_id":"6196c3b5ebfa14b524c5e0d2","condition":"full-information","relevant_dimensions":["wings","pattern"],"bee_group":{"antennae":"X","wings":"2","pattern":"S","legs":"X"},"action":"harvest","summary":"good-harvest","bonus":0.02},{"rt":584,"stimulus":"\n                    <p><b>Action: <em>harvest</em></b></p>\n                    <p>This is the bee that you just saw.</p>\n                    <img src=\"bees-with-color/bee-B1SF.svg\" width=\"200\">\n                    <p><span class=\"greenText\"><b>Successful harvest!</b></span><br>Your pay has increased by $0.02. Your bonus pay is now $0.64.</p>\n            ","response":0,"trial_type":"html-button-response","trial_index":104,"time_elapsed":624283,"internal_node_id":"0.0-4.0-1.46","subject_id":"5f07759f859dcb38b8d4c6b5","study_id":"60edd13110225f80f9f3709b","session_id":"6196c3b5ebfa14b524c5e0d2","condition":"full-information","relevant_dimensions":["wings","pattern"],"bee_group":{"antennae":"X","wings":"2","pattern":"S","legs":"X"},"bonus":0.02},{"rt":1441.8999999985099,"stimulus":"bees-with-color/bee-A2SM.svg","response":0,"trial_type":"image-button-response","trial_index":105,"time_elapsed":625726,"internal_node_id":"0.0-4.0-0.47","subject_id":"5f07759f859dcb38b8d4c6b5","study_id":"60edd13110225f80f9f3709b","session_id":"6196c3b5ebfa14b524c5e0d2","condition":"full-information","relevant_dimensions":["wings","pattern"],"bee_group":{"antennae":"X","wings":"2","pattern":"S","legs":"X"},"action":"harvest","summary":"bad-harvest","bonus":0.02},{"rt":1051,"stimulus":"\n                    <p><b>Action: <em>harvest</em></b></p>\n                    <p>This is the bee that you just saw.</p>\n                    <img src=\"bees-with-color/bee-A2SM.svg\" width=\"200\">\n                    <p><span class=\"redText\">Bad choice, the bee was angry.</span><br><b>You have been stung!</b><br>Your pay has been decreased by $0.10. Your bonus pay is now $0.54.</p>\n            ","response":0,"trial_type":"html-button-response","trial_index":106,"time_elapsed":626779,"internal_node_id":"0.0-4.0-1.47","subject_id":"5f07759f859dcb38b8d4c6b5","study_id":"60edd13110225f80f9f3709b","session_id":"6196c3b5ebfa14b524c5e0d2","condition":"full-information","relevant_dimensions":["wings","pattern"],"bee_group":{"antennae":"X","wings":"2","pattern":"S","legs":"X"},"bonus":0.02},{"rt":868.6000000014901,"stimulus":"bees-with-color/bee-B2SM.svg","response":0,"trial_type":"image-button-response","trial_index":107,"time_elapsed":627649,"internal_node_id":"0.0-4.0-0.48","subject_id":"5f07759f859dcb38b8d4c6b5","study_id":"60edd13110225f80f9f3709b","session_id":"6196c3b5ebfa14b524c5e0d2","condition":"full-information","relevant_dimensions":["wings","pattern"],"bee_group":{"antennae":"X","wings":"2","pattern":"S","legs":"X"},"action":"harvest","summary":"bad-harvest","bonus":0.02},{"rt":575.1999999955297,"stimulus":"\n                    <p><b>Action: <em>harvest</em></b></p>\n                    <p>This is the bee that you just saw.</p>\n                    <img src=\"bees-with-color/bee-B2SM.svg\" width=\"200\">\n                    <p><span class=\"redText\">Bad choice, the bee was angry.</span><br><b>You have been stung!</b><br>Your pay has been decreased by $0.10. Your bonus pay is now $0.44.</p>\n            ","response":0,"trial_type":"html-button-response","trial_index":108,"time_elapsed":628226,"internal_node_id":"0.0-4.0-1.48","subject_id":"5f07759f859dcb38b8d4c6b5","study_id":"60edd13110225f80f9f3709b","session_id":"6196c3b5ebfa14b524c5e0d2","condition":"full-information","relevant_dimensions":["wings","pattern"],"bee_group":{"antennae":"X","wings":"2","pattern":"S","legs":"X"},"bonus":0.02},{"rt":1445.7999999970198,"stimulus":"bees-with-color/bee-B1DF.svg","response":0,"trial_type":"image-button-response","trial_index":109,"time_elapsed":629673,"internal_node_id":"0.0-4.0-0.49","subject_id":"5f07759f859dcb38b8d4c6b5","study_id":"60edd13110225f80f9f3709b","session_id":"6196c3b5ebfa14b524c5e0d2","condition":"full-information","relevant_dimensions":["wings","pattern"],"bee_group":{"antennae":"X","wings":"2","pattern":"S","legs":"X"},"action":"harvest","summary":"good-harvest","bonus":0.02},{"rt":985.0999999940395,"stimulus":"\n                    <p><b>Action: <em>harvest</em></b></p>\n                    <p>This is the bee that you just saw.</p>\n                    <img src=\"bees-with-color/bee-B1DF.svg\" width=\"200\">\n                    <p><span class=\"greenText\"><b>Successful harvest!</b></span><br>Your pay has increased by $0.02. Your bonus pay is now $0.46.</p>\n            ","response":0,"trial_type":"html-button-response","trial_index":110,"time_elapsed":630660,"internal_node_id":"0.0-4.0-1.49","subject_id":"5f07759f859dcb38b8d4c6b5","study_id":"60edd13110225f80f9f3709b","session_id":"6196c3b5ebfa14b524c5e0d2","condition":"full-information","relevant_dimensions":["wings","pattern"],"bee_group":{"antennae":"X","wings":"2","pattern":"S","legs":"X"},"bonus":0.02},{"rt":2749.39999999851,"stimulus":"bees-with-color/bee-A2SF.svg","response":0,"trial_type":"image-button-response","trial_index":111,"time_elapsed":633413,"internal_node_id":"0.0-4.0-0.50","subject_id":"5f07759f859dcb38b8d4c6b5","study_id":"60edd13110225f80f9f3709b","session_id":"6196c3b5ebfa14b524c5e0d2","condition":"full-information","relevant_dimensions":["wings","pattern"],"bee_group":{"antennae":"X","wings":"2","pattern":"S","legs":"X"},"action":"harvest","summary":"bad-harvest","bonus":0.02},{"rt":599.6000000014901,"stimulus":"\n                    <p><b>Action: <em>harvest</em></b></p>\n                    <p>This is the bee that you just saw.</p>\n                    <img src=\"bees-with-color/bee-A2SF.svg\" width=\"200\">\n                    <p><span class=\"redText\">Bad choice, the bee was angry.</span><br><b>You have been stung!</b><br>Your pay has been decreased by $0.10. Your bonus pay is now $0.36.</p>\n            ","response":0,"trial_type":"html-button-response","trial_index":112,"time_elapsed":634015,"internal_node_id":"0.0-4.0-1.50","subject_id":"5f07759f859dcb38b8d4c6b5","study_id":"60edd13110225f80f9f3709b","session_id":"6196c3b5ebfa14b524c5e0d2","condition":"full-information","relevant_dimensions":["wings","pattern"],"bee_group":{"antennae":"X","wings":"2","pattern":"S","legs":"X"},"bonus":0.02},{"rt":885.7999999970198,"stimulus":"bees-with-color/bee-A2DF.svg","response":0,"trial_type":"image-button-response","trial_index":113,"time_elapsed":634902,"internal_node_id":"0.0-4.0-0.51","subject_id":"5f07759f859dcb38b8d4c6b5","study_id":"60edd13110225f80f9f3709b","session_id":"6196c3b5ebfa14b524c5e0d2","condition":"full-information","relevant_dimensions":["wings","pattern"],"bee_group":{"antennae":"X","wings":"2","pattern":"S","legs":"X"},"action":"harvest","summary":"good-harvest","bonus":0.02},{"rt":435.8999999985099,"stimulus":"\n                    <p><b>Action: <em>harvest</em></b></p>\n                    <p>This is the bee that you just saw.</p>\n                    <img src=\"bees-with-color/bee-A2DF.svg\" width=\"200\">\n                    <p><span class=\"greenText\"><b>Successful harvest!</b></span><br>Your pay has increased by $0.02. Your bonus pay is now $0.38.</p>\n            ","response":0,"trial_type":"html-button-response","trial_index":114,"time_elapsed":635340,"internal_node_id":"0.0-4.0-1.51","subject_id":"5f07759f859dcb38b8d4c6b5","study_id":"60edd13110225f80f9f3709b","session_id":"6196c3b5ebfa14b524c5e0d2","condition":"full-information","relevant_dimensions":["wings","pattern"],"bee_group":{"antennae":"X","wings":"2","pattern":"S","legs":"X"},"bonus":0.02},{"rt":977.5999999940395,"stimulus":"bees-with-color/bee-A2DM.svg","response":1,"trial_type":"image-button-response","trial_index":115,"time_elapsed":636319,"internal_node_id":"0.0-4.0-0.52","subject_id":"5f07759f859dcb38b8d4c6b5","study_id":"60edd13110225f80f9f3709b","session_id":"6196c3b5ebfa14b524c5e0d2","condition":"full-information","relevant_dimensions":["wings","pattern"],"bee_group":{"antennae":"X","wings":"2","pattern":"S","legs":"X"},"action":"avoid","summary":"bad-avoid","bonus":0.02},{"rt":541.1000000014901,"stimulus":"\n                    <p><b>Action: <em>avoid</em></b></p>\n                    <p>This is the bee that you just saw.</p>\n                    <img src=\"bees-with-color/bee-A2DM.svg\" width=\"200\">\n                    <p><span class=\"redText\">Bad choice,</span> the bee was friendly.<br>Your bonus pay is unchanged, and remains at $0.38.</p>\n            ","response":0,"trial_type":"html-button-response","trial_index":116,"time_elapsed":636862,"internal_node_id":"0.0-4.0-1.52","subject_id":"5f07759f859dcb38b8d4c6b5","study_id":"60edd13110225f80f9f3709b","session_id":"6196c3b5ebfa14b524c5e0d2","condition":"full-information","relevant_dimensions":["wings","pattern"],"bee_group":{"antennae":"X","wings":"2","pattern":"S","legs":"X"},"bonus":0.02},{"rt":1915.9000000059605,"stimulus":"bees-with-color/bee-B2DF.svg","response":0,"trial_type":"image-button-response","trial_index":117,"time_elapsed":638779,"internal_node_id":"0.0-4.0-0.53","subject_id":"5f07759f859dcb38b8d4c6b5","study_id":"60edd13110225f80f9f3709b","session_id":"6196c3b5ebfa14b524c5e0d2","condition":"full-information","relevant_dimensions":["wings","pattern"],"bee_group":{"antennae":"X","wings":"2","pattern":"S","legs":"X"},"action":"harvest","summary":"good-harvest","bonus":0.02},{"rt":501.3999999985099,"stimulus":"\n                    <p><b>Action: <em>harvest</em></b></p>\n                    <p>This is the bee that you just saw.</p>\n                    <img src=\"bees-with-color/bee-B2DF.svg\" width=\"200\">\n                    <p><span class=\"greenText\"><b>Successful harvest!</b></span><br>Your pay has increased by $0.02. Your bonus pay is now $0.40.</p>\n            ","response":0,"trial_type":"html-button-response","trial_index":118,"time_elapsed":639282,"internal_node_id":"0.0-4.0-1.53","subject_id":"5f07759f859dcb38b8d4c6b5","study_id":"60edd13110225f80f9f3709b","session_id":"6196c3b5ebfa14b524c5e0d2","condition":"full-information","relevant_dimensions":["wings","pattern"],"bee_group":{"antennae":"X","wings":"2","pattern":"S","legs":"X"},"bonus":0.02},{"rt":1160.8999999985099,"stimulus":"bees-with-color/bee-B2DM.svg","response":0,"trial_type":"image-button-response","trial_index":119,"time_elapsed":640444,"internal_node_id":"0.0-4.0-0.54","subject_id":"5f07759f859dcb38b8d4c6b5","study_id":"60edd13110225f80f9f3709b","session_id":"6196c3b5ebfa14b524c5e0d2","condition":"full-information","relevant_dimensions":["wings","pattern"],"bee_group":{"antennae":"X","wings":"2","pattern":"S","legs":"X"},"action":"harvest","summary":"good-harvest","bonus":0.02},{"rt":564.2999999970198,"stimulus":"\n                    <p><b>Action: <em>harvest</em></b></p>\n                    <p>This is the bee that you just saw.</p>\n                    <img src=\"bees-with-color/bee-B2DM.svg\" width=\"200\">\n                    <p><span class=\"greenText\"><b>Successful harvest!</b></span><br>Your pay has increased by $0.02. Your bonus pay is now $0.42.</p>\n            ","response":0,"trial_type":"html-button-response","trial_index":120,"time_elapsed":641010,"internal_node_id":"0.0-4.0-1.54","subject_id":"5f07759f859dcb38b8d4c6b5","study_id":"60edd13110225f80f9f3709b","session_id":"6196c3b5ebfa14b524c5e0d2","condition":"full-information","relevant_dimensions":["wings","pattern"],"bee_group":{"antennae":"X","wings":"2","pattern":"S","legs":"X"},"bonus":0.02},{"rt":988.7000000029802,"stimulus":"bees-with-color/bee-A1DM.svg","response":1,"trial_type":"image-button-response","trial_index":121,"time_elapsed":642000,"internal_node_id":"0.0-4.0-0.55","subject_id":"5f07759f859dcb38b8d4c6b5","study_id":"60edd13110225f80f9f3709b","session_id":"6196c3b5ebfa14b524c5e0d2","condition":"full-information","relevant_dimensions":["wings","pattern"],"bee_group":{"antennae":"X","wings":"2","pattern":"S","legs":"X"},"action":"avoid","summary":"bad-avoid","bonus":0.02},{"rt":514.3999999985099,"stimulus":"\n                    <p><b>Action: <em>avoid</em></b></p>\n                    <p>This is the bee that you just saw.</p>\n                    <img src=\"bees-with-color/bee-A1DM.svg\" width=\"200\">\n                    <p><span class=\"redText\">Bad choice,</span> the bee was friendly.<br>Your bonus pay is unchanged, and remains at $0.42.</p>\n            ","response":0,"trial_type":"html-button-response","trial_index":122,"time_elapsed":642516,"internal_node_id":"0.0-4.0-1.55","subject_id":"5f07759f859dcb38b8d4c6b5","study_id":"60edd13110225f80f9f3709b","session_id":"6196c3b5ebfa14b524c5e0d2","condition":"full-information","relevant_dimensions":["wings","pattern"],"bee_group":{"antennae":"X","wings":"2","pattern":"S","legs":"X"},"bonus":0.02},{"rt":1392.7999999970198,"stimulus":"bees-with-color/bee-B1DM.svg","response":1,"trial_type":"image-button-response","trial_index":123,"time_elapsed":643910,"internal_node_id":"0.0-4.0-0.56","subject_id":"5f07759f859dcb38b8d4c6b5","study_id":"60edd13110225f80f9f3709b","session_id":"6196c3b5ebfa14b524c5e0d2","condition":"full-information","relevant_dimensions":["wings","pattern"],"bee_group":{"antennae":"X","wings":"2","pattern":"S","legs":"X"},"action":"avoid","summary":"bad-avoid","bonus":0.02},{"rt":637.1000000014901,"stimulus":"\n                    <p><b>Action: <em>avoid</em></b></p>\n                    <p>This is the bee that you just saw.</p>\n                    <img src=\"bees-with-color/bee-B1DM.svg\" width=\"200\">\n                    <p><span class=\"redText\">Bad choice,</span> the bee was friendly.<br>Your bonus pay is unchanged, and remains at $0.42.</p>\n            ","response":0,"trial_type":"html-button-response","trial_index":124,"time_elapsed":644549,"internal_node_id":"0.0-4.0-1.56","subject_id":"5f07759f859dcb38b8d4c6b5","study_id":"60edd13110225f80f9f3709b","session_id":"6196c3b5ebfa14b524c5e0d2","condition":"full-information","relevant_dimensions":["wings","pattern"],"bee_group":{"antennae":"X","wings":"2","pattern":"S","legs":"X"},"bonus":0.02},{"rt":874.7999999970198,"stimulus":"bees-with-color/bee-A1SM.svg","response":1,"trial_type":"image-button-response","trial_index":125,"time_elapsed":645425,"internal_node_id":"0.0-4.0-0.57","subject_id":"5f07759f859dcb38b8d4c6b5","study_id":"60edd13110225f80f9f3709b","session_id":"6196c3b5ebfa14b524c5e0d2","condition":"full-information","relevant_dimensions":["wings","pattern"],"bee_group":{"antennae":"X","wings":"2","pattern":"S","legs":"X"},"action":"avoid","summary":"bad-avoid","bonus":0.02},{"rt":1012.2999999970198,"stimulus":"\n                    <p><b>Action: <em>avoid</em></b></p>\n                    <p>This is the bee that you just saw.</p>\n                    <img src=\"bees-with-color/bee-A1SM.svg\" width=\"200\">\n                    <p><span class=\"redText\">Bad choice,</span> the bee was friendly.<br>Your bonus pay is unchanged, and remains at $0.42.</p>\n            ","response":0,"trial_type":"html-button-response","trial_index":126,"time_elapsed":646439,"internal_node_id":"0.0-4.0-1.57","subject_id":"5f07759f859dcb38b8d4c6b5","study_id":"60edd13110225f80f9f3709b","session_id":"6196c3b5ebfa14b524c5e0d2","condition":"full-information","relevant_dimensions":["wings","pattern"],"bee_group":{"antennae":"X","wings":"2","pattern":"S","legs":"X"},"bonus":0.02},{"rt":792.6999999955297,"stimulus":"bees-with-color/bee-A2SM.svg","response":1,"trial_type":"image-button-response","trial_index":127,"time_elapsed":647233,"internal_node_id":"0.0-4.0-0.58","subject_id":"5f07759f859dcb38b8d4c6b5","study_id":"60edd13110225f80f9f3709b","session_id":"6196c3b5ebfa14b524c5e0d2","condition":"full-information","relevant_dimensions":["wings","pattern"],"bee_group":{"antennae":"X","wings":"2","pattern":"S","legs":"X"},"action":"avoid","summary":"good-avoid","bonus":0.02},{"rt":714.7999999970198,"stimulus":"\n                    <p><b>Action: <em>avoid</em></b></p>\n                    <p>This is the bee that you just saw.</p>\n                    <img src=\"bees-with-color/bee-A2SM.svg\" width=\"200\">\n                    <p><span class=\"greenText\">Good choice!</span>  This bee would have stung you.<br>Your bonus pay is unchanged, and remains at $0.42.</p>\n            ","response":0,"trial_type":"html-button-response","trial_index":128,"time_elapsed":647951,"internal_node_id":"0.0-4.0-1.58","subject_id":"5f07759f859dcb38b8d4c6b5","study_id":"60edd13110225f80f9f3709b","session_id":"6196c3b5ebfa14b524c5e0d2","condition":"full-information","relevant_dimensions":["wings","pattern"],"bee_group":{"antennae":"X","wings":"2","pattern":"S","legs":"X"},"bonus":0.02},{"rt":592.1000000014901,"stimulus":"bees-with-color/bee-B2SF.svg","response":0,"trial_type":"image-button-response","trial_index":129,"time_elapsed":648547,"internal_node_id":"0.0-4.0-0.59","subject_id":"5f07759f859dcb38b8d4c6b5","study_id":"60edd13110225f80f9f3709b","session_id":"6196c3b5ebfa14b524c5e0d2","condition":"full-information","relevant_dimensions":["wings","pattern"],"bee_group":{"antennae":"X","wings":"2","pattern":"S","legs":"X"},"action":"harvest","summary":"bad-harvest","bonus":0.02},{"rt":716.1999999955297,"stimulus":"\n                    <p><b>Action: <em>harvest</em></b></p>\n                    <p>This is the bee that you just saw.</p>\n                    <img src=\"bees-with-color/bee-B2SF.svg\" width=\"200\">\n                    <p><span class=\"redText\">Bad choice, the bee was angry.</span><br><b>You have been stung!</b><br>Your pay has been decreased by $0.10. Your bonus pay is now $0.32.</p>\n            ","response":0,"trial_type":"html-button-response","trial_index":130,"time_elapsed":649265,"internal_node_id":"0.0-4.0-1.59","subject_id":"5f07759f859dcb38b8d4c6b5","study_id":"60edd13110225f80f9f3709b","session_id":"6196c3b5ebfa14b524c5e0d2","condition":"full-information","relevant_dimensions":["wings","pattern"],"bee_group":{"antennae":"X","wings":"2","pattern":"S","legs":"X"},"bonus":0.02},{"rt":1291.6999999955297,"stimulus":"bees-with-color/bee-A1SF.svg","response":0,"trial_type":"image-button-response","trial_index":131,"time_elapsed":650558,"internal_node_id":"0.0-4.0-0.60","subject_id":"5f07759f859dcb38b8d4c6b5","study_id":"60edd13110225f80f9f3709b","session_id":"6196c3b5ebfa14b524c5e0d2","condition":"full-information","relevant_dimensions":["wings","pattern"],"bee_group":{"antennae":"X","wings":"2","pattern":"S","legs":"X"},"action":"harvest","summary":"good-harvest","bonus":0.02},{"rt":526.1999999955297,"stimulus":"\n                    <p><b>Action: <em>harvest</em></b></p>\n                    <p>This is the bee that you just saw.</p>\n                    <img src=\"bees-with-color/bee-A1SF.svg\" width=\"200\">\n                    <p><span class=\"greenText\"><b>Successful harvest!</b></span><br>Your pay has increased by $0.02. Your bonus pay is now $0.34.</p>\n            ","response":0,"trial_type":"html-button-response","trial_index":132,"time_elapsed":651086,"internal_node_id":"0.0-4.0-1.60","subject_id":"5f07759f859dcb38b8d4c6b5","study_id":"60edd13110225f80f9f3709b","session_id":"6196c3b5ebfa14b524c5e0d2","condition":"full-information","relevant_dimensions":["wings","pattern"],"bee_group":{"antennae":"X","wings":"2","pattern":"S","legs":"X"},"bonus":0.02},{"rt":976.6999999955297,"stimulus":"bees-with-color/bee-B1SF.svg","response":0,"trial_type":"image-button-response","trial_index":133,"time_elapsed":652064,"internal_node_id":"0.0-4.0-0.61","subject_id":"5f07759f859dcb38b8d4c6b5","study_id":"60edd13110225f80f9f3709b","session_id":"6196c3b5ebfa14b524c5e0d2","condition":"full-information","relevant_dimensions":["wings","pattern"],"bee_group":{"antennae":"X","wings":"2","pattern":"S","legs":"X"},"action":"harvest","summary":"good-harvest","bonus":0.02},{"rt":429.30000000447035,"stimulus":"\n                    <p><b>Action: <em>harvest</em></b></p>\n                    <p>This is the bee that you just saw.</p>\n                    <img src=\"bees-with-color/bee-B1SF.svg\" width=\"200\">\n                    <p><span class=\"greenText\"><b>Successful harvest!</b></span><br>Your pay has increased by $0.02. Your bonus pay is now $0.36.</p>\n            ","response":0,"trial_type":"html-button-response","trial_index":134,"time_elapsed":652496,"internal_node_id":"0.0-4.0-1.61","subject_id":"5f07759f859dcb38b8d4c6b5","study_id":"60edd13110225f80f9f3709b","session_id":"6196c3b5ebfa14b524c5e0d2","condition":"full-information","relevant_dimensions":["wings","pattern"],"bee_group":{"antennae":"X","wings":"2","pattern":"S","legs":"X"},"bonus":0.02},{"rt":4413.29999999702,"stimulus":"bees-with-color/bee-A1DF.svg","response":0,"trial_type":"image-button-response","trial_index":135,"time_elapsed":656910,"internal_node_id":"0.0-4.0-0.62","subject_id":"5f07759f859dcb38b8d4c6b5","study_id":"60edd13110225f80f9f3709b","session_id":"6196c3b5ebfa14b524c5e0d2","condition":"full-information","relevant_dimensions":["wings","pattern"],"bee_group":{"antennae":"X","wings":"2","pattern":"S","legs":"X"},"action":"harvest","summary":"good-harvest","bonus":0.02},{"rt":858.9000000059605,"stimulus":"\n                    <p><b>Action: <em>harvest</em></b></p>\n                    <p>This is the bee that you just saw.</p>\n                    <img src=\"bees-with-color/bee-A1DF.svg\" width=\"200\">\n                    <p><span class=\"greenText\"><b>Successful harvest!</b></span><br>Your pay has increased by $0.02. Your bonus pay is now $0.38.</p>\n            ","response":0,"trial_type":"html-button-response","trial_index":136,"time_elapsed":657771,"internal_node_id":"0.0-4.0-1.62","subject_id":"5f07759f859dcb38b8d4c6b5","study_id":"60edd13110225f80f9f3709b","session_id":"6196c3b5ebfa14b524c5e0d2","condition":"full-information","relevant_dimensions":["wings","pattern"],"bee_group":{"antennae":"X","wings":"2","pattern":"S","legs":"X"},"bonus":0.02},{"rt":1189.2000000029802,"stimulus":"bees-with-color/bee-B1SM.svg","response":1,"trial_type":"image-button-response","trial_index":137,"time_elapsed":658962,"internal_node_id":"0.0-4.0-0.63","subject_id":"5f07759f859dcb38b8d4c6b5","study_id":"60edd13110225f80f9f3709b","session_id":"6196c3b5ebfa14b524c5e0d2","condition":"full-information","relevant_dimensions":["wings","pattern"],"bee_group":{"antennae":"X","wings":"2","pattern":"S","legs":"X"},"action":"avoid","summary":"bad-avoid","bonus":0.02},{"rt":569.0999999940395,"stimulus":"\n                    <p><b>Action: <em>avoid</em></b></p>\n                    <p>This is the bee that you just saw.</p>\n                    <img src=\"bees-with-color/bee-B1SM.svg\" width=\"200\">\n                    <p><span class=\"redText\">Bad choice,</span> the bee was friendly.<br>Your bonus pay is unchanged, and remains at $0.38.</p>\n            ","response":0,"trial_type":"html-button-response","trial_index":138,"time_elapsed":659533,"internal_node_id":"0.0-4.0-1.63","subject_id":"5f07759f859dcb38b8d4c6b5","study_id":"60edd13110225f80f9f3709b","session_id":"6196c3b5ebfa14b524c5e0d2","condition":"full-information","relevant_dimensions":["wings","pattern"],"bee_group":{"antennae":"X","wings":"2","pattern":"S","legs":"X"},"bonus":0.02},{"rt":4970.80000000447,"stimulus":"You have completed the first part of this experiment.<br><br>You will now begin a shorter second part, in which you will receive no feedback.<br>The same rules regarding bonus pay apply.<br><br>Press any key to begin.","response":"k","trial_type":"html-keyboard-response","trial_index":139,"time_elapsed":664506,"internal_node_id":"0.0-5.0","subject_id":"5f07759f859dcb38b8d4c6b5","study_id":"60edd13110225f80f9f3709b","session_id":"6196c3b5ebfa14b524c5e0d2","condition":"full-information","relevant_dimensions":["wings","pattern"],"bee_group":{"antennae":"X","wings":"2","pattern":"S","legs":"X"},"bonus":0.02},{"rt":6881.60000000149,"stimulus":"bees-with-color/bee-A2SM.svg","response":0,"trial_type":"image-button-response","trial_index":140,"time_elapsed":671396,"internal_node_id":"0.0-6.0-0.0","subject_id":"5f07759f859dcb38b8d4c6b5","study_id":"60edd13110225f80f9f3709b","session_id":"6196c3b5ebfa14b524c5e0d2","condition":"full-information","relevant_dimensions":["wings","pattern"],"bee_group":{"antennae":"X","wings":"2","pattern":"S","legs":"X"},"bonus":0.02},{"rt":6121.39999999851,"stimulus":"bees-with-color/bee-B1DF.svg","response":0,"trial_type":"image-button-response","trial_index":141,"time_elapsed":677519,"internal_node_id":"0.0-6.0-0.1","subject_id":"5f07759f859dcb38b8d4c6b5","study_id":"60edd13110225f80f9f3709b","session_id":"6196c3b5ebfa14b524c5e0d2","condition":"full-information","relevant_dimensions":["wings","pattern"],"bee_group":{"antennae":"X","wings":"2","pattern":"S","legs":"X"},"bonus":0.02},{"rt":1786,"stimulus":"bees-with-color/bee-A1SF.svg","response":1,"trial_type":"image-button-response","trial_index":142,"time_elapsed":679307,"internal_node_id":"0.0-6.0-0.2","subject_id":"5f07759f859dcb38b8d4c6b5","study_id":"60edd13110225f80f9f3709b","session_id":"6196c3b5ebfa14b524c5e0d2","condition":"full-information","relevant_dimensions":["wings","pattern"],"bee_group":{"antennae":"X","wings":"2","pattern":"S","legs":"X"},"bonus":0.02},{"rt":1535.8999999985099,"stimulus":"bees-with-color/bee-B2DM.svg","response":0,"trial_type":"image-button-response","trial_index":143,"time_elapsed":680845,"internal_node_id":"0.0-6.0-0.3","subject_id":"5f07759f859dcb38b8d4c6b5","study_id":"60edd13110225f80f9f3709b","session_id":"6196c3b5ebfa14b524c5e0d2","condition":"full-information","relevant_dimensions":["wings","pattern"],"bee_group":{"antennae":"X","wings":"2","pattern":"S","legs":"X"},"bonus":0.02},{"rt":1055,"stimulus":"bees-with-color/bee-B1DM.svg","response":1,"trial_type":"image-button-response","trial_index":144,"time_elapsed":681902,"internal_node_id":"0.0-6.0-0.4","subject_id":"5f07759f859dcb38b8d4c6b5","study_id":"60edd13110225f80f9f3709b","session_id":"6196c3b5ebfa14b524c5e0d2","condition":"full-information","relevant_dimensions":["wings","pattern"],"bee_group":{"antennae":"X","wings":"2","pattern":"S","legs":"X"},"bonus":0.02},{"rt":1971.1000000014901,"stimulus":"bees-with-color/bee-A2DM.svg","response":1,"trial_type":"image-button-response","trial_index":145,"time_elapsed":683875,"internal_node_id":"0.0-6.0-0.5","subject_id":"5f07759f859dcb38b8d4c6b5","study_id":"60edd13110225f80f9f3709b","session_id":"6196c3b5ebfa14b524c5e0d2","condition":"full-information","relevant_dimensions":["wings","pattern"],"bee_group":{"antennae":"X","wings":"2","pattern":"S","legs":"X"},"bonus":0.02},{"rt":775,"stimulus":"bees-with-color/bee-B1SF.svg","response":0,"trial_type":"image-button-response","trial_index":146,"time_elapsed":684652,"internal_node_id":"0.0-6.0-0.6","subject_id":"5f07759f859dcb38b8d4c6b5","study_id":"60edd13110225f80f9f3709b","session_id":"6196c3b5ebfa14b524c5e0d2","condition":"full-information","relevant_dimensions":["wings","pattern"],"bee_group":{"antennae":"X","wings":"2","pattern":"S","legs":"X"},"bonus":0.02},{"rt":1119.2999999970198,"stimulus":"bees-with-color/bee-A2SF.svg","response":0,"trial_type":"image-button-response","trial_index":147,"time_elapsed":685773,"internal_node_id":"0.0-6.0-0.7","subject_id":"5f07759f859dcb38b8d4c6b5","study_id":"60edd13110225f80f9f3709b","session_id":"6196c3b5ebfa14b524c5e0d2","condition":"full-information","relevant_dimensions":["wings","pattern"],"bee_group":{"antennae":"X","wings":"2","pattern":"S","legs":"X"},"bonus":0.02},{"rt":1050.9000000059605,"stimulus":"bees-with-color/bee-A2DF.svg","response":0,"trial_type":"image-button-response","trial_index":148,"time_elapsed":686826,"internal_node_id":"0.0-6.0-0.8","subject_id":"5f07759f859dcb38b8d4c6b5","study_id":"60edd13110225f80f9f3709b","session_id":"6196c3b5ebfa14b524c5e0d2","condition":"full-information","relevant_dimensions":["wings","pattern"],"bee_group":{"antennae":"X","wings":"2","pattern":"S","legs":"X"},"bonus":0.02},{"rt":9121.09999999404,"stimulus":"bees-with-color/bee-B1SM.svg","response":0,"trial_type":"image-button-response","trial_index":149,"time_elapsed":695949,"internal_node_id":"0.0-6.0-0.9","subject_id":"5f07759f859dcb38b8d4c6b5","study_id":"60edd13110225f80f9f3709b","session_id":"6196c3b5ebfa14b524c5e0d2","condition":"full-information","relevant_dimensions":["wings","pattern"],"bee_group":{"antennae":"X","wings":"2","pattern":"S","legs":"X"},"bonus":0.02},{"rt":8727.10000000149,"stimulus":"bees-with-color/bee-B2DF.svg","response":0,"trial_type":"image-button-response","trial_index":150,"time_elapsed":704680,"internal_node_id":"0.0-6.0-0.10","subject_id":"5f07759f859dcb38b8d4c6b5","study_id":"60edd13110225f80f9f3709b","session_id":"6196c3b5ebfa14b524c5e0d2","condition":"full-information","relevant_dimensions":["wings","pattern"],"bee_group":{"antennae":"X","wings":"2","pattern":"S","legs":"X"},"bonus":0.02},{"rt":4177.60000000149,"stimulus":"bees-with-color/bee-A1DF.svg","response":0,"trial_type":"image-button-response","trial_index":151,"time_elapsed":708860,"internal_node_id":"0.0-6.0-0.11","subject_id":"5f07759f859dcb38b8d4c6b5","study_id":"60edd13110225f80f9f3709b","session_id":"6196c3b5ebfa14b524c5e0d2","condition":"full-information","relevant_dimensions":["wings","pattern"],"bee_group":{"antennae":"X","wings":"2","pattern":"S","legs":"X"},"bonus":0.02},{"rt":1345.6999999955297,"stimulus":"bees-with-color/bee-B2SM.svg","response":0,"trial_type":"image-button-response","trial_index":152,"time_elapsed":710208,"internal_node_id":"0.0-6.0-0.12","subject_id":"5f07759f859dcb38b8d4c6b5","study_id":"60edd13110225f80f9f3709b","session_id":"6196c3b5ebfa14b524c5e0d2","condition":"full-information","relevant_dimensions":["wings","pattern"],"bee_group":{"antennae":"X","wings":"2","pattern":"S","legs":"X"},"bonus":0.02},{"rt":900,"stimulus":"bees-with-color/bee-A1DM.svg","response":1,"trial_type":"image-button-response","trial_index":153,"time_elapsed":711110,"internal_node_id":"0.0-6.0-0.13","subject_id":"5f07759f859dcb38b8d4c6b5","study_id":"60edd13110225f80f9f3709b","session_id":"6196c3b5ebfa14b524c5e0d2","condition":"full-information","relevant_dimensions":["wings","pattern"],"bee_group":{"antennae":"X","wings":"2","pattern":"S","legs":"X"},"bonus":0.02},{"rt":8470.80000000447,"stimulus":"bees-with-color/bee-A1SM.svg","response":0,"trial_type":"image-button-response","trial_index":154,"time_elapsed":719585,"internal_node_id":"0.0-6.0-0.14","subject_id":"5f07759f859dcb38b8d4c6b5","study_id":"60edd13110225f80f9f3709b","session_id":"6196c3b5ebfa14b524c5e0d2","condition":"full-information","relevant_dimensions":["wings","pattern"],"bee_group":{"antennae":"X","wings":"2","pattern":"S","legs":"X"},"bonus":0.02},{"rt":7952.20000000298,"stimulus":"bees-with-color/bee-B2SF.svg","response":0,"trial_type":"image-button-response","trial_index":155,"time_elapsed":727542,"internal_node_id":"0.0-6.0-0.15","subject_id":"5f07759f859dcb38b8d4c6b5","study_id":"60edd13110225f80f9f3709b","session_id":"6196c3b5ebfa14b524c5e0d2","condition":"full-information","relevant_dimensions":["wings","pattern"],"bee_group":{"antennae":"X","wings":"2","pattern":"S","legs":"X"},"bonus":0.02},{"rt":1460.1999999955297,"stimulus":"bees-with-color/bee-A2DM.svg","response":0,"trial_type":"image-button-response","trial_index":156,"time_elapsed":729004,"internal_node_id":"0.0-6.0-0.16","subject_id":"5f07759f859dcb38b8d4c6b5","study_id":"60edd13110225f80f9f3709b","session_id":"6196c3b5ebfa14b524c5e0d2","condition":"full-information","relevant_dimensions":["wings","pattern"],"bee_group":{"antennae":"X","wings":"2","pattern":"S","legs":"X"},"bonus":0.02},{"rt":1127,"stimulus":"bees-with-color/bee-B2DM.svg","response":1,"trial_type":"image-button-response","trial_index":157,"time_elapsed":730133,"internal_node_id":"0.0-6.0-0.17","subject_id":"5f07759f859dcb38b8d4c6b5","study_id":"60edd13110225f80f9f3709b","session_id":"6196c3b5ebfa14b524c5e0d2","condition":"full-information","relevant_dimensions":["wings","pattern"],"bee_group":{"antennae":"X","wings":"2","pattern":"S","legs":"X"},"bonus":0.02},{"rt":2747.8000000044703,"stimulus":"bees-with-color/bee-B1DM.svg","response":0,"trial_type":"image-button-response","trial_index":158,"time_elapsed":732882,"internal_node_id":"0.0-6.0-0.18","subject_id":"5f07759f859dcb38b8d4c6b5","study_id":"60edd13110225f80f9f3709b","session_id":"6196c3b5ebfa14b524c5e0d2","condition":"full-information","relevant_dimensions":["wings","pattern"],"bee_group":{"antennae":"X","wings":"2","pattern":"S","legs":"X"},"bonus":0.02},{"rt":1260.2000000029802,"stimulus":"bees-with-color/bee-B2SM.svg","response":1,"trial_type":"image-button-response","trial_index":159,"time_elapsed":734144,"internal_node_id":"0.0-6.0-0.19","subject_id":"5f07759f859dcb38b8d4c6b5","study_id":"60edd13110225f80f9f3709b","session_id":"6196c3b5ebfa14b524c5e0d2","condition":"full-information","relevant_dimensions":["wings","pattern"],"bee_group":{"antennae":"X","wings":"2","pattern":"S","legs":"X"},"bonus":0.02},{"rt":1386.2000000029802,"stim