[{"success":true,"trial_type":"fullscreen","trial_index":0,"time_elapsed":3275,"internal_node_id":"0.0-0.0","subject_id":"5feca892539a38e4b0e52fd1","study_id":"6197b3f67c2b5cd3b6d9596a","session_id":"6197b9ebb4f2523d33843526","condition":"full-information","relevant_dimensions":["wings","pattern"],"bee_group":{"antennae":"X","wings":"1","pattern":"D","legs":"X"},"bonus":0.06},{"success":true,"timeout":false,"failed_images":[],"failed_audio":[],"failed_video":[],"trial_type":"preload","trial_index":1,"time_elapsed":6307,"internal_node_id":"0.0-1.0","subject_id":"5feca892539a38e4b0e52fd1","study_id":"6197b3f67c2b5cd3b6d9596a","session_id":"6197b9ebb4f2523d33843526","condition":"full-information","relevant_dimensions":["wings","pattern"],"bee_group":{"antennae":"X","wings":"1","pattern":"D","legs":"X"},"bonus":0.06},{"rt":3549,"stimulus":"Welcome! Press any key to begin.","response":"enter","trial_type":"html-keyboard-response","trial_index":2,"time_elapsed":9858,"internal_node_id":"0.0-2.0","subject_id":"5feca892539a38e4b0e52fd1","study_id":"6197b3f67c2b5cd3b6d9596a","session_id":"6197b9ebb4f2523d33843526","condition":"full-information","relevant_dimensions":["wings","pattern"],"bee_group":{"antennae":"X","wings":"1","pattern":"D","legs":"X"},"bonus":0.06},{"view_history":[{"page_index":0,"viewing_time":6244.9000000003725},{"page_index":1,"viewing_time":11166},{"page_index":2,"viewing_time":11840.099999999627},{"page_index":3,"viewing_time":18569.400000000373},{"page_index":4,"viewing_time":8993.700000001118},{"page_index":5,"viewing_time":5555.299999998882},{"page_index":6,"viewing_time":9895.599999999627},{"page_index":7,"viewing_time":14535.700000001118},{"page_index":8,"viewing_time":6349},{"page_index":9,"viewing_time":5396.299999998882},{"page_index":10,"viewing_time":4540.800000000745},{"page_index":11,"viewing_time":9645.400000000373},{"page_index":12,"viewing_time":19439.799999998882},{"page_index":13,"viewing_time":1649.1000000014901},{"page_index":14,"viewing_time":1832.8999999985099}],"rt":135654.40000000037,"trial_type":"instructions","trial_index":3,"time_elapsed":145513,"internal_node_id":"0.0-3.0-0.0","subject_id":"5feca892539a38e4b0e52fd1","study_id":"6197b3f67c2b5cd3b6d9596a","session_id":"6197b9ebb4f2523d33843526","condition":"full-information","relevant_dimensions":["wings","pattern"],"bee_group":{"antennae":"X","wings":"1","pattern":"D","legs":"X"},"bonus":0.06},{"rt":17465.699999999255,"response":{"Q0":["Two or six legs","Stripes or spots on body","Antennae or no antennae"]},"question_order":[0],"trial_type":"survey-multi-select","trial_index":4,"time_elapsed":162984,"internal_node_id":"0.0-3.0-1.0","subject_id":"5feca892539a38e4b0e52fd1","study_id":"6197b3f67c2b5cd3b6d9596a","session_id":"6197b9ebb4f2523d33843526","condition":"full-information","relevant_dimensions":["wings","pattern"],"bee_group":{"antennae":"X","wings":"1","pattern":"D","legs":"X"},"correct":false,"bonus":0.06},{"rt":24894.599999999627,"response":{"Q1":"No.","Q2":"Based on the four features of the bee.","Q3":"You learn if it was friendly or dangerous, but do not alter your bonus."},"question_order":[0,1,2],"trial_type":"survey-multi-choice","trial_index":5,"time_elapsed":187881,"internal_node_id":"0.0-3.0-2.0","subject_id":"5feca892539a38e4b0e52fd1","study_id":"6197b3f67c2b5cd3b6d9596a","session_id":"6197b9ebb4f2523d33843526","condition":"full-information","relevant_dimensions":["wings","pattern"],"bee_group":{"antennae":"X","wings":"1","pattern":"D","legs":"X"},"correct":true,"bonus":0.06},{"rt":3943.9000000003725,"stimulus":"<p>You did not answer all comprehension questions correctly.<br>Press <b>continue</b> to review the instructions again.</p>","response":0,"trial_type":"html-button-response","trial_index":6,"time_elapsed":191827,"internal_node_id":"0.0-3.0-3.0","subject_id":"5feca892539a38e4b0e52fd1","study_id":"6197b3f67c2b5cd3b6d9596a","session_id":"6197b9ebb4f2523d33843526","condition":"full-information","relevant_dimensions":["wings","pattern"],"bee_group":{"antennae":"X","wings":"1","pattern":"D","legs":"X"},"bonus":0.06},{"view_history":[{"page_index":0,"viewing_time":2466.800000000745},{"page_index":1,"viewing_time":2003},{"page_index":2,"viewing_time":1698},{"page_index":3,"viewing_time":3589.39999999851},{"page_index":4,"viewing_time":2297.60000000149},{"page_index":5,"viewing_time":1184.699999999255},{"page_index":6,"viewing_time":1722.9000000003725},{"page_index":7,"viewing_time":5651.699999999255},{"page_index":8,"viewing_time":1624.2000000011176},{"page_index":9,"viewing_time":1136.199999999255},{"page_index":10,"viewing_time":770.1999999992549},{"page_index":11,"viewing_time":1819.5},{"page_index":12,"viewing_time":1782.5},{"page_index":13,"viewing_time":1245.300000000745},{"page_index":14,"viewing_time":953.0999999996275}],"rt":29945.5,"trial_type":"instructions","trial_index":7,"time_elapsed":221773,"internal_node_id":"0.0-3.0-4.0-0.0","subject_id":"5feca892539a38e4b0e52fd1","study_id":"6197b3f67c2b5cd3b6d9596a","session_id":"6197b9ebb4f2523d33843526","condition":"full-information","relevant_dimensions":["wings","pattern"],"bee_group":{"antennae":"X","wings":"1","pattern":"D","legs":"X"},"bonus":0.06},{"rt":18117.400000000373,"response":{"Q0":["Two or six legs","Stripes or spots on body","Single or double wings","Antennae or no antennae"]},"question_order":[0],"trial_type":"survey-multi-select","trial_index":8,"time_elapsed":239895,"internal_node_id":"0.0-3.0-4.0-1.0","subject_id":"5feca892539a38e4b0e52fd1","study_id":"6197b3f67c2b5cd3b6d9596a","session_id":"6197b9ebb4f2523d33843526","condition":"full-information","relevant_dimensions":["wings","pattern"],"bee_group":{"antennae":"X","wings":"1","pattern":"D","legs":"X"},"correct":true,"bonus":0.06},{"rt":7911.0999999996275,"response":{"Q1":"No.","Q2":"Based on the four features of the bee.","Q3":"You learn if it was friendly or dangerous, but do not alter your bonus."},"question_order":[0,1,2],"trial_type":"survey-multi-choice","trial_index":9,"time_elapsed":247808,"internal_node_id":"0.0-3.0-4.0-2.0","subject_id":"5feca892539a38e4b0e52fd1","study_id":"6197b3f67c2b5cd3b6d9596a","session_id":"6197b9ebb4f2523d33843526","condition":"full-information","relevant_dimensions":["wings","pattern"],"bee_group":{"antennae":"X","wings":"1","pattern":"D","legs":"X"},"correct":true,"bonus":0.06},{"rt":1621.9000000003725,"stimulus":"<p>Congrats, you got everything right<br>When you're ready, click the button below to continue to the experiment.</p>","response":0,"trial_type":"html-button-response","trial_index":10,"time_elapsed":249431,"internal_node_id":"0.0-3.0-4.0-3.0","subject_id":"5feca892539a38e4b0e52fd1","study_id":"6197b3f67c2b5cd3b6d9596a","session_id":"6197b9ebb4f2523d33843526","condition":"full-information","relevant_dimensions":["wings","pattern"],"bee_group":{"antennae":"X","wings":"1","pattern":"D","legs":"X"},"bonus":0.06},{"rt":5526.9000000003725,"stimulus":"bees-with-color/bee-A1SM.svg","response":0,"trial_type":"image-button-response","trial_index":11,"time_elapsed":254961,"internal_node_id":"0.0-4.0-0.0","subject_id":"5feca892539a38e4b0e52fd1","study_id":"6197b3f67c2b5cd3b6d9596a","session_id":"6197b9ebb4f2523d33843526","condition":"full-information","relevant_dimensions":["wings","pattern"],"bee_group":{"antennae":"X","wings":"1","pattern":"D","legs":"X"},"action":"harvest","summary":"good-harvest","bonus":0.06},{"rt":1888.5,"stimulus":"\n                    <p><b>Action: <em>harvest</em></b></p>\n                    <p>This is the bee that you just saw.</p>\n                    <img src=\"bees-with-color/bee-A1SM.svg\" width=\"200\">\n                    <p><span class=\"greenText\"><b>Successful harvest!</b></span><br>Your pay has increased by $0.02. Your bonus pay is now $0.56.</p>\n            ","response":0,"trial_type":"html-button-response","trial_index":12,"time_elapsed":256904,"internal_node_id":"0.0-4.0-1.0","subject_id":"5feca892539a38e4b0e52fd1","study_id":"6197b3f67c2b5cd3b6d9596a","session_id":"6197b9ebb4f2523d33843526","condition":"full-information","relevant_dimensions":["wings","pattern"],"bee_group":{"antennae":"X","wings":"1","pattern":"D","legs":"X"},"bonus":0.06},{"rt":5568.300000000745,"stimulus":"bees-with-color/bee-B2DF.svg","response":0,"trial_type":"image-button-response","trial_index":13,"time_elapsed":262474,"internal_node_id":"0.0-4.0-0.1","subject_id":"5feca892539a38e4b0e52fd1","study_id":"6197b3f67c2b5cd3b6d9596a","session_id":"6197b9ebb4f2523d33843526","condition":"full-information","relevant_dimensions":["wings","pattern"],"bee_group":{"antennae":"X","wings":"1","pattern":"D","legs":"X"},"action":"harvest","summary":"good-harvest","bonus":0.06},{"rt":3325.300000000745,"stimulus":"\n                    <p><b>Action: <em>harvest</em></b></p>\n                    <p>This is the bee that you just saw.</p>\n                    <img src=\"bees-with-color/bee-B2DF.svg\" width=\"200\">\n                    <p><span class=\"greenText\"><b>Successful harvest!</b></span><br>Your pay has increased by $0.02. Your bonus pay is now $0.58.</p>\n            ","response":0,"trial_type":"html-button-response","trial_index":14,"time_elapsed":265802,"internal_node_id":"0.0-4.0-1.1","subject_id":"5feca892539a38e4b0e52fd1","study_id":"6197b3f67c2b5cd3b6d9596a","session_id":"6197b9ebb4f2523d33843526","condition":"full-information","relevant_dimensions":["wings","pattern"],"bee_group":{"antennae":"X","wings":"1","pattern":"D","legs":"X"},"bonus":0.06},{"rt":7949.9000000003725,"stimulus":"bees-with-color/bee-B1SM.svg","response":0,"trial_type":"image-button-response","trial_index":15,"time_elapsed":273754,"internal_node_id":"0.0-4.0-0.2","subject_id":"5feca892539a38e4b0e52fd1","study_id":"6197b3f67c2b5cd3b6d9596a","session_id":"6197b9ebb4f2523d33843526","condition":"full-information","relevant_dimensions":["wings","pattern"],"bee_group":{"antennae":"X","wings":"1","pattern":"D","legs":"X"},"action":"harvest","summary":"good-harvest","bonus":0.06},{"rt":1794,"stimulus":"\n                    <p><b>Action: <em>harvest</em></b></p>\n                    <p>This is the bee that you just saw.</p>\n                    <img src=\"bees-with-color/bee-B1SM.svg\" width=\"200\">\n                    <p><span class=\"greenText\"><b>Successful harvest!</b></span><br>Your pay has increased by $0.02. Your bonus pay is now $0.60.</p>\n            ","response":0,"trial_type":"html-button-response","trial_index":16,"time_elapsed":275550,"internal_node_id":"0.0-4.0-1.2","subject_id":"5feca892539a38e4b0e52fd1","study_id":"6197b3f67c2b5cd3b6d9596a","session_id":"6197b9ebb4f2523d33843526","condition":"full-information","relevant_dimensions":["wings","pattern"],"bee_group":{"antennae":"X","wings":"1","pattern":"D","legs":"X"},"bonus":0.06},{"rt":4054.10000000149,"stimulus":"bees-with-color/bee-B2SF.svg","response":0,"trial_type":"image-button-response","trial_index":17,"time_elapsed":279606,"internal_node_id":"0.0-4.0-0.3","subject_id":"5feca892539a38e4b0e52fd1","study_id":"6197b3f67c2b5cd3b6d9596a","session_id":"6197b9ebb4f2523d33843526","condition":"full-information","relevant_dimensions":["wings","pattern"],"bee_group":{"antennae":"X","wings":"1","pattern":"D","legs":"X"},"action":"harvest","summary":"good-harvest","bonus":0.06},{"rt":987.8000000007451,"stimulus":"\n                    <p><b>Action: <em>harvest</em></b></p>\n                    <p>This is the bee that you just saw.</p>\n                    <img src=\"bees-with-color/bee-B2SF.svg\" width=\"200\">\n                    <p><span class=\"greenText\"><b>Successful harvest!</b></span><br>Your pay has increased by $0.02. Your bonus pay is now $0.62.</p>\n            ","response":0,"trial_type":"html-button-response","trial_index":18,"time_elapsed":280596,"internal_node_id":"0.0-4.0-1.3","subject_id":"5feca892539a38e4b0e52fd1","study_id":"6197b3f67c2b5cd3b6d9596a","session_id":"6197b9ebb4f2523d33843526","condition":"full-information","relevant_dimensions":["wings","pattern"],"bee_group":{"antennae":"X","wings":"1","pattern":"D","legs":"X"},"bonus":0.06},{"rt":3100.7999999988824,"stimulus":"bees-with-color/bee-B1DM.svg","response":0,"trial_type":"image-button-response","trial_index":19,"time_elapsed":283698,"internal_node_id":"0.0-4.0-0.4","subject_id":"5feca892539a38e4b0e52fd1","study_id":"6197b3f67c2b5cd3b6d9596a","session_id":"6197b9ebb4f2523d33843526","condition":"full-information","relevant_dimensions":["wings","pattern"],"bee_group":{"antennae":"X","wings":"1","pattern":"D","legs":"X"},"action":"harvest","summary":"bad-harvest","bonus":0.06},{"rt":8959.099999999627,"stimulus":"\n                    <p><b>Action: <em>harvest</em></b></p>\n                    <p>This is the bee that you just saw.</p>\n                    <img src=\"bees-with-color/bee-B1DM.svg\" width=\"200\">\n                    <p><span class=\"redText\">Bad choice, the bee was angry.</span><br><b>You have been stung!</b><br>Your pay has been decreased by $0.10. Your bonus pay is now $0.52.</p>\n            ","response":0,"trial_type":"html-button-response","trial_index":20,"time_elapsed":292659,"internal_node_id":"0.0-4.0-1.4","subject_id":"5feca892539a38e4b0e52fd1","study_id":"6197b3f67c2b5cd3b6d9596a","session_id":"6197b9ebb4f2523d33843526","condition":"full-information","relevant_dimensions":["wings","pattern"],"bee_group":{"antennae":"X","wings":"1","pattern":"D","legs":"X"},"bonus":0.06},{"rt":1770.4000000003725,"stimulus":"bees-with-color/bee-B1DF.svg","response":0,"trial_type":"image-button-response","trial_index":21,"time_elapsed":294432,"internal_node_id":"0.0-4.0-0.5","subject_id":"5feca892539a38e4b0e52fd1","study_id":"6197b3f67c2b5cd3b6d9596a","session_id":"6197b9ebb4f2523d33843526","condition":"full-information","relevant_dimensions":["wings","pattern"],"bee_group":{"antennae":"X","wings":"1","pattern":"D","legs":"X"},"action":"harvest","summary":"bad-harvest","bonus":0.06},{"rt":1293,"stimulus":"\n                    <p><b>Action: <em>harvest</em></b></p>\n                    <p>This is the bee that you just saw.</p>\n                    <img src=\"bees-with-color/bee-B1DF.svg\" width=\"200\">\n                    <p><span class=\"redText\">Bad choice, the bee was angry.</span><br><b>You have been stung!</b><br>Your pay has been decreased by $0.10. Your bonus pay is now $0.42.</p>\n            ","response":0,"trial_type":"html-button-response","trial_index":22,"time_elapsed":295727,"internal_node_id":"0.0-4.0-1.5","subject_id":"5feca892539a38e4b0e52fd1","study_id":"6197b3f67c2b5cd3b6d9596a","session_id":"6197b9ebb4f2523d33843526","condition":"full-information","relevant_dimensions":["wings","pattern"],"bee_group":{"antennae":"X","wings":"1","pattern":"D","legs":"X"},"bonus":0.06},{"rt":1952.0999999996275,"stimulus":"bees-with-color/bee-B2SM.svg","response":0,"trial_type":"image-button-response","trial_index":23,"time_elapsed":297681,"internal_node_id":"0.0-4.0-0.6","subject_id":"5feca892539a38e4b0e52fd1","study_id":"6197b3f67c2b5cd3b6d9596a","session_id":"6197b9ebb4f2523d33843526","condition":"full-information","relevant_dimensions":["wings","pattern"],"bee_group":{"antennae":"X","wings":"1","pattern":"D","legs":"X"},"action":"harvest","summary":"good-harvest","bonus":0.06},{"rt":1390.800000000745,"stimulus":"\n                    <p><b>Action: <em>harvest</em></b></p>\n                    <p>This is the bee that you just saw.</p>\n                    <img src=\"bees-with-color/bee-B2SM.svg\" width=\"200\">\n                    <p><span class=\"greenText\"><b>Successful harvest!</b></span><br>Your pay has increased by $0.02. Your bonus pay is now $0.44.</p>\n            ","response":0,"trial_type":"html-button-response","trial_index":24,"time_elapsed":299074,"internal_node_id":"0.0-4.0-1.6","subject_id":"5feca892539a38e4b0e52fd1","study_id":"6197b3f67c2b5cd3b6d9596a","session_id":"6197b9ebb4f2523d33843526","condition":"full-information","relevant_dimensions":["wings","pattern"],"bee_group":{"antennae":"X","wings":"1","pattern":"D","legs":"X"},"bonus":0.06},{"rt":5513.39999999851,"stimulus":"bees-with-color/bee-A2DF.svg","response":0,"trial_type":"image-button-response","trial_index":25,"time_elapsed":304589,"internal_node_id":"0.0-4.0-0.7","subject_id":"5feca892539a38e4b0e52fd1","study_id":"6197b3f67c2b5cd3b6d9596a","session_id":"6197b9ebb4f2523d33843526","condition":"full-information","relevant_dimensions":["wings","pattern"],"bee_group":{"antennae":"X","wings":"1","pattern":"D","legs":"X"},"action":"harvest","summary":"good-harvest","bonus":0.06},{"rt":1366.699999999255,"stimulus":"\n                    <p><b>Action: <em>harvest</em></b></p>\n                    <p>This is the bee that you just saw.</p>\n                    <img src=\"bees-with-color/bee-A2DF.svg\" width=\"200\">\n                    <p><span class=\"greenText\"><b>Successful harvest!</b></span><br>Your pay has increased by $0.02. Your bonus pay is now $0.46.</p>\n            ","response":0,"trial_type":"html-button-response","trial_index":26,"time_elapsed":305957,"internal_node_id":"0.0-4.0-1.7","subject_id":"5feca892539a38e4b0e52fd1","study_id":"6197b3f67c2b5cd3b6d9596a","session_id":"6197b9ebb4f2523d33843526","condition":"full-information","relevant_dimensions":["wings","pattern"],"bee_group":{"antennae":"X","wings":"1","pattern":"D","legs":"X"},"bonus":0.06},{"rt":6791.10000000149,"stimulus":"bees-with-color/bee-A2SF.svg","response":0,"trial_type":"image-button-response","trial_index":27,"time_elapsed":312751,"internal_node_id":"0.0-4.0-0.8","subject_id":"5feca892539a38e4b0e52fd1","study_id":"6197b3f67c2b5cd3b6d9596a","session_id":"6197b9ebb4f2523d33843526","condition":"full-information","relevant_dimensions":["wings","pattern"],"bee_group":{"antennae":"X","wings":"1","pattern":"D","legs":"X"},"action":"harvest","summary":"good-harvest","bonus":0.06},{"rt":1256.2999999988824,"stimulus":"\n                    <p><b>Action: <em>harvest</em></b></p>\n                    <p>This is the bee that you just saw.</p>\n                    <img src=\"bees-with-color/bee-A2SF.svg\" width=\"200\">\n                    <p><span class=\"greenText\"><b>Successful harvest!</b></span><br>Your pay has increased by $0.02. Your bonus pay is now $0.48.</p>\n            ","response":0,"trial_type":"html-button-response","trial_index":28,"time_elapsed":314009,"internal_node_id":"0.0-4.0-1.8","subject_id":"5feca892539a38e4b0e52fd1","study_id":"6197b3f67c2b5cd3b6d9596a","session_id":"6197b9ebb4f2523d33843526","condition":"full-information","relevant_dimensions":["wings","pattern"],"bee_group":{"antennae":"X","wings":"1","pattern":"D","legs":"X"},"bonus":0.06},{"rt":2380.0999999996275,"stimulus":"bees-with-color/bee-A1DM.svg","response":0,"trial_type":"image-button-response","trial_index":29,"time_elapsed":316392,"internal_node_id":"0.0-4.0-0.9","subject_id":"5feca892539a38e4b0e52fd1","study_id":"6197b3f67c2b5cd3b6d9596a","session_id":"6197b9ebb4f2523d33843526","condition":"full-information","relevant_dimensions":["wings","pattern"],"bee_group":{"antennae":"X","wings":"1","pattern":"D","legs":"X"},"action":"harvest","summary":"bad-harvest","bonus":0.06},{"rt":2404.699999999255,"stimulus":"\n                    <p><b>Action: <em>harvest</em></b></p>\n                    <p>This is the bee that you just saw.</p>\n                    <img src=\"bees-with-color/bee-A1DM.svg\" width=\"200\">\n                    <p><span class=\"redText\">Bad choice, the bee was angry.</span><br><b>You have been stung!</b><br>Your pay has been decreased by $0.10. Your bonus pay is now $0.38.</p>\n            ","response":0,"trial_type":"html-button-response","trial_index":30,"time_elapsed":318799,"internal_node_id":"0.0-4.0-1.9","subject_id":"5feca892539a38e4b0e52fd1","study_id":"6197b3f67c2b5cd3b6d9596a","session_id":"6197b9ebb4f2523d33843526","condition":"full-information","relevant_dimensions":["wings","pattern"],"bee_group":{"antennae":"X","wings":"1","pattern":"D","legs":"X"},"bonus":0.06},{"rt":3259.0999999996275,"stimulus":"bees-with-color/bee-A1DF.svg","response":1,"trial_type":"image-button-response","trial_index":31,"time_elapsed":322060,"internal_node_id":"0.0-4.0-0.10","subject_id":"5feca892539a38e4b0e52fd1","study_id":"6197b3f67c2b5cd3b6d9596a","session_id":"6197b9ebb4f2523d33843526","condition":"full-information","relevant_dimensions":["wings","pattern"],"bee_group":{"antennae":"X","wings":"1","pattern":"D","legs":"X"},"action":"avoid","summary":"good-avoid","bonus":0.06},{"rt":1842.8999999985099,"stimulus":"\n                    <p><b>Action: <em>avoid</em></b></p>\n                    <p>This is the bee that you just saw.</p>\n                    <img src=\"bees-with-color/bee-A1DF.svg\" width=\"200\">\n                    <p><span class=\"greenText\">Good choice!</span>  This bee would have stung you.<br>Your bonus pay is unchanged, and remains at $0.38.</p>\n            ","response":0,"trial_type":"html-button-response","trial_index":32,"time_elapsed":323905,"internal_node_id":"0.0-4.0-1.10","subject_id":"5feca892539a38e4b0e52fd1","study_id":"6197b3f67c2b5cd3b6d9596a","session_id":"6197b9ebb4f2523d33843526","condition":"full-information","relevant_dimensions":["wings","pattern"],"bee_group":{"antennae":"X","wings":"1","pattern":"D","legs":"X"},"bonus":0.06},{"rt":3565.9000000003725,"stimulus":"bees-with-color/bee-A2DM.svg","response":0,"trial_type":"image-button-response","trial_index":33,"time_elapsed":327473,"internal_node_id":"0.0-4.0-0.11","subject_id":"5feca892539a38e4b0e52fd1","study_id":"6197b3f67c2b5cd3b6d9596a","session_id":"6197b9ebb4f2523d33843526","condition":"full-information","relevant_dimensions":["wings","pattern"],"bee_group":{"antennae":"X","wings":"1","pattern":"D","legs":"X"},"action":"harvest","summary":"good-harvest","bonus":0.06},{"rt":1268.5,"stimulus":"\n                    <p><b>Action: <em>harvest</em></b></p>\n                    <p>This is the bee that you just saw.</p>\n                    <img src=\"bees-with-color/bee-A2DM.svg\" width=\"200\">\n                    <p><span class=\"greenText\"><b>Successful harvest!</b></span><br>Your pay has increased by $0.02. Your bonus pay is now $0.40.</p>\n            ","response":0,"trial_type":"html-button-response","trial_index":34,"time_elapsed":328743,"internal_node_id":"0.0-4.0-1.11","subject_id":"5feca892539a38e4b0e52fd1","study_id":"6197b3f67c2b5cd3b6d9596a","session_id":"6197b9ebb4f2523d33843526","condition":"full-information","relevant_dimensions":["wings","pattern"],"bee_group":{"antennae":"X","wings":"1","pattern":"D","legs":"X"},"bonus":0.06},{"rt":2453.5,"stimulus":"bees-with-color/bee-B1SF.svg","response":0,"trial_type":"image-button-response","trial_index":35,"time_elapsed":331199,"internal_node_id":"0.0-4.0-0.12","subject_id":"5feca892539a38e4b0e52fd1","study_id":"6197b3f67c2b5cd3b6d9596a","session_id":"6197b9ebb4f2523d33843526","condition":"full-information","relevant_dimensions":["wings","pattern"],"bee_group":{"antennae":"X","wings":"1","pattern":"D","legs":"X"},"action":"harvest","summary":"good-harvest","bonus":0.06},{"rt":975.3999999985099,"stimulus":"\n                    <p><b>Action: <em>harvest</em></b></p>\n                    <p>This is the bee that you just saw.</p>\n                    <img src=\"bees-with-color/bee-B1SF.svg\" width=\"200\">\n                    <p><span class=\"greenText\"><b>Successful harvest!</b></span><br>Your pay has increased by $0.02. Your bonus pay is now $0.42.</p>\n            ","response":0,"trial_type":"html-button-response","trial_index":36,"time_elapsed":332176,"internal_node_id":"0.0-4.0-1.12","subject_id":"5feca892539a38e4b0e52fd1","study_id":"6197b3f67c2b5cd3b6d9596a","session_id":"6197b9ebb4f2523d33843526","condition":"full-information","relevant_dimensions":["wings","pattern"],"bee_group":{"antennae":"X","wings":"1","pattern":"D","legs":"X"},"bonus":0.06},{"rt":2477.5,"stimulus":"bees-with-color/bee-A2SM.svg","response":1,"trial_type":"image-button-response","trial_index":37,"time_elapsed":334656,"internal_node_id":"0.0-4.0-0.13","subject_id":"5feca892539a38e4b0e52fd1","study_id":"6197b3f67c2b5cd3b6d9596a","session_id":"6197b9ebb4f2523d33843526","condition":"full-information","relevant_dimensions":["wings","pattern"],"bee_group":{"antennae":"X","wings":"1","pattern":"D","legs":"X"},"action":"avoid","summary":"bad-avoid","bonus":0.06},{"rt":2588.2000000011176,"stimulus":"\n                    <p><b>Action: <em>avoid</em></b></p>\n                    <p>This is the bee that you just saw.</p>\n                    <img src=\"bees-with-color/bee-A2SM.svg\" width=\"200\">\n                    <p><span class=\"redText\">Bad choice,</span> the bee was friendly.<br>Your bonus pay is unchanged, and remains at $0.42.</p>\n            ","response":0,"trial_type":"html-button-response","trial_index":38,"time_elapsed":337246,"internal_node_id":"0.0-4.0-1.13","subject_id":"5feca892539a38e4b0e52fd1","study_id":"6197b3f67c2b5cd3b6d9596a","session_id":"6197b9ebb4f2523d33843526","condition":"full-information","relevant_dimensions":["wings","pattern"],"bee_group":{"antennae":"X","wings":"1","pattern":"D","legs":"X"},"bonus":0.06},{"rt":2136.5999999996275,"stimulus":"bees-with-color/bee-B2DM.svg","response":0,"trial_type":"image-button-response","trial_index":39,"time_elapsed":339384,"internal_node_id":"0.0-4.0-0.14","subject_id":"5feca892539a38e4b0e52fd1","study_id":"6197b3f67c2b5cd3b6d9596a","session_id":"6197b9ebb4f2523d33843526","condition":"full-information","relevant_dimensions":["wings","pattern"],"bee_group":{"antennae":"X","wings":"1","pattern":"D","legs":"X"},"action":"harvest","summary":"good-harvest","bonus":0.06},{"rt":1267.5999999996275,"stimulus":"\n                    <p><b>Action: <em>harvest</em></b></p>\n                    <p>This is the bee that you just saw.</p>\n                    <img src=\"bees-with-color/bee-B2DM.svg\" width=\"200\">\n                    <p><span class=\"greenText\"><b>Successful harvest!</b></span><br>Your pay has increased by $0.02. Your bonus pay is now $0.44.</p>\n            ","response":0,"trial_type":"html-button-response","trial_index":40,"time_elapsed":340654,"internal_node_id":"0.0-4.0-1.14","subject_id":"5feca892539a38e4b0e52fd1","study_id":"6197b3f67c2b5cd3b6d9596a","session_id":"6197b9ebb4f2523d33843526","condition":"full-information","relevant_dimensions":["wings","pattern"],"bee_group":{"antennae":"X","wings":"1","pattern":"D","legs":"X"},"bonus":0.06},{"rt":1867.5,"stimulus":"bees-with-color/bee-A1SF.svg","response":0,"trial_type":"image-button-response","trial_index":41,"time_elapsed":342523,"internal_node_id":"0.0-4.0-0.15","subject_id":"5feca892539a38e4b0e52fd1","study_id":"6197b3f67c2b5cd3b6d9596a","session_id":"6197b9ebb4f2523d33843526","condition":"full-information","relevant_dimensions":["wings","pattern"],"bee_group":{"antennae":"X","wings":"1","pattern":"D","legs":"X"},"action":"harvest","summary":"good-harvest","bonus":0.06},{"rt":1036.2000000011176,"stimulus":"\n                    <p><b>Action: <em>harvest</em></b></p>\n                    <p>This is the bee that you just saw.</p>\n                    <img src=\"bees-with-color/bee-A1SF.svg\" width=\"200\">\n                    <p><span class=\"greenText\"><b>Successful harvest!</b></span><br>Your pay has increased by $0.02. Your bonus pay is now $0.46.</p>\n            ","response":0,"trial_type":"html-button-response","trial_index":42,"time_elapsed":343561,"internal_node_id":"0.0-4.0-1.15","subject_id":"5feca892539a38e4b0e52fd1","study_id":"6197b3f67c2b5cd3b6d9596a","session_id":"6197b9ebb4f2523d33843526","condition":"full-information","relevant_dimensions":["wings","pattern"],"bee_group":{"antennae":"X","wings":"1","pattern":"D","legs":"X"},"bonus":0.06},{"rt":2992.199999999255,"stimulus":"bees-with-color/bee-B1SF.svg","response":0,"trial_type":"image-button-response","trial_index":43,"time_elapsed":346554,"internal_node_id":"0.0-4.0-0.16","subject_id":"5feca892539a38e4b0e52fd1","study_id":"6197b3f67c2b5cd3b6d9596a","session_id":"6197b9ebb4f2523d33843526","condition":"full-information","relevant_dimensions":["wings","pattern"],"bee_group":{"antennae":"X","wings":"1","pattern":"D","legs":"X"},"action":"harvest","summary":"good-harvest","bonus":0.06},{"rt":915,"stimulus":"\n                    <p><b>Action: <em>harvest</em></b></p>\n                    <p>This is the bee that you just saw.</p>\n                    <img src=\"bees-with-color/bee-B1SF.svg\" width=\"200\">\n                    <p><span class=\"greenText\"><b>Successful harvest!</b></span><br>Your pay has increased by $0.02. Your bonus pay is now $0.48.</p>\n            ","response":0,"trial_type":"html-button-response","trial_index":44,"time_elapsed":347471,"internal_node_id":"0.0-4.0-1.16","subject_id":"5feca892539a38e4b0e52fd1","study_id":"6197b3f67c2b5cd3b6d9596a","session_id":"6197b9ebb4f2523d33843526","condition":"full-information","relevant_dimensions":["wings","pattern"],"bee_group":{"antennae":"X","wings":"1","pattern":"D","legs":"X"},"bonus":0.06},{"rt":6376.699999999255,"stimulus":"bees-with-color/bee-A2DM.svg","response":0,"trial_type":"image-button-response","trial_index":45,"time_elapsed":353849,"internal_node_id":"0.0-4.0-0.17","subject_id":"5feca892539a38e4b0e52fd1","study_id":"6197b3f67c2b5cd3b6d9596a","session_id":"6197b9ebb4f2523d33843526","condition":"full-information","relevant_dimensions":["wings","pattern"],"bee_group":{"antennae":"X","wings":"1","pattern":"D","legs":"X"},"action":"harvest","summary":"good-harvest","bonus":0.06},{"rt":1745.300000000745,"stimulus":"\n                    <p><b>Action: <em>harvest</em></b></p>\n                    <p>This is the bee that you just saw.</p>\n                    <img src=\"bees-with-color/bee-A2DM.svg\" width=\"200\">\n                    <p><span class=\"greenText\"><b>Successful harvest!</b></span><br>Your pay has increased by $0.02. Your bonus pay is now $0.50.</p>\n            ","response":0,"trial_type":"html-button-response","trial_index":46,"time_elapsed":355596,"internal_node_id":"0.0-4.0-1.17","subject_id":"5feca892539a38e4b0e52fd1","study_id":"6197b3f67c2b5cd3b6d9596a","session_id":"6197b9ebb4f2523d33843526","condition":"full-information","relevant_dimensions":["wings","pattern"],"bee_group":{"antennae":"X","wings":"1","pattern":"D","legs":"X"},"bonus":0.06},{"rt":4311.300000000745,"stimulus":"bees-with-color/bee-A1DM.svg","response":0,"trial_type":"image-button-response","trial_index":47,"time_elapsed":359909,"internal_node_id":"0.0-4.0-0.18","subject_id":"5feca892539a38e4b0e52fd1","study_id":"6197b3f67c2b5cd3b6d9596a","session_id":"6197b9ebb4f2523d33843526","condition":"full-information","relevant_dimensions":["wings","pattern"],"bee_group":{"antennae":"X","wings":"1","pattern":"D","legs":"X"},"action":"harvest","summary":"bad-harvest","bonus":0.06},{"rt":1524.6000000014901,"stimulus":"\n                    <p><b>Action: <em>harvest</em></b></p>\n                    <p>This is the bee that you just saw.</p>\n                    <img src=\"bees-with-color/bee-A1DM.svg\" width=\"200\">\n                    <p><span class=\"redText\">Bad choice, the bee was angry.</span><br><b>You have been stung!</b><br>Your pay has been decreased by $0.10. Your bonus pay is now $0.40.</p>\n            ","response":0,"trial_type":"html-button-response","trial_index":48,"time_elapsed":361435,"internal_node_id":"0.0-4.0-1.18","subject_id":"5feca892539a38e4b0e52fd1","study_id":"6197b3f67c2b5cd3b6d9596a","session_id":"6197b9ebb4f2523d33843526","condition":"full-information","relevant_dimensions":["wings","pattern"],"bee_group":{"antennae":"X","wings":"1","pattern":"D","legs":"X"},"bonus":0.06},{"rt":1671.2999999988824,"stimulus":"bees-with-color/bee-B1DF.svg","response":0,"trial_type":"image-button-response","trial_index":49,"time_elapsed":363108,"internal_node_id":"0.0-4.0-0.19","subject_id":"5feca892539a38e4b0e52fd1","study_id":"6197b3f67c2b5cd3b6d9596a","session_id":"6197b9ebb4f2523d33843526","condition":"full-information","relevant_dimensions":["wings","pattern"],"bee_group":{"antennae":"X","wings":"1","pattern":"D","legs":"X"},"action":"harvest","summary":"bad-harvest","bonus":0.06},{"rt":1208.699999999255,"stimulus":"\n                    <p><b>Action: <em>harvest</em></b></p>\n                    <p>This is the bee that you just saw.</p>\n                    <img src=\"bees-with-color/bee-B1DF.svg\" width=\"200\">\n                    <p><span class=\"redText\">Bad choice, the bee was angry.</span><br><b>You have been stung!</b><br>Your pay has been decreased by $0.10. Your bonus pay is now $0.30.</p>\n            ","response":0,"trial_type":"html-button-response","trial_index":50,"time_elapsed":364319,"internal_node_id":"0.0-4.0-1.19","subject_id":"5feca892539a38e4b0e52fd1","study_id":"6197b3f67c2b5cd3b6d9596a","session_id":"6197b9ebb4f2523d33843526","condition":"full-information","relevant_dimensions":["wings","pattern"],"bee_group":{"antennae":"X","wings":"1","pattern":"D","legs":"X"},"bonus":0.06},{"rt":1622.300000000745,"stimulus":"bees-with-color/bee-B2SF.svg","response":0,"trial_type":"image-button-response","trial_index":51,"time_elapsed":365943,"internal_node_id":"0.0-4.0-0.20","subject_id":"5feca892539a38e4b0e52fd1","study_id":"6197b3f67c2b5cd3b6d9596a","session_id":"6197b9ebb4f2523d33843526","condition":"full-information","relevant_dimensions":["wings","pattern"],"bee_group":{"antennae":"X","wings":"1","pattern":"D","legs":"X"},"action":"harvest","summary":"good-harvest","bonus":0.06},{"rt":1037,"stimulus":"\n                    <p><b>Action: <em>harvest</em></b></p>\n                    <p>This is the bee that you just saw.</p>\n                    <img src=\"bees-with-color/bee-B2SF.svg\" width=\"200\">\n                    <p><span class=\"greenText\"><b>Successful harvest!</b></span><br>Your pay has increased by $0.02. Your bonus pay is now $0.32.</p>\n            ","response":0,"trial_type":"html-button-response","trial_index":52,"time_elapsed":366981,"internal_node_id":"0.0-4.0-1.20","subject_id":"5feca892539a38e4b0e52fd1","study_id":"6197b3f67c2b5cd3b6d9596a","session_id":"6197b9ebb4f2523d33843526","condition":"full-information","relevant_dimensions":["wings","pattern"],"bee_group":{"antennae":"X","wings":"1","pattern":"D","legs":"X"},"bonus":0.06},{"rt":3346.199999999255,"stimulus":"bees-with-color/bee-A2DF.svg","response":0,"trial_type":"image-button-response","trial_index":53,"time_elapsed":370329,"internal_node_id":"0.0-4.0-0.21","subject_id":"5feca892539a38e4b0e52fd1","study_id":"6197b3f67c2b5cd3b6d9596a","session_id":"6197b9ebb4f2523d33843526","condition":"full-information","relevant_dimensions":["wings","pattern"],"bee_group":{"antennae":"X","wings":"1","pattern":"D","legs":"X"},"action":"harvest","summary":"good-harvest","bonus":0.06},{"rt":1048.5,"stimulus":"\n                    <p><b>Action: <em>harvest</em></b></p>\n                    <p>This is the bee that you just saw.</p>\n                    <img src=\"bees-with-color/bee-A2DF.svg\" width=\"200\">\n                    <p><span class=\"greenText\"><b>Successful harvest!</b></span><br>Your pay has increased by $0.02. Your bonus pay is now $0.34.</p>\n            ","response":0,"trial_type":"html-button-response","trial_index":54,"time_elapsed":371379,"internal_node_id":"0.0-4.0-1.21","subject_id":"5feca892539a38e4b0e52fd1","study_id":"6197b3f67c2b5cd3b6d9596a","session_id":"6197b9ebb4f2523d33843526","condition":"full-information","relevant_dimensions":["wings","pattern"],"bee_group":{"antennae":"X","wings":"1","pattern":"D","legs":"X"},"bonus":0.06},{"rt":1330.2000000011176,"stimulus":"bees-with-color/bee-A2SF.svg","response":1,"trial_type":"image-button-response","trial_index":55,"time_elapsed":372711,"internal_node_id":"0.0-4.0-0.22","subject_id":"5feca892539a38e4b0e52fd1","study_id":"6197b3f67c2b5cd3b6d9596a","session_id":"6197b9ebb4f2523d33843526","condition":"full-information","relevant_dimensions":["wings","pattern"],"bee_group":{"antennae":"X","wings":"1","pattern":"D","legs":"X"},"action":"avoid","summary":"bad-avoid","bonus":0.06},{"rt":1072.800000000745,"stimulus":"\n                    <p><b>Action: <em>avoid</em></b></p>\n                    <p>This is the bee that you just saw.</p>\n                    <img src=\"bees-with-color/bee-A2SF.svg\" width=\"200\">\n                    <p><span class=\"redText\">Bad choice,</span> the bee was friendly.<br>Your bonus pay is unchanged, and remains at $0.34.</p>\n            ","response":0,"trial_type":"html-button-response","trial_index":56,"time_elapsed":373786,"internal_node_id":"0.0-4.0-1.22","subject_id":"5feca892539a38e4b0e52fd1","study_id":"6197b3f67c2b5cd3b6d9596a","session_id":"6197b9ebb4f2523d33843526","condition":"full-information","relevant_dimensions":["wings","pattern"],"bee_group":{"antennae":"X","wings":"1","pattern":"D","legs":"X"},"bonus":0.06},{"rt":1269.7999999988824,"stimulus":"bees-with-color/bee-A1SF.svg","response":0,"trial_type":"image-button-response","trial_index":57,"time_elapsed":375057,"internal_node_id":"0.0-4.0-0.23","subject_id":"5feca892539a38e4b0e52fd1","study_id":"6197b3f67c2b5cd3b6d9596a","session_id":"6197b9ebb4f2523d33843526","condition":"full-information","relevant_dimensions":["wings","pattern"],"bee_group":{"antennae":"X","wings":"1","pattern":"D","legs":"X"},"action":"harvest","summary":"good-harvest","bonus":0.06},{"rt":829.6000000014901,"stimulus":"\n                    <p><b>Action: <em>harvest</em></b></p>\n                    <p>This is the bee that you just saw.</p>\n                    <img src=\"bees-with-color/bee-A1SF.svg\" width=\"200\">\n                    <p><span class=\"greenText\"><b>Successful harvest!</b></span><br>Your pay has increased by $0.02. Your bonus pay is now $0.36.</p>\n            ","response":0,"trial_type":"html-button-response","trial_index":58,"time_elapsed":375889,"internal_node_id":"0.0-4.0-1.23","subject_id":"5feca892539a38e4b0e52fd1","study_id":"6197b3f67c2b5cd3b6d9596a","session_id":"6197b9ebb4f2523d33843526","condition":"full-information","relevant_dimensions":["wings","pattern"],"bee_group":{"antennae":"X","wings":"1","pattern":"D","legs":"X"},"bonus":0.06},{"rt":1463.4000000003725,"stimulus":"bees-with-color/bee-B1SM.svg","response":0,"trial_type":"image-button-response","trial_index":59,"time_elapsed":377354,"internal_node_id":"0.0-4.0-0.24","subject_id":"5feca892539a38e4b0e52fd1","study_id":"6197b3f67c2b5cd3b6d9596a","session_id":"6197b9ebb4f2523d33843526","condition":"full-information","relevant_dimensions":["wings","pattern"],"bee_group":{"antennae":"X","wings":"1","pattern":"D","legs":"X"},"action":"harvest","summary":"good-harvest","bonus":0.06},{"rt":1086.2999999988824,"stimulus":"\n                    <p><b>Action: <em>harvest</em></b></p>\n                    <p>This is the bee that you just saw.</p>\n                    <img src=\"bees-with-color/bee-B1SM.svg\" width=\"200\">\n                    <p><span class=\"greenText\"><b>Successful harvest!</b></span><br>Your pay has increased by $0.02. Your bonus pay is now $0.38.</p>\n            ","response":0,"trial_type":"html-button-response","trial_index":60,"time_elapsed":378442,"internal_node_id":"0.0-4.0-1.24","subject_id":"5feca892539a38e4b0e52fd1","study_id":"6197b3f67c2b5cd3b6d9596a","session_id":"6197b9ebb4f2523d33843526","condition":"full-information","relevant_dimensions":["wings","pattern"],"bee_group":{"antennae":"X","wings":"1","pattern":"D","legs":"X"},"bonus":0.06},{"rt":2624.199999999255,"stimulus":"bees-with-color/bee-B2SM.svg","response":0,"trial_type":"image-button-response","trial_index":61,"time_elapsed":381067,"internal_node_id":"0.0-4.0-0.25","subject_id":"5feca892539a38e4b0e52fd1","study_id":"6197b3f67c2b5cd3b6d9596a","session_id":"6197b9ebb4f2523d33843526","condition":"full-information","relevant_dimensions":["wings","pattern"],"bee_group":{"antennae":"X","wings":"1","pattern":"D","legs":"X"},"action":"harvest","summary":"good-harvest","bonus":0.06},{"rt":1085.7999999988824,"stimulus":"\n                    <p><b>Action: <em>harvest</em></b></p>\n                    <p>This is the bee that you just saw.</p>\n                    <img src=\"bees-with-color/bee-B2SM.svg\" width=\"200\">\n                    <p><span class=\"greenText\"><b>Successful harvest!</b></span><br>Your pay has increased by $0.02. Your bonus pay is now $0.40.</p>\n            ","response":0,"trial_type":"html-button-response","trial_index":62,"time_elapsed":382155,"internal_node_id":"0.0-4.0-1.25","subject_id":"5feca892539a38e4b0e52fd1","study_id":"6197b3f67c2b5cd3b6d9596a","session_id":"6197b9ebb4f2523d33843526","condition":"full-information","relevant_dimensions":["wings","pattern"],"bee_group":{"antennae":"X","wings":"1","pattern":"D","legs":"X"},"bonus":0.06},{"rt":2087.300000000745,"stimulus":"bees-with-color/bee-B2DM.svg","response":1,"trial_type":"image-button-response","trial_index":63,"time_elapsed":384244,"internal_node_id":"0.0-4.0-0.26","subject_id":"5feca892539a38e4b0e52fd1","study_id":"6197b3f67c2b5cd3b6d9596a","session_id":"6197b9ebb4f2523d33843526","condition":"full-information","relevant_dimensions":["wings","pattern"],"bee_group":{"antennae":"X","wings":"1","pattern":"D","legs":"X"},"action":"avoid","summary":"bad-avoid","bonus":0.06},{"rt":901.8000000007451,"stimulus":"\n                    <p><b>Action: <em>avoid</em></b></p>\n                    <p>This is the bee that you just saw.</p>\n                    <img src=\"bees-with-color/bee-B2DM.svg\" width=\"200\">\n                    <p><span class=\"redText\">Bad choice,</span> the bee was friendly.<br>Your bonus pay is unchanged, and remains at $0.40.</p>\n            ","response":0,"trial_type":"html-button-response","trial_index":64,"time_elapsed":385148,"internal_node_id":"0.0-4.0-1.26","subject_id":"5feca892539a38e4b0e52fd1","study_id":"6197b3f67c2b5cd3b6d9596a","session_id":"6197b9ebb4f2523d33843526","condition":"full-information","relevant_dimensions":["wings","pattern"],"bee_group":{"antennae":"X","wings":"1","pattern":"D","legs":"X"},"bonus":0.06},{"rt":2320.199999999255,"stimulus":"bees-with-color/bee-A1SM.svg","response":0,"trial_type":"image-button-response","trial_index":65,"time_elapsed":387469,"internal_node_id":"0.0-4.0-0.27","subject_id":"5feca892539a38e4b0e52fd1","study_id":"6197b3f67c2b5cd3b6d9596a","session_id":"6197b9ebb4f2523d33843526","condition":"full-information","relevant_dimensions":["wings","pattern"],"bee_group":{"antennae":"X","wings":"1","pattern":"D","legs":"X"},"action":"harvest","summary":"good-harvest","bonus":0.06},{"rt":926.9000000003725,"stimulus":"\n                    <p><b>Action: <em>harvest</em></b></p>\n                    <p>This is the bee that you just saw.</p>\n                    <img src=\"bees-with-color/bee-A1SM.svg\" width=\"200\">\n                    <p><span class=\"greenText\"><b>Successful harvest!</b></span><br>Your pay has increased by $0.02. Your bonus pay is now $0.42.</p>\n            ","response":0,"trial_type":"html-button-response","trial_index":66,"time_elapsed":388398,"internal_node_id":"0.0-4.0-1.27","subject_id":"5feca892539a38e4b0e52fd1","study_id":"6197b3f67c2b5cd3b6d9596a","session_id":"6197b9ebb4f2523d33843526","condition":"full-information","relevant_dimensions":["wings","pattern"],"bee_group":{"antennae":"X","wings":"1","pattern":"D","legs":"X"},"bonus":0.06},{"rt":2232.199999999255,"stimulus":"bees-with-color/bee-B1DM.svg","response":0,"trial_type":"image-button-response","trial_index":67,"time_elapsed":390632,"internal_node_id":"0.0-4.0-0.28","subject_id":"5feca892539a38e4b0e52fd1","study_id":"6197b3f67c2b5cd3b6d9596a","session_id":"6197b9ebb4f2523d33843526","condition":"full-information","relevant_dimensions":["wings","pattern"],"bee_group":{"antennae":"X","wings":"1","pattern":"D","legs":"X"},"action":"harvest","summary":"bad-harvest","bonus":0.06},{"rt":3761.39999999851,"stimulus":"\n                    <p><b>Action: <em>harvest</em></b></p>\n                    <p>This is the bee that you just saw.</p>\n                    <img src=\"bees-with-color/bee-B1DM.svg\" width=\"200\">\n                    <p><span class=\"redText\">Bad choice, the bee was angry.</span><br><b>You have been stung!</b><br>Your pay has been decreased by $0.10. Your bonus pay is now $0.32.</p>\n            ","response":0,"trial_type":"html-button-response","trial_index":68,"time_elapsed":394395,"internal_node_id":"0.0-4.0-1.28","subject_id":"5feca892539a38e4b0e52fd1","study_id":"6197b3f67c2b5cd3b6d9596a","session_id":"6197b9ebb4f2523d33843526","condition":"full-information","relevant_dimensions":["wings","pattern"],"bee_group":{"antennae":"X","wings":"1","pattern":"D","legs":"X"},"bonus":0.06},{"rt":2220.89999999851,"stimulus":"bees-with-color/bee-A2SM.svg","response":1,"trial_type":"image-button-response","trial_index":69,"time_elapsed":396618,"internal_node_id":"0.0-4.0-0.29","subject_id":"5feca892539a38e4b0e52fd1","study_id":"6197b3f67c2b5cd3b6d9596a","session_id":"6197b9ebb4f2523d33843526","condition":"full-information","relevant_dimensions":["wings","pattern"],"bee_group":{"antennae":"X","wings":"1","pattern":"D","legs":"X"},"action":"avoid","summary":"bad-avoid","bonus":0.06},{"rt":1098.4000000003725,"stimulus":"\n                    <p><b>Action: <em>avoid</em></b></p>\n                    <p>This is the bee that you just saw.</p>\n                    <img src=\"bees-with-color/bee-A2SM.svg\" width=\"200\">\n                    <p><span class=\"redText\">Bad choice,</span> the bee was friendly.<br>Your bonus pay is unchanged, and remains at $0.32.</p>\n            ","response":0,"trial_type":"html-button-response","trial_index":70,"time_elapsed":397719,"internal_node_id":"0.0-4.0-1.29","subject_id":"5feca892539a38e4b0e52fd1","study_id":"6197b3f67c2b5cd3b6d9596a","session_id":"6197b9ebb4f2523d33843526","condition":"full-information","relevant_dimensions":["wings","pattern"],"bee_group":{"antennae":"X","wings":"1","pattern":"D","legs":"X"},"bonus":0.06},{"rt":1769.5,"stimulus":"bees-with-color/bee-A1DF.svg","response":0,"trial_type":"image-button-response","trial_index":71,"time_elapsed":399490,"internal_node_id":"0.0-4.0-0.30","subject_id":"5feca892539a38e4b0e52fd1","study_id":"6197b3f67c2b5cd3b6d9596a","session_id":"6197b9ebb4f2523d33843526","condition":"full-information","relevant_dimensions":["wings","pattern"],"bee_group":{"antennae":"X","wings":"1","pattern":"D","legs":"X"},"action":"harvest","summary":"bad-harvest","bonus":0.06},{"rt":1292.2000000011176,"stimulus":"\n                    <p><b>Action: <em>harvest</em></b></p>\n                    <p>This is the bee that you just saw.</p>\n                    <img src=\"bees-with-color/bee-A1DF.svg\" width=\"200\">\n                    <p><span class=\"redText\">Bad choice, the bee was angry.</span><br><b>You have been stung!</b><br>Your pay has been decreased by $0.10. Your bonus pay is now $0.22.</p>\n            ","response":0,"trial_type":"html-button-response","trial_index":72,"time_elapsed":400784,"internal_node_id":"0.0-4.0-1.30","subject_id":"5feca892539a38e4b0e52fd1","study_id":"6197b3f67c2b5cd3b6d9596a","session_id":"6197b9ebb4f2523d33843526","condition":"full-information","relevant_dimensions":["wings","pattern"],"bee_group":{"antennae":"X","wings":"1","pattern":"D","legs":"X"},"bonus":0.06},{"rt":1110.2999999988824,"stimulus":"bees-with-color/bee-B2DF.svg","response":1,"trial_type":"image-button-response","trial_index":73,"time_elapsed":401897,"internal_node_id":"0.0-4.0-0.31","subject_id":"5feca892539a38e4b0e52fd1","study_id":"6197b3f67c2b5cd3b6d9596a","session_id":"6197b9ebb4f2523d33843526","condition":"full-information","relevant_dimensions":["wings","pattern"],"bee_group":{"antennae":"X","wings":"1","pattern":"D","legs":"X"},"action":"avoid","summary":"bad-avoid","bonus":0.06},{"rt":1280.7000000011176,"stimulus":"\n                    <p><b>Action: <em>avoid</em></b></p>\n                    <p>This is the bee that you just saw.</p>\n                    <img src=\"bees-with-color/bee-B2DF.svg\" width=\"200\">\n                    <p><span class=\"redText\">Bad choice,</span> the bee was friendly.<br>Your bonus pay is unchanged, and remains at $0.22.</p>\n            ","response":0,"trial_type":"html-button-response","trial_index":74,"time_elapsed":403179,"internal_node_id":"0.0-4.0-1.31","subject_id":"5feca892539a38e4b0e52fd1","study_id":"6197b3f67c2b5cd3b6d9596a","session_id":"6197b9ebb4f2523d33843526","condition":"full-information","relevant_dimensions":["wings","pattern"],"bee_group":{"antennae":"X","wings":"1","pattern":"D","legs":"X"},"bonus":0.06},{"rt":1990.699999999255,"stimulus":"bees-with-color/bee-A1SF.svg","response":0,"trial_type":"image-button-response","trial_index":75,"time_elapsed":405171,"internal_node_id":"0.0-4.0-0.32","subject_id":"5feca892539a38e4b0e52fd1","study_id":"6197b3f67c2b5cd3b6d9596a","session_id":"6197b9ebb4f2523d33843526","condition":"full-information","relevant_dimensions":["wings","pattern"],"bee_group":{"antennae":"X","wings":"1","pattern":"D","legs":"X"},"action":"harvest","summary":"good-harvest","bonus":0.06},{"rt":1219,"stimulus":"\n                    <p><b>Action: <em>harvest</em></b></p>\n                    <p>This is the bee that you just saw.</p>\n                    <img src=\"bees-with-color/bee-A1SF.svg\" width=\"200\">\n                    <p><span class=\"greenText\"><b>Successful harvest!</b></span><br>Your pay has increased by $0.02. Your bonus pay is now $0.24.</p>\n            ","response":0,"trial_type":"html-button-response","trial_index":76,"time_elapsed":406392,"internal_node_id":"0.0-4.0-1.32","subject_id":"5feca892539a38e4b0e52fd1","study_id":"6197b3f67c2b5cd3b6d9596a","session_id":"6197b9ebb4f2523d33843526","condition":"full-information","relevant_dimensions":["wings","pattern"],"bee_group":{"antennae":"X","wings":"1","pattern":"D","legs":"X"},"bonus":0.06},{"rt":2320.0999999996275,"stimulus":"bees-with-color/bee-B1SF.svg","response":0,"trial_type":"image-button-response","trial_index":77,"time_elapsed":408714,"internal_node_id":"0.0-4.0-0.33","subject_id":"5feca892539a38e4b0e52fd1","study_id":"6197b3f67c2b5cd3b6d9596a","session_id":"6197b9ebb4f2523d33843526","condition":"full-information","relevant_dimensions":["wings","pattern"],"bee_group":{"antennae":"X","wings":"1","pattern":"D","legs":"X"},"action":"harvest","summary":"good-harvest","bonus":0.06},{"rt":1378,"stimulus":"\n                    <p><b>Action: <em>harvest</em></b></p>\n                    <p>This is the bee that you just saw.</p>\n                    <img src=\"bees-with-color/bee-B1SF.svg\" width=\"200\">\n                    <p><span class=\"greenText\"><b>Successful harvest!</b></span><br>Your pay has increased by $0.02. Your bonus pay is now $0.26.</p>\n            ","response":0,"trial_type":"html-button-response","trial_index":78,"time_elapsed":410094,"internal_node_id":"0.0-4.0-1.33","subject_id":"5feca892539a38e4b0e52fd1","study_id":"6197b3f67c2b5cd3b6d9596a","session_id":"6197b9ebb4f2523d33843526","condition":"full-information","relevant_dimensions":["wings","pattern"],"bee_group":{"antennae":"X","wings":"1","pattern":"D","legs":"X"},"bonus":0.06},{"rt":2710.0999999996275,"stimulus":"bees-with-color/bee-A2SM.svg","response":0,"trial_type":"image-button-response","trial_index":79,"time_elapsed":412806,"internal_node_id":"0.0-4.0-0.34","subject_id":"5feca892539a38e4b0e52fd1","study_id":"6197b3f67c2b5cd3b6d9596a","session_id":"6197b9ebb4f2523d33843526","condition":"full-information","relevant_dimensions":["wings","pattern"],"bee_group":{"antennae":"X","wings":"1","pattern":"D","legs":"X"},"action":"harvest","summary":"good-harvest","bonus":0.06},{"rt":1280.4000000003725,"stimulus":"\n                    <p><b>Action: <em>harvest</em></b></p>\n                    <p>This is the bee that you just saw.</p>\n                    <img src=\"bees-with-color/bee-A2SM.svg\" width=\"200\">\n                    <p><span class=\"greenText\"><b>Successful harvest!</b></span><br>Your pay has increased by $0.02. Your bonus pay is now $0.28.</p>\n            ","response":0,"trial_type":"html-button-response","trial_index":80,"time_elapsed":414089,"internal_node_id":"0.0-4.0-1.34","subject_id":"5feca892539a38e4b0e52fd1","study_id":"6197b3f67c2b5cd3b6d9596a","session_id":"6197b9ebb4f2523d33843526","condition":"full-information","relevant_dimensions":["wings","pattern"],"bee_group":{"antennae":"X","wings":"1","pattern":"D","legs":"X"},"bonus":0.06},{"rt":4529.5999999996275,"stimulus":"bees-with-color/bee-A2DF.svg","response":0,"trial_type":"image-button-response","trial_index":81,"time_elapsed":418620,"internal_node_id":"0.0-4.0-0.35","subject_id":"5feca892539a38e4b0e52fd1","study_id":"6197b3f67c2b5cd3b6d9596a","session_id":"6197b9ebb4f2523d33843526","condition":"full-information","relevant_dimensions":["wings","pattern"],"bee_group":{"antennae":"X","wings":"1","pattern":"D","legs":"X"},"action":"harvest","summary":"good-harvest","bonus":0.06},{"rt":1305,"stimulus":"\n                    <p><b>Action: <em>harvest</em></b></p>\n                    <p>This is the bee that you just saw.</p>\n                    <img src=\"bees-with-color/bee-A2DF.svg\" width=\"200\">\n                    <p><span class=\"greenText\"><b>Successful harvest!</b></span><br>Your pay has increased by $0.02. Your bonus pay is now $0.30.</p>\n            ","response":0,"trial_type":"html-button-response","trial_index":82,"time_elapsed":419927,"internal_node_id":"0.0-4.0-1.35","subject_id":"5feca892539a38e4b0e52fd1","study_id":"6197b3f67c2b5cd3b6d9596a","session_id":"6197b9ebb4f2523d33843526","condition":"full-information","relevant_dimensions":["wings","pattern"],"bee_group":{"antennae":"X","wings":"1","pattern":"D","legs":"X"},"bonus":0.06},{"rt":4102.799999998882,"stimulus":"bees-with-color/bee-B1SM.svg","response":0,"trial_type":"image-button-response","trial_index":83,"time_elapsed":424031,"internal_node_id":"0.0-4.0-0.36","subject_id":"5feca892539a38e4b0e52fd1","study_id":"6197b3f67c2b5cd3b6d9596a","session_id":"6197b9ebb4f2523d33843526","condition":"full-information","relevant_dimensions":["wings","pattern"],"bee_group":{"antennae":"X","wings":"1","pattern":"D","legs":"X"},"action":"harvest","summary":"good-harvest","bonus":0.06},{"rt":988.4000000003725,"stimulus":"\n                    <p><b>Action: <em>harvest</em></b></p>\n                    <p>This is the bee that you just saw.</p>\n                    <img src=\"bees-with-color/bee-B1SM.svg\" width=\"200\">\n                    <p><span class=\"greenText\"><b>Successful harvest!</b></span><br>Your pay has increased by $0.02. Your bonus pay is now $0.32.</p>\n            ","response":0,"trial_type":"html-button-response","trial_index":84,"time_elapsed":425021,"internal_node_id":"0.0-4.0-1.36","subject_id":"5feca892539a38e4b0e52fd1","study_id":"6197b3f67c2b5cd3b6d9596a","session_id":"6197b9ebb4f2523d33843526","condition":"full-information","relevant_dimensions":["wings","pattern"],"bee_group":{"antennae":"X","wings":"1","pattern":"D","legs":"X"},"bonus":0.06},{"rt":4236.5,"stimulus":"bees-with-color/bee-B1DF.svg","response":0,"trial_type":"image-button-response","trial_index":85,"time_elapsed":429259,"internal_node_id":"0.0-4.0-0.37","subject_id":"5feca892539a38e4b0e52fd1","study_id":"6197b3f67c2b5cd3b6d9596a","session_id":"6197b9ebb4f2523d33843526","condition":"full-information","relevant_dimensions":["wings","pattern"],"bee_group":{"antennae":"X","wings":"1","pattern":"D","legs":"X"},"action":"harvest","summary":"bad-harvest","bonus":0.06},{"rt":1233.300000000745,"stimulus":"\n                    <p><b>Action: <em>harvest</em></b></p>\n                    <p>This is the bee that you just saw.</p>\n                    <img src=\"bees-with-color/bee-B1DF.svg\" width=\"200\">\n                    <p><span class=\"redText\">Bad choice, the bee was angry.</span><br><b>You have been stung!</b><br>Your pay has been decreased by $0.10. Your bonus pay is now $0.22.</p>\n            ","response":0,"trial_type":"html-button-response","trial_index":86,"time_elapsed":430494,"internal_node_id":"0.0-4.0-1.37","subject_id":"5feca892539a38e4b0e52fd1","study_id":"6197b3f67c2b5cd3b6d9596a","session_id":"6197b9ebb4f2523d33843526","condition":"full-information","relevant_dimensions":["wings","pattern"],"bee_group":{"antennae":"X","wings":"1","pattern":"D","legs":"X"},"bonus":0.06},{"rt":1121.9000000003725,"stimulus":"bees-with-color/bee-B2SM.svg","response":0,"trial_type":"image-button-response","trial_index":87,"time_elapsed":431617,"internal_node_id":"0.0-4.0-0.38","subject_id":"5feca892539a38e4b0e52fd1","study_id":"6197b3f67c2b5cd3b6d9596a","session_id":"6197b9ebb4f2523d33843526","condition":"full-information","relevant_dimensions":["wings","pattern"],"bee_group":{"antennae":"X","wings":"1","pattern":"D","legs":"X"},"action":"harvest","summary":"good-harvest","bonus":0.06},{"rt":963.3999999985099,"stimulus":"\n                    <p><b>Action: <em>harvest</em></b></p>\n                    <p>This is the bee that you just saw.</p>\n                    <img src=\"bees-with-color/bee-B2SM.svg\" width=\"200\">\n                    <p><span class=\"greenText\"><b>Successful harvest!</b></span><br>Your pay has increased by $0.02. Your bonus pay is now $0.24.</p>\n            ","response":0,"trial_type":"html-button-response","trial_index":88,"time_elapsed":432582,"internal_node_id":"0.0-4.0-1.38","subject_id":"5feca892539a38e4b0e52fd1","study_id":"6197b3f67c2b5cd3b6d9596a","session_id":"6197b9ebb4f2523d33843526","condition":"full-information","relevant_dimensions":["wings","pattern"],"bee_group":{"antennae":"X","wings":"1","pattern":"D","legs":"X"},"bonus":0.06},{"rt":1831,"stimulus":"bees-with-color/bee-A1DM.svg","response":0,"trial_type":"image-button-response","trial_index":89,"time_elapsed":434415,"internal_node_id":"0.0-4.0-0.39","subject_id":"5feca892539a38e4b0e52fd1","study_id":"6197b3f67c2b5cd3b6d9596a","session_id":"6197b9ebb4f2523d33843526","condition":"full-information","relevant_dimensions":["wings","pattern"],"bee_group":{"antennae":"X","wings":"1","pattern":"D","legs":"X"},"action":"harvest","summary":"bad-harvest","bonus":0.06},{"rt":1146.7000000011176,"stimulus":"\n                    <p><b>Action: <em>harvest</em></b></p>\n                    <p>This is the bee that you just saw.</p>\n                    <img src=\"bees-with-color/bee-A1DM.svg\" width=\"200\">\n                    <p><span class=\"redText\">Bad choice, the bee was angry.</span><br><b>You have been stung!</b><br>Your pay has been decreased by $0.10. Your bonus pay is now $0.14.</p>\n            ","response":0,"trial_type":"html-button-response","trial_index":90,"time_elapsed":435563,"internal_node_id":"0.0-4.0-1.39","subject_id":"5feca892539a38e4b0e52fd1","study_id":"6197b3f67c2b5cd3b6d9596a","session_id":"6197b9ebb4f2523d33843526","condition":"full-information","relevant_dimensions":["wings","pattern"],"bee_group":{"antennae":"X","wings":"1","pattern":"D","legs":"X"},"bonus":0.06},{"rt":1366.800000000745,"stimulus":"bees-with-color/bee-B2DM.svg","response":1,"trial_type":"image-button-response","trial_index":91,"time_elapsed":436931,"internal_node_id":"0.0-4.0-0.40","subject_id":"5feca892539a38e4b0e52fd1","study_id":"6197b3f67c2b5cd3b6d9596a","session_id":"6197b9ebb4f2523d33843526","condition":"full-information","relevant_dimensions":["wings","pattern"],"bee_group":{"antennae":"X","wings":"1","pattern":"D","legs":"X"},"action":"avoid","summary":"bad-avoid","bonus":0.06},{"rt":926.9000000003725,"stimulus":"\n                    <p><b>Action: <em>avoid</em></b></p>\n                    <p>This is the bee that you just saw.</p>\n                    <img src=\"bees-with-color/bee-B2DM.svg\" width=\"200\">\n                    <p><span class=\"redText\">Bad choice,</span> the bee was friendly.<br>Your bonus pay is unchanged, and remains at $0.14.</p>\n            ","response":0,"trial_type":"html-button-response","trial_index":92,"time_elapsed":437860,"internal_node_id":"0.0-4.0-1.40","subject_id":"5feca892539a38e4b0e52fd1","study_id":"6197b3f67c2b5cd3b6d9596a","session_id":"6197b9ebb4f2523d33843526","condition":"full-information","relevant_dimensions":["wings","pattern"],"bee_group":{"antennae":"X","wings":"1","pattern":"D","legs":"X"},"bonus":0.06},{"rt":779.6999999992549,"stimulus":"bees-with-color/bee-B2DF.svg","response":0,"trial_type":"image-button-response","trial_index":93,"time_elapsed":438641,"internal_node_id":"0.0-4.0-0.41","subject_id":"5feca892539a38e4b0e52fd1","study_id":"6197b3f67c2b5cd3b6d9596a","session_id":"6197b9ebb4f2523d33843526","condition":"full-information","relevant_dimensions":["wings","pattern"],"bee_group":{"antennae":"X","wings":"1","pattern":"D","legs":"X"},"action":"harvest","summary":"good-harvest","bonus":0.06},{"rt":1182.9000000003725,"stimulus":"\n                    <p><b>Action: <em>harvest</em></b></p>\n                    <p>This is the bee that you just saw.</p>\n                    <img src=\"bees-with-color/bee-B2DF.svg\" width=\"200\">\n                    <p><span class=\"greenText\"><b>Successful harvest!</b></span><br>Your pay has increased by $0.02. Your bonus pay is now $0.16.</p>\n            ","response":0,"trial_type":"html-button-response","trial_index":94,"time_elapsed":439825,"internal_node_id":"0.0-4.0-1.41","subject_id":"5feca892539a38e4b0e52fd1","study_id":"6197b3f67c2b5cd3b6d9596a","session_id":"6197b9ebb4f2523d33843526","condition":"full-information","relevant_dimensions":["wings","pattern"],"bee_group":{"antennae":"X","wings":"1","pattern":"D","legs":"X"},"bonus":0.06},{"rt":1769.9000000003725,"stimulus":"bees-with-color/bee-A2SF.svg","response":0,"trial_type":"image-button-response","trial_index":95,"time_elapsed":441597,"internal_node_id":"0.0-4.0-0.42","subject_id":"5feca892539a38e4b0e52fd1","study_id":"6197b3f67c2b5cd3b6d9596a","session_id":"6197b9ebb4f2523d33843526","condition":"full-information","relevant_dimensions":["wings","pattern"],"bee_group":{"antennae":"X","wings":"1","pattern":"D","legs":"X"},"action":"harvest","summary":"good-harvest","bonus":0.06},{"rt":950.7000000011176,"stimulus":"\n                    <p><b>Action: <em>harvest</em></b></p>\n                    <p>This is the bee that you just saw.</p>\n                    <img src=\"bees-with-color/bee-A2SF.svg\" width=\"200\">\n                    <p><span class=\"greenText\"><b>Successful harvest!</b></span><br>Your pay has increased by $0.02. Your bonus pay is now $0.18.</p>\n            ","response":0,"trial_type":"html-button-response","trial_index":96,"time_elapsed":442549,"internal_node_id":"0.0-4.0-1.42","subject_id":"5feca892539a38e4b0e52fd1","study_id":"6197b3f67c2b5cd3b6d9596a","session_id":"6197b9ebb4f2523d33843526","condition":"full-information","relevant_dimensions":["wings","pattern"],"bee_group":{"antennae":"X","wings":"1","pattern":"D","legs":"X"},"bonus":0.06},{"rt":1257.9000000003725,"stimulus":"bees-with-color/bee-A2DM.svg","response":0,"trial_type":"image-button-response","trial_index":97,"time_elapsed":443808,"internal_node_id":"0.0-4.0-0.43","subject_id":"5feca892539a38e4b0e52fd1","study_id":"6197b3f67c2b5cd3b6d9596a","session_id":"6197b9ebb4f2523d33843526","condition":"full-information","relevant_dimensions":["wings","pattern"],"bee_group":{"antennae":"X","wings":"1","pattern":"D","legs":"X"},"action":"harvest","summary":"good-harvest","bonus":0.06},{"rt":779.2999999988824,"stimulus":"\n                    <p><b>Action: <em>harvest</em></b></p>\n                    <p>This is the bee that you just saw.</p>\n                    <img src=\"bees-with-color/bee-A2DM.svg\" width=\"200\">\n                    <p><span class=\"greenText\"><b>Successful harvest!</b></span><br>Your pay has increased by $0.02. Your bonus pay is now $0.20.</p>\n            ","response":0,"trial_type":"html-button-response","trial_index":98,"time_elapsed":444590,"internal_node_id":"0.0-4.0-1.43","subject_id":"5feca892539a38e4b0e52fd1","study_id":"6197b3f67c2b5cd3b6d9596a","session_id":"6197b9ebb4f2523d33843526","condition":"full-information","relevant_dimensions":["wings","pattern"],"bee_group":{"antennae":"X","wings":"1","pattern":"D","legs":"X"},"bonus":0.06},{"rt":1891.5999999996275,"stimulus":"bees-with-color/bee-A1DF.svg","response":0,"trial_type":"image-button-response","trial_index":99,"time_elapsed":446483,"internal_node_id":"0.0-4.0-0.44","subject_id":"5feca892539a38e4b0e52fd1","study_id":"6197b3f67c2b5cd3b6d9596a","session_id":"6197b9ebb4f2523d33843526","condition":"full-information","relevant_dimensions":["wings","pattern"],"bee_group":{"antennae":"X","wings":"1","pattern":"D","legs":"X"},"action":"harvest","summary":"bad-harvest","bonus":0.06},{"rt":1036.9000000003725,"stimulus":"\n                    <p><b>Action: <em>harvest</em></b></p>\n                    <p>This is the bee that you just saw.</p>\n                    <img src=\"bees-with-color/bee-A1DF.svg\" width=\"200\">\n                    <p><span class=\"redText\">Bad choice, the bee was angry.</span><br><b>You have been stung!</b><br>Your pay has been decreased by $0.10. Your bonus pay is now $0.10.</p>\n            ","response":0,"trial_type":"html-button-response","trial_index":100,"time_elapsed":447521,"internal_node_id":"0.0-4.0-1.44","subject_id":"5feca892539a38e4b0e52fd1","study_id":"6197b3f67c2b5cd3b6d9596a","session_id":"6197b9ebb4f2523d33843526","condition":"full-information","relevant_dimensions":["wings","pattern"],"bee_group":{"antennae":"X","wings":"1","pattern":"D","legs":"X"},"bonus":0.06},{"rt":927.6999999992549,"stimulus":"bees-with-color/bee-B1DM.svg","response":0,"trial_type":"image-button-response","trial_index":101,"time_elapsed":448451,"internal_node_id":"0.0-4.0-0.45","subject_id":"5feca892539a38e4b0e52fd1","study_id":"6197b3f67c2b5cd3b6d9596a","session_id":"6197b9ebb4f2523d33843526","condition":"full-information","relevant_dimensions":["wings","pattern"],"bee_group":{"antennae":"X","wings":"1","pattern":"D","legs":"X"},"action":"harvest","summary":"bad-harvest","bonus":0.06},{"rt":730.0999999996275,"stimulus":"\n                    <p><b>Action: <em>harvest</em></b></p>\n                    <p>This is the bee that you just saw.</p>\n                    <img src=\"bees-with-color/bee-B1DM.svg\" width=\"200\">\n                    <p><span class=\"redText\">Bad choice, the bee was angry.</span><br><b>You have been stung!</b><br>Your pay has been decreased by $0.10. Your bonus pay is now $0.00.</p>\n            ","response":0,"trial_type":"html-button-response","trial_index":102,"time_elapsed":449182,"internal_node_id":"0.0-4.0-1.45","subject_id":"5feca892539a38e4b0e52fd1","study_id":"6197b3f67c2b5cd3b6d9596a","session_id":"6197b9ebb4f2523d33843526","condition":"full-information","relevant_dimensions":["wings","pattern"],"bee_group":{"antennae":"X","wings":"1","pattern":"D","legs":"X"},"bonus":0.06},{"rt":769.5,"stimulus":"bees-with-color/bee-A1SM.svg","response":0,"trial_type":"image-button-response","trial_index":103,"time_elapsed":449953,"internal_node_id":"0.0-4.0-0.46","subject_id":"5feca892539a38e4b0e52fd1","study_id":"6197b3f67c2b5cd3b6d9596a","session_id":"6197b9ebb4f2523d33843526","condition":"full-information","relevant_dimensions":["wings","pattern"],"bee_group":{"antennae":"X","wings":"1","pattern":"D","legs":"X"},"action":"harvest","summary":"good-harvest","bonus":0.06},{"rt":987.3000000007451,"stimulus":"\n                    <p><b>Action: <em>harvest</em></b></p>\n                    <p>This is the bee that you just saw.</p>\n                    <img src=\"bees-with-color/bee-A1SM.svg\" width=\"200\">\n                    <p><span class=\"greenText\"><b>Successful harvest!</b></span><br>Your pay has increased by $0.02. Your bonus pay is now $0.02.</p>\n            ","response":0,"trial_type":"html-button-response","trial_index":104,"time_elapsed":450942,"internal_node_id":"0.0-4.0-1.46","subject_id":"5feca892539a38e4b0e52fd1","study_id":"6197b3f67c2b5cd3b6d9596a","session_id":"6197b9ebb4f2523d33843526","condition":"full-information","relevant_dimensions":["wings","pattern"],"bee_group":{"antennae":"X","wings":"1","pattern":"D","legs":"X"},"bonus":0.06},{"rt":1672,"stimulus":"bees-with-color/bee-B2SF.svg","response":0,"trial_type":"image-button-response","trial_index":105,"time_elapsed":452616,"internal_node_id":"0.0-4.0-0.47","subject_id":"5feca892539a38e4b0e52fd1","study_id":"6197b3f67c2b5cd3b6d9596a","session_id":"6197b9ebb4f2523d33843526","condition":"full-information","relevant_dimensions":["wings","pattern"],"bee_group":{"antennae":"X","wings":"1","pattern":"D","legs":"X"},"action":"harvest","summary":"good-harvest","bonus":0.06},{"rt":878.7000000011176,"stimulus":"\n                    <p><b>Action: <em>harvest</em></b></p>\n                    <p>This is the bee that you just saw.</p>\n                    <img src=\"bees-with-color/bee-B2SF.svg\" width=\"200\">\n                    <p><span class=\"greenText\"><b>Successful harvest!</b></span><br>Your pay has increased by $0.02. Your bonus pay is now $0.04.</p>\n            ","response":0,"trial_type":"html-button-response","trial_index":106,"time_elapsed":453496,"internal_node_id":"0.0-4.0-1.47","subject_id":"5feca892539a38e4b0e52fd1","study_id":"6197b3f67c2b5cd3b6d9596a","session_id":"6197b9ebb4f2523d33843526","condition":"full-information","relevant_dimensions":["wings","pattern"],"bee_group":{"antennae":"X","wings":"1","pattern":"D","legs":"X"},"bonus":0.06},{"rt":1487.9000000003725,"stimulus":"bees-with-color/bee-B1SF.svg","response":0,"trial_type":"image-button-response","trial_index":107,"time_elapsed":454986,"internal_node_id":"0.0-4.0-0.48","subject_id":"5feca892539a38e4b0e52fd1","study_id":"6197b3f67c2b5cd3b6d9596a","session_id":"6197b9ebb4f2523d33843526","condition":"full-information","relevant_dimensions":["wings","pattern"],"bee_group":{"antennae":"X","wings":"1","pattern":"D","legs":"X"},"action":"harvest","summary":"good-harvest","bonus":0.06},{"rt":914.2999999988824,"stimulus":"\n                    <p><b>Action: <em>harvest</em></b></p>\n                    <p>This is the bee that you just saw.</p>\n                    <img src=\"bees-with-color/bee-B1SF.svg\" width=\"200\">\n                    <p><span class=\"greenText\"><b>Successful harvest!</b></span><br>Your pay has increased by $0.02. Your bonus pay is now $0.06.</p>\n            ","response":0,"trial_type":"html-button-response","trial_index":108,"time_elapsed":455902,"internal_node_id":"0.0-4.0-1.48","subject_id":"5feca892539a38e4b0e52fd1","study_id":"6197b3f67c2b5cd3b6d9596a","session_id":"6197b9ebb4f2523d33843526","condition":"full-information","relevant_dimensions":["wings","pattern"],"bee_group":{"antennae":"X","wings":"1","pattern":"D","legs":"X"},"bonus":0.06},{"rt":1317.2000000011176,"stimulus":"bees-with-color/bee-B1DM.svg","response":1,"trial_type":"image-button-response","trial_index":109,"time_elapsed":457221,"internal_node_id":"0.0-4.0-0.49","subject_id":"5feca892539a38e4b0e52fd1","study_id":"6197b3f67c2b5cd3b6d9596a","session_id":"6197b9ebb4f2523d33843526","condition":"full-information","relevant_dimensions":["wings","pattern"],"bee_group":{"antennae":"X","wings":"1","pattern":"D","legs":"X"},"action":"avoid","summary":"good-avoid","bonus":0.06},{"rt":1061.0999999996275,"stimulus":"\n                    <p><b>Action: <em>avoid</em></b></p>\n                    <p>This is the bee that you just saw.</p>\n                    <img src=\"bees-with-color/bee-B1DM.svg\" width=\"200\">\n                    <p><span class=\"greenText\">Good choice!</span>  This bee would have stung you.<br>Your bonus pay is unchanged, and remains at $0.06.</p>\n            ","response":0,"trial_type":"html-button-response","trial_index":110,"time_elapsed":458284,"internal_node_id":"0.0-4.0-1.49","subject_id":"5feca892539a38e4b0e52fd1","study_id":"6197b3f67c2b5cd3b6d9596a","session_id":"6197b9ebb4f2523d33843526","condition":"full-information","relevant_dimensions":["wings","pattern"],"bee_group":{"antennae":"X","wings":"1","pattern":"D","legs":"X"},"bonus":0.06},{"rt":1586.7000000011176,"stimulus":"bees-with-color/bee-A2SF.svg","response":0,"trial_type":"image-button-response","trial_index":111,"time_elapsed":459872,"internal_node_id":"0.0-4.0-0.50","subject_id":"5feca892539a38e4b0e52fd1","study_id":"6197b3f67c2b5cd3b6d9596a","session_id":"6197b9ebb4f2523d33843526","condition":"full-information","relevant_dimensions":["wings","pattern"],"bee_group":{"antennae":"X","wings":"1","pattern":"D","legs":"X"},"action":"harvest","summary":"good-harvest","bonus":0.06},{"rt":828,"stimulus":"\n                    <p><b>Action: <em>harvest</em></b></p>\n                    <p>This is the bee that you just saw.</p>\n                    <img src=\"bees-with-color/bee-A2SF.svg\" width=\"200\">\n                    <p><span class=\"greenText\"><b>Successful harvest!</b></span><br>Your pay has increased by $0.02. Your bonus pay is now $0.08.</p>\n            ","response":0,"trial_type":"html-button-response","trial_index":112,"time_elapsed":460702,"internal_node_id":"0.0-4.0-1.50","subject_id":"5feca892539a38e4b0e52fd1","study_id":"6197b3f67c2b5cd3b6d9596a","session_id":"6197b9ebb4f2523d33843526","condition":"full-information","relevant_dimensions":["wings","pattern"],"bee_group":{"antennae":"X","wings":"1","pattern":"D","legs":"X"},"bonus":0.06},{"rt":2124.199999999255,"stimulus":"bees-with-color/bee-A1DF.svg","response":0,"trial_type":"image-button-response","trial_index":113,"time_elapsed":462828,"internal_node_id":"0.0-4.0-0.51","subject_id":"5feca892539a38e4b0e52fd1","study_id":"6197b3f67c2b5cd3b6d9596a","session_id":"6197b9ebb4f2523d33843526","condition":"full-information","relevant_dimensions":["wings","pattern"],"bee_group":{"antennae":"X","wings":"1","pattern":"D","legs":"X"},"action":"harvest","summary":"bad-harvest","bonus":0.06},{"rt":1085.2999999988824,"stimulus":"\n                    <p><b>Action: <em>harvest</em></b></p>\n                    <p>This is the bee that you just saw.</p>\n                    <img src=\"bees-with-color/bee-A1DF.svg\" width=\"200\">\n                    <p><span class=\"redText\">Bad choice, the bee was angry.</span><br><b>You have been stung!</b><br>Your pay has been decreased by $0.10. Your bonus pay is now $0.00.</p>\n            ","response":0,"trial_type":"html-button-response","trial_index":114,"time_elapsed":463915,"internal_node_id":"0.0-4.0-1.51","subject_id":"5feca892539a38e4b0e52fd1","study_id":"6197b3f67c2b5cd3b6d9596a","session_id":"6197b9ebb4f2523d33843526","condition":"full-information","relevant_dimensions":["wings","pattern"],"bee_group":{"antennae":"X","wings":"1","pattern":"D","legs":"X"},"bonus":0.06},{"rt":1940.6000000014901,"stimulus":"bees-with-color/bee-B2DM.svg","response":0,"trial_type":"image-button-response","trial_index":115,"time_elapsed":465858,"internal_node_id":"0.0-4.0-0.52","subject_id":"5feca892539a38e4b0e52fd1","study_id":"6197b3f67c2b5cd3b6d9596a","session_id":"6197b9ebb4f2523d33843526","condition":"full-information","relevant_dimensions":["wings","pattern"],"bee_group":{"antennae":"X","wings":"1","pattern":"D","legs":"X"},"action":"harvest","summary":"good-harvest","bonus":0.06},{"rt":2270.7000000011176,"stimulus":"\n                    <p><b>Action: <em>harvest</em></b></p>\n                    <p>This is the bee that you just saw.</p>\n                    <img src=\"bees-with-color/bee-B2DM.svg\" width=\"200\">\n                    <p><span class=\"greenText\"><b>Successful harvest!</b></span><br>Your pay has increased by $0.02. Your bonus pay is now $0.02.</p>\n            ","response":0,"trial_type":"html-button-response","trial_index":116,"time_elapsed":468130,"internal_node_id":"0.0-4.0-1.52","subject_id":"5feca892539a38e4b0e52fd1","study_id":"6197b3f67c2b5cd3b6d9596a","session_id":"6197b9ebb4f2523d33843526","condition":"full-information","relevant_dimensions":["wings","pattern"],"bee_group":{"antennae":"X","wings":"1","pattern":"D","legs":"X"},"bonus":0.06},{"rt":1170.4000000003725,"stimulus":"bees-with-color/bee-B2SF.svg","response":1,"trial_type":"image-button-response","trial_index":117,"time_elapsed":469303,"internal_node_id":"0.0-4.0-0.53","subject_id":"5feca892539a38e4b0e52fd1","study_id":"6197b3f67c2b5cd3b6d9596a","session_id":"6197b9ebb4f2523d33843526","condition":"full-information","relevant_dimensions":["wings","pattern"],"bee_group":{"antennae":"X","wings":"1","pattern":"D","legs":"X"},"action":"avoid","summary":"bad-avoid","bonus":0.06},{"rt":1206.8999999985099,"stimulus":"\n                    <p><b>Action: <em>avoid</em></b></p>\n                    <p>This is the bee that you just saw.</p>\n                    <img src=\"bees-with-color/bee-B2SF.svg\" width=\"200\">\n                    <p><span class=\"redText\">Bad choice,</span> the bee was friendly.<br>Your bonus pay is unchanged, and remains at $0.02.</p>\n            ","response":0,"trial_type":"html-button-response","trial_index":118,"time_elapsed":470511,"internal_node_id":"0.0-4.0-1.53","subject_id":"5feca892539a38e4b0e52fd1","study_id":"6197b3f67c2b5cd3b6d9596a","session_id":"6197b9ebb4f2523d33843526","condition":"full-information","relevant_dimensions":["wings","pattern"],"bee_group":{"antennae":"X","wings":"1","pattern":"D","legs":"X"},"bonus":0.06},{"rt":1086.2999999988824,"stimulus":"bees-with-color/bee-B2DF.svg","response":0,"trial_type":"image-button-response","trial_index":119,"time_elapsed":471599,"internal_node_id":"0.0-4.0-0.54","subject_id":"5feca892539a38e4b0e52fd1","study_id":"6197b3f67c2b5cd3b6d9596a","session_id":"6197b9ebb4f2523d33843526","condition":"full-information","relevant_dimensions":["wings","pattern"],"bee_group":{"antennae":"X","wings":"1","pattern":"D","legs":"X"},"action":"harvest","summary":"good-harvest","bonus":0.06},{"rt":865.8000000007451,"stimulus":"\n                    <p><b>Action: <em>harvest</em></b></p>\n                    <p>This is the bee that you just saw.</p>\n                    <img src=\"bees-with-color/bee-B2DF.svg\" width=\"200\">\n                    <p><span class=\"greenText\"><b>Successful harvest!</b></span><br>Your pay has increased by $0.02. Your bonus pay is now $0.04.</p>\n            ","response":0,"trial_type":"html-button-response","trial_index":120,"time_elapsed":472466,"internal_node_id":"0.0-4.0-1.54","subject_id":"5feca892539a38e4b0e52fd1","study_id":"6197b3f67c2b5cd3b6d9596a","session_id":"6197b9ebb4f2523d33843526","condition":"full-information","relevant_dimensions":["wings","pattern"],"bee_group":{"antennae":"X","wings":"1","pattern":"D","legs":"X"},"bonus":0.06},{"rt":3364.5,"stimulus":"bees-with-color/bee-B2SM.svg","response":0,"trial_type":"image-button-response","trial_index":121,"time_elapsed":475832,"internal_node_id":"0.0-4.0-0.55","subject_id":"5feca892539a38e4b0e52fd1","study_id":"6197b3f67c2b5cd3b6d9596a","session_id":"6197b9ebb4f2523d33843526","condition":"full-information","relevant_dimensions":["wings","pattern"],"bee_group":{"antennae":"X","wings":"1","pattern":"D","legs":"X"},"action":"harvest","summary":"good-harvest","bonus":0.06},{"rt":2038.300000000745,"stimulus":"\n                    <p><b>Action: <em>harvest</em></b></p>\n                    <p>This is the bee that you just saw.</p>\n                    <img src=\"bees-with-color/bee-B2SM.svg\" width=\"200\">\n                    <p><span class=\"greenText\"><b>Successful harvest!</b></span><br>Your pay has increased by $0.02. Your bonus pay is now $0.06.</p>\n            ","response":0,"trial_type":"html-button-response","trial_index":122,"time_elapsed":477873,"internal_node_id":"0.0-4.0-1.55","subject_id":"5feca892539a38e4b0e52fd1","study_id":"6197b3f67c2b5cd3b6d9596a","session_id":"6197b9ebb4f2523d33843526","condition":"full-information","relevant_dimensions":["wings","pattern"],"bee_group":{"antennae":"X","wings":"1","pattern":"D","legs":"X"},"bonus":0.06},{"rt":2195.0999999996275,"stimulus":"bees-with-color/bee-A2DM.svg","response":1,"trial_type":"image-button-response","trial_index":123,"time_elapsed":480070,"internal_node_id":"0.0-4.0-0.56","subject_id":"5feca892539a38e4b0e52fd1","study_id":"6197b3f67c2b5cd3b6d9596a","session_id":"6197b9ebb4f2523d33843526","condition":"full-information","relevant_dimensions":["wings","pattern"],"bee_group":{"antennae":"X","wings":"1","pattern":"D","legs":"X"},"action":"avoid","summary":"bad-avoid","bonus":0.06},{"rt":1194.800000000745,"stimulus":"\n                    <p><b>Action: <em>avoid</em></b></p>\n                    <p>This is the bee that you just saw.</p>\n                    <img src=\"bees-with-color/bee-A2DM.svg\" width=\"200\">\n                    <p><span class=\"redText\">Bad choice,</span> the bee was friendly.<br>Your bonus pay is unchanged, and remains at $0.06.</p>\n            ","response":0,"trial_type":"html-button-response","trial_index":124,"time_elapsed":481266,"internal_node_id":"0.0-4.0-1.56","subject_id":"5feca892539a38e4b0e52fd1","study_id":"6197b3f67c2b5cd3b6d9596a","session_id":"6197b9ebb4f2523d33843526","condition":"full-information","relevant_dimensions":["wings","pattern"],"bee_group":{"antennae":"X","wings":"1","pattern":"D","legs":"X"},"bonus":0.06},{"rt":1489.2999999988824,"stimulus":"bees-with-color/bee-B1SM.svg","response":0,"trial_type":"image-button-response","trial_index":125,"time_elapsed":482757,"internal_node_id":"0.0-4.0-0.57","subject_id":"5feca892539a38e4b0e52fd1","study_id":"6197b3f67c2b5cd3b6d9596a","session_id":"6197b9ebb4f2523d33843526","condition":"full-information","relevant_dimensions":["wings","pattern"],"bee_group":{"antennae":"X","wings":"1","pattern":"D","legs":"X"},"action":"harvest","summary":"good-harvest","bonus":0.06},{"rt":1170.0999999996275,"stimulus":"\n                    <p><b>Action: <em>harvest</em></b></p>\n                    <p>This is the bee that you just saw.</p>\n                    <img src=\"bees-with-color/bee-B1SM.svg\" width=\"200\">\n                    <p><span class=\"greenText\"><b>Successful harvest!</b></span><br>Your pay has increased by $0.02. Your bonus pay is now $0.08.</p>\n            ","response":0,"trial_type":"html-button-response","trial_index":126,"time_elapsed":483929,"internal_node_id":"0.0-4.0-1.57","subject_id":"5feca892539a38e4b0e52fd1","study_id":"6197b3f67c2b5cd3b6d9596a","session_id":"6197b9ebb4f2523d33843526","condition":"full-information","relevant_dimensions":["wings","pattern"],"bee_group":{"antennae":"X","wings":"1","pattern":"D","legs":"X"},"bonus":0.06},{"rt":3236.4000000003725,"stimulus":"bees-with-color/bee-A2SM.svg","response":0,"trial_type":"image-button-response","trial_index":127,"time_elapsed":487167,"internal_node_id":"0.0-4.0-0.58","subject_id":"5feca892539a38e4b0e52fd1","study_id":"6197b3f67c2b5cd3b6d9596a","session_id":"6197b9ebb4f2523d33843526","condition":"full-information","relevant_dimensions":["wings","pattern"],"bee_group":{"antennae":"X","wings":"1","pattern":"D","legs":"X"},"action":"harvest","summary":"good-harvest","bonus":0.06},{"rt":1219,"stimulus":"\n                    <p><b>Action: <em>harvest</em></b></p>\n                    <p>This is the bee that you just saw.</p>\n                    <img src=\"bees-with-color/bee-A2SM.svg\" width=\"200\">\n                    <p><span class=\"greenText\"><b>Successful harvest!</b></span><br>Your pay has increased by $0.02. Your bonus pay is now $0.10.</p>\n            ","response":0,"trial_type":"html-button-response","trial_index":128,"time_elapsed":488388,"internal_node_id":"0.0-4.0-1.58","subject_id":"5feca892539a38e4b0e52fd1","study_id":"6197b3f67c2b5cd3b6d9596a","session_id":"6197b9ebb4f2523d33843526","condition":"full-information","relevant_dimensions":["wings","pattern"],"bee_group":{"antennae":"X","wings":"1","pattern":"D","legs":"X"},"bonus":0.06},{"rt":2759.0999999996275,"stimulus":"bees-with-color/bee-B1DF.svg","response":0,"trial_type":"image-button-response","trial_index":129,"time_elapsed":491149,"internal_node_id":"0.0-4.0-0.59","subject_id":"5feca892539a38e4b0e52fd1","study_id":"6197b3f67c2b5cd3b6d9596a","session_id":"6197b9ebb4f2523d33843526","condition":"full-information","relevant_dimensions":["wings","pattern"],"bee_group":{"antennae":"X","wings":"1","pattern":"D","legs":"X"},"action":"harvest","summary":"bad-harvest","bonus":0.06},{"rt":1574,"stimulus":"\n                    <p><b>Action: <em>harvest</em></b></p>\n                    <p>This is the bee that you just saw.</p>\n                    <img src=\"bees-with-color/bee-B1DF.svg\" width=\"200\">\n                    <p><span class=\"redText\">Bad choice, the bee was angry.</span><br><b>You have been stung!</b><br>Your pay has been decreased by $0.10. Your bonus pay is now $0.00.</p>\n            ","response":0,"trial_type":"html-button-response","trial_index":130,"time_elapsed":492724,"internal_node_id":"0.0-4.0-1.59","subject_id":"5feca892539a38e4b0e52fd1","study_id":"6197b3f67c2b5cd3b6d9596a","session_id":"6197b9ebb4f2523d33843526","condition":"full-information","relevant_dimensions":["wings","pattern"],"bee_group":{"antennae":"X","wings":"1","pattern":"D","legs":"X"},"bonus":0.06},{"rt":1475.800000000745,"stimulus":"bees-with-color/bee-A1DM.svg","response":0,"trial_type":"image-button-response","trial_index":131,"time_elapsed":494202,"internal_node_id":"0.0-4.0-0.60","subject_id":"5feca892539a38e4b0e52fd1","study_id":"6197b3f67c2b5cd3b6d9596a","session_id":"6197b9ebb4f2523d33843526","condition":"full-information","relevant_dimensions":["wings","pattern"],"bee_group":{"antennae":"X","wings":"1","pattern":"D","legs":"X"},"action":"harvest","summary":"bad-harvest","bonus":0.06},{"rt":1011.9000000003725,"stimulus":"\n                    <p><b>Action: <em>harvest</em></b></p>\n                    <p>This is the bee that you just saw.</p>\n                    <img src=\"bees-with-color/bee-A1DM.svg\" width=\"200\">\n                    <p><span class=\"redText\">Bad choice, the bee was angry.</span><br><b>You have been stung!</b><br>Your pay has been decreased by $0.10. Your bonus pay is now $0.00.</p>\n            ","response":0,"trial_type":"html-button-response","trial_index":132,"time_elapsed":495215,"internal_node_id":"0.0-4.0-1.60","subject_id":"5feca892539a38e4b0e52fd1","study_id":"6197b3f67c2b5cd3b6d9596a","session_id":"6197b9ebb4f2523d33843526","condition":"full-information","relevant_dimensions":["wings","pattern"],"bee_group":{"antennae":"X","wings":"1","pattern":"D","legs":"X"},"bonus":0.06},{"rt":975.5999999996275,"stimulus":"bees-with-color/bee-A1SM.svg","response":0,"trial_type":"image-button-response","trial_index":133,"time_elapsed":496192,"internal_node_id":"0.0-4.0-0.61","subject_id":"5feca892539a38e4b0e52fd1","study_id":"6197b3f67c2b5cd3b6d9596a","session_id":"6197b9ebb4f2523d33843526","condition":"full-information","relevant_dimensions":["wings","pattern"],"bee_group":{"antennae":"X","wings":"1","pattern":"D","legs":"X"},"action":"harvest","summary":"good-harvest","bonus":0.06},{"rt":939.5,"stimulus":"\n                    <p><b>Action: <em>harvest</em></b></p>\n                    <p>This is the bee that you just saw.</p>\n                    <img src=\"bees-with-color/bee-A1SM.svg\" width=\"200\">\n                    <p><span class=\"greenText\"><b>Successful harvest!</b></span><br>Your pay has increased by $0.02. Your bonus pay is now $0.02.</p>\n            ","response":0,"trial_type":"html-button-response","trial_index":134,"time_elapsed":497133,"internal_node_id":"0.0-4.0-1.61","subject_id":"5feca892539a38e4b0e52fd1","study_id":"6197b3f67c2b5cd3b6d9596a","session_id":"6197b9ebb4f2523d33843526","condition":"full-information","relevant_dimensions":["wings","pattern"],"bee_group":{"antennae":"X","wings":"1","pattern":"D","legs":"X"},"bonus":0.06},{"rt":561.0999999996275,"stimulus":"bees-with-color/bee-A1SF.svg","response":0,"trial_type":"image-button-response","trial_index":135,"time_elapsed":497696,"internal_node_id":"0.0-4.0-0.62","subject_id":"5feca892539a38e4b0e52fd1","study_id":"6197b3f67c2b5cd3b6d9596a","session_id":"6197b9ebb4f2523d33843526","condition":"full-information","relevant_dimensions":["wings","pattern"],"bee_group":{"antennae":"X","wings":"1","pattern":"D","legs":"X"},"action":"harvest","summary":"good-harvest","bonus":0.06},{"rt":1120.9000000003725,"stimulus":"\n                    <p><b>Action: <em>harvest</em></b></p>\n                    <p>This is the bee that you just saw.</p>\n                    <img src=\"bees-with-color/bee-A1SF.svg\" width=\"200\">\n                    <p><span class=\"greenText\"><b>Successful harvest!</b></span><br>Your pay has increased by $0.02. Your bonus pay is now $0.04.</p>\n            ","response":0,"trial_type":"html-button-response","trial_index":136,"time_elapsed":498818,"internal_node_id":"0.0-4.0-1.62","subject_id":"5feca892539a38e4b0e52fd1","study_id":"6197b3f67c2b5cd3b6d9596a","session_id":"6197b9ebb4f2523d33843526","condition":"full-information","relevant_dimensions":["wings","pattern"],"bee_group":{"antennae":"X","wings":"1","pattern":"D","legs":"X"},"bonus":0.06},{"rt":671.5999999996275,"stimulus":"bees-with-color/bee-A2DF.svg","response":0,"trial_type":"image-button-response","trial_index":137,"time_elapsed":499491,"internal_node_id":"0.0-4.0-0.63","subject_id":"5feca892539a38e4b0e52fd1","study_id":"6197b3f67c2b5cd3b6d9596a","session_id":"6197b9ebb4f2523d33843526","condition":"full-information","relevant_dimensions":["wings","pattern"],"bee_group":{"antennae":"X","wings":"1","pattern":"D","legs":"X"},"action":"harvest","summary":"good-harvest","bonus":0.06},{"rt":816.3000000007451,"stimulus":"\n                    <p><b>Action: <em>harvest</em></b></p>\n                    <p>This is the bee that you just saw.</p>\n                    <img src=\"bees-with-color/bee-A2DF.svg\" width=\"200\">\n                    <p><span class=\"greenText\"><b>Successful harvest!</b></span><br>Your pay has increased by $0.02. Your bonus pay is now $0.06.</p>\n            ","response":0,"trial_type":"html-button-response","trial_index":138,"time_elapsed":500309,"internal_node_id":"0.0-4.0-1.63","subject_id":"5feca892539a38e4b0e52fd1","study_id":"6197b3f67c2b5cd3b6d9596a","session_id":"6197b9ebb4f2523d33843526","condition":"full-information","relevant_dimensions":["wings","pattern"],"bee_group":{"antennae":"X","wings":"1","pattern":"D","legs":"X"},"bonus":0.06},{"rt":1607.199999999255,"stimulus":"You have completed the first part of this experiment.<br><br>You will now begin a shorter second part, in which you will receive no feedback.<br>The same rules regarding bonus pay apply.<br><br>Press any key to begin.","response":"enter","trial_type":"html-keyboard-response","trial_index":139,"time_elapsed":501918,"internal_node_id":"0.0-5.0","subject_id":"5feca892539a38e4b0e52fd1","study_id":"6197b3f67c2b5cd3b6d9596a","session_id":"6197b9ebb4f2523d33843526","condition":"full-information","relevant_dimensions":["wings","pattern"],"bee_group":{"antennae":"X","wings":"1","pattern":"D","legs":"X"},"bonus":0.06},{"rt":2839,"stimulus":"bees-with-color/bee-A2SF.svg","response":0,"trial_type":"image-button-response","trial_index":140,"time_elapsed":504768,"internal_node_id":"0.0-6.0-0.0","subject_id":"5feca892539a38e4b0e52fd1","study_id":"6197b3f67c2b5cd3b6d9596a","session_id":"6197b9ebb4f2523d33843526","condition":"full-information","relevant_dimensions":["wings","pattern"],"bee_group":{"antennae":"X","wings":"1","pattern":"D","legs":"X"},"bonus":0.06},{"rt":2977.7000000011176,"stimulus":"bees-with-color/bee-B2DF.svg","response":1,"trial_type":"image-button-response","trial_index":141,"time_elapsed":507749,"internal_node_id":"0.0-6.0-0.1","subject_id":"5feca892539a38e4b0e52fd1","study_id":"6197b3f67c2b5cd3b6d9596a","session_id":"6197b9ebb4f2523d33843526","condition":"full-information","relevant_dimensions":["wings","pattern"],"bee_group":{"antennae":"X","wings":"1","pattern":"D","legs":"X"},"bonus":0.06},{"rt":2245.300000000745,"stimulus":"bees-with-color/bee-A1SF.svg","response":0,"trial_type":"image-button-response","trial_index":142,"time_elapsed":509996,"internal_node_id":"0.0-6.0-0.2","subject_id":"5feca892539a38e4b0e52fd1","study_id":"6197b3f67c2b5cd3b6d9596a","session_id":"6197b9ebb4f2523d33843526","condition":"full-information","relevant_dimensions":["wings","pattern"],"bee_group":{"antennae":"X","wings":"1","pattern":"D","legs":"X"},"bonus":0.06},{"rt":1096.199999999255,"stimulus":"bees-with-color/bee-A1DM.svg","response":0,"trial_type":"image-button-response","trial_index":143,"time_elapsed":511095,"internal_node_id":"0.0-6.0-0.3","subject_id":"5feca892539a38e4b0e52fd1","study_id":"6197b3f67c2b5cd3b6d9596a","session_id":"6197b9ebb4f2523d33843526","condition":"full-information","relevant_dimensions":["wings","pattern"],"bee_group":{"antennae":"X","wings":"1","pattern":"D","legs":"X"},"bonus":0.06},{"rt":1012,"stimulus":"bees-with-color/bee-A1SM.svg","response":0,"trial_type":"image-button-response","trial_index":144,"time_elapsed":512109,"internal_node_id":"0.0-6.0-0.4","subject_id":"5feca892539a38e4b0e52fd1","study_id":"6197b3f67c2b5cd3b6d9596a","session_id":"6197b9ebb4f2523d33843526","condition":"full-information","relevant_dimensions":["wings","pattern"],"bee_group":{"antennae":"X","wings":"1","pattern":"D","legs":"X"},"bonus":0.06},{"rt":950.3000000007451,"stimulus":"bees-with-color/bee-A2SM.svg","response":0,"trial_type":"image-button-response","trial_index":145,"time_elapsed":513062,"internal_node_id":"0.0-6.0-0.5","subject_id":"5feca892539a38e4b0e52fd1","study_id":"6197b3f67c2b5cd3b6d9596a","session_id":"6197b9ebb4f2523d33843526","condition":"full-information","relevant_dimensions":["wings","pattern"],"bee_group":{"antennae":"X","wings":"1","pattern":"D","legs":"X"},"bonus":0.06},{"rt":1035.2000000011176,"stimulus":"bees-with-color/bee-B1DM.svg","response":1,"trial_type":"image-button-response","trial_index":146,"time_elapsed":514100,"internal_node_id":"0.0-6.0-0.6","subject_id":"5feca892539a38e4b0e52fd1","study_id":"6197b3f67c2b5cd3b6d9596a","session_id":"6197b9ebb4f2523d33843526","condition":"full-information","relevant_dimensions":["wings","pattern"],"bee_group":{"antennae":"X","wings":"1","pattern":"D","legs":"X"},"bonus":0.06},{"rt":1707.0999999996275,"stimulus":"bees-with-color/bee-A2DF.svg","response":1,"trial_type":"image-button-response","trial_index":147,"time_elapsed":515810,"internal_node_id":"0.0-6.0-0.7","subject_id":"5feca892539a38e4b0e52fd1","study_id":"6197b3f67c2b5cd3b6d9596a","session_id":"6197b9ebb4f2523d33843526","condition":"full-information","relevant_dimensions":["wings","pattern"],"bee_group":{"antennae":"X","wings":"1","pattern":"D","legs":"X"},"bonus":0.06},{"rt":791.3000000007451,"stimulus":"bees-with-color/bee-B1SM.svg","response":0,"trial_type":"image-button-response","trial_index":148,"time_elapsed":516603,"internal_node_id":"0.0-6.0-0.8","subject_id":"5feca892539a38e4b0e52fd1","study_id":"6197b3f67c2b5cd3b6d9596a","session_id":"6197b9ebb4f2523d33843526","condition":"full-information","relevant_dimensions":["wings","pattern"],"bee_group":{"antennae":"X","wings":"1","pattern":"D","legs":"X"},"bonus":0.06},{"rt":1378.5,"stimulus":"bees-with-color/bee-A2DM.svg","response":0,"trial_type":"image-button-response","trial_index":149,"time_elapsed":517984,"internal_node_id":"0.0-6.0-0.9","subject_id":"5feca892539a38e4b0e52fd1","study_id":"6197b3f67c2b5cd3b6d9596a","session_id":"6197b9ebb4f2523d33843526","condition":"full-information","relevant_dimensions":["wings","pattern"],"bee_group":{"antennae":"X","wings":"1","pattern":"D","legs":"X"},"bonus":0.06},{"rt":1426.9000000003725,"stimulus":"bees-with-color/bee-A1DF.svg","response":0,"trial_type":"image-button-response","trial_index":150,"time_elapsed":519413,"internal_node_id":"0.0-6.0-0.10","subject_id":"5feca892539a38e4b0e52fd1","study_id":"6197b3f67c2b5cd3b6d9596a","session_id":"6197b9ebb4f2523d33843526","condition":"full-information","relevant_dimensions":["wings","pattern"],"bee_group":{"antennae":"X","wings":"1","pattern":"D","legs":"X"},"bonus":0.06},{"rt":1415,"stimulus":"bees-with-color/bee-B2SF.svg","response":1,"trial_type":"image-button-response","trial_index":151,"time_elapsed":520830,"internal_node_id":"0.0-6.0-0.11","subject_id":"5feca892539a38e4b0e52fd1","study_id":"6197b3f67c2b5cd3b6d9596a","session_id":"6197b9ebb4f2523d33843526","condition":"full-information","relevant_dimensions":["wings","pattern"],"bee_group":{"antennae":"X","wings":"1","pattern":"D","legs":"X"},"bonus":0.06},{"rt":864.1999999992549,"stimulus":"bees-with-color/bee-B2DM.svg","response":0,"trial_type":"image-button-response","trial_index":152,"time_elapsed":521696,"internal_node_id":"0.0-6.0-0.12","subject_id":"5feca892539a38e4b0e52fd1","study_id":"6197b3f67c2b5cd3b6d9596a","session_id":"6197b9ebb4f2523d33843526","condition":"full-information","relevant_dimensions":["wings","pattern"],"bee_group":{"antennae":"X","wings":"1","pattern":"D","legs":"X"},"bonus":0.06},{"rt":1036,"stimulus":"bees-with-color/bee-B2SM.svg","response":1,"trial_type":"image-button-response","trial_index":153,"time_elapsed":522734,"internal_node_id":"0.0-6.0-0.13","subject_id":"5feca892539a38e4b0e52fd1","study_id":"6197b3f67c2b5cd3b6d9596a","session_id":"6197b9ebb4f2523d33843526","condition":"full-information","relevant_dimensions":["wings","pattern"],"bee_group":{"antennae":"X","wings":"1","pattern":"D","legs":"X"},"bonus":0.06},{"rt":743.4000000003725,"stimulus":"bees-with-color/bee-B1DF.svg","response":0,"trial_type":"image-button-response","trial_index":154,"time_elapsed":523480,"internal_node_id":"0.0-6.0-0.14","subject_id":"5feca892539a38e4b0e52fd1","study_id":"6197b3f67c2b5cd3b6d9596a","session_id":"6197b9ebb4f2523d33843526","condition":"full-information","relevant_dimensions":["wings","pattern"],"bee_group":{"antennae":"X","wings":"1","pattern":"D","legs":"X"},"bonus":0.06},{"rt":730.4000000003725,"stimulus":"bees-with-color/bee-B1SF.svg","response":0,"trial_type":"image-button-response","trial_index":155,"time_elapsed":524213,"internal_node_id":"0.0-6.0-0.15","subject_id":"5feca892539a38e4b0e52fd1","study_id":"6197b3f67c2b5cd3b6d9596a","session_id":"6197b9ebb4f2523d33843526","condition":"full-information","relevant_dimensions":["wings","pattern"],"bee_group":{"antennae":"X","wings":"1","pattern":"D","legs":"X"},"bonus":0.06},{"rt":1488.4000000003725,"stimulus":"bees-with-color/bee-B1DM.svg","response":0,"trial_type":"image-button-response","trial_index":156,"time_elapsed":525703,"internal_node_id":"0.0-6.0-0.16","subject_id":"5feca892539a38e4b0e52fd1","study_id":"6197b3f67c2b5cd3b6d9596a","session_id":"6197b9ebb4f2523d33843526","condition":"full-information","relevant_dimensions":["wings","pattern"],"bee_group":{"antennae":"X","wings":"1","pattern":"D","legs":"X"},"bonus":0.06},{"rt":902,"stimulus":"bees-with-color/bee-A2DF.svg","response":1,"trial_type":"image-button-response","trial_index":157,"time_elapsed":526607,"internal_node_id":"0.0-6.0-0.17","subject_id":"5feca892539a38e4b0e52fd1","study_id":"6197b3f67c2b5cd3b6d9596a","session_id":"6197b9ebb4f2523d33843526","condition":"full-information","relevant_dimensions":["wings","pattern"],"bee_group":{"antennae":"X","wings":"1","pattern":"D","legs":"X"},"bonus":0.06},{"rt":694.2999999988824,"stimulus":"bees-with-color/bee-B1DF.svg","response":1,"trial_type":"image-button-response","trial_index":158,"time_elapsed":527303,"internal_node_id":"0.0-6.0-0.18","subject_id":"5feca892539a38e4b0e52fd1","study_id":"6197b3f67c2b5cd3b6d9596a","session_id":"6197b9ebb4f2523d33843526","condition":"full-information","relevant_dimensions":["wings","pattern"],"bee_group":{"antennae":"X","wings":"1","pattern":"D","legs":"X"},"bonus":0.06},{"rt":755.5,"stimulus":"bees-with-color/bee-B2DF.svg","response":0,"trial_type":"image-button-response","trial_index":159,"time_elapsed":528060,"internal_node_id"