[{"success":true,"trial_type":"fullscreen","trial_index":0,"time_elapsed":48560,"internal_node_id":"0.0-0.0","subject_id":"61628cdf703ff9e9eb7b61f6","study_id":"6197b3f67c2b5cd3b6d9596a","session_id":"6197b577821488269d6f7ef6","condition":"contingent","relevant_dimensions":["wings","legs"],"bee_group":{"antennae":"X","wings":"1","pattern":"X","legs":"M"},"bonus":1.0200000000000011},{"success":true,"timeout":false,"failed_images":[],"failed_audio":[],"failed_video":[],"trial_type":"preload","trial_index":1,"time_elapsed":53281,"internal_node_id":"0.0-1.0","subject_id":"61628cdf703ff9e9eb7b61f6","study_id":"6197b3f67c2b5cd3b6d9596a","session_id":"6197b577821488269d6f7ef6","condition":"contingent","relevant_dimensions":["wings","legs"],"bee_group":{"antennae":"X","wings":"1","pattern":"X","legs":"M"},"bonus":1.0200000000000011},{"rt":2909,"stimulus":"Welcome! Press any key to begin.","response":" ","trial_type":"html-keyboard-response","trial_index":2,"time_elapsed":56190,"internal_node_id":"0.0-2.0","subject_id":"61628cdf703ff9e9eb7b61f6","study_id":"6197b3f67c2b5cd3b6d9596a","session_id":"6197b577821488269d6f7ef6","condition":"contingent","relevant_dimensions":["wings","legs"],"bee_group":{"antennae":"X","wings":"1","pattern":"X","legs":"M"},"bonus":1.0200000000000011},{"view_history":[{"page_index":0,"viewing_time":9330},{"page_index":1,"viewing_time":20178},{"page_index":2,"viewing_time":14301},{"page_index":3,"viewing_time":23060},{"page_index":4,"viewing_time":10952},{"page_index":5,"viewing_time":10051},{"page_index":6,"viewing_time":14032},{"page_index":7,"viewing_time":16402},{"page_index":8,"viewing_time":5714},{"page_index":9,"viewing_time":4014},{"page_index":10,"viewing_time":10568},{"page_index":11,"viewing_time":12150},{"page_index":10,"viewing_time":1193},{"page_index":9,"viewing_time":393},{"page_index":8,"viewing_time":422},{"page_index":7,"viewing_time":1313},{"page_index":6,"viewing_time":1132},{"page_index":7,"viewing_time":16716},{"page_index":8,"viewing_time":8634},{"page_index":9,"viewing_time":2765},{"page_index":10,"viewing_time":4417},{"page_index":11,"viewing_time":2037},{"page_index":12,"viewing_time":13869},{"page_index":13,"viewing_time":1768},{"page_index":14,"viewing_time":3881}],"rt":209293,"trial_type":"instructions","trial_index":3,"time_elapsed":265484,"internal_node_id":"0.0-3.0-0.0","subject_id":"61628cdf703ff9e9eb7b61f6","study_id":"6197b3f67c2b5cd3b6d9596a","session_id":"6197b577821488269d6f7ef6","condition":"contingent","relevant_dimensions":["wings","legs"],"bee_group":{"antennae":"X","wings":"1","pattern":"X","legs":"M"},"bonus":1.0200000000000011},{"rt":49478,"response":{"Q0":["Two or six legs","Stripes or spots on body","Stinger or no stinger","Single or double wings"]},"question_order":[0],"trial_type":"survey-multi-select","trial_index":4,"time_elapsed":314974,"internal_node_id":"0.0-3.0-1.0","subject_id":"61628cdf703ff9e9eb7b61f6","study_id":"6197b3f67c2b5cd3b6d9596a","session_id":"6197b577821488269d6f7ef6","condition":"contingent","relevant_dimensions":["wings","legs"],"bee_group":{"antennae":"X","wings":"1","pattern":"X","legs":"M"},"correct":false,"bonus":1.0200000000000011},{"rt":29899,"response":{"Q1":"No.","Q2":"Based on the four features of the bee.","Q3":"You do not learn if it was friendly or dangerous, and do not alter your bonus."},"question_order":[0,1,2],"trial_type":"survey-multi-choice","trial_index":5,"time_elapsed":344876,"internal_node_id":"0.0-3.0-2.0","subject_id":"61628cdf703ff9e9eb7b61f6","study_id":"6197b3f67c2b5cd3b6d9596a","session_id":"6197b577821488269d6f7ef6","condition":"contingent","relevant_dimensions":["wings","legs"],"bee_group":{"antennae":"X","wings":"1","pattern":"X","legs":"M"},"correct":true,"bonus":1.0200000000000011},{"rt":6196,"stimulus":"<p>You did not answer all comprehension questions correctly.<br>Press <b>continue</b> to review the instructions again.</p>","response":0,"trial_type":"html-button-response","trial_index":6,"time_elapsed":351076,"internal_node_id":"0.0-3.0-3.0","subject_id":"61628cdf703ff9e9eb7b61f6","study_id":"6197b3f67c2b5cd3b6d9596a","session_id":"6197b577821488269d6f7ef6","condition":"contingent","relevant_dimensions":["wings","legs"],"bee_group":{"antennae":"X","wings":"1","pattern":"X","legs":"M"},"bonus":1.0200000000000011},{"view_history":[{"page_index":0,"viewing_time":5381},{"page_index":1,"viewing_time":15872},{"page_index":2,"viewing_time":22096},{"page_index":3,"viewing_time":16304},{"page_index":4,"viewing_time":8383},{"page_index":5,"viewing_time":15064},{"page_index":6,"viewing_time":9465},{"page_index":7,"viewing_time":7407},{"page_index":8,"viewing_time":3368},{"page_index":9,"viewing_time":2577},{"page_index":10,"viewing_time":1600},{"page_index":11,"viewing_time":10440},{"page_index":12,"viewing_time":7304},{"page_index":13,"viewing_time":1656},{"page_index":14,"viewing_time":664}],"rt":127581,"trial_type":"instructions","trial_index":7,"time_elapsed":478659,"internal_node_id":"0.0-3.0-4.0-0.0","subject_id":"61628cdf703ff9e9eb7b61f6","study_id":"6197b3f67c2b5cd3b6d9596a","session_id":"6197b577821488269d6f7ef6","condition":"contingent","relevant_dimensions":["wings","legs"],"bee_group":{"antennae":"X","wings":"1","pattern":"X","legs":"M"},"bonus":1.0200000000000011},{"rt":23523,"response":{"Q0":["Two or six legs","Stripes or spots on body","Single or double wings","Antennae or no antennae"]},"question_order":[0],"trial_type":"survey-multi-select","trial_index":8,"time_elapsed":502187,"internal_node_id":"0.0-3.0-4.0-1.0","subject_id":"61628cdf703ff9e9eb7b61f6","study_id":"6197b3f67c2b5cd3b6d9596a","session_id":"6197b577821488269d6f7ef6","condition":"contingent","relevant_dimensions":["wings","legs"],"bee_group":{"antennae":"X","wings":"1","pattern":"X","legs":"M"},"correct":true,"bonus":1.0200000000000011},{"rt":24918,"response":{"Q1":"No.","Q2":"Based on the four features of the bee.","Q3":"You do not learn if it was friendly or dangerous, and do not alter your bonus."},"question_order":[0,1,2],"trial_type":"survey-multi-choice","trial_index":9,"time_elapsed":527107,"internal_node_id":"0.0-3.0-4.0-2.0","subject_id":"61628cdf703ff9e9eb7b61f6","study_id":"6197b3f67c2b5cd3b6d9596a","session_id":"6197b577821488269d6f7ef6","condition":"contingent","relevant_dimensions":["wings","legs"],"bee_group":{"antennae":"X","wings":"1","pattern":"X","legs":"M"},"correct":true,"bonus":1.0200000000000011},{"rt":2541,"stimulus":"<p>Congrats, you got everything right<br>When you're ready, click the button below to continue to the experiment.</p>","response":0,"trial_type":"html-button-response","trial_index":10,"time_elapsed":529651,"internal_node_id":"0.0-3.0-4.0-3.0","subject_id":"61628cdf703ff9e9eb7b61f6","study_id":"6197b3f67c2b5cd3b6d9596a","session_id":"6197b577821488269d6f7ef6","condition":"contingent","relevant_dimensions":["wings","legs"],"bee_group":{"antennae":"X","wings":"1","pattern":"X","legs":"M"},"bonus":1.0200000000000011},{"rt":18875,"stimulus":"bees-with-color/bee-B2DF.svg","response":0,"trial_type":"image-button-response","trial_index":11,"time_elapsed":548531,"internal_node_id":"0.0-4.0-0.0","subject_id":"61628cdf703ff9e9eb7b61f6","study_id":"6197b3f67c2b5cd3b6d9596a","session_id":"6197b577821488269d6f7ef6","condition":"contingent","relevant_dimensions":["wings","legs"],"bee_group":{"antennae":"X","wings":"1","pattern":"X","legs":"M"},"action":"harvest","summary":"good-harvest","bonus":1.0200000000000011},{"rt":24909,"stimulus":"\n                    <p><b>Action: <em>harvest</em></b></p>\n                    <p>This is the bee that you just saw.</p>\n                    <img src=\"bees-with-color/bee-B2DF.svg\" width=\"200\">\n                    <p><span class=\"greenText\"><b>Successful harvest!</b></span><br>Your pay has increased by $0.02. Your bonus pay is now $0.56.</p>\n            ","response":0,"trial_type":"html-button-response","trial_index":12,"time_elapsed":573490,"internal_node_id":"0.0-4.0-1.0","subject_id":"61628cdf703ff9e9eb7b61f6","study_id":"6197b3f67c2b5cd3b6d9596a","session_id":"6197b577821488269d6f7ef6","condition":"contingent","relevant_dimensions":["wings","legs"],"bee_group":{"antennae":"X","wings":"1","pattern":"X","legs":"M"},"bonus":1.0200000000000011},{"rt":12749,"stimulus":"bees-with-color/bee-A2DM.svg","response":1,"trial_type":"image-button-response","trial_index":13,"time_elapsed":586243,"internal_node_id":"0.0-4.0-0.1","subject_id":"61628cdf703ff9e9eb7b61f6","study_id":"6197b3f67c2b5cd3b6d9596a","session_id":"6197b577821488269d6f7ef6","condition":"contingent","relevant_dimensions":["wings","legs"],"bee_group":{"antennae":"X","wings":"1","pattern":"X","legs":"M"},"action":"avoid","summary":"bad-avoid","bonus":1.0200000000000011},{"rt":7820,"stimulus":"\n                    <p><b>Action: <em>avoid</em></b></p>\n                    <p>This is the bee that you just saw.</p>\n                    <img src=\"bees-with-color/bee-A2DM.svg\" width=\"200\">\n                    <p><br>Your bonus pay is unchanged, and remains at $0.56.</p>\n            ","response":0,"trial_type":"html-button-response","trial_index":14,"time_elapsed":594063,"internal_node_id":"0.0-4.0-1.1","subject_id":"61628cdf703ff9e9eb7b61f6","study_id":"6197b3f67c2b5cd3b6d9596a","session_id":"6197b577821488269d6f7ef6","condition":"contingent","relevant_dimensions":["wings","legs"],"bee_group":{"antennae":"X","wings":"1","pattern":"X","legs":"M"},"bonus":1.0200000000000011},{"rt":5503,"stimulus":"bees-with-color/bee-A1SF.svg","response":0,"trial_type":"image-button-response","trial_index":15,"time_elapsed":599566,"internal_node_id":"0.0-4.0-0.2","subject_id":"61628cdf703ff9e9eb7b61f6","study_id":"6197b3f67c2b5cd3b6d9596a","session_id":"6197b577821488269d6f7ef6","condition":"contingent","relevant_dimensions":["wings","legs"],"bee_group":{"antennae":"X","wings":"1","pattern":"X","legs":"M"},"action":"harvest","summary":"good-harvest","bonus":1.0200000000000011},{"rt":10446,"stimulus":"\n                    <p><b>Action: <em>harvest</em></b></p>\n                    <p>This is the bee that you just saw.</p>\n                    <img src=\"bees-with-color/bee-A1SF.svg\" width=\"200\">\n                    <p><span class=\"greenText\"><b>Successful harvest!</b></span><br>Your pay has increased by $0.02. Your bonus pay is now $0.58.</p>\n            ","response":0,"trial_type":"html-button-response","trial_index":16,"time_elapsed":610028,"internal_node_id":"0.0-4.0-1.2","subject_id":"61628cdf703ff9e9eb7b61f6","study_id":"6197b3f67c2b5cd3b6d9596a","session_id":"6197b577821488269d6f7ef6","condition":"contingent","relevant_dimensions":["wings","legs"],"bee_group":{"antennae":"X","wings":"1","pattern":"X","legs":"M"},"bonus":1.0200000000000011},{"rt":6734,"stimulus":"bees-with-color/bee-A1DM.svg","response":0,"trial_type":"image-button-response","trial_index":17,"time_elapsed":616762,"internal_node_id":"0.0-4.0-0.3","subject_id":"61628cdf703ff9e9eb7b61f6","study_id":"6197b3f67c2b5cd3b6d9596a","session_id":"6197b577821488269d6f7ef6","condition":"contingent","relevant_dimensions":["wings","legs"],"bee_group":{"antennae":"X","wings":"1","pattern":"X","legs":"M"},"action":"harvest","summary":"bad-harvest","bonus":1.0200000000000011},{"rt":11349,"stimulus":"\n                    <p><b>Action: <em>harvest</em></b></p>\n                    <p>This is the bee that you just saw.</p>\n                    <img src=\"bees-with-color/bee-A1DM.svg\" width=\"200\">\n                    <p><span class=\"redText\">Bad choice, the bee was angry.</span><br><b>You have been stung!</b><br>Your pay has been decreased by $0.10. Your bonus pay is now $0.48.</p>\n            ","response":0,"trial_type":"html-button-response","trial_index":18,"time_elapsed":628126,"internal_node_id":"0.0-4.0-1.3","subject_id":"61628cdf703ff9e9eb7b61f6","study_id":"6197b3f67c2b5cd3b6d9596a","session_id":"6197b577821488269d6f7ef6","condition":"contingent","relevant_dimensions":["wings","legs"],"bee_group":{"antennae":"X","wings":"1","pattern":"X","legs":"M"},"bonus":1.0200000000000011},{"rt":22315,"stimulus":"bees-with-color/bee-B1SM.svg","response":1,"trial_type":"image-button-response","trial_index":19,"time_elapsed":650456,"internal_node_id":"0.0-4.0-0.4","subject_id":"61628cdf703ff9e9eb7b61f6","study_id":"6197b3f67c2b5cd3b6d9596a","session_id":"6197b577821488269d6f7ef6","condition":"contingent","relevant_dimensions":["wings","legs"],"bee_group":{"antennae":"X","wings":"1","pattern":"X","legs":"M"},"action":"avoid","summary":"good-avoid","bonus":1.0200000000000011},{"rt":2891,"stimulus":"\n                    <p><b>Action: <em>avoid</em></b></p>\n                    <p>This is the bee that you just saw.</p>\n                    <img src=\"bees-with-color/bee-B1SM.svg\" width=\"200\">\n                    <p><br>Your bonus pay is unchanged, and remains at $0.48.</p>\n            ","response":0,"trial_type":"html-button-response","trial_index":20,"time_elapsed":653347,"internal_node_id":"0.0-4.0-1.4","subject_id":"61628cdf703ff9e9eb7b61f6","study_id":"6197b3f67c2b5cd3b6d9596a","session_id":"6197b577821488269d6f7ef6","condition":"contingent","relevant_dimensions":["wings","legs"],"bee_group":{"antennae":"X","wings":"1","pattern":"X","legs":"M"},"bonus":1.0200000000000011},{"rt":15396,"stimulus":"bees-with-color/bee-A2SF.svg","response":0,"trial_type":"image-button-response","trial_index":21,"time_elapsed":668743,"internal_node_id":"0.0-4.0-0.5","subject_id":"61628cdf703ff9e9eb7b61f6","study_id":"6197b3f67c2b5cd3b6d9596a","session_id":"6197b577821488269d6f7ef6","condition":"contingent","relevant_dimensions":["wings","legs"],"bee_group":{"antennae":"X","wings":"1","pattern":"X","legs":"M"},"action":"harvest","summary":"good-harvest","bonus":1.0200000000000011},{"rt":12482,"stimulus":"\n                    <p><b>Action: <em>harvest</em></b></p>\n                    <p>This is the bee that you just saw.</p>\n                    <img src=\"bees-with-color/bee-A2SF.svg\" width=\"200\">\n                    <p><span class=\"greenText\"><b>Successful harvest!</b></span><br>Your pay has increased by $0.02. Your bonus pay is now $0.50.</p>\n            ","response":0,"trial_type":"html-button-response","trial_index":22,"time_elapsed":681225,"internal_node_id":"0.0-4.0-1.5","subject_id":"61628cdf703ff9e9eb7b61f6","study_id":"6197b3f67c2b5cd3b6d9596a","session_id":"6197b577821488269d6f7ef6","condition":"contingent","relevant_dimensions":["wings","legs"],"bee_group":{"antennae":"X","wings":"1","pattern":"X","legs":"M"},"bonus":1.0200000000000011},{"rt":17850,"stimulus":"bees-with-color/bee-A1DF.svg","response":0,"trial_type":"image-button-response","trial_index":23,"time_elapsed":699075,"internal_node_id":"0.0-4.0-0.6","subject_id":"61628cdf703ff9e9eb7b61f6","study_id":"6197b3f67c2b5cd3b6d9596a","session_id":"6197b577821488269d6f7ef6","condition":"contingent","relevant_dimensions":["wings","legs"],"bee_group":{"antennae":"X","wings":"1","pattern":"X","legs":"M"},"action":"harvest","summary":"good-harvest","bonus":1.0200000000000011},{"rt":9067,"stimulus":"\n                    <p><b>Action: <em>harvest</em></b></p>\n                    <p>This is the bee that you just saw.</p>\n                    <img src=\"bees-with-color/bee-A1DF.svg\" width=\"200\">\n                    <p><span class=\"greenText\"><b>Successful harvest!</b></span><br>Your pay has increased by $0.02. Your bonus pay is now $0.52.</p>\n            ","response":0,"trial_type":"html-button-response","trial_index":24,"time_elapsed":708142,"internal_node_id":"0.0-4.0-1.6","subject_id":"61628cdf703ff9e9eb7b61f6","study_id":"6197b3f67c2b5cd3b6d9596a","session_id":"6197b577821488269d6f7ef6","condition":"contingent","relevant_dimensions":["wings","legs"],"bee_group":{"antennae":"X","wings":"1","pattern":"X","legs":"M"},"bonus":1.0200000000000011},{"rt":12067,"stimulus":"bees-with-color/bee-B1DF.svg","response":1,"trial_type":"image-button-response","trial_index":25,"time_elapsed":720226,"internal_node_id":"0.0-4.0-0.7","subject_id":"61628cdf703ff9e9eb7b61f6","study_id":"6197b3f67c2b5cd3b6d9596a","session_id":"6197b577821488269d6f7ef6","condition":"contingent","relevant_dimensions":["wings","legs"],"bee_group":{"antennae":"X","wings":"1","pattern":"X","legs":"M"},"action":"avoid","summary":"bad-avoid","bonus":1.0200000000000011},{"rt":2333,"stimulus":"\n                    <p><b>Action: <em>avoid</em></b></p>\n                    <p>This is the bee that you just saw.</p>\n                    <img src=\"bees-with-color/bee-B1DF.svg\" width=\"200\">\n                    <p><br>Your bonus pay is unchanged, and remains at $0.52.</p>\n            ","response":0,"trial_type":"html-button-response","trial_index":26,"time_elapsed":722559,"internal_node_id":"0.0-4.0-1.7","subject_id":"61628cdf703ff9e9eb7b61f6","study_id":"6197b3f67c2b5cd3b6d9596a","session_id":"6197b577821488269d6f7ef6","condition":"contingent","relevant_dimensions":["wings","legs"],"bee_group":{"antennae":"X","wings":"1","pattern":"X","legs":"M"},"bonus":1.0200000000000011},{"rt":11586,"stimulus":"bees-with-color/bee-B2SF.svg","response":0,"trial_type":"image-button-response","trial_index":27,"time_elapsed":734145,"internal_node_id":"0.0-4.0-0.8","subject_id":"61628cdf703ff9e9eb7b61f6","study_id":"6197b3f67c2b5cd3b6d9596a","session_id":"6197b577821488269d6f7ef6","condition":"contingent","relevant_dimensions":["wings","legs"],"bee_group":{"antennae":"X","wings":"1","pattern":"X","legs":"M"},"action":"harvest","summary":"good-harvest","bonus":1.0200000000000011},{"rt":12489,"stimulus":"\n                    <p><b>Action: <em>harvest</em></b></p>\n                    <p>This is the bee that you just saw.</p>\n                    <img src=\"bees-with-color/bee-B2SF.svg\" width=\"200\">\n                    <p><span class=\"greenText\"><b>Successful harvest!</b></span><br>Your pay has increased by $0.02. Your bonus pay is now $0.54.</p>\n            ","response":0,"trial_type":"html-button-response","trial_index":28,"time_elapsed":746639,"internal_node_id":"0.0-4.0-1.8","subject_id":"61628cdf703ff9e9eb7b61f6","study_id":"6197b3f67c2b5cd3b6d9596a","session_id":"6197b577821488269d6f7ef6","condition":"contingent","relevant_dimensions":["wings","legs"],"bee_group":{"antennae":"X","wings":"1","pattern":"X","legs":"M"},"bonus":1.0200000000000011},{"rt":10995,"stimulus":"bees-with-color/bee-B1SF.svg","response":1,"trial_type":"image-button-response","trial_index":29,"time_elapsed":757635,"internal_node_id":"0.0-4.0-0.9","subject_id":"61628cdf703ff9e9eb7b61f6","study_id":"6197b3f67c2b5cd3b6d9596a","session_id":"6197b577821488269d6f7ef6","condition":"contingent","relevant_dimensions":["wings","legs"],"bee_group":{"antennae":"X","wings":"1","pattern":"X","legs":"M"},"action":"avoid","summary":"bad-avoid","bonus":1.0200000000000011},{"rt":1535,"stimulus":"\n                    <p><b>Action: <em>avoid</em></b></p>\n                    <p>This is the bee that you just saw.</p>\n                    <img src=\"bees-with-color/bee-B1SF.svg\" width=\"200\">\n                    <p><br>Your bonus pay is unchanged, and remains at $0.54.</p>\n            ","response":0,"trial_type":"html-button-response","trial_index":30,"time_elapsed":759171,"internal_node_id":"0.0-4.0-1.9","subject_id":"61628cdf703ff9e9eb7b61f6","study_id":"6197b3f67c2b5cd3b6d9596a","session_id":"6197b577821488269d6f7ef6","condition":"contingent","relevant_dimensions":["wings","legs"],"bee_group":{"antennae":"X","wings":"1","pattern":"X","legs":"M"},"bonus":1.0200000000000011},{"rt":12309,"stimulus":"bees-with-color/bee-B2DM.svg","response":0,"trial_type":"image-button-response","trial_index":31,"time_elapsed":771483,"internal_node_id":"0.0-4.0-0.10","subject_id":"61628cdf703ff9e9eb7b61f6","study_id":"6197b3f67c2b5cd3b6d9596a","session_id":"6197b577821488269d6f7ef6","condition":"contingent","relevant_dimensions":["wings","legs"],"bee_group":{"antennae":"X","wings":"1","pattern":"X","legs":"M"},"action":"harvest","summary":"good-harvest","bonus":1.0200000000000011},{"rt":11878,"stimulus":"\n                    <p><b>Action: <em>harvest</em></b></p>\n                    <p>This is the bee that you just saw.</p>\n                    <img src=\"bees-with-color/bee-B2DM.svg\" width=\"200\">\n                    <p><span class=\"greenText\"><b>Successful harvest!</b></span><br>Your pay has increased by $0.02. Your bonus pay is now $0.56.</p>\n            ","response":0,"trial_type":"html-button-response","trial_index":32,"time_elapsed":783362,"internal_node_id":"0.0-4.0-1.10","subject_id":"61628cdf703ff9e9eb7b61f6","study_id":"6197b3f67c2b5cd3b6d9596a","session_id":"6197b577821488269d6f7ef6","condition":"contingent","relevant_dimensions":["wings","legs"],"bee_group":{"antennae":"X","wings":"1","pattern":"X","legs":"M"},"bonus":1.0200000000000011},{"rt":15877,"stimulus":"bees-with-color/bee-A2SM.svg","response":1,"trial_type":"image-button-response","trial_index":33,"time_elapsed":799242,"internal_node_id":"0.0-4.0-0.11","subject_id":"61628cdf703ff9e9eb7b61f6","study_id":"6197b3f67c2b5cd3b6d9596a","session_id":"6197b577821488269d6f7ef6","condition":"contingent","relevant_dimensions":["wings","legs"],"bee_group":{"antennae":"X","wings":"1","pattern":"X","legs":"M"},"action":"avoid","summary":"bad-avoid","bonus":1.0200000000000011},{"rt":1606,"stimulus":"\n                    <p><b>Action: <em>avoid</em></b></p>\n                    <p>This is the bee that you just saw.</p>\n                    <img src=\"bees-with-color/bee-A2SM.svg\" width=\"200\">\n                    <p><br>Your bonus pay is unchanged, and remains at $0.56.</p>\n            ","response":0,"trial_type":"html-button-response","trial_index":34,"time_elapsed":800850,"internal_node_id":"0.0-4.0-1.11","subject_id":"61628cdf703ff9e9eb7b61f6","study_id":"6197b3f67c2b5cd3b6d9596a","session_id":"6197b577821488269d6f7ef6","condition":"contingent","relevant_dimensions":["wings","legs"],"bee_group":{"antennae":"X","wings":"1","pattern":"X","legs":"M"},"bonus":1.0200000000000011},{"rt":17197,"stimulus":"bees-with-color/bee-A1SM.svg","response":0,"trial_type":"image-button-response","trial_index":35,"time_elapsed":818050,"internal_node_id":"0.0-4.0-0.12","subject_id":"61628cdf703ff9e9eb7b61f6","study_id":"6197b3f67c2b5cd3b6d9596a","session_id":"6197b577821488269d6f7ef6","condition":"contingent","relevant_dimensions":["wings","legs"],"bee_group":{"antennae":"X","wings":"1","pattern":"X","legs":"M"},"action":"harvest","summary":"bad-harvest","bonus":1.0200000000000011},{"rt":10045,"stimulus":"\n                    <p><b>Action: <em>harvest</em></b></p>\n                    <p>This is the bee that you just saw.</p>\n                    <img src=\"bees-with-color/bee-A1SM.svg\" width=\"200\">\n                    <p><span class=\"redText\">Bad choice, the bee was angry.</span><br><b>You have been stung!</b><br>Your pay has been decreased by $0.10. Your bonus pay is now $0.46.</p>\n            ","response":0,"trial_type":"html-button-response","trial_index":36,"time_elapsed":828098,"internal_node_id":"0.0-4.0-1.12","subject_id":"61628cdf703ff9e9eb7b61f6","study_id":"6197b3f67c2b5cd3b6d9596a","session_id":"6197b577821488269d6f7ef6","condition":"contingent","relevant_dimensions":["wings","legs"],"bee_group":{"antennae":"X","wings":"1","pattern":"X","legs":"M"},"bonus":1.0200000000000011},{"rt":11918,"stimulus":"bees-with-color/bee-B2SM.svg","response":0,"trial_type":"image-button-response","trial_index":37,"time_elapsed":840018,"internal_node_id":"0.0-4.0-0.13","subject_id":"61628cdf703ff9e9eb7b61f6","study_id":"6197b3f67c2b5cd3b6d9596a","session_id":"6197b577821488269d6f7ef6","condition":"contingent","relevant_dimensions":["wings","legs"],"bee_group":{"antennae":"X","wings":"1","pattern":"X","legs":"M"},"action":"harvest","summary":"good-harvest","bonus":1.0200000000000011},{"rt":9877,"stimulus":"\n                    <p><b>Action: <em>harvest</em></b></p>\n                    <p>This is the bee that you just saw.</p>\n                    <img src=\"bees-with-color/bee-B2SM.svg\" width=\"200\">\n                    <p><span class=\"greenText\"><b>Successful harvest!</b></span><br>Your pay has increased by $0.02. Your bonus pay is now $0.48.</p>\n            ","response":0,"trial_type":"html-button-response","trial_index":38,"time_elapsed":849898,"internal_node_id":"0.0-4.0-1.13","subject_id":"61628cdf703ff9e9eb7b61f6","study_id":"6197b3f67c2b5cd3b6d9596a","session_id":"6197b577821488269d6f7ef6","condition":"contingent","relevant_dimensions":["wings","legs"],"bee_group":{"antennae":"X","wings":"1","pattern":"X","legs":"M"},"bonus":1.0200000000000011},{"rt":20246,"stimulus":"bees-with-color/bee-B1DM.svg","response":0,"trial_type":"image-button-response","trial_index":39,"time_elapsed":870147,"internal_node_id":"0.0-4.0-0.14","subject_id":"61628cdf703ff9e9eb7b61f6","study_id":"6197b3f67c2b5cd3b6d9596a","session_id":"6197b577821488269d6f7ef6","condition":"contingent","relevant_dimensions":["wings","legs"],"bee_group":{"antennae":"X","wings":"1","pattern":"X","legs":"M"},"action":"harvest","summary":"bad-harvest","bonus":1.0200000000000011},{"rt":17574,"stimulus":"\n                    <p><b>Action: <em>harvest</em></b></p>\n                    <p>This is the bee that you just saw.</p>\n                    <img src=\"bees-with-color/bee-B1DM.svg\" width=\"200\">\n                    <p><span class=\"redText\">Bad choice, the bee was angry.</span><br><b>You have been stung!</b><br>Your pay has been decreased by $0.10. Your bonus pay is now $0.38.</p>\n            ","response":0,"trial_type":"html-button-response","trial_index":40,"time_elapsed":887723,"internal_node_id":"0.0-4.0-1.14","subject_id":"61628cdf703ff9e9eb7b61f6","study_id":"6197b3f67c2b5cd3b6d9596a","session_id":"6197b577821488269d6f7ef6","condition":"contingent","relevant_dimensions":["wings","legs"],"bee_group":{"antennae":"X","wings":"1","pattern":"X","legs":"M"},"bonus":1.0200000000000011},{"rt":12597,"stimulus":"bees-with-color/bee-A2DF.svg","response":0,"trial_type":"image-button-response","trial_index":41,"time_elapsed":900323,"internal_node_id":"0.0-4.0-0.15","subject_id":"61628cdf703ff9e9eb7b61f6","study_id":"6197b3f67c2b5cd3b6d9596a","session_id":"6197b577821488269d6f7ef6","condition":"contingent","relevant_dimensions":["wings","legs"],"bee_group":{"antennae":"X","wings":"1","pattern":"X","legs":"M"},"action":"harvest","summary":"good-harvest","bonus":1.0200000000000011},{"rt":12916,"stimulus":"\n                    <p><b>Action: <em>harvest</em></b></p>\n                    <p>This is the bee that you just saw.</p>\n                    <img src=\"bees-with-color/bee-A2DF.svg\" width=\"200\">\n                    <p><span class=\"greenText\"><b>Successful harvest!</b></span><br>Your pay has increased by $0.02. Your bonus pay is now $0.40.</p>\n            ","response":0,"trial_type":"html-button-response","trial_index":42,"time_elapsed":913243,"internal_node_id":"0.0-4.0-1.15","subject_id":"61628cdf703ff9e9eb7b61f6","study_id":"6197b3f67c2b5cd3b6d9596a","session_id":"6197b577821488269d6f7ef6","condition":"contingent","relevant_dimensions":["wings","legs"],"bee_group":{"antennae":"X","wings":"1","pattern":"X","legs":"M"},"bonus":1.0200000000000011},{"rt":21548,"stimulus":"bees-with-color/bee-A2SM.svg","response":1,"trial_type":"image-button-response","trial_index":43,"time_elapsed":934795,"internal_node_id":"0.0-4.0-0.16","subject_id":"61628cdf703ff9e9eb7b61f6","study_id":"6197b3f67c2b5cd3b6d9596a","session_id":"6197b577821488269d6f7ef6","condition":"contingent","relevant_dimensions":["wings","legs"],"bee_group":{"antennae":"X","wings":"1","pattern":"X","legs":"M"},"action":"avoid","summary":"bad-avoid","bonus":1.0200000000000011},{"rt":1373,"stimulus":"\n                    <p><b>Action: <em>avoid</em></b></p>\n                    <p>This is the bee that you just saw.</p>\n                    <img src=\"bees-with-color/bee-A2SM.svg\" width=\"200\">\n                    <p><br>Your bonus pay is unchanged, and remains at $0.40.</p>\n            ","response":0,"trial_type":"html-button-response","trial_index":44,"time_elapsed":936171,"internal_node_id":"0.0-4.0-1.16","subject_id":"61628cdf703ff9e9eb7b61f6","study_id":"6197b3f67c2b5cd3b6d9596a","session_id":"6197b577821488269d6f7ef6","condition":"contingent","relevant_dimensions":["wings","legs"],"bee_group":{"antennae":"X","wings":"1","pattern":"X","legs":"M"},"bonus":1.0200000000000011},{"rt":12972,"stimulus":"bees-with-color/bee-B1DM.svg","response":1,"trial_type":"image-button-response","trial_index":45,"time_elapsed":949147,"internal_node_id":"0.0-4.0-0.17","subject_id":"61628cdf703ff9e9eb7b61f6","study_id":"6197b3f67c2b5cd3b6d9596a","session_id":"6197b577821488269d6f7ef6","condition":"contingent","relevant_dimensions":["wings","legs"],"bee_group":{"antennae":"X","wings":"1","pattern":"X","legs":"M"},"action":"avoid","summary":"good-avoid","bonus":1.0200000000000011},{"rt":1253,"stimulus":"\n                    <p><b>Action: <em>avoid</em></b></p>\n                    <p>This is the bee that you just saw.</p>\n                    <img src=\"bees-with-color/bee-B1DM.svg\" width=\"200\">\n                    <p><br>Your bonus pay is unchanged, and remains at $0.40.</p>\n            ","response":0,"trial_type":"html-button-response","trial_index":46,"time_elapsed":950403,"internal_node_id":"0.0-4.0-1.17","subject_id":"61628cdf703ff9e9eb7b61f6","study_id":"6197b3f67c2b5cd3b6d9596a","session_id":"6197b577821488269d6f7ef6","condition":"contingent","relevant_dimensions":["wings","legs"],"bee_group":{"antennae":"X","wings":"1","pattern":"X","legs":"M"},"bonus":1.0200000000000011},{"rt":26573,"stimulus":"bees-with-color/bee-B1SF.svg","response":0,"trial_type":"image-button-response","trial_index":47,"time_elapsed":976978,"internal_node_id":"0.0-4.0-0.18","subject_id":"61628cdf703ff9e9eb7b61f6","study_id":"6197b3f67c2b5cd3b6d9596a","session_id":"6197b577821488269d6f7ef6","condition":"contingent","relevant_dimensions":["wings","legs"],"bee_group":{"antennae":"X","wings":"1","pattern":"X","legs":"M"},"action":"harvest","summary":"good-harvest","bonus":1.0200000000000011},{"rt":9285,"stimulus":"\n                    <p><b>Action: <em>harvest</em></b></p>\n                    <p>This is the bee that you just saw.</p>\n                    <img src=\"bees-with-color/bee-B1SF.svg\" width=\"200\">\n                    <p><span class=\"greenText\"><b>Successful harvest!</b></span><br>Your pay has increased by $0.02. Your bonus pay is now $0.42.</p>\n            ","response":0,"trial_type":"html-button-response","trial_index":48,"time_elapsed":986266,"internal_node_id":"0.0-4.0-1.18","subject_id":"61628cdf703ff9e9eb7b61f6","study_id":"6197b3f67c2b5cd3b6d9596a","session_id":"6197b577821488269d6f7ef6","condition":"contingent","relevant_dimensions":["wings","legs"],"bee_group":{"antennae":"X","wings":"1","pattern":"X","legs":"M"},"bonus":1.0200000000000011},{"rt":18798,"stimulus":"bees-with-color/bee-A1DF.svg","response":0,"trial_type":"image-button-response","trial_index":49,"time_elapsed":1005067,"internal_node_id":"0.0-4.0-0.19","subject_id":"61628cdf703ff9e9eb7b61f6","study_id":"6197b3f67c2b5cd3b6d9596a","session_id":"6197b577821488269d6f7ef6","condition":"contingent","relevant_dimensions":["wings","legs"],"bee_group":{"antennae":"X","wings":"1","pattern":"X","legs":"M"},"action":"harvest","summary":"good-harvest","bonus":1.0200000000000011},{"rt":8172,"stimulus":"\n                    <p><b>Action: <em>harvest</em></b></p>\n                    <p>This is the bee that you just saw.</p>\n                    <img src=\"bees-with-color/bee-A1DF.svg\" width=\"200\">\n                    <p><span class=\"greenText\"><b>Successful harvest!</b></span><br>Your pay has increased by $0.02. Your bonus pay is now $0.44.</p>\n            ","response":0,"trial_type":"html-button-response","trial_index":50,"time_elapsed":1013242,"internal_node_id":"0.0-4.0-1.19","subject_id":"61628cdf703ff9e9eb7b61f6","study_id":"6197b3f67c2b5cd3b6d9596a","session_id":"6197b577821488269d6f7ef6","condition":"contingent","relevant_dimensions":["wings","legs"],"bee_group":{"antennae":"X","wings":"1","pattern":"X","legs":"M"},"bonus":1.0200000000000011},{"rt":13997,"stimulus":"bees-with-color/bee-B2SM.svg","response":0,"trial_type":"image-button-response","trial_index":51,"time_elapsed":1027243,"internal_node_id":"0.0-4.0-0.20","subject_id":"61628cdf703ff9e9eb7b61f6","study_id":"6197b3f67c2b5cd3b6d9596a","session_id":"6197b577821488269d6f7ef6","condition":"contingent","relevant_dimensions":["wings","legs"],"bee_group":{"antennae":"X","wings":"1","pattern":"X","legs":"M"},"action":"harvest","summary":"good-harvest","bonus":1.0200000000000011},{"rt":1132,"stimulus":"\n                    <p><b>Action: <em>harvest</em></b></p>\n                    <p>This is the bee that you just saw.</p>\n                    <img src=\"bees-with-color/bee-B2SM.svg\" width=\"200\">\n                    <p><span class=\"greenText\"><b>Successful harvest!</b></span><br>Your pay has increased by $0.02. Your bonus pay is now $0.46.</p>\n            ","response":0,"trial_type":"html-button-response","trial_index":52,"time_elapsed":1028379,"internal_node_id":"0.0-4.0-1.20","subject_id":"61628cdf703ff9e9eb7b61f6","study_id":"6197b3f67c2b5cd3b6d9596a","session_id":"6197b577821488269d6f7ef6","condition":"contingent","relevant_dimensions":["wings","legs"],"bee_group":{"antennae":"X","wings":"1","pattern":"X","legs":"M"},"bonus":1.0200000000000011},{"rt":36388,"stimulus":"bees-with-color/bee-A2DM.svg","response":1,"trial_type":"image-button-response","trial_index":53,"time_elapsed":1064770,"internal_node_id":"0.0-4.0-0.21","subject_id":"61628cdf703ff9e9eb7b61f6","study_id":"6197b3f67c2b5cd3b6d9596a","session_id":"6197b577821488269d6f7ef6","condition":"contingent","relevant_dimensions":["wings","legs"],"bee_group":{"antennae":"X","wings":"1","pattern":"X","legs":"M"},"action":"avoid","summary":"bad-avoid","bonus":1.0200000000000011},{"rt":998,"stimulus":"\n                    <p><b>Action: <em>avoid</em></b></p>\n                    <p>This is the bee that you just saw.</p>\n                    <img src=\"bees-with-color/bee-A2DM.svg\" width=\"200\">\n                    <p><br>Your bonus pay is unchanged, and remains at $0.46.</p>\n            ","response":0,"trial_type":"html-button-response","trial_index":54,"time_elapsed":1065770,"internal_node_id":"0.0-4.0-1.21","subject_id":"61628cdf703ff9e9eb7b61f6","study_id":"6197b3f67c2b5cd3b6d9596a","session_id":"6197b577821488269d6f7ef6","condition":"contingent","relevant_dimensions":["wings","legs"],"bee_group":{"antennae":"X","wings":"1","pattern":"X","legs":"M"},"bonus":1.0200000000000011},{"rt":22604,"stimulus":"bees-with-color/bee-A2SF.svg","response":0,"trial_type":"image-button-response","trial_index":55,"time_elapsed":1088378,"internal_node_id":"0.0-4.0-0.22","subject_id":"61628cdf703ff9e9eb7b61f6","study_id":"6197b3f67c2b5cd3b6d9596a","session_id":"6197b577821488269d6f7ef6","condition":"contingent","relevant_dimensions":["wings","legs"],"bee_group":{"antennae":"X","wings":"1","pattern":"X","legs":"M"},"action":"harvest","summary":"good-harvest","bonus":1.0200000000000011},{"rt":10814,"stimulus":"\n                    <p><b>Action: <em>harvest</em></b></p>\n                    <p>This is the bee that you just saw.</p>\n                    <img src=\"bees-with-color/bee-A2SF.svg\" width=\"200\">\n                    <p><span class=\"greenText\"><b>Successful harvest!</b></span><br>Your pay has increased by $0.02. Your bonus pay is now $0.48.</p>\n            ","response":0,"trial_type":"html-button-response","trial_index":56,"time_elapsed":1099194,"internal_node_id":"0.0-4.0-1.22","subject_id":"61628cdf703ff9e9eb7b61f6","study_id":"6197b3f67c2b5cd3b6d9596a","session_id":"6197b577821488269d6f7ef6","condition":"contingent","relevant_dimensions":["wings","legs"],"bee_group":{"antennae":"X","wings":"1","pattern":"X","legs":"M"},"bonus":1.0200000000000011},{"rt":34173,"stimulus":"bees-with-color/bee-A1DM.svg","response":0,"trial_type":"image-button-response","trial_index":57,"time_elapsed":1133370,"internal_node_id":"0.0-4.0-0.23","subject_id":"61628cdf703ff9e9eb7b61f6","study_id":"6197b3f67c2b5cd3b6d9596a","session_id":"6197b577821488269d6f7ef6","condition":"contingent","relevant_dimensions":["wings","legs"],"bee_group":{"antennae":"X","wings":"1","pattern":"X","legs":"M"},"action":"harvest","summary":"bad-harvest","bonus":1.0200000000000011},{"rt":9949,"stimulus":"\n                    <p><b>Action: <em>harvest</em></b></p>\n                    <p>This is the bee that you just saw.</p>\n                    <img src=\"bees-with-color/bee-A1DM.svg\" width=\"200\">\n                    <p><span class=\"redText\">Bad choice, the bee was angry.</span><br><b>You have been stung!</b><br>Your pay has been decreased by $0.10. Your bonus pay is now $0.38.</p>\n            ","response":0,"trial_type":"html-button-response","trial_index":58,"time_elapsed":1143322,"internal_node_id":"0.0-4.0-1.23","subject_id":"61628cdf703ff9e9eb7b61f6","study_id":"6197b3f67c2b5cd3b6d9596a","session_id":"6197b577821488269d6f7ef6","condition":"contingent","relevant_dimensions":["wings","legs"],"bee_group":{"antennae":"X","wings":"1","pattern":"X","legs":"M"},"bonus":1.0200000000000011},{"rt":12453,"stimulus":"bees-with-color/bee-A2DF.svg","response":0,"trial_type":"image-button-response","trial_index":59,"time_elapsed":1155778,"internal_node_id":"0.0-4.0-0.24","subject_id":"61628cdf703ff9e9eb7b61f6","study_id":"6197b3f67c2b5cd3b6d9596a","session_id":"6197b577821488269d6f7ef6","condition":"contingent","relevant_dimensions":["wings","legs"],"bee_group":{"antennae":"X","wings":"1","pattern":"X","legs":"M"},"action":"harvest","summary":"good-harvest","bonus":1.0200000000000011},{"rt":1046,"stimulus":"\n                    <p><b>Action: <em>harvest</em></b></p>\n                    <p>This is the bee that you just saw.</p>\n                    <img src=\"bees-with-color/bee-A2DF.svg\" width=\"200\">\n                    <p><span class=\"greenText\"><b>Successful harvest!</b></span><br>Your pay has increased by $0.02. Your bonus pay is now $0.40.</p>\n            ","response":0,"trial_type":"html-button-response","trial_index":60,"time_elapsed":1156827,"internal_node_id":"0.0-4.0-1.24","subject_id":"61628cdf703ff9e9eb7b61f6","study_id":"6197b3f67c2b5cd3b6d9596a","session_id":"6197b577821488269d6f7ef6","condition":"contingent","relevant_dimensions":["wings","legs"],"bee_group":{"antennae":"X","wings":"1","pattern":"X","legs":"M"},"bonus":1.0200000000000011},{"rt":30411,"stimulus":"bees-with-color/bee-B2DF.svg","response":0,"trial_type":"image-button-response","trial_index":61,"time_elapsed":1187242,"internal_node_id":"0.0-4.0-0.25","subject_id":"61628cdf703ff9e9eb7b61f6","study_id":"6197b3f67c2b5cd3b6d9596a","session_id":"6197b577821488269d6f7ef6","condition":"contingent","relevant_dimensions":["wings","legs"],"bee_group":{"antennae":"X","wings":"1","pattern":"X","legs":"M"},"action":"harvest","summary":"good-harvest","bonus":1.0200000000000011},{"rt":1053,"stimulus":"\n                    <p><b>Action: <em>harvest</em></b></p>\n                    <p>This is the bee that you just saw.</p>\n                    <img src=\"bees-with-color/bee-B2DF.svg\" width=\"200\">\n                    <p><span class=\"greenText\"><b>Successful harvest!</b></span><br>Your pay has increased by $0.02. Your bonus pay is now $0.42.</p>\n            ","response":0,"trial_type":"html-button-response","trial_index":62,"time_elapsed":1188298,"internal_node_id":"0.0-4.0-1.25","subject_id":"61628cdf703ff9e9eb7b61f6","study_id":"6197b3f67c2b5cd3b6d9596a","session_id":"6197b577821488269d6f7ef6","condition":"contingent","relevant_dimensions":["wings","legs"],"bee_group":{"antennae":"X","wings":"1","pattern":"X","legs":"M"},"bonus":1.0200000000000011},{"rt":29364,"stimulus":"bees-with-color/bee-B1SM.svg","response":0,"trial_type":"image-button-response","trial_index":63,"time_elapsed":1217668,"internal_node_id":"0.0-4.0-0.26","subject_id":"61628cdf703ff9e9eb7b61f6","study_id":"6197b3f67c2b5cd3b6d9596a","session_id":"6197b577821488269d6f7ef6","condition":"contingent","relevant_dimensions":["wings","legs"],"bee_group":{"antennae":"X","wings":"1","pattern":"X","legs":"M"},"action":"harvest","summary":"bad-harvest","bonus":1.0200000000000011},{"rt":7589,"stimulus":"\n                    <p><b>Action: <em>harvest</em></b></p>\n                    <p>This is the bee that you just saw.</p>\n                    <img src=\"bees-with-color/bee-B1SM.svg\" width=\"200\">\n                    <p><span class=\"redText\">Bad choice, the bee was angry.</span><br><b>You have been stung!</b><br>Your pay has been decreased by $0.10. Your bonus pay is now $0.32.</p>\n            ","response":0,"trial_type":"html-button-response","trial_index":64,"time_elapsed":1225259,"internal_node_id":"0.0-4.0-1.26","subject_id":"61628cdf703ff9e9eb7b61f6","study_id":"6197b3f67c2b5cd3b6d9596a","session_id":"6197b577821488269d6f7ef6","condition":"contingent","relevant_dimensions":["wings","legs"],"bee_group":{"antennae":"X","wings":"1","pattern":"X","legs":"M"},"bonus":1.0200000000000011},{"rt":31924,"stimulus":"bees-with-color/bee-A1SF.svg","response":0,"trial_type":"image-button-response","trial_index":65,"time_elapsed":1257187,"internal_node_id":"0.0-4.0-0.27","subject_id":"61628cdf703ff9e9eb7b61f6","study_id":"6197b3f67c2b5cd3b6d9596a","session_id":"6197b577821488269d6f7ef6","condition":"contingent","relevant_dimensions":["wings","legs"],"bee_group":{"antennae":"X","wings":"1","pattern":"X","legs":"M"},"action":"harvest","summary":"good-harvest","bonus":1.0200000000000011},{"rt":1205,"stimulus":"\n                    <p><b>Action: <em>harvest</em></b></p>\n                    <p>This is the bee that you just saw.</p>\n                    <img src=\"bees-with-color/bee-A1SF.svg\" width=\"200\">\n                    <p><span class=\"greenText\"><b>Successful harvest!</b></span><br>Your pay has increased by $0.02. Your bonus pay is now $0.34.</p>\n            ","response":0,"trial_type":"html-button-response","trial_index":66,"time_elapsed":1258395,"internal_node_id":"0.0-4.0-1.27","subject_id":"61628cdf703ff9e9eb7b61f6","study_id":"6197b3f67c2b5cd3b6d9596a","session_id":"6197b577821488269d6f7ef6","condition":"contingent","relevant_dimensions":["wings","legs"],"bee_group":{"antennae":"X","wings":"1","pattern":"X","legs":"M"},"bonus":1.0200000000000011},{"rt":17829,"stimulus":"bees-with-color/bee-B2SF.svg","response":0,"trial_type":"image-button-response","trial_index":67,"time_elapsed":1276227,"internal_node_id":"0.0-4.0-0.28","subject_id":"61628cdf703ff9e9eb7b61f6","study_id":"6197b3f67c2b5cd3b6d9596a","session_id":"6197b577821488269d6f7ef6","condition":"contingent","relevant_dimensions":["wings","legs"],"bee_group":{"antennae":"X","wings":"1","pattern":"X","legs":"M"},"action":"harvest","summary":"good-harvest","bonus":1.0200000000000011},{"rt":909,"stimulus":"\n                    <p><b>Action: <em>harvest</em></b></p>\n                    <p>This is the bee that you just saw.</p>\n                    <img src=\"bees-with-color/bee-B2SF.svg\" width=\"200\">\n                    <p><span class=\"greenText\"><b>Successful harvest!</b></span><br>Your pay has increased by $0.02. Your bonus pay is now $0.36.</p>\n            ","response":0,"trial_type":"html-button-response","trial_index":68,"time_elapsed":1277139,"internal_node_id":"0.0-4.0-1.28","subject_id":"61628cdf703ff9e9eb7b61f6","study_id":"6197b3f67c2b5cd3b6d9596a","session_id":"6197b577821488269d6f7ef6","condition":"contingent","relevant_dimensions":["wings","legs"],"bee_group":{"antennae":"X","wings":"1","pattern":"X","legs":"M"},"bonus":1.0200000000000011},{"rt":65827,"stimulus":"bees-with-color/bee-B1DF.svg","response":0,"trial_type":"image-button-response","trial_index":69,"time_elapsed":1342971,"internal_node_id":"0.0-4.0-0.29","subject_id":"61628cdf703ff9e9eb7b61f6","study_id":"6197b3f67c2b5cd3b6d9596a","session_id":"6197b577821488269d6f7ef6","condition":"contingent","relevant_dimensions":["wings","legs"],"bee_group":{"antennae":"X","wings":"1","pattern":"X","legs":"M"},"action":"harvest","summary":"good-harvest","bonus":1.0200000000000011},{"rt":8570,"stimulus":"\n                    <p><b>Action: <em>harvest</em></b></p>\n                    <p>This is the bee that you just saw.</p>\n                    <img src=\"bees-with-color/bee-B1DF.svg\" width=\"200\">\n                    <p><span class=\"greenText\"><b>Successful harvest!</b></span><br>Your pay has increased by $0.02. Your bonus pay is now $0.38.</p>\n            ","response":0,"trial_type":"html-button-response","trial_index":70,"time_elapsed":1351547,"internal_node_id":"0.0-4.0-1.29","subject_id":"61628cdf703ff9e9eb7b61f6","study_id":"6197b3f67c2b5cd3b6d9596a","session_id":"6197b577821488269d6f7ef6","condition":"contingent","relevant_dimensions":["wings","legs"],"bee_group":{"antennae":"X","wings":"1","pattern":"X","legs":"M"},"bonus":1.0200000000000011},{"rt":30427,"stimulus":"bees-with-color/bee-B2DM.svg","response":0,"trial_type":"image-button-response","trial_index":71,"time_elapsed":1381978,"internal_node_id":"0.0-4.0-0.30","subject_id":"61628cdf703ff9e9eb7b61f6","study_id":"6197b3f67c2b5cd3b6d9596a","session_id":"6197b577821488269d6f7ef6","condition":"contingent","relevant_dimensions":["wings","legs"],"bee_group":{"antennae":"X","wings":"1","pattern":"X","legs":"M"},"action":"harvest","summary":"good-harvest","bonus":1.0200000000000011},{"rt":1180,"stimulus":"\n                    <p><b>Action: <em>harvest</em></b></p>\n                    <p>This is the bee that you just saw.</p>\n                    <img src=\"bees-with-color/bee-B2DM.svg\" width=\"200\">\n                    <p><span class=\"greenText\"><b>Successful harvest!</b></span><br>Your pay has increased by $0.02. Your bonus pay is now $0.40.</p>\n            ","response":0,"trial_type":"html-button-response","trial_index":72,"time_elapsed":1383162,"internal_node_id":"0.0-4.0-1.30","subject_id":"61628cdf703ff9e9eb7b61f6","study_id":"6197b3f67c2b5cd3b6d9596a","session_id":"6197b577821488269d6f7ef6","condition":"contingent","relevant_dimensions":["wings","legs"],"bee_group":{"antennae":"X","wings":"1","pattern":"X","legs":"M"},"bonus":1.0200000000000011},{"rt":28957,"stimulus":"bees-with-color/bee-A1SM.svg","response":1,"trial_type":"image-button-response","trial_index":73,"time_elapsed":1412124,"internal_node_id":"0.0-4.0-0.31","subject_id":"61628cdf703ff9e9eb7b61f6","study_id":"6197b3f67c2b5cd3b6d9596a","session_id":"6197b577821488269d6f7ef6","condition":"contingent","relevant_dimensions":["wings","legs"],"bee_group":{"antennae":"X","wings":"1","pattern":"X","legs":"M"},"action":"avoid","summary":"good-avoid","bonus":1.0200000000000011},{"rt":1085,"stimulus":"\n                    <p><b>Action: <em>avoid</em></b></p>\n                    <p>This is the bee that you just saw.</p>\n                    <img src=\"bees-with-color/bee-A1SM.svg\" width=\"200\">\n                    <p><br>Your bonus pay is unchanged, and remains at $0.40.</p>\n            ","response":0,"trial_type":"html-button-response","trial_index":74,"time_elapsed":1413212,"internal_node_id":"0.0-4.0-1.31","subject_id":"61628cdf703ff9e9eb7b61f6","study_id":"6197b3f67c2b5cd3b6d9596a","session_id":"6197b577821488269d6f7ef6","condition":"contingent","relevant_dimensions":["wings","legs"],"bee_group":{"antennae":"X","wings":"1","pattern":"X","legs":"M"},"bonus":1.0200000000000011},{"rt":9651,"stimulus":"bees-with-color/bee-B1DM.svg","response":1,"trial_type":"image-button-response","trial_index":75,"time_elapsed":1422867,"internal_node_id":"0.0-4.0-0.32","subject_id":"61628cdf703ff9e9eb7b61f6","study_id":"6197b3f67c2b5cd3b6d9596a","session_id":"6197b577821488269d6f7ef6","condition":"contingent","relevant_dimensions":["wings","legs"],"bee_group":{"antennae":"X","wings":"1","pattern":"X","legs":"M"},"action":"avoid","summary":"good-avoid","bonus":1.0200000000000011},{"rt":2158,"stimulus":"\n                    <p><b>Action: <em>avoid</em></b></p>\n                    <p>This is the bee that you just saw.</p>\n                    <img src=\"bees-with-color/bee-B1DM.svg\" width=\"200\">\n                    <p><br>Your bonus pay is unchanged, and remains at $0.40.</p>\n            ","response":0,"trial_type":"html-button-response","trial_index":76,"time_elapsed":1425027,"internal_node_id":"0.0-4.0-1.32","subject_id":"61628cdf703ff9e9eb7b61f6","study_id":"6197b3f67c2b5cd3b6d9596a","session_id":"6197b577821488269d6f7ef6","condition":"contingent","relevant_dimensions":["wings","legs"],"bee_group":{"antennae":"X","wings":"1","pattern":"X","legs":"M"},"bonus":1.0200000000000011},{"rt":37230,"stimulus":"bees-with-color/bee-A2SM.svg","response":1,"trial_type":"image-button-response","trial_index":77,"time_elapsed":1462260,"internal_node_id":"0.0-4.0-0.33","subject_id":"61628cdf703ff9e9eb7b61f6","study_id":"6197b3f67c2b5cd3b6d9596a","session_id":"6197b577821488269d6f7ef6","condition":"contingent","relevant_dimensions":["wings","legs"],"bee_group":{"antennae":"X","wings":"1","pattern":"X","legs":"M"},"action":"avoid","summary":"bad-avoid","bonus":1.0200000000000011},{"rt":2022,"stimulus":"\n                    <p><b>Action: <em>avoid</em></b></p>\n                    <p>This is the bee that you just saw.</p>\n                    <img src=\"bees-with-color/bee-A2SM.svg\" width=\"200\">\n                    <p><br>Your bonus pay is unchanged, and remains at $0.40.</p>\n            ","response":0,"trial_type":"html-button-response","trial_index":78,"time_elapsed":1464283,"internal_node_id":"0.0-4.0-1.33","subject_id":"61628cdf703ff9e9eb7b61f6","study_id":"6197b3f67c2b5cd3b6d9596a","session_id":"6197b577821488269d6f7ef6","condition":"contingent","relevant_dimensions":["wings","legs"],"bee_group":{"antennae":"X","wings":"1","pattern":"X","legs":"M"},"bonus":1.0200000000000011},{"rt":20429,"stimulus":"bees-with-color/bee-A1SF.svg","response":0,"trial_type":"image-button-response","trial_index":79,"time_elapsed":1484714,"internal_node_id":"0.0-4.0-0.34","subject_id":"61628cdf703ff9e9eb7b61f6","study_id":"6197b3f67c2b5cd3b6d9596a","session_id":"6197b577821488269d6f7ef6","condition":"contingent","relevant_dimensions":["wings","legs"],"bee_group":{"antennae":"X","wings":"1","pattern":"X","legs":"M"},"action":"harvest","summary":"good-harvest","bonus":1.0200000000000011},{"rt":886,"stimulus":"\n                    <p><b>Action: <em>harvest</em></b></p>\n                    <p>This is the bee that you just saw.</p>\n                    <img src=\"bees-with-color/bee-A1SF.svg\" width=\"200\">\n                    <p><span class=\"greenText\"><b>Successful harvest!</b></span><br>Your pay has increased by $0.02. Your bonus pay is now $0.42.</p>\n            ","response":0,"trial_type":"html-button-response","trial_index":80,"time_elapsed":1485603,"internal_node_id":"0.0-4.0-1.34","subject_id":"61628cdf703ff9e9eb7b61f6","study_id":"6197b3f67c2b5cd3b6d9596a","session_id":"6197b577821488269d6f7ef6","condition":"contingent","relevant_dimensions":["wings","legs"],"bee_group":{"antennae":"X","wings":"1","pattern":"X","legs":"M"},"bonus":1.0200000000000011},{"rt":14020,"stimulus":"bees-with-color/bee-B1SF.svg","response":0,"trial_type":"image-button-response","trial_index":81,"time_elapsed":1499626,"internal_node_id":"0.0-4.0-0.35","subject_id":"61628cdf703ff9e9eb7b61f6","study_id":"6197b3f67c2b5cd3b6d9596a","session_id":"6197b577821488269d6f7ef6","condition":"contingent","relevant_dimensions":["wings","legs"],"bee_group":{"antennae":"X","wings":"1","pattern":"X","legs":"M"},"action":"harvest","summary":"good-harvest","bonus":1.0200000000000011},{"rt":1038,"stimulus":"\n                    <p><b>Action: <em>harvest</em></b></p>\n                    <p>This is the bee that you just saw.</p>\n                    <img src=\"bees-with-color/bee-B1SF.svg\" width=\"200\">\n                    <p><span class=\"greenText\"><b>Successful harvest!</b></span><br>Your pay has increased by $0.02. Your bonus pay is now $0.44.</p>\n            ","response":0,"trial_type":"html-button-response","trial_index":82,"time_elapsed":1500666,"internal_node_id":"0.0-4.0-1.35","subject_id":"61628cdf703ff9e9eb7b61f6","study_id":"6197b3f67c2b5cd3b6d9596a","session_id":"6197b577821488269d6f7ef6","condition":"contingent","relevant_dimensions":["wings","legs"],"bee_group":{"antennae":"X","wings":"1","pattern":"X","legs":"M"},"bonus":1.0200000000000011},{"rt":11996,"stimulus":"bees-with-color/bee-A1DF.svg","response":0,"trial_type":"image-button-response","trial_index":83,"time_elapsed":1512666,"internal_node_id":"0.0-4.0-0.36","subject_id":"61628cdf703ff9e9eb7b61f6","study_id":"6197b3f67c2b5cd3b6d9596a","session_id":"6197b577821488269d6f7ef6","condition":"contingent","relevant_dimensions":["wings","legs"],"bee_group":{"antennae":"X","wings":"1","pattern":"X","legs":"M"},"action":"harvest","summary":"good-harvest","bonus":1.0200000000000011},{"rt":1079,"stimulus":"\n                    <p><b>Action: <em>harvest</em></b></p>\n                    <p>This is the bee that you just saw.</p>\n                    <img src=\"bees-with-color/bee-A1DF.svg\" width=\"200\">\n                    <p><span class=\"greenText\"><b>Successful harvest!</b></span><br>Your pay has increased by $0.02. Your bonus pay is now $0.46.</p>\n            ","response":0,"trial_type":"html-button-response","trial_index":84,"time_elapsed":1513746,"internal_node_id":"0.0-4.0-1.36","subject_id":"61628cdf703ff9e9eb7b61f6","study_id":"6197b3f67c2b5cd3b6d9596a","session_id":"6197b577821488269d6f7ef6","condition":"contingent","relevant_dimensions":["wings","legs"],"bee_group":{"antennae":"X","wings":"1","pattern":"X","legs":"M"},"bonus":1.0200000000000011},{"rt":24461,"stimulus":"bees-with-color/bee-B2SF.svg","response":0,"trial_type":"image-button-response","trial_index":85,"time_elapsed":1538210,"internal_node_id":"0.0-4.0-0.37","subject_id":"61628cdf703ff9e9eb7b61f6","study_id":"6197b3f67c2b5cd3b6d9596a","session_id":"6197b577821488269d6f7ef6","condition":"contingent","relevant_dimensions":["wings","legs"],"bee_group":{"antennae":"X","wings":"1","pattern":"X","legs":"M"},"action":"harvest","summary":"good-harvest","bonus":1.0200000000000011},{"rt":1190,"stimulus":"\n                    <p><b>Action: <em>harvest</em></b></p>\n                    <p>This is the bee that you just saw.</p>\n                    <img src=\"bees-with-color/bee-B2SF.svg\" width=\"200\">\n                    <p><span class=\"greenText\"><b>Successful harvest!</b></span><br>Your pay has increased by $0.02. Your bonus pay is now $0.48.</p>\n            ","response":0,"trial_type":"html-button-response","trial_index":86,"time_elapsed":1539402,"internal_node_id":"0.0-4.0-1.37","subject_id":"61628cdf703ff9e9eb7b61f6","study_id":"6197b3f67c2b5cd3b6d9596a","session_id":"6197b577821488269d6f7ef6","condition":"contingent","relevant_dimensions":["wings","legs"],"bee_group":{"antennae":"X","wings":"1","pattern":"X","legs":"M"},"bonus":1.0200000000000011},{"rt":17517,"stimulus":"bees-with-color/bee-B1DF.svg","response":0,"trial_type":"image-button-response","trial_index":87,"time_elapsed":1556922,"internal_node_id":"0.0-4.0-0.38","subject_id":"61628cdf703ff9e9eb7b61f6","study_id":"6197b3f67c2b5cd3b6d9596a","session_id":"6197b577821488269d6f7ef6","condition":"contingent","relevant_dimensions":["wings","legs"],"bee_group":{"antennae":"X","wings":"1","pattern":"X","legs":"M"},"action":"harvest","summary":"good-harvest","bonus":1.0200000000000011},{"rt":1078,"stimulus":"\n                    <p><b>Action: <em>harvest</em></b></p>\n                    <p>This is the bee that you just saw.</p>\n                    <img src=\"bees-with-color/bee-B1DF.svg\" width=\"200\">\n                    <p><span class=\"greenText\"><b>Successful harvest!</b></span><br>Your pay has increased by $0.02. Your bonus pay is now $0.50.</p>\n            ","response":0,"trial_type":"html-button-response","trial_index":88,"time_elapsed":1558003,"internal_node_id":"0.0-4.0-1.38","subject_id":"61628cdf703ff9e9eb7b61f6","study_id":"6197b3f67c2b5cd3b6d9596a","session_id":"6197b577821488269d6f7ef6","condition":"contingent","relevant_dimensions":["wings","legs"],"bee_group":{"antennae":"X","wings":"1","pattern":"X","legs":"M"},"bonus":1.0200000000000011},{"rt":6467,"stimulus":"bees-with-color/bee-A1DM.svg","response":1,"trial_type":"image-button-response","trial_index":89,"time_elapsed":1564474,"internal_node_id":"0.0-4.0-0.39","subject_id":"61628cdf703ff9e9eb7b61f6","study_id":"6197b3f67c2b5cd3b6d9596a","session_id":"6197b577821488269d6f7ef6","condition":"contingent","relevant_dimensions":["wings","legs"],"bee_group":{"antennae":"X","wings":"1","pattern":"X","legs":"M"},"action":"avoid","summary":"good-avoid","bonus":1.0200000000000011},{"rt":1030,"stimulus":"\n                    <p><b>Action: <em>avoid</em></b></p>\n                    <p>This is the bee that you just saw.</p>\n                    <img src=\"bees-with-color/bee-A1DM.svg\" width=\"200\">\n                    <p><br>Your bonus pay is unchanged, and remains at $0.50.</p>\n            ","response":0,"trial_type":"html-button-response","trial_index":90,"time_elapsed":1565506,"internal_node_id":"0.0-4.0-1.39","subject_id":"61628cdf703ff9e9eb7b61f6","study_id":"6197b3f67c2b5cd3b6d9596a","session_id":"6197b577821488269d6f7ef6","condition":"contingent","relevant_dimensions":["wings","legs"],"bee_group":{"antennae":"X","wings":"1","pattern":"X","legs":"M"},"bonus":1.0200000000000011},{"rt":25550,"stimulus":"bees-with-color/bee-B2DF.svg","response":0,"trial_type":"image-button-response","trial_index":91,"time_elapsed":1591058,"internal_node_id":"0.0-4.0-0.40","subject_id":"61628cdf703ff9e9eb7b61f6","study_id":"6197b3f67c2b5cd3b6d9596a","session_id":"6197b577821488269d6f7ef6","condition":"contingent","relevant_dimensions":["wings","legs"],"bee_group":{"antennae":"X","wings":"1","pattern":"X","legs":"M"},"action":"harvest","summary":"good-harvest","bonus":1.0200000000000011},{"rt":990,"stimulus":"\n                    <p><b>Action: <em>harvest</em></b></p>\n                    <p>This is the bee that you just saw.</p>\n                    <img src=\"bees-with-color/bee-B2DF.svg\" width=\"200\">\n                    <p><span class=\"greenText\"><b>Successful harvest!</b></span><br>Your pay has increased by $0.02. Your bonus pay is now $0.52.</p>\n            ","response":0,"trial_type":"html-button-response","trial_index":92,"time_elapsed":1592050,"internal_node_id":"0.0-4.0-1.40","subject_id":"61628cdf703ff9e9eb7b61f6","study_id":"6197b3f67c2b5cd3b6d9596a","session_id":"6197b577821488269d6f7ef6","condition":"contingent","relevant_dimensions":["wings","legs"],"bee_group":{"antennae":"X","wings":"1","pattern":"X","legs":"M"},"bonus":1.0200000000000011},{"rt":16677,"stimulus":"bees-with-color/bee-A2DF.svg","response":0,"trial_type":"image-button-response","trial_index":93,"time_elapsed":1608730,"internal_node_id":"0.0-4.0-0.41","subject_id":"61628cdf703ff9e9eb7b61f6","study_id":"6197b3f67c2b5cd3b6d9596a","session_id":"6197b577821488269d6f7ef6","condition":"contingent","relevant_dimensions":["wings","legs"],"bee_group":{"antennae":"X","wings":"1","pattern":"X","legs":"M"},"action":"harvest","summary":"good-harvest","bonus":1.0200000000000011},{"rt":1710,"stimulus":"\n                    <p><b>Action: <em>harvest</em></b></p>\n                    <p>This is the bee that you just saw.</p>\n                    <img src=\"bees-with-color/bee-A2DF.svg\" width=\"200\">\n                    <p><span class=\"greenText\"><b>Successful harvest!</b></span><br>Your pay has increased by $0.02. Your bonus pay is now $0.54.</p>\n            ","response":0,"trial_type":"html-button-response","trial_index":94,"time_elapsed":1610442,"internal_node_id":"0.0-4.0-1.41","subject_id":"61628cdf703ff9e9eb7b61f6","study_id":"6197b3f67c2b5cd3b6d9596a","session_id":"6197b577821488269d6f7ef6","condition":"contingent","relevant_dimensions":["wings","legs"],"bee_group":{"antennae":"X","wings":"1","pattern":"X","legs":"M"},"bonus":1.0200000000000011},{"rt":12557,"stimulus":"bees-with-color/bee-A1SM.svg","response":0,"trial_type":"image-button-response","trial_index":95,"time_elapsed":1623002,"internal_node_id":"0.0-4.0-0.42","subject_id":"61628cdf703ff9e9eb7b61f6","study_id":"6197b3f67c2b5cd3b6d9596a","session_id":"6197b577821488269d6f7ef6","condition":"contingent","relevant_dimensions":["wings","legs"],"bee_group":{"antennae":"X","wings":"1","pattern":"X","legs":"M"},"action":"harvest","summary":"bad-harvest","bonus":1.0200000000000011},{"rt":20238,"stimulus":"\n                    <p><b>Action: <em>harvest</em></b></p>\n                    <p>This is the bee that you just saw.</p>\n                    <img src=\"bees-with-color/bee-A1SM.svg\" width=\"200\">\n                    <p><span class=\"redText\">Bad choice, the bee was angry.</span><br><b>You have been stung!</b><br>Your pay has been decreased by $0.10. Your bonus pay is now $0.44.</p>\n            ","response":0,"trial_type":"html-button-response","trial_index":96,"time_elapsed":1643242,"internal_node_id":"0.0-4.0-1.42","subject_id":"61628cdf703ff9e9eb7b61f6","study_id":"6197b3f67c2b5cd3b6d9596a","session_id":"6197b577821488269d6f7ef6","condition":"contingent","relevant_dimensions":["wings","legs"],"bee_group":{"antennae":"X","wings":"1","pattern":"X","legs":"M"},"bonus":1.0200000000000011},{"rt":22172,"stimulus":"bees-with-color/bee-B1SM.svg","response":1,"trial_type":"image-button-response","trial_index":97,"time_elapsed":1665418,"internal_node_id":"0.0-4.0-0.43","subject_id":"61628cdf703ff9e9eb7b61f6","study_id":"6197b3f67c2b5cd3b6d9596a","session_id":"6197b577821488269d6f7ef6","condition":"contingent","relevant_dimensions":["wings","legs"],"bee_group":{"antennae":"X","wings":"1","pattern":"X","legs":"M"},"action":"avoid","summary":"good-avoid","bonus":1.0200000000000011},{"rt":845,"stimulus":"\n                    <p><b>Action: <em>avoid</em></b></p>\n                    <p>This is the bee that you just saw.</p>\n                    <img src=\"bees-with-color/bee-B1SM.svg\" width=\"200\">\n                    <p><br>Your bonus pay is unchanged, and remains at $0.44.</p>\n            ","response":0,"trial_type":"html-button-response","trial_index":98,"time_elapsed":1666266,"internal_node_id":"0.0-4.0-1.43","subject_id":"61628cdf703ff9e9eb7b61f6","study_id":"6197b3f67c2b5cd3b6d9596a","session_id":"6197b577821488269d6f7ef6","condition":"contingent","relevant_dimensions":["wings","legs"],"bee_group":{"antennae":"X","wings":"1","pattern":"X","legs":"M"},"bonus":1.0200000000000011},{"rt":33708,"stimulus":"bees-with-color/bee-A2DM.svg","response":0,"trial_type":"image-button-response","trial_index":99,"time_elapsed":1699979,"internal_node_id":"0.0-4.0-0.44","subject_id":"61628cdf703ff9e9eb7b61f6","study_id":"6197b3f67c2b5cd3b6d9596a","session_id":"6197b577821488269d6f7ef6","condition":"contingent","relevant_dimensions":["wings","legs"],"bee_group":{"antennae":"X","wings":"1","pattern":"X","legs":"M"},"action":"harvest","summary":"good-harvest","bonus":1.0200000000000011},{"rt":16310,"stimulus":"\n                    <p><b>Action: <em>harvest</em></b></p>\n                    <p>This is the bee that you just saw.</p>\n                    <img src=\"bees-with-color/bee-A2DM.svg\" width=\"200\">\n                    <p><span class=\"greenText\"><b>Successful harvest!</b></span><br>Your pay has increased by $0.02. Your bonus pay is now $0.46.</p>\n            ","response":0,"trial_type":"html-button-response","trial_index":100,"time_elapsed":1716291,"internal_node_id":"0.0-4.0-1.44","subject_id":"61628cdf703ff9e9eb7b61f6","study_id":"6197b3f67c2b5cd3b6d9596a","session_id":"6197b577821488269d6f7ef6","condition":"contingent","relevant_dimensions":["wings","legs"],"bee_group":{"antennae":"X","wings":"1","pattern":"X","legs":"M"},"bonus":1.0200000000000011},{"rt":27957,"stimulus":"bees-with-color/bee-B2DM.svg","response":0,"trial_type":"image-button-response","trial_index":101,"time_elapsed":1744251,"internal_node_id":"0.0-4.0-0.45","subject_id":"61628cdf703ff9e9eb7b61f6","study_id":"6197b3f67c2b5cd3b6d9596a","session_id":"6197b577821488269d6f7ef6","condition":"contingent","relevant_dimensions":["wings","legs"],"bee_group":{"antennae":"X","wings":"1","pattern":"X","legs":"M"},"action":"harvest","summary":"good-harvest","bonus":1.0200000000000011},{"rt":837,"stimulus":"\n                    <p><b>Action: <em>harvest</em></b></p>\n                    <p>This is the bee that you just saw.</p>\n                    <img src=\"bees-with-color/bee-B2DM.svg\" width=\"200\">\n                    <p><span class=\"greenText\"><b>Successful harvest!</b></span><br>Your pay has increased by $0.02. Your bonus pay is now $0.48.</p>\n            ","response":0,"trial_type":"html-button-response","trial_index":102,"time_elapsed":1745091,"internal_node_id":"0.0-4.0-1.45","subject_id":"61628cdf703ff9e9eb7b61f6","study_id":"6197b3f67c2b5cd3b6d9596a","session_id":"6197b577821488269d6f7ef6","condition":"contingent","relevant_dimensions":["wings","legs"],"bee_group":{"antennae":"X","wings":"1","pattern":"X","legs":"M"},"bonus":1.0200000000000011},{"rt":21684,"stimulus":"bees-with-color/bee-B2SM.svg","response":0,"trial_type":"image-button-response","trial_index":103,"time_elapsed":1766778,"internal_node_id":"0.0-4.0-0.46","subject_id":"61628cdf703ff9e9eb7b61f6","study_id":"6197b3f67c2b5cd3b6d9596a","session_id":"6197b577821488269d6f7ef6","condition":"contingent","relevant_dimensions":["wings","legs"],"bee_group":{"antennae":"X","wings":"1","pattern":"X","legs":"M"},"action":"harvest","summary":"good-harvest","bonus":1.0200000000000011},{"rt":774,"stimulus":"\n                    <p><b>Action: <em>harvest</em></b></p>\n                    <p>This is the bee that you just saw.</p>\n                    <img src=\"bees-with-color/bee-B2SM.svg\" width=\"200\">\n                    <p><span class=\"greenText\"><b>Successful harvest!</b></span><br>Your pay has increased by $0.02. Your bonus pay is now $0.50.</p>\n            ","response":0,"trial_type":"html-button-response","trial_index":104,"time_elapsed":1767554,"internal_node_id":"0.0-4.0-1.46","subject_id":"61628cdf703ff9e9eb7b61f6","study_id":"6197b3f67c2b5cd3b6d9596a","session_id":"6197b577821488269d6f7ef6","condition":"contingent","relevant_dimensions":["wings","legs"],"bee_group":{"antennae":"X","wings":"1","pattern":"X","legs":"M"},"bonus":1.0200000000000011},{"rt":11069,"stimulus":"bees-with-color/bee-A2SF.svg","response":0,"trial_type":"image-button-response","trial_index":105,"time_elapsed":1778627,"internal_node_id":"0.0-4.0-0.47","subject_id":"61628cdf703ff9e9eb7b61f6","study_id":"6197b3f67c2b5cd3b6d9596a","session_id":"6197b577821488269d6f7ef6","condition":"contingent","relevant_dimensions":["wings","legs"],"bee_group":{"antennae":"X","wings":"1","pattern":"X","legs":"M"},"action":"harvest","summary":"good-harvest","bonus":1.0200000000000011},{"rt":861,"stimulus":"\n                    <p><b>Action: <em>harvest</em></b></p>\n                    <p>This is the bee that you just saw.</p>\n                    <img src=\"bees-with-color/bee-A2SF.svg\" width=\"200\">\n                    <p><span class=\"greenText\"><b>Successful harvest!</b></span><br>Your pay has increased by $0.02. Your bonus pay is now $0.52.</p>\n            ","response":0,"trial_type":"html-button-response","trial_index":106,"time_elapsed":1779491,"internal_node_id":"0.0-4.0-1.47","subject_id":"61628cdf703ff9e9eb7b61f6","study_id":"6197b3f67c2b5cd3b6d9596a","session_id":"6197b577821488269d6f7ef6","condition":"contingent","relevant_dimensions":["wings","legs"],"bee_group":{"antennae":"X","wings":"1","pattern":"X","legs":"M"},"bonus":1.0200000000000011},{"rt":54588,"stimulus":"bees-with-color/bee-A2SM.svg","response":1,"trial_type":"image-button-response","trial_index":107,"time_elapsed":1834082,"internal_node_id":"0.0-4.0-0.48","subject_id":"61628cdf703ff9e9eb7b61f6","study_id":"6197b3f67c2b5cd3b6d9596a","session_id":"6197b577821488269d6f7ef6","condition":"contingent","relevant_dimensions":["wings","legs"],"bee_group":{"antennae":"X","wings":"1","pattern":"X","legs":"M"},"action":"avoid","summary":"bad-avoid","bonus":1.0200000000000011},{"rt":1669,"stimulus":"\n                    <p><b>Action: <em>avoid</em></b></p>\n                    <p>This is the bee that you just saw.</p>\n                    <img src=\"bees-with-color/bee-A2SM.svg\" width=\"200\">\n                    <p><br>Your bonus pay is unchanged, and remains at $0.52.</p>\n            ","response":0,"trial_type":"html-button-response","trial_index":108,"time_elapsed":1835754,"internal_node_id":"0.0-4.0-1.48","subject_id":"61628cdf703ff9e9eb7b61f6","study_id":"6197b3f67c2b5cd3b6d9596a","session_id":"6197b577821488269d6f7ef6","condition":"contingent","relevant_dimensions":["wings","legs"],"bee_group":{"antennae":"X","wings":"1","pattern":"X","legs":"M"},"bonus":1.0200000000000011},{"rt":25571,"stimulus":"bees-with-color/bee-B1DF.svg","response":0,"trial_type":"image-button-response","trial_index":109,"time_elapsed":1861330,"internal_node_id":"0.0-4.0-0.49","subject_id":"61628cdf703ff9e9eb7b61f6","study_id":"6197b3f67c2b5cd3b6d9596a","session_id":"6197b577821488269d6f7ef6","condition":"contingent","relevant_dimensions":["wings","legs"],"bee_group":{"antennae":"X","wings":"1","pattern":"X","legs":"M"},"action":"harvest","summary":"good-harvest","bonus":1.0200000000000011},{"rt":749,"stimulus":"\n                    <p><b>Action: <em>harvest</em></b></p>\n                    <p>This is the bee that you just saw.</p>\n                    <img src=\"bees-with-color/bee-B1DF.svg\" width=\"200\">\n                    <p><span class=\"greenText\"><b>Successful harvest!</b></span><br>Your pay has increased by $0.02. Your bonus pay is now $0.54.</p>\n            ","response":0,"trial_type":"html-button-response","trial_index":110,"time_elapsed":1862082,"internal_node_id":"0.0-4.0-1.49","subject_id":"61628cdf703ff9e9eb7b61f6","study_id":"6197b3f67c2b5cd3b6d9596a","session_id":"6197b577821488269d6f7ef6","condition":"contingent","relevant_dimensions":["wings","legs"],"bee_group":{"antennae":"X","wings":"1","pattern":"X","legs":"M"},"bonus":1.0200000000000011},{"rt":16644,"stimulus":"bees-with-color/bee-A2DF.svg","response":0,"trial_type":"image-button-response","trial_index":111,"time_elapsed":1878730,"internal_node_id":"0.0-4.0-0.50","subject_id":"61628cdf703ff9e9eb7b61f6","study_id":"6197b3f67c2b5cd3b6d9596a","session_id":"6197b577821488269d6f7ef6","condition":"contingent","relevant_dimensions":["wings","legs"],"bee_group":{"antennae":"X","wings":"1","pattern":"X","legs":"M"},"action":"harvest","summary":"good-harvest","bonus":1.0200000000000011},{"rt":1502,"stimulus":"\n                    <p><b>Action: <em>harvest</em></b></p>\n                    <p>This is the bee that you just saw.</p>\n                    <img src=\"bees-with-color/bee-A2DF.svg\" width=\"200\">\n                    <p><span class=\"greenText\"><b>Successful harvest!</b></span><br>Your pay has increased by $0.02. Your bonus pay is now $0.56.</p>\n            ","response":0,"trial_type":"html-button-response","trial_index":112,"time_elapsed":1880234,"internal_node_id":"0.0-4.0-1.50","subject_id":"61628cdf703ff9e9eb7b61f6","study_id":"6197b3f67c2b5cd3b6d9596a","session_id":"6197b577821488269d6f7ef6","condition":"contingent","relevant_dimensions":["wings","legs"],"bee_group":{"antennae":"X","wings":"1","pattern":"X","legs":"M"},"bonus":1.0200000000000011},{"rt":17419,"stimulus":"bees-with-color/bee-A1DM.svg","response":1,"trial_type":"image-button-response","trial_index":113,"time_elapsed":1897659,"internal_node_id":"0.0-4.0-0.51","subject_id":"61628cdf703ff9e9eb7b61f6","study_id":"6197b3f67c2b5cd3b6d9596a","session_id":"6197b577821488269d6f7ef6","condition":"contingent","relevant_dimensions":["wings","legs"],"bee_group":{"antennae":"X","wings":"1","pattern":"X","legs":"M"},"action":"avoid","summary":"good-avoid","bonus":1.0200000000000011},{"rt":1013,"stimulus":"\n                    <p><b>Action: <em>avoid</em></b></p>\n                    <p>This is the bee that you just saw.</p>\n                    <img src=\"bees-with-color/bee-A1DM.svg\" width=\"200\">\n                    <p><br>Your bonus pay is unchanged, and remains at $0.56.</p>\n            ","response":0,"trial_type":"html-button-response","trial_index":114,"time_elapsed":1898675,"internal_node_id":"0.0-4.0-1.51","subject_id":"61628cdf703ff9e9eb7b61f6","study_id":"6197b3f67c2b5cd3b6d9596a","session_id":"6197b577821488269d6f7ef6","condition":"contingent","relevant_dimensions":["wings","legs"],"bee_group":{"antennae":"X","wings":"1","pattern":"X","legs":"M"},"bonus":1.0200000000000011},{"rt":23565,"stimulus":"bees-with-color/bee-A2DM.svg","response":0,"trial_type":"image-button-response","trial_index":115,"time_elapsed":1922243,"internal_node_id":"0.0-4.0-0.52","subject_id":"61628cdf703ff9e9eb7b61f6","study_id":"6197b3f67c2b5cd3b6d9596a","session_id":"6197b577821488269d6f7ef6","condition":"contingent","relevant_dimensions":["wings","legs"],"bee_group":{"antennae":"X","wings":"1","pattern":"X","legs":"M"},"action":"harvest","summary":"good-harvest","bonus":1.0200000000000011},{"rt":973,"stimulus":"\n                    <p><b>Action: <em>harvest</em></b></p>\n                    <p>This is the bee that you just saw.</p>\n                    <img src=\"bees-with-color/bee-A2DM.svg\" width=\"200\">\n                    <p><span class=\"greenText\"><b>Successful harvest!</b></span><br>Your pay has increased by $0.02. Your bonus pay is now $0.58.</p>\n            ","response":0,"trial_type":"html-button-response","trial_index":116,"time_elapsed":1923219,"internal_node_id":"0.0-4.0-1.52","subject_id":"61628cdf703ff9e9eb7b61f6","study_id":"6197b3f67c2b5cd3b6d9596a","session_id":"6197b577821488269d6f7ef6","condition":"contingent","relevant_dimensions":["wings","legs"],"bee_group":{"antennae":"X","wings":"1","pattern":"X","legs":"M"},"bonus":1.0200000000000011},{"rt":10516,"stimulus":"bees-with-color/bee-B1SM.svg","response":1,"trial_type":"image-button-response","trial_index":117,"time_elapsed":1933739,"internal_node_id":"0.0-4.0-0.53","subject_id":"61628cdf703ff9e9eb7b61f6","study_id":"6197b3f67c2b5cd3b6d9596a","session_id":"6197b577821488269d6f7ef6","condition":"contingent","relevant_dimensions":["wings","legs"],"bee_group":{"antennae":"X","wings":"1","pattern":"X","legs":"M"},"action":"avoid","summary":"good-avoid","bonus":1.0200000000000011},{"rt":830,"stimulus":"\n                    <p><b>Action: <em>avoid</em></b></p>\n                    <p>This is the bee that you just saw.</p>\n                    <img src=\"bees-with-color/bee-B1SM.svg\" width=\"200\">\n                    <p><br>Your bonus pay is unchanged, and remains at $0.58.</p>\n            ","response":0,"trial_type":"html-button-response","trial_index":118,"time_elapsed":1934572,"internal_node_id":"0.0-4.0-1.53","subject_id":"61628cdf703ff9e9eb7b61f6","study_id":"6197b3f67c2b5cd3b6d9596a","session_id":"6197b577821488269d6f7ef6","condition":"contingent","relevant_dimensions":["wings","legs"],"bee_group":{"antennae":"X","wings":"1","pattern":"X","legs":"M"},"bonus":1.0200000000000011},{"rt":19284,"stimulus":"bees-with-color/bee-A1DF.svg","response":0,"trial_type":"image-button-response","trial_index":119,"time_elapsed":1953860,"internal_node_id":"0.0-4.0-0.54","subject_id":"61628cdf703ff9e9eb7b61f6","study_id":"6197b3f67c2b5cd3b6d9596a","session_id":"6197b577821488269d6f7ef6","condition":"contingent","relevant_dimensions":["wings","legs"],"bee_group":{"antennae":"X","wings":"1","pattern":"X","legs":"M"},"action":"harvest","summary":"good-harvest","bonus":1.0200000000000011},{"rt":1219,"stimulus":"\n                    <p><b>Action: <em>harvest</em></b></p>\n                    <p>This is the bee that you just saw.</p>\n                    <img src=\"bees-with-color/bee-A1DF.svg\" width=\"200\">\n                    <p><span class=\"greenText\"><b>Successful harvest!</b></span><br>Your pay has increased by $0.02. Your bonus pay is now $0.60.</p>\n            ","response":0,"trial_type":"html-button-response","trial_index":120,"time_elapsed":1955084,"internal_node_id":"0.0-4.0-1.54","subject_id":"61628cdf703ff9e9eb7b61f6","study_id":"6197b3f67c2b5cd3b6d9596a","session_id":"6197b577821488269d6f7ef6","condition":"contingent","relevant_dimensions":["wings","legs"],"bee_group":{"antennae":"X","wings":"1","pattern":"X","legs":"M"},"bonus":1.0200000000000011},{"rt":29875,"stimulus":"bees-with-color/bee-B2DM.svg","response":0,"trial_type":"image-button-response","trial_index":121,"time_elapsed":1984963,"internal_node_id":"0.0-4.0-0.55","subject_id":"61628cdf703ff9e9eb7b61f6","study_id":"6197b3f67c2b5cd3b6d9596a","session_id":"6197b577821488269d6f7ef6","condition":"contingent","relevant_dimensions":["wings","legs"],"bee_group":{"antennae":"X","wings":"1","pattern":"X","legs":"M"},"action":"harvest","summary":"good-harvest","bonus":1.0200000000000011},{"rt":1958,"stimulus":"\n                    <p><b>Action: <em>harvest</em></b></p>\n                    <p>This is the bee that you just saw.</p>\n                    <img src=\"bees-with-color/bee-B2DM.svg\" width=\"200\">\n                    <p><span class=\"greenText\"><b>Successful harvest!</b></span><br>Your pay has increased by $0.02. Your bonus pay is now $0.62.</p>\n            ","response":0,"trial_type":"html-button-response","trial_index":122,"time_elapsed":1986924,"internal_node_id":"0.0-4.0-1.55","subject_id":"61628cdf703ff9e9eb7b61f6","study_id":"6197b3f67c2b5cd3b6d9596a","session_id":"6197b577821488269d6f7ef6","condition":"contingent","relevant_dimensions":["wings","legs"],"bee_group":{"antennae":"X","wings":"1","pattern":"X","legs":"M"},"bonus":1.0200000000000011},{"rt":6732,"stimulus":"bees-with-color/bee-B1SF.svg","response":0,"trial_type":"image-button-response","trial_index":123,"time_elapsed":1993660,"internal_node_id":"0.0-4.0-0.56","subject_id":"61628cdf703ff9e9eb7b61f6","study_id":"6197b3f67c2b5cd3b6d9596a","session_id":"6197b577821488269d6f7ef6","condition":"contingent","relevant_dimensions":["wings","legs"],"bee_group":{"antennae":"X","wings":"1","pattern":"X","legs":"M"},"action":"harvest","summary":"good-harvest","bonus":1.0200000000000011},{"rt":988,"stimulus":"\n                    <p><b>Action: <em>harvest</em></b></p>\n                    <p>This is the bee that you just saw.</p>\n                    <img src=\"bees-with-color/bee-B1SF.svg\" width=\"200\">\n                    <p><span class=\"greenText\"><b>Successful harvest!</b></span><br>Your pay has increased by $0.02. Your bonus pay is now $0.64.</p>\n            ","response":0,"trial_type":"html-button-response","trial_index":124,"time_elapsed":1994651,"internal_node_id":"0.0-4.0-1.56","subject_id":"61628cdf703ff9e9eb7b61f6","study_id":"6197b3f67c2b5cd3b6d9596a","session_id":"6197b577821488269d6f7ef6","condition":"contingent","relevant_dimensions":["wings","legs"],"bee_group":{"antennae":"X","wings":"1","pattern":"X","legs":"M"},"bonus":1.0200000000000011},{"rt":26989,"stimulus":"bees-with-color/bee-B2SM.svg","response":0,"trial_type":"image-button-response","trial_index":125,"time_elapsed":2021644,"internal_node_id":"0.0-4.0-0.57","subject_id":"61628cdf703ff9e9eb7b61f6","study_id":"6197b3f67c2b5cd3b6d9596a","session_id":"6197b577821488269d6f7ef6","condition":"contingent","relevant_dimensions":["wings","legs"],"bee_group":{"antennae":"X","wings":"1","pattern":"X","legs":"M"},"action":"harvest","summary":"good-harvest","bonus":1.0200000000000011},{"rt":742,"stimulus":"\n                    <p><b>Action: <em>harvest</em></b></p>\n                    <p>This is the bee that you just saw.</p>\n                    <img src=\"bees-with-color/bee-B2SM.svg\" width=\"200\">\n                    <p><span class=\"greenText\"><b>Successful harvest!</b></span><br>Your pay has increased by $0.02. Your bonus pay is now $0.66.</p>\n            ","response":0,"trial_type":"html-button-response","trial_index":126,"time_elapsed":2022388,"internal_node_id":"0.0-4.0-1.57","subject_id":"61628cdf703ff9e9eb7b61f6","study_id":"6197b3f67c2b5cd3b6d9596a","session_id":"6197b577821488269d6f7ef6","condition":"contingent","relevant_dimensions":["wings","legs"],"bee_group":{"antennae":"X","wings":"1","pattern":"X","legs":"M"},"bonus":1.0200000000000011},{"rt":45868,"stimulus":"bees-with-color/bee-B2DF.svg","response":0,"trial_type":"image-button-response","trial_index":127,"time_elapsed":2068260,"internal_node_id":"0.0-4.0-0.58","subject_id":"61628cdf703ff9e9eb7b61f6","study_id":"6197b3f67c2b5cd3b6d9596a","session_id":"6197b577821488269d6f7ef6","condition":"contingent","relevant_dimensions":["wings","legs"],"bee_group":{"antennae":"X","wings":"1","pattern":"X","legs":"M"},"action":"harvest","summary":"good-harvest","bonus":1.0200000000000011},{"rt":988,"stimulus":"\n                    <p><b>Action: <em>harvest</em></b></p>\n                    <p>This is the bee that you just saw.</p>\n                    <img src=\"bees-with-color/bee-B2DF.svg\" width=\"200\">\n                    <p><span class=\"greenText\"><b>Successful harvest!</b></span><br>Your pay has increased by $0.02. Your bonus pay is now $0.68.</p>\n            ","response":0,"trial_type":"html-button-response","trial_index":128,"time_elapsed":2069251,"internal_node_id":"0.0-4.0-1.58","subject_id":"61628cdf703ff9e9eb7b61f6","study_id":"6197b3f67c2b5cd3b6d9596a","session_id":"6197b577821488269d6f7ef6","condition":"contingent","relevant_dimensions":["wings","legs"],"bee_group":{"antennae":"X","wings":"1","pattern":"X","legs":"M"},"bonus":1.0200000000000011},{"rt":17278,"stimulus":"bees-with-color/bee-A1SM.svg","response":1,"trial_type":"image-button-response","trial_index":129,"time_elapsed":2086532,"internal_node_id":"0.0-4.0-0.59","subject_id":"61628cdf703ff9e9eb7b61f6","study_id":"6197b3f67c2b5cd3b6d9596a","session_id":"6197b577821488269d6f7ef6","condition":"contingent","relevant_dimensions":["wings","legs"],"bee_group":{"antennae":"X","wings":"1","pattern":"X","legs":"M"},"action":"avoid","summary":"good-avoid","bonus":1.0200000000000011},{"rt":771,"stimulus":"\n                    <p><b>Action: <em>avoid</em></b></p>\n                    <p>This is the bee that you just saw.</p>\n                    <img src=\"bees-with-color/bee-A1SM.svg\" width=\"200\">\n                    <p><br>Your bonus pay is unchanged, and remains at $0.68.</p>\n            ","response":0,"trial_type":"html-button-response","trial_index":130,"time_elapsed":2087306,"internal_node_id":"0.0-4.0-1.59","subject_id":"61628cdf703ff9e9eb7b61f6","study_id":"6197b3f67c2b5cd3b6d9596a","session_id":"6197b577821488269d6f7ef6","condition":"contingent","relevant_dimensions":["wings","legs"],"bee_group":{"antennae":"X","wings":"1","pattern":"X","legs":"M"},"bonus":1.0200000000000011},{"rt":22550,"stimulus":"bees-with-color/bee-B1DM.svg","response":1,"trial_type":"image-button-response","trial_index":131,"time_elapsed":2109857,"internal_node_id":"0.0-4.0-0.60","subject_id":"61628cdf703ff9e9eb7b61f6","study_id":"6197b3f67c2b5cd3b6d9596a","session_id":"6197b577821488269d6f7ef6","condition":"contingent","relevant_dimensions":["wings","legs"],"bee_group":{"antennae":"X","wings":"1","pattern":"X","legs":"M"},"action":"avoid","summary":"good-avoid","bonus":1.0200000000000011},{"rt":870,"stimulus":"\n                    <p><b>Action: <em>avoid</em></b></p>\n                    <p>This is the bee that you just saw.</p>\n                    <img src=\"bees-with-color/bee-B1DM.svg\" width=\"200\">\n                    <p><br>Your bonus pay is unchanged, and remains at $0.68.</p>\n            ","response":0,"trial_type":"html-button-response","trial_index":132,"time_elapsed":2110729,"internal_node_id":"0.0-4.0-1.60","subject_id":"61628cdf703ff9e9eb7b61f6","study_id":"6197b3f67c2b5cd3b6d9596a","session_id":"6197b577821488269d6f7ef6","condition":"contingent","relevant_dimensions":["wings","legs"],"bee_group":{"antennae":"X","wings":"1","pattern":"X","legs":"M"},"bonus":1.0200000000000011},{"rt":37141,"stimulus":"bees-with-color/bee-A1SF.svg","response":0,"trial_type":"image-button-response","trial_index":133,"time_elapsed":2147873,"internal_node_id":"0.0-4.0-0.61","subject_id":"61628cdf703ff9e9eb7b61f6","study_id":"6197b3f67c2b5cd3b6d9596a","session_id":"6197b577821488269d6f7ef6","condition":"contingent","relevant_dimensions":["wings","legs"],"bee_group":{"antennae":"X","wings":"1","pattern":"X","legs":"M"},"action":"harvest","summary":"good-harvest","bonus":1.0200000000000011},{"rt":1070,"stimulus":"\n                    <p><b>Action: <em>harvest</em></b></p>\n                    <p>This is the bee that you just saw.</p>\n                    <img src=\"bees-with-color/bee-A1SF.svg\" width=\"200\">\n                    <p><span class=\"greenText\"><b>Successful harvest!</b></span><br>Your pay has increased by $0.02. Your bonus pay is now $0.70.</p>\n            ","response":0,"trial_type":"html-button-response","trial_index":134,"time_elapsed":2148945,"internal_node_id":"0.0-4.0-1.61","subject_id":"61628cdf703ff9e9eb7b61f6","study_id":"6197b3f67c2b5cd3b6d9596a","session_id":"6197b577821488269d6f7ef6","condition":"contingent","relevant_dimensions":["wings","legs"],"bee_group":{"antennae":"X","wings":"1","pattern":"X","legs":"M"},"bonus":1.0200000000000011},{"rt":15965,"stimulus":"bees-with-color/bee-B2SF.svg","response":0,"trial_type":"image-button-response","trial_index":135,"time_elapsed":2164913,"internal_node_id":"0.0-4.0-0.62","subject_id":"61628cdf703ff9e9eb7b61f6","study_id":"6197b3f67c2b5cd3b6d9596a","session_id":"6197b577821488269d6f7ef6","condition":"contingent","relevant_dimensions":["wings","legs"],"bee_group":{"antennae":"X","wings":"1","pattern":"X","legs":"M"},"action":"harvest","summary":"good-harvest","bonus":1.0200000000000011},{"rt":702,"stimulus":"\n                    <p><b>Action: <em>harvest</em></b></p>\n                    <p>This is the bee that you just saw.</p>\n                    <img src=\"bees-with-color/bee-B2SF.svg\" width=\"200\">\n                    <p><span class=\"greenText\"><b>Successful harvest!</b></span><br>Your pay has increased by $0.02. Your bonus pay is now $0.72.</p>\n            ","response":0,"trial_type":"html-button-response","trial_index":136,"time_elapsed":2165618,"internal_node_id":"0.0-4.0-1.62","subject_id":"61628cdf703ff9e9eb7b61f6","study_id":"6197b3f67c2b5cd3b6d9596a","session_id":"6197b577821488269d6f7ef6","condition":"contingent","relevant_dimensions":["wings","legs"],"bee_group":{"antennae":"X","wings":"1","pattern":"X","legs":"M"},"bonus":1.0200000000000011},{"rt":7003,"stimulus":"bees-with-color/bee-A2SF.svg","response":0,"trial_type":"image-button-response","trial_index":137,"time_elapsed":2172626,"internal_node_id":"0.0-4.0-0.63","subject_id":"61628cdf703ff9e9eb7b61f6","study_id":"6197b3f67c2b5cd3b6d9596a","session_id":"6197b577821488269d6f7ef6","condition":"contingent","relevant_dimensions":["wings","legs"],"bee_group":{"antennae":"X","wings":"1","pattern":"X","legs":"M"},"action":"harvest","summary":"good-harvest","bonus":1.0200000000000011},{"rt":1261,"stimulus":"\n                    <p><b>Action: <em>harvest</em></b></p>\n                    <p>This is the bee that you just saw.</p>\n                    <img src=\"bees-with-color/bee-A2SF.svg\" width=\"200\">\n                    <p><span class=\"greenText\"><b>Successful harvest!</b></span><br>Your pay has increased by $0.02. Your bonus pay is now $0.74.</p>\n            ","response":0,"trial_type":"html-button-response","trial_index":138,"time_elapsed":2173890,"internal_node_id":"0.0-4.0-1.63","subject_id":"61628cdf703ff9e9eb7b61f6","study_id":"6197b3f67c2b5cd3b6d9596a","session_id":"6197b577821488269d6f7ef6","condition":"contingent","relevant_dimensions":["wings","legs"],"bee_group":{"antennae":"X","wings":"1","pattern":"X","legs":"M"},"bonus":1.0200000000000011},{"rt":9678,"stimulus":"You have completed the first part of this experiment.<br><br>You will now begin a shorter second part, in which you will receive no feedback.<br>The same rules regarding bonus pay apply.<br><br>Press any key to begin.","response":" ","trial_type":"html-keyboard-response","trial_index":139,"time_elapsed":2183571,"internal_node_id":"0.0-5.0","subject_id":"61628cdf703ff9e9eb7b61f6","study_id":"6197b3f67c2b5cd3b6d9596a","session_id":"6197b577821488269d6f7ef6","condition":"contingent","relevant_dimensions":["wings","legs"],"bee_group":{"antennae":"X","wings":"1","pattern":"X","legs":"M"},"bonus":1.0200000000000011},{"rt":6877,"stimulus":"bees-with-color/bee-A1DF.svg","response":0,"trial_type":"image-button-response","trial_index":140,"time_elapsed":2190458,"internal_node_id":"0.0-6.0-0.0","subject_id":"61628cdf703ff9e9eb7b61f6","study_id":"6197b3f67c2b5cd3b6d9596a","session_id":"6197b577821488269d6f7ef6","condition":"contingent","relevant_dimensions":["wings","legs"],"bee_group":{"antennae":"X","wings":"1","pattern":"X","legs":"M"},"bonus":1.0200000000000011},{"rt":18027,"stimulus":"bees-with-color/bee-B2SF.svg","response":0,"trial_type":"image-button-response","trial_index":141,"time_elapsed":2208490,"internal_node_id":"0.0-6.0-0.1","subject_id":"61628cdf703ff9e9eb7b61f6","study_id":"6197b3f67c2b5cd3b6d9596a","session_id":"6197b577821488269d6f7ef6","condition":"contingent","relevant_dimensions":["wings","legs"],"bee_group":{"antennae":"X","wings":"1","pattern":"X","legs":"M"},"bonus":1.0200000000000011},{"rt":16356,"stimulus":"bees-with-color/bee-A2DF.svg","response":0,"trial_type":"image-button-response","trial_index":142,"time_elapsed":2224850,"internal_node_id":"0.0-6.0-0.2","subject_id":"61628cdf703ff9e9eb7b61f6","study_id":"6197b3f67c2b5cd3b6d9596a","session_id":"6197b577821488269d6f7ef6","condition":"contingent","relevant_dimensions":["wings","legs"],"bee_group":{"antennae":"X","wings":"1","pattern":"X","legs":"M"},"bonus":1.0200000000000011},{"rt":16212,"stimulus":"bees-with-color/bee-B2DF.svg","response":1,"trial_type":"image-button-response","trial_index":143,"time_elapsed":2241066,"internal_node_id":"0.0-6.0-0.3","subject_id":"61628cdf703ff9e9eb7b61f6","study_id":"6197b3f67c2b5cd3b6d9596a","session_id":"6197b577821488269d6f7ef6","condition":"contingent","relevant_dimensions":["wings","legs"],"bee_group":{"antennae":"X","wings":"1","pattern":"X","legs":"M"},"bonus":1.0200000000000011},{"rt":11212,"stimulus":"bees-with-color/bee-B1SF.svg","response":0,"trial_type":"image-button-response","trial_index":144,"time_elapsed":2252283,"internal_node_id":"0.0-6.0-0.4","subject_id":"61628cdf703ff9e9eb7b61f6","study_id":"6197b3f67c2b5cd3b6d9596a","session_id":"6197b577821488269d6f7ef6","condition":"contingent","relevant_dimensions":["wings","legs"],"bee_group":{"antennae":"X","wings":"1","pattern":"X","legs":"M"},"bonus":1.0200000000000011},{"rt":7713,"stimulus":"bees-with-color/bee-B1DF.svg","response":0,"trial_type":"image-button-response","trial_index":145,"time_elapsed":2260002,"internal_node_id":"0.0-6.0-0.5","subject_id":"61628cdf703ff9e9eb7b61f6","study_id":"6197b3f67c2b5cd3b6d9596a","session_id":"6197b577821488269d6f7ef6","condition":"contingent","relevant_dimensions":["wings","legs"],"bee_group":{"antennae":"X","wings":"1","pattern":"X","legs":"M"},"bonus":1.0200000000000011},{"rt":5867,"stimulus":"bees-with-color/bee-A1DM.svg","response":0,"trial_type":"image-button-response","trial_index":146,"time_elapsed":2265874,"internal_node_id":"0.0-6.0-0.6","subject_id":"61628cdf703ff9e9eb7b61f6","study_id":"6197b3f67c2b5cd3b6d9596a","session_id":"6197b577821488269d6f7ef6","condition":"contingent","relevant_dimensions":["wings","legs"],"bee_group":{"antennae":"X","wings":"1","pattern":"X","legs":"M"},"bonus":1.0200000000000011},{"rt":7964,"stimulus":"bees-with-color/bee-B1SM.svg","response":1,"trial_type":"image-button-response","trial_index":147,"time_elapsed":2273842,"internal_node_id":"0.0-6.0-0.7","subject_id":"61628cdf703ff9e9eb7b61f6","study_id":"6197b3f67c2b5cd3b6d9596a","session_id":"6197b577821488269d6f7ef6","condition":"contingent","relevant_dimensions":["wings","legs"],"bee_group":{"antennae":"X","wings":"1","pattern":"X","legs":"M"},"bonus":1.0200000000000011},{"rt":20084,"stimulus":"bees-with-color/bee-B2DM.svg","response":0,"trial_type":"image-button-response","trial_index":148,"time_elapsed":2293931,"internal_node_id":"0.0-6.0-0.8","subject_id":"61628cdf703ff9e9eb7b61f6","study_id":"6197b3f67c2b5cd3b6d9596a","session_id":"6197b577821488269d6f7ef6","condition":"contingent","relevant_dimensions":["wings","legs"],"bee_group":{"antennae":"X","wings":"1","pattern":"X","legs":"M"},"bonus":1.0200000000000011},{"rt":7545,"stimulus":"bees-with-color/bee-A2SF.svg","response":0,"trial_type":"image-button-response","trial_index":149,"time_elapsed":2301482,"internal_node_id":"0.0-6.0-0.9","subject_id":"61628cdf703ff9e9eb7b61f6","study_id":"6197b3f67c2b5cd3b6d9596a","session_id":"6197b577821488269d6f7ef6","condition":"contingent","relevant_dimensions":["wings","legs"],"bee_group":{"antennae":"X","wings":"1","pattern":"X","legs":"M"},"bonus":1.0200000000000011},{"rt":6356,"stimulus":"bees-with-color/bee-A1SF.svg","response":0,"trial_type":"image-button-response","trial_index":150,"time_elapsed":2307841,"internal_node_id":"0.0-6.0-0.10","subject_id":"61628cdf703ff9e9eb7b61f6","study_id":"6197b3f67c2b5cd3b6d9596a","session_id":"6197b577821488269d6f7ef6","condition":"contingent","relevant_dimensions":["wings","legs"],"bee_group":{"antennae":"X","wings":"1","pattern":"X","legs":"M"},"bonus":1.0200000000000011},{"rt":30812,"stimulus":"bees-with-color/bee-A2DM.svg","response":0,"trial_type":"image-button-response","trial_index":151,"time_elapsed":2338658,"internal_node_id":"0.0-6.0-0.11","subject_id":"61628cdf703ff9e9eb7b61f6","study_id":"6197b3f67c2b5cd3b6d9596a","session_id":"6197b577821488269d6f7ef6","condition":"contingent","relevant_dimensions":["wings","legs"],"bee_group":{"antennae":"X","wings":"1","pattern":"X","legs":"M"},"bonus":1.0200000000000011},{"rt":20202,"stimulus":"bees-with-color/bee-A2SM.svg","response":1,"trial_type":"image-button-response","trial_index":152,"time_elapsed":2358865,"internal_node_id":"0.0-6.0-0.12","subject_id":"61628cdf703ff9e9eb7b61f6","study_id":"6197b3f67c2b5cd3b6d9596a","session_id":"6197b577821488269d6f7ef6","condition":"contingent","relevant_dimensions":["wings","legs"],"bee_group":{"antennae":"X","wings":"1","pattern":"X","legs":"M"},"bonus":1.0200000000000011},{"rt":14363,"stimulus":"bees-with-color/bee-B2SM.svg","response":0,"trial_type":"image-button-response","trial_index":153,"time_elapsed":2373234,"internal_node_id":"0.0-6.0-0.13","subject_id":"61628cdf703ff9e9eb7b61f6","study_id":"6197b3f67c2b5cd3b6d9596a","session_id":"6197b577821488269d6f7ef6","condition":"contingent","relevant_dimensions":["wings","legs"],"bee_group":{"antennae":"X","wings":"1","pattern":"X","legs":"M"},"bonus":1.0200000000000011},{"rt":6412,"stimulus":"bees-with-color/bee-B1DM.svg","response":1,"trial_type":"image-button-response","trial_index":154,"time_elapsed":2379649,"internal_node_id":"0.0-6.0-0.14","subject_id":"61628cdf703ff9e9eb7b61f6","study_id":"6197b3f67c2b5cd3b6d9596a","session_id":"6197b577821488269d6f7ef6","condition":"contingent","relevant_dimensions":["wings","legs"],"bee_group":{"antennae":"X","wings":"1","pattern":"X","legs":"M"},"bonus":1.0200000000000011},{"rt":12596,"stimulus":"bees-with-color/bee-A1SM.svg","response":1,"trial_type":"image-button-response","trial_index":155,"time_elapsed":2392250,"internal_node_id":"0.0-6.0-0.15","subject_id":"61628cdf703ff9e9eb7b61f6","study_id":"6197b3f67c2b5cd3b6d9596a","session_id":"6197b577821488269d6f7ef6","condition":"contingent","relevant_dimensions":["wings","legs"],"bee_group":{"antennae":"X","wings":"1","pattern":"X","legs":"M"},"bonus":1.0200000000000011},{"rt":5508,"stimulus":"bees-with-color/bee-B1DF.svg","response":0,"trial_type":"image-button-response","trial_index":156,"time_elapsed":2397761,"internal_node_id":"0.0-6.0-0.16","subject_id":"61628cdf703ff9e9eb7b61f6","study_id":"6197b3f67c2b5cd3b6d9596a","session_id":"6197b577821488269d6f7ef6","condition":"contingent","relevant_dimensions":["wings","legs"],"bee_group":{"antennae":"X","wings":"1","pattern":"X","legs":"M"},"bonus":1.0200000000000011},{"rt":16244,"stimulus":"bees-with-color/bee-A1SM.svg","response":1,"trial_type":"image-button-response","trial_index":157,"time_elapsed":2414009,"internal_node_id":"0.0-6.0-0.17","subject_id":"61628cdf703ff9e9eb7b61f6","study_id":"6197b3f67c2b5cd3b6d9596a","session_id":"6197b577821488269d6f7ef6","condition":"contingent","relevant_dimensions":["wings","legs"],"bee_group":{"antennae":"X","wings":"1","pattern":"X","legs":"M"},"bonus":1.0200000000000011},{"rt":6507,"stimulus":"bees-with-color/bee-B2SF.svg","response":0,"trial_type":"image-button-response","trial_index":158,"time_elapsed":2420521,"internal_node_id":"0.0-6.0-0.18","subject_id":"61628cdf703ff9e9eb7b61f6","study_id":"6197b3f67c2b5cd3b6d9596a","session_id":"6197b577821488269d6f7ef6","condition":"contingent","relevant_dimensions":["wings","legs"],"bee_group":{"antennae":"X","wings":"1","pattern":"X","legs":"M"},"bonus":1.0200000000000011},{"rt":8285,"stimulus":"bees-with-color/bee-B1DM.svg","response":1,"trial_type":"image-button-response","trial_index":159,"time_elapsed":2428809,"internal_node_id":"0.0-6.0-0.19","subject_id":"61628cdf703ff9e9eb7b61f6","study_id":"6197b3f67c2b5cd3b6d9596a","session_id":"6197b577821488269d6f7ef6","condition":"contingent","relevant_dimensions":["wings","legs"],"bee_group":{"antennae":"X","wings":"1","pattern":"X","legs":"M"},"bonus":1.0200000000000011},{"rt":25987,"stimulus":"bees-with-color/bee-A2SM.svg","response":1,"trial_type":"image-button-response","trial_index":160,"time_elapsed":2454802,"internal_node_id":"0.0-6.0-0.20","subject_id":"61628cdf703ff9e9eb7b61f6","study_id":"6197b3f67c2b5cd3b6d9596a","session_id":"6197b577821488269d6f7ef6","condition":"contingent","relevant_dimensions":["wings","legs"],"bee_group":{"antennae":"X","wings":"1","pattern":"X","legs":"M"},"bonus":1.0200000000000011},{"rt":4789,"stimulus":"bees-with-color/bee-A1SF.svg","response":0,"trial_type":"image-button-response","trial_index":161,"time_elapsed":2459595,"internal_node_id":"0.0-6.0-0.21","subject_id":"61628cdf703ff9e9eb7b61f6","study_id":"6197b3f67c2b5cd3b6d9596a","session_id":"6197b577821488269d6f7ef6","condition":"contingent","relevant_dimensions":["wings","legs"],"bee_group":{"antennae":"X","wings":"1","pattern":"X","legs":"M"},"bonus":1.0200000000000011},{"rt":10107,"stimulus":"bees-with-color/bee-A2SF.svg","response":0,"trial_type":"image-button-response","trial_index":162,"time_elapsed":2469706,"internal_node_id":"0.0-6.0-0.22","subject_id":"61628cdf703ff9e9eb7b61f6","study_id":"6197b3f67c2b5cd3b6d9596a","session_id":"6197b577821488269d6f7ef6","condition":"contingent","relevant_dimensions":["wings","legs"],"bee_group":{"antennae":"X","wings":"1","pattern":"X","legs":"M"},"bonus":1.0200000000000011},{"rt":9765,"stimulus":"bees-with-color/bee-B2DM.svg","response":0,"trial_type":"image-button-response","trial_index":163,"time_elapsed":2479474,"internal_node_id":"0.0-6.0-0.23","subject_id":"61628cdf703ff9e9eb7b61f6","study_id":"6197b3f67c2b5cd3b6d9596a","session_id":"6197b577821488269d6f7ef6","condition":"contingent","relevant_dimensions":["wings","legs"],"bee_group":{"antennae":"X","wings":"1","pattern":"X","legs":"M"},"bonus":1.0200000000000011},{"rt":13331,"stimulus":"bees-with-color/bee-A2DF.svg","response":1,"trial_type":"image-button-response","trial