[{"success":true,"trial_type":"fullscreen","trial_index":0,"time_elapsed":8212,"internal_node_id":"0.0-0.0","subject_id":"61356377bda43b654ccd65ca","study_id":"6197b3f67c2b5cd3b6d9596a","session_id":"619be31e19886dee245cca70","condition":"contingent","relevant_dimensions":["antennae","wings"],"bee_group":{"antennae":"A","wings":"2","pattern":"X","legs":"X"},"bonus":0.02},{"success":true,"timeout":false,"failed_images":[],"failed_audio":[],"failed_video":[],"trial_type":"preload","trial_index":1,"time_elapsed":9304,"internal_node_id":"0.0-1.0","subject_id":"61356377bda43b654ccd65ca","study_id":"6197b3f67c2b5cd3b6d9596a","session_id":"619be31e19886dee245cca70","condition":"contingent","relevant_dimensions":["antennae","wings"],"bee_group":{"antennae":"A","wings":"2","pattern":"X","legs":"X"},"bonus":0.02},{"rt":1576.3999999761581,"stimulus":"Welcome! Press any key to begin.","response":" ","trial_type":"html-keyboard-response","trial_index":2,"time_elapsed":10882,"internal_node_id":"0.0-2.0","subject_id":"61356377bda43b654ccd65ca","study_id":"6197b3f67c2b5cd3b6d9596a","session_id":"619be31e19886dee245cca70","condition":"contingent","relevant_dimensions":["antennae","wings"],"bee_group":{"antennae":"A","wings":"2","pattern":"X","legs":"X"},"bonus":0.02},{"view_history":[{"page_index":0,"viewing_time":3067.9000000059605},{"page_index":1,"viewing_time":8208},{"page_index":2,"viewing_time":8135.899999976158},{"page_index":3,"viewing_time":9456.40000000596},{"page_index":4,"viewing_time":8639.59999999404},{"page_index":5,"viewing_time":4404},{"page_index":6,"viewing_time":7248},{"page_index":7,"viewing_time":5923.9000000059605},{"page_index":8,"viewing_time":7416.0999999940395},{"page_index":9,"viewing_time":3780},{"page_index":10,"viewing_time":4931.800000011921},{"page_index":11,"viewing_time":12276.09999999404},{"page_index":12,"viewing_time":10835.90000000596},{"page_index":13,"viewing_time":1272.0999999940395},{"page_index":14,"viewing_time":2543.9000000059605}],"rt":98139.90000000596,"trial_type":"instructions","trial_index":3,"time_elapsed":109023,"internal_node_id":"0.0-3.0-0.0","subject_id":"61356377bda43b654ccd65ca","study_id":"6197b3f67c2b5cd3b6d9596a","session_id":"619be31e19886dee245cca70","condition":"contingent","relevant_dimensions":["antennae","wings"],"bee_group":{"antennae":"A","wings":"2","pattern":"X","legs":"X"},"bonus":0.02},{"rt":11229.800000011921,"response":{"Q0":["Two or six legs","Stripes or spots on body","Single or double wings","Antennae or no antennae"]},"question_order":[0],"trial_type":"survey-multi-select","trial_index":4,"time_elapsed":120255,"internal_node_id":"0.0-3.0-1.0","subject_id":"61356377bda43b654ccd65ca","study_id":"6197b3f67c2b5cd3b6d9596a","session_id":"619be31e19886dee245cca70","condition":"contingent","relevant_dimensions":["antennae","wings"],"bee_group":{"antennae":"A","wings":"2","pattern":"X","legs":"X"},"correct":true,"bonus":0.02},{"rt":43185.09999999404,"response":{"Q1":"No.","Q2":"Based on the four features of the bee.","Q3":"You do not learn if it was friendly or dangerous, and do not alter your bonus."},"question_order":[0,1,2],"trial_type":"survey-multi-choice","trial_index":5,"time_elapsed":163444,"internal_node_id":"0.0-3.0-2.0","subject_id":"61356377bda43b654ccd65ca","study_id":"6197b3f67c2b5cd3b6d9596a","session_id":"619be31e19886dee245cca70","condition":"contingent","relevant_dimensions":["antennae","wings"],"bee_group":{"antennae":"A","wings":"2","pattern":"X","legs":"X"},"correct":true,"bonus":0.02},{"rt":3268.0999999940395,"stimulus":"<p>Congrats, you got everything right<br>When you're ready, click the button below to continue to the experiment.</p>","response":0,"trial_type":"html-button-response","trial_index":6,"time_elapsed":166715,"internal_node_id":"0.0-3.0-3.0","subject_id":"61356377bda43b654ccd65ca","study_id":"6197b3f67c2b5cd3b6d9596a","session_id":"619be31e19886dee245cca70","condition":"contingent","relevant_dimensions":["antennae","wings"],"bee_group":{"antennae":"A","wings":"2","pattern":"X","legs":"X"},"bonus":0.02},{"rt":9454.09999999404,"stimulus":"bees-with-color/bee-A1DM.svg","response":1,"trial_type":"image-button-response","trial_index":7,"time_elapsed":176171,"internal_node_id":"0.0-4.0-0.0","subject_id":"61356377bda43b654ccd65ca","study_id":"6197b3f67c2b5cd3b6d9596a","session_id":"619be31e19886dee245cca70","condition":"contingent","relevant_dimensions":["antennae","wings"],"bee_group":{"antennae":"A","wings":"2","pattern":"X","legs":"X"},"action":"avoid","summary":"bad-avoid","bonus":0.02},{"rt":7678.0999999940395,"stimulus":"\n                    <p><b>Action: <em>avoid</em></b></p>\n                    <p>This is the bee that you just saw.</p>\n                    <img src=\"bees-with-color/bee-A1DM.svg\" width=\"200\">\n                    <p><br>Your bonus pay is unchanged, and remains at $0.54.</p>\n            ","response":0,"trial_type":"html-button-response","trial_index":8,"time_elapsed":183851,"internal_node_id":"0.0-4.0-1.0","subject_id":"61356377bda43b654ccd65ca","study_id":"6197b3f67c2b5cd3b6d9596a","session_id":"619be31e19886dee245cca70","condition":"contingent","relevant_dimensions":["antennae","wings"],"bee_group":{"antennae":"A","wings":"2","pattern":"X","legs":"X"},"bonus":0.02},{"rt":5554.5999999940395,"stimulus":"bees-with-color/bee-A1SF.svg","response":0,"trial_type":"image-button-response","trial_index":9,"time_elapsed":189407,"internal_node_id":"0.0-4.0-0.1","subject_id":"61356377bda43b654ccd65ca","study_id":"6197b3f67c2b5cd3b6d9596a","session_id":"619be31e19886dee245cca70","condition":"contingent","relevant_dimensions":["antennae","wings"],"bee_group":{"antennae":"A","wings":"2","pattern":"X","legs":"X"},"action":"harvest","summary":"good-harvest","bonus":0.02},{"rt":3851,"stimulus":"\n                    <p><b>Action: <em>harvest</em></b></p>\n                    <p>This is the bee that you just saw.</p>\n                    <img src=\"bees-with-color/bee-A1SF.svg\" width=\"200\">\n                    <p><span class=\"greenText\"><b>Successful harvest!</b></span><br>Your pay has increased by $0.02. Your bonus pay is now $0.56.</p>\n            ","response":0,"trial_type":"html-button-response","trial_index":10,"time_elapsed":193259,"internal_node_id":"0.0-4.0-1.1","subject_id":"61356377bda43b654ccd65ca","study_id":"6197b3f67c2b5cd3b6d9596a","session_id":"619be31e19886dee245cca70","condition":"contingent","relevant_dimensions":["antennae","wings"],"bee_group":{"antennae":"A","wings":"2","pattern":"X","legs":"X"},"bonus":0.02},{"rt":4282.5,"stimulus":"bees-with-color/bee-B1SF.svg","response":1,"trial_type":"image-button-response","trial_index":11,"time_elapsed":197543,"internal_node_id":"0.0-4.0-0.2","subject_id":"61356377bda43b654ccd65ca","study_id":"6197b3f67c2b5cd3b6d9596a","session_id":"619be31e19886dee245cca70","condition":"contingent","relevant_dimensions":["antennae","wings"],"bee_group":{"antennae":"A","wings":"2","pattern":"X","legs":"X"},"action":"avoid","summary":"bad-avoid","bonus":0.02},{"rt":1775.0999999940395,"stimulus":"\n                    <p><b>Action: <em>avoid</em></b></p>\n                    <p>This is the bee that you just saw.</p>\n                    <img src=\"bees-with-color/bee-B1SF.svg\" width=\"200\">\n                    <p><br>Your bonus pay is unchanged, and remains at $0.56.</p>\n            ","response":0,"trial_type":"html-button-response","trial_index":12,"time_elapsed":199319,"internal_node_id":"0.0-4.0-1.2","subject_id":"61356377bda43b654ccd65ca","study_id":"6197b3f67c2b5cd3b6d9596a","session_id":"619be31e19886dee245cca70","condition":"contingent","relevant_dimensions":["antennae","wings"],"bee_group":{"antennae":"A","wings":"2","pattern":"X","legs":"X"},"bonus":0.02},{"rt":6178.9000000059605,"stimulus":"bees-with-color/bee-B1DF.svg","response":1,"trial_type":"image-button-response","trial_index":13,"time_elapsed":205499,"internal_node_id":"0.0-4.0-0.3","subject_id":"61356377bda43b654ccd65ca","study_id":"6197b3f67c2b5cd3b6d9596a","session_id":"619be31e19886dee245cca70","condition":"contingent","relevant_dimensions":["antennae","wings"],"bee_group":{"antennae":"A","wings":"2","pattern":"X","legs":"X"},"action":"avoid","summary":"bad-avoid","bonus":0.02},{"rt":995.2000000178814,"stimulus":"\n                    <p><b>Action: <em>avoid</em></b></p>\n                    <p>This is the bee that you just saw.</p>\n                    <img src=\"bees-with-color/bee-B1DF.svg\" width=\"200\">\n                    <p><br>Your bonus pay is unchanged, and remains at $0.56.</p>\n            ","response":0,"trial_type":"html-button-response","trial_index":14,"time_elapsed":206495,"internal_node_id":"0.0-4.0-1.3","subject_id":"61356377bda43b654ccd65ca","study_id":"6197b3f67c2b5cd3b6d9596a","session_id":"619be31e19886dee245cca70","condition":"contingent","relevant_dimensions":["antennae","wings"],"bee_group":{"antennae":"A","wings":"2","pattern":"X","legs":"X"},"bonus":0.02},{"rt":7390.9000000059605,"stimulus":"bees-with-color/bee-A2SM.svg","response":1,"trial_type":"image-button-response","trial_index":15,"time_elapsed":213887,"internal_node_id":"0.0-4.0-0.4","subject_id":"61356377bda43b654ccd65ca","study_id":"6197b3f67c2b5cd3b6d9596a","session_id":"619be31e19886dee245cca70","condition":"contingent","relevant_dimensions":["antennae","wings"],"bee_group":{"antennae":"A","wings":"2","pattern":"X","legs":"X"},"action":"avoid","summary":"good-avoid","bonus":0.02},{"rt":1594.9000000059605,"stimulus":"\n                    <p><b>Action: <em>avoid</em></b></p>\n                    <p>This is the bee that you just saw.</p>\n                    <img src=\"bees-with-color/bee-A2SM.svg\" width=\"200\">\n                    <p><br>Your bonus pay is unchanged, and remains at $0.56.</p>\n            ","response":0,"trial_type":"html-button-response","trial_index":16,"time_elapsed":215483,"internal_node_id":"0.0-4.0-1.4","subject_id":"61356377bda43b654ccd65ca","study_id":"6197b3f67c2b5cd3b6d9596a","session_id":"619be31e19886dee245cca70","condition":"contingent","relevant_dimensions":["antennae","wings"],"bee_group":{"antennae":"A","wings":"2","pattern":"X","legs":"X"},"bonus":0.02},{"rt":6394.800000011921,"stimulus":"bees-with-color/bee-A2DF.svg","response":0,"trial_type":"image-button-response","trial_index":17,"time_elapsed":221879,"internal_node_id":"0.0-4.0-0.5","subject_id":"61356377bda43b654ccd65ca","study_id":"6197b3f67c2b5cd3b6d9596a","session_id":"619be31e19886dee245cca70","condition":"contingent","relevant_dimensions":["antennae","wings"],"bee_group":{"antennae":"A","wings":"2","pattern":"X","legs":"X"},"action":"harvest","summary":"bad-harvest","bonus":0.02},{"rt":3671.100000023842,"stimulus":"\n                    <p><b>Action: <em>harvest</em></b></p>\n                    <p>This is the bee that you just saw.</p>\n                    <img src=\"bees-with-color/bee-A2DF.svg\" width=\"200\">\n                    <p><span class=\"redText\">Bad choice, the bee was angry.</span><br><b>You have been stung!</b><br>Your pay has been decreased by $0.10. Your bonus pay is now $0.46.</p>\n            ","response":0,"trial_type":"html-button-response","trial_index":18,"time_elapsed":225551,"internal_node_id":"0.0-4.0-1.5","subject_id":"61356377bda43b654ccd65ca","study_id":"6197b3f67c2b5cd3b6d9596a","session_id":"619be31e19886dee245cca70","condition":"contingent","relevant_dimensions":["antennae","wings"],"bee_group":{"antennae":"A","wings":"2","pattern":"X","legs":"X"},"bonus":0.02},{"rt":3070.600000023842,"stimulus":"bees-with-color/bee-B1SM.svg","response":1,"trial_type":"image-button-response","trial_index":19,"time_elapsed":228623,"internal_node_id":"0.0-4.0-0.6","subject_id":"61356377bda43b654ccd65ca","study_id":"6197b3f67c2b5cd3b6d9596a","session_id":"619be31e19886dee245cca70","condition":"contingent","relevant_dimensions":["antennae","wings"],"bee_group":{"antennae":"A","wings":"2","pattern":"X","legs":"X"},"action":"avoid","summary":"bad-avoid","bonus":0.02},{"rt":1078.7000000178814,"stimulus":"\n                    <p><b>Action: <em>avoid</em></b></p>\n                    <p>This is the bee that you just saw.</p>\n                    <img src=\"bees-with-color/bee-B1SM.svg\" width=\"200\">\n                    <p><br>Your bonus pay is unchanged, and remains at $0.46.</p>\n            ","response":0,"trial_type":"html-button-response","trial_index":20,"time_elapsed":229703,"internal_node_id":"0.0-4.0-1.6","subject_id":"61356377bda43b654ccd65ca","study_id":"6197b3f67c2b5cd3b6d9596a","session_id":"619be31e19886dee245cca70","condition":"contingent","relevant_dimensions":["antennae","wings"],"bee_group":{"antennae":"A","wings":"2","pattern":"X","legs":"X"},"bonus":0.02},{"rt":3022.7000000178814,"stimulus":"bees-with-color/bee-B2DF.svg","response":1,"trial_type":"image-button-response","trial_index":21,"time_elapsed":232727,"internal_node_id":"0.0-4.0-0.7","subject_id":"61356377bda43b654ccd65ca","study_id":"6197b3f67c2b5cd3b6d9596a","session_id":"619be31e19886dee245cca70","condition":"contingent","relevant_dimensions":["antennae","wings"],"bee_group":{"antennae":"A","wings":"2","pattern":"X","legs":"X"},"action":"avoid","summary":"bad-avoid","bonus":0.02},{"rt":911,"stimulus":"\n                    <p><b>Action: <em>avoid</em></b></p>\n                    <p>This is the bee that you just saw.</p>\n                    <img src=\"bees-with-color/bee-B2DF.svg\" width=\"200\">\n                    <p><br>Your bonus pay is unchanged, and remains at $0.46.</p>\n            ","response":0,"trial_type":"html-button-response","trial_index":22,"time_elapsed":233639,"internal_node_id":"0.0-4.0-1.7","subject_id":"61356377bda43b654ccd65ca","study_id":"6197b3f67c2b5cd3b6d9596a","session_id":"619be31e19886dee245cca70","condition":"contingent","relevant_dimensions":["antennae","wings"],"bee_group":{"antennae":"A","wings":"2","pattern":"X","legs":"X"},"bonus":0.02},{"rt":5890.600000023842,"stimulus":"bees-with-color/bee-B1DM.svg","response":1,"trial_type":"image-button-response","trial_index":23,"time_elapsed":239531,"internal_node_id":"0.0-4.0-0.8","subject_id":"61356377bda43b654ccd65ca","study_id":"6197b3f67c2b5cd3b6d9596a","session_id":"619be31e19886dee245cca70","condition":"contingent","relevant_dimensions":["antennae","wings"],"bee_group":{"antennae":"A","wings":"2","pattern":"X","legs":"X"},"action":"avoid","summary":"bad-avoid","bonus":0.02},{"rt":1247,"stimulus":"\n                    <p><b>Action: <em>avoid</em></b></p>\n                    <p>This is the bee that you just saw.</p>\n                    <img src=\"bees-with-color/bee-B1DM.svg\" width=\"200\">\n                    <p><br>Your bonus pay is unchanged, and remains at $0.46.</p>\n            ","response":0,"trial_type":"html-button-response","trial_index":24,"time_elapsed":240779,"internal_node_id":"0.0-4.0-1.8","subject_id":"61356377bda43b654ccd65ca","study_id":"6197b3f67c2b5cd3b6d9596a","session_id":"619be31e19886dee245cca70","condition":"contingent","relevant_dimensions":["antennae","wings"],"bee_group":{"antennae":"A","wings":"2","pattern":"X","legs":"X"},"bonus":0.02},{"rt":2014.9000000059605,"stimulus":"bees-with-color/bee-B2SF.svg","response":0,"trial_type":"image-button-response","trial_index":25,"time_elapsed":242795,"internal_node_id":"0.0-4.0-0.9","subject_id":"61356377bda43b654ccd65ca","study_id":"6197b3f67c2b5cd3b6d9596a","session_id":"619be31e19886dee245cca70","condition":"contingent","relevant_dimensions":["antennae","wings"],"bee_group":{"antennae":"A","wings":"2","pattern":"X","legs":"X"},"action":"harvest","summary":"good-harvest","bonus":0.02},{"rt":1607,"stimulus":"\n                    <p><b>Action: <em>harvest</em></b></p>\n                    <p>This is the bee that you just saw.</p>\n                    <img src=\"bees-with-color/bee-B2SF.svg\" width=\"200\">\n                    <p><span class=\"greenText\"><b>Successful harvest!</b></span><br>Your pay has increased by $0.02. Your bonus pay is now $0.48.</p>\n            ","response":0,"trial_type":"html-button-response","trial_index":26,"time_elapsed":244403,"internal_node_id":"0.0-4.0-1.9","subject_id":"61356377bda43b654ccd65ca","study_id":"6197b3f67c2b5cd3b6d9596a","session_id":"619be31e19886dee245cca70","condition":"contingent","relevant_dimensions":["antennae","wings"],"bee_group":{"antennae":"A","wings":"2","pattern":"X","legs":"X"},"bonus":0.02},{"rt":3862.9000000059605,"stimulus":"bees-with-color/bee-A1DF.svg","response":0,"trial_type":"image-button-response","trial_index":27,"time_elapsed":248267,"internal_node_id":"0.0-4.0-0.10","subject_id":"61356377bda43b654ccd65ca","study_id":"6197b3f67c2b5cd3b6d9596a","session_id":"619be31e19886dee245cca70","condition":"contingent","relevant_dimensions":["antennae","wings"],"bee_group":{"antennae":"A","wings":"2","pattern":"X","legs":"X"},"action":"harvest","summary":"good-harvest","bonus":0.02},{"rt":1234.800000011921,"stimulus":"\n                    <p><b>Action: <em>harvest</em></b></p>\n                    <p>This is the bee that you just saw.</p>\n                    <img src=\"bees-with-color/bee-A1DF.svg\" width=\"200\">\n                    <p><span class=\"greenText\"><b>Successful harvest!</b></span><br>Your pay has increased by $0.02. Your bonus pay is now $0.50.</p>\n            ","response":0,"trial_type":"html-button-response","trial_index":28,"time_elapsed":249503,"internal_node_id":"0.0-4.0-1.10","subject_id":"61356377bda43b654ccd65ca","study_id":"6197b3f67c2b5cd3b6d9596a","session_id":"619be31e19886dee245cca70","condition":"contingent","relevant_dimensions":["antennae","wings"],"bee_group":{"antennae":"A","wings":"2","pattern":"X","legs":"X"},"bonus":0.02},{"rt":2771,"stimulus":"bees-with-color/bee-B2DM.svg","response":1,"trial_type":"image-button-response","trial_index":29,"time_elapsed":252275,"internal_node_id":"0.0-4.0-0.11","subject_id":"61356377bda43b654ccd65ca","study_id":"6197b3f67c2b5cd3b6d9596a","session_id":"619be31e19886dee245cca70","condition":"contingent","relevant_dimensions":["antennae","wings"],"bee_group":{"antennae":"A","wings":"2","pattern":"X","legs":"X"},"action":"avoid","summary":"bad-avoid","bonus":0.02},{"rt":3154.9000000059605,"stimulus":"\n                    <p><b>Action: <em>avoid</em></b></p>\n                    <p>This is the bee that you just saw.</p>\n                    <img src=\"bees-with-color/bee-B2DM.svg\" width=\"200\">\n                    <p><br>Your bonus pay is unchanged, and remains at $0.50.</p>\n            ","response":0,"trial_type":"html-button-response","trial_index":30,"time_elapsed":255431,"internal_node_id":"0.0-4.0-1.11","subject_id":"61356377bda43b654ccd65ca","study_id":"6197b3f67c2b5cd3b6d9596a","session_id":"619be31e19886dee245cca70","condition":"contingent","relevant_dimensions":["antennae","wings"],"bee_group":{"antennae":"A","wings":"2","pattern":"X","legs":"X"},"bonus":0.02},{"rt":6131,"stimulus":"bees-with-color/bee-A1SM.svg","response":1,"trial_type":"image-button-response","trial_index":31,"time_elapsed":261563,"internal_node_id":"0.0-4.0-0.12","subject_id":"61356377bda43b654ccd65ca","study_id":"6197b3f67c2b5cd3b6d9596a","session_id":"619be31e19886dee245cca70","condition":"contingent","relevant_dimensions":["antennae","wings"],"bee_group":{"antennae":"A","wings":"2","pattern":"X","legs":"X"},"action":"avoid","summary":"bad-avoid","bonus":0.02},{"rt":646.6999999880791,"stimulus":"\n                    <p><b>Action: <em>avoid</em></b></p>\n                    <p>This is the bee that you just saw.</p>\n                    <img src=\"bees-with-color/bee-A1SM.svg\" width=\"200\">\n                    <p><br>Your bonus pay is unchanged, and remains at $0.50.</p>\n            ","response":0,"trial_type":"html-button-response","trial_index":32,"time_elapsed":262211,"internal_node_id":"0.0-4.0-1.12","subject_id":"61356377bda43b654ccd65ca","study_id":"6197b3f67c2b5cd3b6d9596a","session_id":"619be31e19886dee245cca70","condition":"contingent","relevant_dimensions":["antennae","wings"],"bee_group":{"antennae":"A","wings":"2","pattern":"X","legs":"X"},"bonus":0.02},{"rt":1690.699999988079,"stimulus":"bees-with-color/bee-A2SF.svg","response":0,"trial_type":"image-button-response","trial_index":33,"time_elapsed":263903,"internal_node_id":"0.0-4.0-0.13","subject_id":"61356377bda43b654ccd65ca","study_id":"6197b3f67c2b5cd3b6d9596a","session_id":"619be31e19886dee245cca70","condition":"contingent","relevant_dimensions":["antennae","wings"],"bee_group":{"antennae":"A","wings":"2","pattern":"X","legs":"X"},"action":"harvest","summary":"bad-harvest","bonus":0.02},{"rt":718.9000000059605,"stimulus":"\n                    <p><b>Action: <em>harvest</em></b></p>\n                    <p>This is the bee that you just saw.</p>\n                    <img src=\"bees-with-color/bee-A2SF.svg\" width=\"200\">\n                    <p><span class=\"redText\">Bad choice, the bee was angry.</span><br><b>You have been stung!</b><br>Your pay has been decreased by $0.10. Your bonus pay is now $0.40.</p>\n            ","response":0,"trial_type":"html-button-response","trial_index":34,"time_elapsed":264622,"internal_node_id":"0.0-4.0-1.13","subject_id":"61356377bda43b654ccd65ca","study_id":"6197b3f67c2b5cd3b6d9596a","session_id":"619be31e19886dee245cca70","condition":"contingent","relevant_dimensions":["antennae","wings"],"bee_group":{"antennae":"A","wings":"2","pattern":"X","legs":"X"},"bonus":0.02},{"rt":515.1000000238419,"stimulus":"bees-with-color/bee-A2DM.svg","response":1,"trial_type":"image-button-response","trial_index":35,"time_elapsed":265139,"internal_node_id":"0.0-4.0-0.14","subject_id":"61356377bda43b654ccd65ca","study_id":"6197b3f67c2b5cd3b6d9596a","session_id":"619be31e19886dee245cca70","condition":"contingent","relevant_dimensions":["antennae","wings"],"bee_group":{"antennae":"A","wings":"2","pattern":"X","legs":"X"},"action":"avoid","summary":"good-avoid","bonus":0.02},{"rt":1331,"stimulus":"\n                    <p><b>Action: <em>avoid</em></b></p>\n                    <p>This is the bee that you just saw.</p>\n                    <img src=\"bees-with-color/bee-A2DM.svg\" width=\"200\">\n                    <p><br>Your bonus pay is unchanged, and remains at $0.40.</p>\n            ","response":0,"trial_type":"html-button-response","trial_index":36,"time_elapsed":266470,"internal_node_id":"0.0-4.0-1.14","subject_id":"61356377bda43b654ccd65ca","study_id":"6197b3f67c2b5cd3b6d9596a","session_id":"619be31e19886dee245cca70","condition":"contingent","relevant_dimensions":["antennae","wings"],"bee_group":{"antennae":"A","wings":"2","pattern":"X","legs":"X"},"bonus":0.02},{"rt":1363.2999999821186,"stimulus":"bees-with-color/bee-B2SM.svg","response":1,"trial_type":"image-button-response","trial_index":37,"time_elapsed":267834,"internal_node_id":"0.0-4.0-0.15","subject_id":"61356377bda43b654ccd65ca","study_id":"6197b3f67c2b5cd3b6d9596a","session_id":"619be31e19886dee245cca70","condition":"contingent","relevant_dimensions":["antennae","wings"],"bee_group":{"antennae":"A","wings":"2","pattern":"X","legs":"X"},"action":"avoid","summary":"bad-avoid","bonus":0.02},{"rt":443.19999998807907,"stimulus":"\n                    <p><b>Action: <em>avoid</em></b></p>\n                    <p>This is the bee that you just saw.</p>\n                    <img src=\"bees-with-color/bee-B2SM.svg\" width=\"200\">\n                    <p><br>Your bonus pay is unchanged, and remains at $0.40.</p>\n            ","response":0,"trial_type":"html-button-response","trial_index":38,"time_elapsed":268278,"internal_node_id":"0.0-4.0-1.15","subject_id":"61356377bda43b654ccd65ca","study_id":"6197b3f67c2b5cd3b6d9596a","session_id":"619be31e19886dee245cca70","condition":"contingent","relevant_dimensions":["antennae","wings"],"bee_group":{"antennae":"A","wings":"2","pattern":"X","legs":"X"},"bonus":0.02},{"rt":2351.2999999821186,"stimulus":"bees-with-color/bee-A2DF.svg","response":0,"trial_type":"image-button-response","trial_index":39,"time_elapsed":270630,"internal_node_id":"0.0-4.0-0.16","subject_id":"61356377bda43b654ccd65ca","study_id":"6197b3f67c2b5cd3b6d9596a","session_id":"619be31e19886dee245cca70","condition":"contingent","relevant_dimensions":["antennae","wings"],"bee_group":{"antennae":"A","wings":"2","pattern":"X","legs":"X"},"action":"harvest","summary":"bad-harvest","bonus":0.02},{"rt":627.5,"stimulus":"\n                    <p><b>Action: <em>harvest</em></b></p>\n                    <p>This is the bee that you just saw.</p>\n                    <img src=\"bees-with-color/bee-A2DF.svg\" width=\"200\">\n                    <p><span class=\"redText\">Bad choice, the bee was angry.</span><br><b>You have been stung!</b><br>Your pay has been decreased by $0.10. Your bonus pay is now $0.30.</p>\n            ","response":0,"trial_type":"html-button-response","trial_index":40,"time_elapsed":271259,"internal_node_id":"0.0-4.0-1.16","subject_id":"61356377bda43b654ccd65ca","study_id":"6197b3f67c2b5cd3b6d9596a","session_id":"619be31e19886dee245cca70","condition":"contingent","relevant_dimensions":["antennae","wings"],"bee_group":{"antennae":"A","wings":"2","pattern":"X","legs":"X"},"bonus":0.02},{"rt":475,"stimulus":"bees-with-color/bee-B2DM.svg","response":1,"trial_type":"image-button-response","trial_index":41,"time_elapsed":271734,"internal_node_id":"0.0-4.0-0.17","subject_id":"61356377bda43b654ccd65ca","study_id":"6197b3f67c2b5cd3b6d9596a","session_id":"619be31e19886dee245cca70","condition":"contingent","relevant_dimensions":["antennae","wings"],"bee_group":{"antennae":"A","wings":"2","pattern":"X","legs":"X"},"action":"avoid","summary":"bad-avoid","bonus":0.02},{"rt":1151.2000000178814,"stimulus":"\n                    <p><b>Action: <em>avoid</em></b></p>\n                    <p>This is the bee that you just saw.</p>\n                    <img src=\"bees-with-color/bee-B2DM.svg\" width=\"200\">\n                    <p><br>Your bonus pay is unchanged, and remains at $0.30.</p>\n            ","response":0,"trial_type":"html-button-response","trial_index":42,"time_elapsed":272886,"internal_node_id":"0.0-4.0-1.17","subject_id":"61356377bda43b654ccd65ca","study_id":"6197b3f67c2b5cd3b6d9596a","session_id":"619be31e19886dee245cca70","condition":"contingent","relevant_dimensions":["antennae","wings"],"bee_group":{"antennae":"A","wings":"2","pattern":"X","legs":"X"},"bonus":0.02},{"rt":1379.199999988079,"stimulus":"bees-with-color/bee-B2SF.svg","response":0,"trial_type":"image-button-response","trial_index":43,"time_elapsed":274266,"internal_node_id":"0.0-4.0-0.18","subject_id":"61356377bda43b654ccd65ca","study_id":"6197b3f67c2b5cd3b6d9596a","session_id":"619be31e19886dee245cca70","condition":"contingent","relevant_dimensions":["antennae","wings"],"bee_group":{"antennae":"A","wings":"2","pattern":"X","legs":"X"},"action":"harvest","summary":"good-harvest","bonus":0.02},{"rt":635.1999999880791,"stimulus":"\n                    <p><b>Action: <em>harvest</em></b></p>\n                    <p>This is the bee that you just saw.</p>\n                    <img src=\"bees-with-color/bee-B2SF.svg\" width=\"200\">\n                    <p><span class=\"greenText\"><b>Successful harvest!</b></span><br>Your pay has increased by $0.02. Your bonus pay is now $0.32.</p>\n            ","response":0,"trial_type":"html-button-response","trial_index":44,"time_elapsed":274902,"internal_node_id":"0.0-4.0-1.18","subject_id":"61356377bda43b654ccd65ca","study_id":"6197b3f67c2b5cd3b6d9596a","session_id":"619be31e19886dee245cca70","condition":"contingent","relevant_dimensions":["antennae","wings"],"bee_group":{"antennae":"A","wings":"2","pattern":"X","legs":"X"},"bonus":0.02},{"rt":623.1999999880791,"stimulus":"bees-with-color/bee-A1DF.svg","response":1,"trial_type":"image-button-response","trial_index":45,"time_elapsed":275527,"internal_node_id":"0.0-4.0-0.19","subject_id":"61356377bda43b654ccd65ca","study_id":"6197b3f67c2b5cd3b6d9596a","session_id":"619be31e19886dee245cca70","condition":"contingent","relevant_dimensions":["antennae","wings"],"bee_group":{"antennae":"A","wings":"2","pattern":"X","legs":"X"},"action":"avoid","summary":"bad-avoid","bonus":0.02},{"rt":2026.7999999821186,"stimulus":"\n                    <p><b>Action: <em>avoid</em></b></p>\n                    <p>This is the bee that you just saw.</p>\n                    <img src=\"bees-with-color/bee-A1DF.svg\" width=\"200\">\n                    <p><br>Your bonus pay is unchanged, and remains at $0.32.</p>\n            ","response":0,"trial_type":"html-button-response","trial_index":46,"time_elapsed":277554,"internal_node_id":"0.0-4.0-1.19","subject_id":"61356377bda43b654ccd65ca","study_id":"6197b3f67c2b5cd3b6d9596a","session_id":"619be31e19886dee245cca70","condition":"contingent","relevant_dimensions":["antennae","wings"],"bee_group":{"antennae":"A","wings":"2","pattern":"X","legs":"X"},"bonus":0.02},{"rt":1055,"stimulus":"bees-with-color/bee-B1SM.svg","response":1,"trial_type":"image-button-response","trial_index":47,"time_elapsed":278610,"internal_node_id":"0.0-4.0-0.20","subject_id":"61356377bda43b654ccd65ca","study_id":"6197b3f67c2b5cd3b6d9596a","session_id":"619be31e19886dee245cca70","condition":"contingent","relevant_dimensions":["antennae","wings"],"bee_group":{"antennae":"A","wings":"2","pattern":"X","legs":"X"},"action":"avoid","summary":"bad-avoid","bonus":0.02},{"rt":600,"stimulus":"\n                    <p><b>Action: <em>avoid</em></b></p>\n                    <p>This is the bee that you just saw.</p>\n                    <img src=\"bees-with-color/bee-B1SM.svg\" width=\"200\">\n                    <p><br>Your bonus pay is unchanged, and remains at $0.32.</p>\n            ","response":0,"trial_type":"html-button-response","trial_index":48,"time_elapsed":279211,"internal_node_id":"0.0-4.0-1.20","subject_id":"61356377bda43b654ccd65ca","study_id":"6197b3f67c2b5cd3b6d9596a","session_id":"619be31e19886dee245cca70","condition":"contingent","relevant_dimensions":["antennae","wings"],"bee_group":{"antennae":"A","wings":"2","pattern":"X","legs":"X"},"bonus":0.02},{"rt":910.2999999821186,"stimulus":"bees-with-color/bee-A1SF.svg","response":0,"trial_type":"image-button-response","trial_index":49,"time_elapsed":280122,"internal_node_id":"0.0-4.0-0.21","subject_id":"61356377bda43b654ccd65ca","study_id":"6197b3f67c2b5cd3b6d9596a","session_id":"619be31e19886dee245cca70","condition":"contingent","relevant_dimensions":["antennae","wings"],"bee_group":{"antennae":"A","wings":"2","pattern":"X","legs":"X"},"action":"harvest","summary":"good-harvest","bonus":0.02},{"rt":707.4000000059605,"stimulus":"\n                    <p><b>Action: <em>harvest</em></b></p>\n                    <p>This is the bee that you just saw.</p>\n                    <img src=\"bees-with-color/bee-A1SF.svg\" width=\"200\">\n                    <p><span class=\"greenText\"><b>Successful harvest!</b></span><br>Your pay has increased by $0.02. Your bonus pay is now $0.34.</p>\n            ","response":0,"trial_type":"html-button-response","trial_index":50,"time_elapsed":280831,"internal_node_id":"0.0-4.0-1.21","subject_id":"61356377bda43b654ccd65ca","study_id":"6197b3f67c2b5cd3b6d9596a","session_id":"619be31e19886dee245cca70","condition":"contingent","relevant_dimensions":["antennae","wings"],"bee_group":{"antennae":"A","wings":"2","pattern":"X","legs":"X"},"bonus":0.02},{"rt":5578.899999976158,"stimulus":"bees-with-color/bee-B1DM.svg","response":1,"trial_type":"image-button-response","trial_index":51,"time_elapsed":286411,"internal_node_id":"0.0-4.0-0.22","subject_id":"61356377bda43b654ccd65ca","study_id":"6197b3f67c2b5cd3b6d9596a","session_id":"619be31e19886dee245cca70","condition":"contingent","relevant_dimensions":["antennae","wings"],"bee_group":{"antennae":"A","wings":"2","pattern":"X","legs":"X"},"action":"avoid","summary":"bad-avoid","bonus":0.02},{"rt":682.9000000059605,"stimulus":"\n                    <p><b>Action: <em>avoid</em></b></p>\n                    <p>This is the bee that you just saw.</p>\n                    <img src=\"bees-with-color/bee-B1DM.svg\" width=\"200\">\n                    <p><br>Your bonus pay is unchanged, and remains at $0.34.</p>\n            ","response":0,"trial_type":"html-button-response","trial_index":52,"time_elapsed":287094,"internal_node_id":"0.0-4.0-1.22","subject_id":"61356377bda43b654ccd65ca","study_id":"6197b3f67c2b5cd3b6d9596a","session_id":"619be31e19886dee245cca70","condition":"contingent","relevant_dimensions":["antennae","wings"],"bee_group":{"antennae":"A","wings":"2","pattern":"X","legs":"X"},"bonus":0.02},{"rt":1151,"stimulus":"bees-with-color/bee-A2SF.svg","response":0,"trial_type":"image-button-response","trial_index":53,"time_elapsed":288246,"internal_node_id":"0.0-4.0-0.23","subject_id":"61356377bda43b654ccd65ca","study_id":"6197b3f67c2b5cd3b6d9596a","session_id":"619be31e19886dee245cca70","condition":"contingent","relevant_dimensions":["antennae","wings"],"bee_group":{"antennae":"A","wings":"2","pattern":"X","legs":"X"},"action":"harvest","summary":"bad-harvest","bonus":0.02},{"rt":695.0999999940395,"stimulus":"\n                    <p><b>Action: <em>harvest</em></b></p>\n                    <p>This is the bee that you just saw.</p>\n                    <img src=\"bees-with-color/bee-A2SF.svg\" width=\"200\">\n                    <p><span class=\"redText\">Bad choice, the bee was angry.</span><br><b>You have been stung!</b><br>Your pay has been decreased by $0.10. Your bonus pay is now $0.24.</p>\n            ","response":0,"trial_type":"html-button-response","trial_index":54,"time_elapsed":288942,"internal_node_id":"0.0-4.0-1.23","subject_id":"61356377bda43b654ccd65ca","study_id":"6197b3f67c2b5cd3b6d9596a","session_id":"619be31e19886dee245cca70","condition":"contingent","relevant_dimensions":["antennae","wings"],"bee_group":{"antennae":"A","wings":"2","pattern":"X","legs":"X"},"bonus":0.02},{"rt":1463.199999988079,"stimulus":"bees-with-color/bee-A1SM.svg","response":1,"trial_type":"image-button-response","trial_index":55,"time_elapsed":290407,"internal_node_id":"0.0-4.0-0.24","subject_id":"61356377bda43b654ccd65ca","study_id":"6197b3f67c2b5cd3b6d9596a","session_id":"619be31e19886dee245cca70","condition":"contingent","relevant_dimensions":["antennae","wings"],"bee_group":{"antennae":"A","wings":"2","pattern":"X","legs":"X"},"action":"avoid","summary":"bad-avoid","bonus":0.02},{"rt":814.8999999761581,"stimulus":"\n                    <p><b>Action: <em>avoid</em></b></p>\n                    <p>This is the bee that you just saw.</p>\n                    <img src=\"bees-with-color/bee-A1SM.svg\" width=\"200\">\n                    <p><br>Your bonus pay is unchanged, and remains at $0.24.</p>\n            ","response":0,"trial_type":"html-button-response","trial_index":56,"time_elapsed":291223,"internal_node_id":"0.0-4.0-1.24","subject_id":"61356377bda43b654ccd65ca","study_id":"6197b3f67c2b5cd3b6d9596a","session_id":"619be31e19886dee245cca70","condition":"contingent","relevant_dimensions":["antennae","wings"],"bee_group":{"antennae":"A","wings":"2","pattern":"X","legs":"X"},"bonus":0.02},{"rt":13463.09999999404,"stimulus":"bees-with-color/bee-A2DM.svg","response":1,"trial_type":"image-button-response","trial_index":57,"time_elapsed":304687,"internal_node_id":"0.0-4.0-0.25","subject_id":"61356377bda43b654ccd65ca","study_id":"6197b3f67c2b5cd3b6d9596a","session_id":"619be31e19886dee245cca70","condition":"contingent","relevant_dimensions":["antennae","wings"],"bee_group":{"antennae":"A","wings":"2","pattern":"X","legs":"X"},"action":"avoid","summary":"good-avoid","bonus":0.02},{"rt":1018.9000000059605,"stimulus":"\n                    <p><b>Action: <em>avoid</em></b></p>\n                    <p>This is the bee that you just saw.</p>\n                    <img src=\"bees-with-color/bee-A2DM.svg\" width=\"200\">\n                    <p><br>Your bonus pay is unchanged, and remains at $0.24.</p>\n            ","response":0,"trial_type":"html-button-response","trial_index":58,"time_elapsed":305707,"internal_node_id":"0.0-4.0-1.25","subject_id":"61356377bda43b654ccd65ca","study_id":"6197b3f67c2b5cd3b6d9596a","session_id":"619be31e19886dee245cca70","condition":"contingent","relevant_dimensions":["antennae","wings"],"bee_group":{"antennae":"A","wings":"2","pattern":"X","legs":"X"},"bonus":0.02},{"rt":1546.5,"stimulus":"bees-with-color/bee-B1DF.svg","response":0,"trial_type":"image-button-response","trial_index":59,"time_elapsed":307255,"internal_node_id":"0.0-4.0-0.26","subject_id":"61356377bda43b654ccd65ca","study_id":"6197b3f67c2b5cd3b6d9596a","session_id":"619be31e19886dee245cca70","condition":"contingent","relevant_dimensions":["antennae","wings"],"bee_group":{"antennae":"A","wings":"2","pattern":"X","legs":"X"},"action":"harvest","summary":"good-harvest","bonus":0.02},{"rt":850.3999999761581,"stimulus":"\n                    <p><b>Action: <em>harvest</em></b></p>\n                    <p>This is the bee that you just saw.</p>\n                    <img src=\"bees-with-color/bee-B1DF.svg\" width=\"200\">\n                    <p><span class=\"greenText\"><b>Successful harvest!</b></span><br>Your pay has increased by $0.02. Your bonus pay is now $0.26.</p>\n            ","response":0,"trial_type":"html-button-response","trial_index":60,"time_elapsed":308107,"internal_node_id":"0.0-4.0-1.26","subject_id":"61356377bda43b654ccd65ca","study_id":"6197b3f67c2b5cd3b6d9596a","session_id":"619be31e19886dee245cca70","condition":"contingent","relevant_dimensions":["antennae","wings"],"bee_group":{"antennae":"A","wings":"2","pattern":"X","legs":"X"},"bonus":0.02},{"rt":1210.800000011921,"stimulus":"bees-with-color/bee-B1SF.svg","response":0,"trial_type":"image-button-response","trial_index":61,"time_elapsed":309319,"internal_node_id":"0.0-4.0-0.27","subject_id":"61356377bda43b654ccd65ca","study_id":"6197b3f67c2b5cd3b6d9596a","session_id":"619be31e19886dee245cca70","condition":"contingent","relevant_dimensions":["antennae","wings"],"bee_group":{"antennae":"A","wings":"2","pattern":"X","legs":"X"},"action":"harvest","summary":"good-harvest","bonus":0.02},{"rt":515.7000000178814,"stimulus":"\n                    <p><b>Action: <em>harvest</em></b></p>\n                    <p>This is the bee that you just saw.</p>\n                    <img src=\"bees-with-color/bee-B1SF.svg\" width=\"200\">\n                    <p><span class=\"greenText\"><b>Successful harvest!</b></span><br>Your pay has increased by $0.02. Your bonus pay is now $0.28.</p>\n            ","response":0,"trial_type":"html-button-response","trial_index":62,"time_elapsed":309836,"internal_node_id":"0.0-4.0-1.27","subject_id":"61356377bda43b654ccd65ca","study_id":"6197b3f67c2b5cd3b6d9596a","session_id":"619be31e19886dee245cca70","condition":"contingent","relevant_dimensions":["antennae","wings"],"bee_group":{"antennae":"A","wings":"2","pattern":"X","legs":"X"},"bonus":0.02},{"rt":1210.5,"stimulus":"bees-with-color/bee-A2SM.svg","response":1,"trial_type":"image-button-response","trial_index":63,"time_elapsed":311047,"internal_node_id":"0.0-4.0-0.28","subject_id":"61356377bda43b654ccd65ca","study_id":"6197b3f67c2b5cd3b6d9596a","session_id":"619be31e19886dee245cca70","condition":"contingent","relevant_dimensions":["antennae","wings"],"bee_group":{"antennae":"A","wings":"2","pattern":"X","legs":"X"},"action":"avoid","summary":"good-avoid","bonus":0.02},{"rt":550.9000000059605,"stimulus":"\n                    <p><b>Action: <em>avoid</em></b></p>\n                    <p>This is the bee that you just saw.</p>\n                    <img src=\"bees-with-color/bee-A2SM.svg\" width=\"200\">\n                    <p><br>Your bonus pay is unchanged, and remains at $0.28.</p>\n            ","response":0,"trial_type":"html-button-response","trial_index":64,"time_elapsed":311599,"internal_node_id":"0.0-4.0-1.28","subject_id":"61356377bda43b654ccd65ca","study_id":"6197b3f67c2b5cd3b6d9596a","session_id":"619be31e19886dee245cca70","condition":"contingent","relevant_dimensions":["antennae","wings"],"bee_group":{"antennae":"A","wings":"2","pattern":"X","legs":"X"},"bonus":0.02},{"rt":3443.4000000059605,"stimulus":"bees-with-color/bee-B2SM.svg","response":1,"trial_type":"image-button-response","trial_index":65,"time_elapsed":315043,"internal_node_id":"0.0-4.0-0.29","subject_id":"61356377bda43b654ccd65ca","study_id":"6197b3f67c2b5cd3b6d9596a","session_id":"619be31e19886dee245cca70","condition":"contingent","relevant_dimensions":["antennae","wings"],"bee_group":{"antennae":"A","wings":"2","pattern":"X","legs":"X"},"action":"avoid","summary":"bad-avoid","bonus":0.02},{"rt":611.1999999880791,"stimulus":"\n                    <p><b>Action: <em>avoid</em></b></p>\n                    <p>This is the bee that you just saw.</p>\n                    <img src=\"bees-with-color/bee-B2SM.svg\" width=\"200\">\n                    <p><br>Your bonus pay is unchanged, and remains at $0.28.</p>\n            ","response":0,"trial_type":"html-button-response","trial_index":66,"time_elapsed":315655,"internal_node_id":"0.0-4.0-1.29","subject_id":"61356377bda43b654ccd65ca","study_id":"6197b3f67c2b5cd3b6d9596a","session_id":"619be31e19886dee245cca70","condition":"contingent","relevant_dimensions":["antennae","wings"],"bee_group":{"antennae":"A","wings":"2","pattern":"X","legs":"X"},"bonus":0.02},{"rt":1439.2000000178814,"stimulus":"bees-with-color/bee-B2DF.svg","response":0,"trial_type":"image-button-response","trial_index":67,"time_elapsed":317095,"internal_node_id":"0.0-4.0-0.30","subject_id":"61356377bda43b654ccd65ca","study_id":"6197b3f67c2b5cd3b6d9596a","session_id":"619be31e19886dee245cca70","condition":"contingent","relevant_dimensions":["antennae","wings"],"bee_group":{"antennae":"A","wings":"2","pattern":"X","legs":"X"},"action":"harvest","summary":"good-harvest","bonus":0.02},{"rt":718.9000000059605,"stimulus":"\n                    <p><b>Action: <em>harvest</em></b></p>\n                    <p>This is the bee that you just saw.</p>\n                    <img src=\"bees-with-color/bee-B2DF.svg\" width=\"200\">\n                    <p><span class=\"greenText\"><b>Successful harvest!</b></span><br>Your pay has increased by $0.02. Your bonus pay is now $0.30.</p>\n            ","response":0,"trial_type":"html-button-response","trial_index":68,"time_elapsed":317815,"internal_node_id":"0.0-4.0-1.30","subject_id":"61356377bda43b654ccd65ca","study_id":"6197b3f67c2b5cd3b6d9596a","session_id":"619be31e19886dee245cca70","condition":"contingent","relevant_dimensions":["antennae","wings"],"bee_group":{"antennae":"A","wings":"2","pattern":"X","legs":"X"},"bonus":0.02},{"rt":1247,"stimulus":"bees-with-color/bee-A1DM.svg","response":1,"trial_type":"image-button-response","trial_index":69,"time_elapsed":319063,"internal_node_id":"0.0-4.0-0.31","subject_id":"61356377bda43b654ccd65ca","study_id":"6197b3f67c2b5cd3b6d9596a","session_id":"619be31e19886dee245cca70","condition":"contingent","relevant_dimensions":["antennae","wings"],"bee_group":{"antennae":"A","wings":"2","pattern":"X","legs":"X"},"action":"avoid","summary":"bad-avoid","bonus":0.02},{"rt":635.1999999880791,"stimulus":"\n                    <p><b>Action: <em>avoid</em></b></p>\n                    <p>This is the bee that you just saw.</p>\n                    <img src=\"bees-with-color/bee-A1DM.svg\" width=\"200\">\n                    <p><br>Your bonus pay is unchanged, and remains at $0.30.</p>\n            ","response":0,"trial_type":"html-button-response","trial_index":70,"time_elapsed":319699,"internal_node_id":"0.0-4.0-1.31","subject_id":"61356377bda43b654ccd65ca","study_id":"6197b3f67c2b5cd3b6d9596a","session_id":"619be31e19886dee245cca70","condition":"contingent","relevant_dimensions":["antennae","wings"],"bee_group":{"antennae":"A","wings":"2","pattern":"X","legs":"X"},"bonus":0.02},{"rt":911.0999999940395,"stimulus":"bees-with-color/bee-B1DF.svg","response":0,"trial_type":"image-button-response","trial_index":71,"time_elapsed":320611,"internal_node_id":"0.0-4.0-0.32","subject_id":"61356377bda43b654ccd65ca","study_id":"6197b3f67c2b5cd3b6d9596a","session_id":"619be31e19886dee245cca70","condition":"contingent","relevant_dimensions":["antennae","wings"],"bee_group":{"antennae":"A","wings":"2","pattern":"X","legs":"X"},"action":"harvest","summary":"good-harvest","bonus":0.02},{"rt":490.90000000596046,"stimulus":"\n                    <p><b>Action: <em>harvest</em></b></p>\n                    <p>This is the bee that you just saw.</p>\n                    <img src=\"bees-with-color/bee-B1DF.svg\" width=\"200\">\n                    <p><span class=\"greenText\"><b>Successful harvest!</b></span><br>Your pay has increased by $0.02. Your bonus pay is now $0.32.</p>\n            ","response":0,"trial_type":"html-button-response","trial_index":72,"time_elapsed":321103,"internal_node_id":"0.0-4.0-1.32","subject_id":"61356377bda43b654ccd65ca","study_id":"6197b3f67c2b5cd3b6d9596a","session_id":"619be31e19886dee245cca70","condition":"contingent","relevant_dimensions":["antennae","wings"],"bee_group":{"antennae":"A","wings":"2","pattern":"X","legs":"X"},"bonus":0.02},{"rt":803.2999999821186,"stimulus":"bees-with-color/bee-B2DF.svg","response":0,"trial_type":"image-button-response","trial_index":73,"time_elapsed":321907,"internal_node_id":"0.0-4.0-0.33","subject_id":"61356377bda43b654ccd65ca","study_id":"6197b3f67c2b5cd3b6d9596a","session_id":"619be31e19886dee245cca70","condition":"contingent","relevant_dimensions":["antennae","wings"],"bee_group":{"antennae":"A","wings":"2","pattern":"X","legs":"X"},"action":"harvest","summary":"good-harvest","bonus":0.02},{"rt":719,"stimulus":"\n                    <p><b>Action: <em>harvest</em></b></p>\n                    <p>This is the bee that you just saw.</p>\n                    <img src=\"bees-with-color/bee-B2DF.svg\" width=\"200\">\n                    <p><span class=\"greenText\"><b>Successful harvest!</b></span><br>Your pay has increased by $0.02. Your bonus pay is now $0.34.</p>\n            ","response":0,"trial_type":"html-button-response","trial_index":74,"time_elapsed":322627,"internal_node_id":"0.0-4.0-1.33","subject_id":"61356377bda43b654ccd65ca","study_id":"6197b3f67c2b5cd3b6d9596a","session_id":"619be31e19886dee245cca70","condition":"contingent","relevant_dimensions":["antennae","wings"],"bee_group":{"antennae":"A","wings":"2","pattern":"X","legs":"X"},"bonus":0.02},{"rt":923.5999999940395,"stimulus":"bees-with-color/bee-A1DM.svg","response":1,"trial_type":"image-button-response","trial_index":75,"time_elapsed":323551,"internal_node_id":"0.0-4.0-0.34","subject_id":"61356377bda43b654ccd65ca","study_id":"6197b3f67c2b5cd3b6d9596a","session_id":"619be31e19886dee245cca70","condition":"contingent","relevant_dimensions":["antennae","wings"],"bee_group":{"antennae":"A","wings":"2","pattern":"X","legs":"X"},"action":"avoid","summary":"bad-avoid","bonus":0.02},{"rt":418.59999999403954,"stimulus":"\n                    <p><b>Action: <em>avoid</em></b></p>\n                    <p>This is the bee that you just saw.</p>\n                    <img src=\"bees-with-color/bee-A1DM.svg\" width=\"200\">\n                    <p><br>Your bonus pay is unchanged, and remains at $0.34.</p>\n            ","response":0,"trial_type":"html-button-response","trial_index":76,"time_elapsed":323971,"internal_node_id":"0.0-4.0-1.34","subject_id":"61356377bda43b654ccd65ca","study_id":"6197b3f67c2b5cd3b6d9596a","session_id":"619be31e19886dee245cca70","condition":"contingent","relevant_dimensions":["antennae","wings"],"bee_group":{"antennae":"A","wings":"2","pattern":"X","legs":"X"},"bonus":0.02},{"rt":1691.5,"stimulus":"bees-with-color/bee-A2SM.svg","response":1,"trial_type":"image-button-response","trial_index":77,"time_elapsed":325663,"internal_node_id":"0.0-4.0-0.35","subject_id":"61356377bda43b654ccd65ca","study_id":"6197b3f67c2b5cd3b6d9596a","session_id":"619be31e19886dee245cca70","condition":"contingent","relevant_dimensions":["antennae","wings"],"bee_group":{"antennae":"A","wings":"2","pattern":"X","legs":"X"},"action":"avoid","summary":"good-avoid","bonus":0.02},{"rt":466.7999999821186,"stimulus":"\n                    <p><b>Action: <em>avoid</em></b></p>\n                    <p>This is the bee that you just saw.</p>\n                    <img src=\"bees-with-color/bee-A2SM.svg\" width=\"200\">\n                    <p><br>Your bonus pay is unchanged, and remains at $0.34.</p>\n            ","response":0,"trial_type":"html-button-response","trial_index":78,"time_elapsed":326131,"internal_node_id":"0.0-4.0-1.35","subject_id":"61356377bda43b654ccd65ca","study_id":"6197b3f67c2b5cd3b6d9596a","session_id":"619be31e19886dee245cca70","condition":"contingent","relevant_dimensions":["antennae","wings"],"bee_group":{"antennae":"A","wings":"2","pattern":"X","legs":"X"},"bonus":0.02},{"rt":995.1999999880791,"stimulus":"bees-with-color/bee-A2DM.svg","response":1,"trial_type":"image-button-response","trial_index":79,"time_elapsed":327127,"internal_node_id":"0.0-4.0-0.36","subject_id":"61356377bda43b654ccd65ca","study_id":"6197b3f67c2b5cd3b6d9596a","session_id":"619be31e19886dee245cca70","condition":"contingent","relevant_dimensions":["antennae","wings"],"bee_group":{"antennae":"A","wings":"2","pattern":"X","legs":"X"},"action":"avoid","summary":"good-avoid","bonus":0.02},{"rt":743.0999999940395,"stimulus":"\n                    <p><b>Action: <em>avoid</em></b></p>\n                    <p>This is the bee that you just saw.</p>\n                    <img src=\"bees-with-color/bee-A2DM.svg\" width=\"200\">\n                    <p><br>Your bonus pay is unchanged, and remains at $0.34.</p>\n            ","response":0,"trial_type":"html-button-response","trial_index":80,"time_elapsed":327871,"internal_node_id":"0.0-4.0-1.36","subject_id":"61356377bda43b654ccd65ca","study_id":"6197b3f67c2b5cd3b6d9596a","session_id":"619be31e19886dee245cca70","condition":"contingent","relevant_dimensions":["antennae","wings"],"bee_group":{"antennae":"A","wings":"2","pattern":"X","legs":"X"},"bonus":0.02},{"rt":803.0999999940395,"stimulus":"bees-with-color/bee-A1DF.svg","response":0,"trial_type":"image-button-response","trial_index":81,"time_elapsed":328675,"internal_node_id":"0.0-4.0-0.37","subject_id":"61356377bda43b654ccd65ca","study_id":"6197b3f67c2b5cd3b6d9596a","session_id":"619be31e19886dee245cca70","condition":"contingent","relevant_dimensions":["antennae","wings"],"bee_group":{"antennae":"A","wings":"2","pattern":"X","legs":"X"},"action":"harvest","summary":"good-harvest","bonus":0.02},{"rt":455.09999999403954,"stimulus":"\n                    <p><b>Action: <em>harvest</em></b></p>\n                    <p>This is the bee that you just saw.</p>\n                    <img src=\"bees-with-color/bee-A1DF.svg\" width=\"200\">\n                    <p><span class=\"greenText\"><b>Successful harvest!</b></span><br>Your pay has increased by $0.02. Your bonus pay is now $0.36.</p>\n            ","response":0,"trial_type":"html-button-response","trial_index":82,"time_elapsed":329131,"internal_node_id":"0.0-4.0-1.37","subject_id":"61356377bda43b654ccd65ca","study_id":"6197b3f67c2b5cd3b6d9596a","session_id":"619be31e19886dee245cca70","condition":"contingent","relevant_dimensions":["antennae","wings"],"bee_group":{"antennae":"A","wings":"2","pattern":"X","legs":"X"},"bonus":0.02},{"rt":731.1999999880791,"stimulus":"bees-with-color/bee-B2DM.svg","response":1,"trial_type":"image-button-response","trial_index":83,"time_elapsed":329863,"internal_node_id":"0.0-4.0-0.38","subject_id":"61356377bda43b654ccd65ca","study_id":"6197b3f67c2b5cd3b6d9596a","session_id":"619be31e19886dee245cca70","condition":"contingent","relevant_dimensions":["antennae","wings"],"bee_group":{"antennae":"A","wings":"2","pattern":"X","legs":"X"},"action":"avoid","summary":"bad-avoid","bonus":0.02},{"rt":419,"stimulus":"\n                    <p><b>Action: <em>avoid</em></b></p>\n                    <p>This is the bee that you just saw.</p>\n                    <img src=\"bees-with-color/bee-B2DM.svg\" width=\"200\">\n                    <p><br>Your bonus pay is unchanged, and remains at $0.36.</p>\n            ","response":0,"trial_type":"html-button-response","trial_index":84,"time_elapsed":330283,"internal_node_id":"0.0-4.0-1.38","subject_id":"61356377bda43b654ccd65ca","study_id":"6197b3f67c2b5cd3b6d9596a","session_id":"619be31e19886dee245cca70","condition":"contingent","relevant_dimensions":["antennae","wings"],"bee_group":{"antennae":"A","wings":"2","pattern":"X","legs":"X"},"bonus":0.02},{"rt":839,"stimulus":"bees-with-color/bee-B1SF.svg","response":0,"trial_type":"image-button-response","trial_index":85,"time_elapsed":331123,"internal_node_id":"0.0-4.0-0.39","subject_id":"61356377bda43b654ccd65ca","study_id":"6197b3f67c2b5cd3b6d9596a","session_id":"619be31e19886dee245cca70","condition":"contingent","relevant_dimensions":["antennae","wings"],"bee_group":{"antennae":"A","wings":"2","pattern":"X","legs":"X"},"action":"harvest","summary":"good-harvest","bonus":0.02},{"rt":575.1999999880791,"stimulus":"\n                    <p><b>Action: <em>harvest</em></b></p>\n                    <p>This is the bee that you just saw.</p>\n                    <img src=\"bees-with-color/bee-B1SF.svg\" width=\"200\">\n                    <p><span class=\"greenText\"><b>Successful harvest!</b></span><br>Your pay has increased by $0.02. Your bonus pay is now $0.38.</p>\n            ","response":0,"trial_type":"html-button-response","trial_index":86,"time_elapsed":331699,"internal_node_id":"0.0-4.0-1.39","subject_id":"61356377bda43b654ccd65ca","study_id":"6197b3f67c2b5cd3b6d9596a","session_id":"619be31e19886dee245cca70","condition":"contingent","relevant_dimensions":["antennae","wings"],"bee_group":{"antennae":"A","wings":"2","pattern":"X","legs":"X"},"bonus":0.02},{"rt":959,"stimulus":"bees-with-color/bee-B1SM.svg","response":1,"trial_type":"image-button-response","trial_index":87,"time_elapsed":332659,"internal_node_id":"0.0-4.0-0.40","subject_id":"61356377bda43b654ccd65ca","study_id":"6197b3f67c2b5cd3b6d9596a","session_id":"619be31e19886dee245cca70","condition":"contingent","relevant_dimensions":["antennae","wings"],"bee_group":{"antennae":"A","wings":"2","pattern":"X","legs":"X"},"action":"avoid","summary":"bad-avoid","bonus":0.02},{"rt":323,"stimulus":"\n                    <p><b>Action: <em>avoid</em></b></p>\n                    <p>This is the bee that you just saw.</p>\n                    <img src=\"bees-with-color/bee-B1SM.svg\" width=\"200\">\n                    <p><br>Your bonus pay is unchanged, and remains at $0.38.</p>\n            ","response":0,"trial_type":"html-button-response","trial_index":88,"time_elapsed":332983,"internal_node_id":"0.0-4.0-1.40","subject_id":"61356377bda43b654ccd65ca","study_id":"6197b3f67c2b5cd3b6d9596a","session_id":"619be31e19886dee245cca70","condition":"contingent","relevant_dimensions":["antennae","wings"],"bee_group":{"antennae":"A","wings":"2","pattern":"X","legs":"X"},"bonus":0.02},{"rt":851,"stimulus":"bees-with-color/bee-B2SM.svg","response":1,"trial_type":"image-button-response","trial_index":89,"time_elapsed":333835,"internal_node_id":"0.0-4.0-0.41","subject_id":"61356377bda43b654ccd65ca","study_id":"6197b3f67c2b5cd3b6d9596a","session_id":"619be31e19886dee245cca70","condition":"contingent","relevant_dimensions":["antennae","wings"],"bee_group":{"antennae":"A","wings":"2","pattern":"X","legs":"X"},"action":"avoid","summary":"bad-avoid","bonus":0.02},{"rt":467.19999998807907,"stimulus":"\n                    <p><b>Action: <em>avoid</em></b></p>\n                    <p>This is the bee that you just saw.</p>\n                    <img src=\"bees-with-color/bee-B2SM.svg\" width=\"200\">\n                    <p><br>Your bonus pay is unchanged, and remains at $0.38.</p>\n            ","response":0,"trial_type":"html-button-response","trial_index":90,"time_elapsed":334303,"internal_node_id":"0.0-4.0-1.41","subject_id":"61356377bda43b654ccd65ca","study_id":"6197b3f67c2b5cd3b6d9596a","session_id":"619be31e19886dee245cca70","condition":"contingent","relevant_dimensions":["antennae","wings"],"bee_group":{"antennae":"A","wings":"2","pattern":"X","legs":"X"},"bonus":0.02},{"rt":1751,"stimulus":"bees-with-color/bee-A1SM.svg","response":0,"trial_type":"image-button-response","trial_index":91,"time_elapsed":336055,"internal_node_id":"0.0-4.0-0.42","subject_id":"61356377bda43b654ccd65ca","study_id":"6197b3f67c2b5cd3b6d9596a","session_id":"619be31e19886dee245cca70","condition":"contingent","relevant_dimensions":["antennae","wings"],"bee_group":{"antennae":"A","wings":"2","pattern":"X","legs":"X"},"action":"harvest","summary":"good-harvest","bonus":0.02},{"rt":503,"stimulus":"\n                    <p><b>Action: <em>harvest</em></b></p>\n                    <p>This is the bee that you just saw.</p>\n                    <img src=\"bees-with-color/bee-A1SM.svg\" width=\"200\">\n                    <p><span class=\"greenText\"><b>Successful harvest!</b></span><br>Your pay has increased by $0.02. Your bonus pay is now $0.40.</p>\n            ","response":0,"trial_type":"html-button-response","trial_index":92,"time_elapsed":336559,"internal_node_id":"0.0-4.0-1.42","subject_id":"61356377bda43b654ccd65ca","study_id":"6197b3f67c2b5cd3b6d9596a","session_id":"619be31e19886dee245cca70","condition":"contingent","relevant_dimensions":["antennae","wings"],"bee_group":{"antennae":"A","wings":"2","pattern":"X","legs":"X"},"bonus":0.02},{"rt":1499.7999999821186,"stimulus":"bees-with-color/bee-A1SF.svg","response":0,"trial_type":"image-button-response","trial_index":93,"time_elapsed":338059,"internal_node_id":"0.0-4.0-0.43","subject_id":"61356377bda43b654ccd65ca","study_id":"6197b3f67c2b5cd3b6d9596a","session_id":"619be31e19886dee245cca70","condition":"contingent","relevant_dimensions":["antennae","wings"],"bee_group":{"antennae":"A","wings":"2","pattern":"X","legs":"X"},"action":"harvest","summary":"good-harvest","bonus":0.02},{"rt":370.5,"stimulus":"\n                    <p><b>Action: <em>harvest</em></b></p>\n                    <p>This is the bee that you just saw.</p>\n                    <img src=\"bees-with-color/bee-A1SF.svg\" width=\"200\">\n                    <p><span class=\"greenText\"><b>Successful harvest!</b></span><br>Your pay has increased by $0.02. Your bonus pay is now $0.42.</p>\n            ","response":0,"trial_type":"html-button-response","trial_index":94,"time_elapsed":338431,"internal_node_id":"0.0-4.0-1.43","subject_id":"61356377bda43b654ccd65ca","study_id":"6197b3f67c2b5cd3b6d9596a","session_id":"619be31e19886dee245cca70","condition":"contingent","relevant_dimensions":["antennae","wings"],"bee_group":{"antennae":"A","wings":"2","pattern":"X","legs":"X"},"bonus":0.02},{"rt":1331.0999999940395,"stimulus":"bees-with-color/bee-B1DM.svg","response":0,"trial_type":"image-button-response","trial_index":95,"time_elapsed":339763,"internal_node_id":"0.0-4.0-0.44","subject_id":"61356377bda43b654ccd65ca","study_id":"6197b3f67c2b5cd3b6d9596a","session_id":"619be31e19886dee245cca70","condition":"contingent","relevant_dimensions":["antennae","wings"],"bee_group":{"antennae":"A","wings":"2","pattern":"X","legs":"X"},"action":"harvest","summary":"good-harvest","bonus":0.02},{"rt":551.1999999880791,"stimulus":"\n                    <p><b>Action: <em>harvest</em></b></p>\n                    <p>This is the bee that you just saw.</p>\n                    <img src=\"bees-with-color/bee-B1DM.svg\" width=\"200\">\n                    <p><span class=\"greenText\"><b>Successful harvest!</b></span><br>Your pay has increased by $0.02. Your bonus pay is now $0.44.</p>\n            ","response":0,"trial_type":"html-button-response","trial_index":96,"time_elapsed":340315,"internal_node_id":"0.0-4.0-1.44","subject_id":"61356377bda43b654ccd65ca","study_id":"6197b3f67c2b5cd3b6d9596a","session_id":"619be31e19886dee245cca70","condition":"contingent","relevant_dimensions":["antennae","wings"],"bee_group":{"antennae":"A","wings":"2","pattern":"X","legs":"X"},"bonus":0.02},{"rt":2303.199999988079,"stimulus":"bees-with-color/bee-A2DF.svg","response":0,"trial_type":"image-button-response","trial_index":97,"time_elapsed":342619,"internal_node_id":"0.0-4.0-0.45","subject_id":"61356377bda43b654ccd65ca","study_id":"6197b3f67c2b5cd3b6d9596a","session_id":"619be31e19886dee245cca70","condition":"contingent","relevant_dimensions":["antennae","wings"],"bee_group":{"antennae":"A","wings":"2","pattern":"X","legs":"X"},"action":"harvest","summary":"bad-harvest","bonus":0.02},{"rt":1403.199999988079,"stimulus":"\n                    <p><b>Action: <em>harvest</em></b></p>\n                    <p>This is the bee that you just saw.</p>\n                    <img src=\"bees-with-color/bee-A2DF.svg\" width=\"200\">\n                    <p><span class=\"redText\">Bad choice, the bee was angry.</span><br><b>You have been stung!</b><br>Your pay has been decreased by $0.10. Your bonus pay is now $0.34.</p>\n            ","response":0,"trial_type":"html-button-response","trial_index":98,"time_elapsed":344023,"internal_node_id":"0.0-4.0-1.45","subject_id":"61356377bda43b654ccd65ca","study_id":"6197b3f67c2b5cd3b6d9596a","session_id":"619be31e19886dee245cca70","condition":"contingent","relevant_dimensions":["antennae","wings"],"bee_group":{"antennae":"A","wings":"2","pattern":"X","legs":"X"},"bonus":0.02},{"rt":3862.9000000059605,"stimulus":"bees-with-color/bee-B2SF.svg","response":0,"trial_type":"image-button-response","trial_index":99,"time_elapsed":347887,"internal_node_id":"0.0-4.0-0.46","subject_id":"61356377bda43b654ccd65ca","study_id":"6197b3f67c2b5cd3b6d9596a","session_id":"619be31e19886dee245cca70","condition":"contingent","relevant_dimensions":["antennae","wings"],"bee_group":{"antennae":"A","wings":"2","pattern":"X","legs":"X"},"action":"harvest","summary":"good-harvest","bonus":0.02},{"rt":467,"stimulus":"\n                    <p><b>Action: <em>harvest</em></b></p>\n                    <p>This is the bee that you just saw.</p>\n                    <img src=\"bees-with-color/bee-B2SF.svg\" width=\"200\">\n                    <p><span class=\"greenText\"><b>Successful harvest!</b></span><br>Your pay has increased by $0.02. Your bonus pay is now $0.36.</p>\n            ","response":0,"trial_type":"html-button-response","trial_index":100,"time_elapsed":348355,"internal_node_id":"0.0-4.0-1.46","subject_id":"61356377bda43b654ccd65ca","study_id":"6197b3f67c2b5cd3b6d9596a","session_id":"619be31e19886dee245cca70","condition":"contingent","relevant_dimensions":["antennae","wings"],"bee_group":{"antennae":"A","wings":"2","pattern":"X","legs":"X"},"bonus":0.02},{"rt":899,"stimulus":"bees-with-color/bee-A2SF.svg","response":0,"trial_type":"image-button-response","trial_index":101,"time_elapsed":349255,"internal_node_id":"0.0-4.0-0.47","subject_id":"61356377bda43b654ccd65ca","study_id":"6197b3f67c2b5cd3b6d9596a","session_id":"619be31e19886dee245cca70","condition":"contingent","relevant_dimensions":["antennae","wings"],"bee_group":{"antennae":"A","wings":"2","pattern":"X","legs":"X"},"action":"harvest","summary":"bad-harvest","bonus":0.02},{"rt":791.0999999940395,"stimulus":"\n                    <p><b>Action: <em>harvest</em></b></p>\n                    <p>This is the bee that you just saw.</p>\n                    <img src=\"bees-with-color/bee-A2SF.svg\" width=\"200\">\n                    <p><span class=\"redText\">Bad choice, the bee was angry.</span><br><b>You have been stung!</b><br>Your pay has been decreased by $0.10. Your bonus pay is now $0.26.</p>\n            ","response":0,"trial_type":"html-button-response","trial_index":102,"time_elapsed":350047,"internal_node_id":"0.0-4.0-1.47","subject_id":"61356377bda43b654ccd65ca","study_id":"6197b3f67c2b5cd3b6d9596a","session_id":"619be31e19886dee245cca70","condition":"contingent","relevant_dimensions":["antennae","wings"],"bee_group":{"antennae":"A","wings":"2","pattern":"X","legs":"X"},"bonus":0.02},{"rt":1715.199999988079,"stimulus":"bees-with-color/bee-A1SM.svg","response":1,"trial_type":"image-button-response","trial_index":103,"time_elapsed":351763,"internal_node_id":"0.0-4.0-0.48","subject_id":"61356377bda43b654ccd65ca","study_id":"6197b3f67c2b5cd3b6d9596a","session_id":"619be31e19886dee245cca70","condition":"contingent","relevant_dimensions":["antennae","wings"],"bee_group":{"antennae":"A","wings":"2","pattern":"X","legs":"X"},"action":"avoid","summary":"bad-avoid","bonus":0.02},{"rt":623.0999999940395,"stimulus":"\n                    <p><b>Action: <em>avoid</em></b></p>\n                    <p>This is the bee that you just saw.</p>\n                    <img src=\"bees-with-color/bee-A1SM.svg\" width=\"200\">\n                    <p><br>Your bonus pay is unchanged, and remains at $0.26.</p>\n            ","response":0,"trial_type":"html-button-response","trial_index":104,"time_elapsed":352387,"internal_node_id":"0.0-4.0-1.48","subject_id":"61356377bda43b654ccd65ca","study_id":"6197b3f67c2b5cd3b6d9596a","session_id":"619be31e19886dee245cca70","condition":"contingent","relevant_dimensions":["antennae","wings"],"bee_group":{"antennae":"A","wings":"2","pattern":"X","legs":"X"},"bonus":0.02},{"rt":719.1999999880791,"stimulus":"bees-with-color/bee-A2SM.svg","response":1,"trial_type":"image-button-response","trial_index":105,"time_elapsed":353107,"internal_node_id":"0.0-4.0-0.49","subject_id":"61356377bda43b654ccd65ca","study_id":"6197b3f67c2b5cd3b6d9596a","session_id":"619be31e19886dee245cca70","condition":"contingent","relevant_dimensions":["antennae","wings"],"bee_group":{"antennae":"A","wings":"2","pattern":"X","legs":"X"},"action":"avoid","summary":"good-avoid","bonus":0.02},{"rt":359.09999999403954,"stimulus":"\n                    <p><b>Action: <em>avoid</em></b></p>\n                    <p>This is the bee that you just saw.</p>\n                    <img src=\"bees-with-color/bee-A2SM.svg\" width=\"200\">\n                    <p><br>Your bonus pay is unchanged, and remains at $0.26.</p>\n            ","response":0,"trial_type":"html-button-response","trial_index":106,"time_elapsed":353467,"internal_node_id":"0.0-4.0-1.49","subject_id":"61356377bda43b654ccd65ca","study_id":"6197b3f67c2b5cd3b6d9596a","session_id":"619be31e19886dee245cca70","condition":"contingent","relevant_dimensions":["antennae","wings"],"bee_group":{"antennae":"A","wings":"2","pattern":"X","legs":"X"},"bonus":0.02},{"rt":659.2000000178814,"stimulus":"bees-with-color/bee-A2DM.svg","response":1,"trial_type":"image-button-response","trial_index":107,"time_elapsed":354127,"internal_node_id":"0.0-4.0-0.50","subject_id":"61356377bda43b654ccd65ca","study_id":"6197b3f67c2b5cd3b6d9596a","session_id":"619be31e19886dee245cca70","condition":"contingent","relevant_dimensions":["antennae","wings"],"bee_group":{"antennae":"A","wings":"2","pattern":"X","legs":"X"},"action":"avoid","summary":"good-avoid","bonus":0.02},{"rt":815.0999999940395,"stimulus":"\n                    <p><b>Action: <em>avoid</em></b></p>\n                    <p>This is the bee that you just saw.</p>\n                    <img src=\"bees-with-color/bee-A2DM.svg\" width=\"200\">\n                    <p><br>Your bonus pay is unchanged, and remains at $0.26.</p>\n            ","response":0,"trial_type":"html-button-response","trial_index":108,"time_elapsed":354943,"internal_node_id":"0.0-4.0-1.50","subject_id":"61356377bda43b654ccd65ca","study_id":"6197b3f67c2b5cd3b6d9596a","session_id":"619be31e19886dee245cca70","condition":"contingent","relevant_dimensions":["antennae","wings"],"bee_group":{"antennae":"A","wings":"2","pattern":"X","legs":"X"},"bonus":0.02},{"rt":671.4000000059605,"stimulus":"bees-with-color/bee-A1SF.svg","response":0,"trial_type":"image-button-response","trial_index":109,"time_elapsed":355615,"internal_node_id":"0.0-4.0-0.51","subject_id":"61356377bda43b654ccd65ca","study_id":"6197b3f67c2b5cd3b6d9596a","session_id":"619be31e19886dee245cca70","condition":"contingent","relevant_dimensions":["antennae","wings"],"bee_group":{"antennae":"A","wings":"2","pattern":"X","legs":"X"},"action":"harvest","summary":"good-harvest","bonus":0.02},{"rt":467.09999999403954,"stimulus":"\n                    <p><b>Action: <em>harvest</em></b></p>\n                    <p>This is the bee that you just saw.</p>\n                    <img src=\"bees-with-color/bee-A1SF.svg\" width=\"200\">\n                    <p><span class=\"greenText\"><b>Successful harvest!</b></span><br>Your pay has increased by $0.02. Your bonus pay is now $0.28.</p>\n            ","response":0,"trial_type":"html-button-response","trial_index":110,"time_elapsed":356083,"internal_node_id":"0.0-4.0-1.51","subject_id":"61356377bda43b654ccd65ca","study_id":"6197b3f67c2b5cd3b6d9596a","session_id":"619be31e19886dee245cca70","condition":"contingent","relevant_dimensions":["antennae","wings"],"bee_group":{"antennae":"A","wings":"2","pattern":"X","legs":"X"},"bonus":0.02},{"rt":1955.0999999940395,"stimulus":"bees-with-color/bee-B2SM.svg","response":0,"trial_type":"image-button-response","trial_index":111,"time_elapsed":358039,"internal_node_id":"0.0-4.0-0.52","subject_id":"61356377bda43b654ccd65ca","study_id":"6197b3f67c2b5cd3b6d9596a","session_id":"619be31e19886dee245cca70","condition":"contingent","relevant_dimensions":["antennae","wings"],"bee_group":{"antennae":"A","wings":"2","pattern":"X","legs":"X"},"action":"harvest","summary":"good-harvest","bonus":0.02},{"rt":467.40000000596046,"stimulus":"\n                    <p><b>Action: <em>harvest</em></b></p>\n                    <p>This is the bee that you just saw.</p>\n                    <img src=\"bees-with-color/bee-B2SM.svg\" width=\"200\">\n                    <p><span class=\"greenText\"><b>Successful harvest!</b></span><br>Your pay has increased by $0.02. Your bonus pay is now $0.30.</p>\n            ","response":0,"trial_type":"html-button-response","trial_index":112,"time_elapsed":358507,"internal_node_id":"0.0-4.0-1.52","subject_id":"61356377bda43b654ccd65ca","study_id":"6197b3f67c2b5cd3b6d9596a","session_id":"619be31e19886dee245cca70","condition":"contingent","relevant_dimensions":["antennae","wings"],"bee_group":{"antennae":"A","wings":"2","pattern":"X","legs":"X"},"bonus":0.02},{"rt":1727.0999999940395,"stimulus":"bees-with-color/bee-B1DF.svg","response":1,"trial_type":"image-button-response","trial_index":113,"time_elapsed":360235,"internal_node_id":"0.0-4.0-0.53","subject_id":"61356377bda43b654ccd65ca","study_id":"6197b3f67c2b5cd3b6d9596a","session_id":"619be31e19886dee245cca70","condition":"contingent","relevant_dimensions":["antennae","wings"],"bee_group":{"antennae":"A","wings":"2","pattern":"X","legs":"X"},"action":"avoid","summary":"bad-avoid","bonus":0.02},{"rt":707.0999999940395,"stimulus":"\n                    <p><b>Action: <em>avoid</em></b></p>\n                    <p>This is the bee that you just saw.</p>\n                    <img src=\"bees-with-color/bee-B1DF.svg\" width=\"200\">\n                    <p><br>Your bonus pay is unchanged, and remains at $0.30.</p>\n            ","response":0,"trial_type":"html-button-response","trial_index":114,"time_elapsed":360943,"internal_node_id":"0.0-4.0-1.53","subject_id":"61356377bda43b654ccd65ca","study_id":"6197b3f67c2b5cd3b6d9596a","session_id":"619be31e19886dee245cca70","condition":"contingent","relevant_dimensions":["antennae","wings"],"bee_group":{"antennae":"A","wings":"2","pattern":"X","legs":"X"},"bonus":0.02},{"rt":1007.1999999880791,"stimulus":"bees-with-color/bee-A1DM.svg","response":0,"trial_type":"image-button-response","trial_index":115,"time_elapsed":361951,"internal_node_id":"0.0-4.0-0.54","subject_id":"61356377bda43b654ccd65ca","study_id":"6197b3f67c2b5cd3b6d9596a","session_id":"619be31e19886dee245cca70","condition":"contingent","relevant_dimensions":["antennae","wings"],"bee_group":{"antennae":"A","wings":"2","pattern":"X","legs":"X"},"action":"harvest","summary":"good-harvest","bonus":0.02},{"rt":527.0999999940395,"stimulus":"\n                    <p><b>Action: <em>harvest</em></b></p>\n                    <p>This is the bee that you just saw.</p>\n                    <img src=\"bees-with-color/bee-A1DM.svg\" width=\"200\">\n                    <p><span class=\"greenText\"><b>Successful harvest!</b></span><br>Your pay has increased by $0.02. Your bonus pay is now $0.32.</p>\n            ","response":0,"trial_type":"html-button-response","trial_index":116,"time_elapsed":362479,"internal_node_id":"0.0-4.0-1.54","subject_id":"61356377bda43b654ccd65ca","study_id":"6197b3f67c2b5cd3b6d9596a","session_id":"619be31e19886dee245cca70","condition":"contingent","relevant_dimensions":["antennae","wings"],"bee_group":{"antennae":"A","wings":"2","pattern":"X","legs":"X"},"bonus":0.02},{"rt":1007,"stimulus":"bees-with-color/bee-B1SM.svg","response":1,"trial_type":"image-button-response","trial_index":117,"time_elapsed":363487,"internal_node_id":"0.0-4.0-0.55","subject_id":"61356377bda43b654ccd65ca","study_id":"6197b3f67c2b5cd3b6d9596a","session_id":"619be31e19886dee245cca70","condition":"contingent","relevant_dimensions":["antennae","wings"],"bee_group":{"antennae":"A","wings":"2","pattern":"X","legs":"X"},"action":"avoid","summary":"bad-avoid","bonus":0.02},{"rt":575,"stimulus":"\n                    <p><b>Action: <em>avoid</em></b></p>\n                    <p>This is the bee that you just saw.</p>\n                    <img src=\"bees-with-color/bee-B1SM.svg\" width=\"200\">\n                    <p><br>Your bonus pay is unchanged, and remains at $0.32.</p>\n            ","response":0,"trial_type":"html-button-response","trial_index":118,"time_elapsed":364063,"internal_node_id":"0.0-4.0-1.55","subject_id":"61356377bda43b654ccd65ca","study_id":"6197b3f67c2b5cd3b6d9596a","session_id":"619be31e19886dee245cca70","condition":"contingent","relevant_dimensions":["antennae","wings"],"bee_group":{"antennae":"A","wings":"2","pattern":"X","legs":"X"},"bonus":0.02},{"rt":707.0999999940395,"stimulus":"bees-with-color/bee-A2SF.svg","response":0,"trial_type":"image-button-response","trial_index":119,"time_elapsed":364771,"internal_node_id":"0.0-4.0-0.56","subject_id":"61356377bda43b654ccd65ca","study_id":"6197b3f67c2b5cd3b6d9596a","session_id":"619be31e19886dee245cca70","condition":"contingent","relevant_dimensions":["antennae","wings"],"bee_group":{"antennae":"A","wings":"2","pattern":"X","legs":"X"},"action":"harvest","summary":"bad-harvest","bonus":0.02},{"rt":863,"stimulus":"\n                    <p><b>Action: <em>harvest</em></b></p>\n                    <p>This is the bee that you just saw.</p>\n                    <img src=\"bees-with-color/bee-A2SF.svg\" width=\"200\">\n                    <p><span class=\"redText\">Bad choice, the bee was angry.</span><br><b>You have been stung!</b><br>Your pay has been decreased by $0.10. Your bonus pay is now $0.22.</p>\n            ","response":0,"trial_type":"html-button-response","trial_index":120,"time_elapsed":365635,"internal_node_id":"0.0-4.0-1.56","subject_id":"61356377bda43b654ccd65ca","study_id":"6197b3f67c2b5cd3b6d9596a","session_id":"619be31e19886dee245cca70","condition":"contingent","relevant_dimensions":["antennae","wings"],"bee_group":{"antennae":"A","wings":"2","pattern":"X","legs":"X"},"bonus":0.02},{"rt":899.1999999880791,"stimulus":"bees-with-color/bee-A2DF.svg","response":0,"trial_type":"image-button-response","trial_index":121,"time_elapsed":366535,"internal_node_id":"0.0-4.0-0.57","subject_id":"61356377bda43b654ccd65ca","study_id":"6197b3f67c2b5cd3b6d9596a","session_id":"619be31e19886dee245cca70","condition":"contingent","relevant_dimensions":["antennae","wings"],"bee_group":{"antennae":"A","wings":"2","pattern":"X","legs":"X"},"action":"harvest","summary":"bad-harvest","bonus":0.02},{"rt":419,"stimulus":"\n                    <p><b>Action: <em>harvest</em></b></p>\n                    <p>This is the bee that you just saw.</p>\n                    <img src=\"bees-with-color/bee-A2DF.svg\" width=\"200\">\n                    <p><span class=\"redText\">Bad choice, the bee was angry.</span><br><b>You have been stung!</b><br>Your pay has been decreased by $0.10. Your bonus pay is now $0.12.</p>\n            ","response":0,"trial_type":"html-button-response","trial_index":122,"time_elapsed":366955,"internal_node_id":"0.0-4.0-1.57","subject_id":"61356377bda43b654ccd65ca","study_id":"6197b3f67c2b5cd3b6d9596a","session_id":"619be31e19886dee245cca70","condition":"contingent","relevant_dimensions":["antennae","wings"],"bee_group":{"antennae":"A","wings":"2","pattern":"X","legs":"X"},"bonus":0.02},{"rt":3139.199999988079,"stimulus":"bees-with-color/bee-B2DM.svg","response":1,"trial_type":"image-button-response","trial_index":123,"time_elapsed":370095,"internal_node_id":"0.0-4.0-0.58","subject_id":"61356377bda43b654ccd65ca","study_id":"6197b3f67c2b5cd3b6d9596a","session_id":"619be31e19886dee245cca70","condition":"contingent","relevant_dimensions":["antennae","wings"],"bee_group":{"antennae":"A","wings":"2","pattern":"X","legs":"X"},"action":"avoid","summary":"bad-avoid","bonus":0.02},{"rt":538.9000000059605,"stimulus":"\n                    <p><b>Action: <em>avoid</em></b></p>\n                    <p>This is the bee that you just saw.</p>\n                    <img src=\"bees-with-color/bee-B2DM.svg\" width=\"200\">\n                    <p><br>Your bonus pay is unchanged, and remains at $0.12.</p>\n            ","response":0,"trial_type":"html-button-response","trial_index":124,"time_elapsed":370635,"internal_node_id":"0.0-4.0-1.58","subject_id":"61356377bda43b654ccd65ca","study_id":"6197b3f67c2b5cd3b6d9596a","session_id":"619be31e19886dee245cca70","condition":"contingent","relevant_dimensions":["antennae","wings"],"bee_group":{"antennae":"A","wings":"2","pattern":"X","legs":"X"},"bonus":0.02},{"rt":910.7000000178814,"stimulus":"bees-with-color/bee-B1SF.svg","response":0,"trial_type":"image-button-response","trial_index":125,"time_elapsed":371547,"internal_node_id":"0.0-4.0-0.59","subject_id":"61356377bda43b654ccd65ca","study_id":"6197b3f67c2b5cd3b6d9596a","session_id":"619be31e19886dee245cca70","condition":"contingent","relevant_dimensions":["antennae","wings"],"bee_group":{"antennae":"A","wings":"2","pattern":"X","legs":"X"},"action":"harvest","summary":"good-harvest","bonus":0.02},{"rt":671,"stimulus":"\n                    <p><b>Action: <em>harvest</em></b></p>\n                    <p>This is the bee that you just saw.</p>\n                    <img src=\"bees-with-color/bee-B1SF.svg\" width=\"200\">\n                    <p><span class=\"greenText\"><b>Successful harvest!</b></span><br>Your pay has increased by $0.02. Your bonus pay is now $0.14.</p>\n            ","response":0,"trial_type":"html-button-response","trial_index":126,"time_elapsed":372219,"internal_node_id":"0.0-4.0-1.59","subject_id":"61356377bda43b654ccd65ca","study_id":"6197b3f67c2b5cd3b6d9596a","session_id":"619be31e19886dee245cca70","condition":"contingent","relevant_dimensions":["antennae","wings"],"bee_group":{"antennae":"A","wings":"2","pattern":"X","legs":"X"},"bonus":0.02},{"rt":3203.199999988079,"stimulus":"bees-with-color/bee-B2SF.svg","response":0,"trial_type":"image-button-response","trial_index":127,"time_elapsed":375423,"internal_node_id":"0.0-4.0-0.60","subject_id":"61356377bda43b654ccd65ca","study_id":"6197b3f67c2b5cd3b6d9596a","session_id":"619be31e19886dee245cca70","condition":"contingent","relevant_dimensions":["antennae","wings"],"bee_group":{"antennae":"A","wings":"2","pattern":"X","legs":"X"},"action":"harvest","summary":"good-harvest","bonus":0.02},{"rt":6131,"stimulus":"\n                    <p><b>Action: <em>harvest</em></b></p>\n                    <p>This is the bee that you just saw.</p>\n                    <img src=\"bees-with-color/bee-B2SF.svg\" width=\"200\">\n                    <p><span class=\"greenText\"><b>Successful harvest!</b></span><br>Your pay has increased by $0.02. Your bonus pay is now $0.16.</p>\n            ","response":0,"trial_type":"html-button-response","trial_index":128,"time_elapsed":381555,"internal_node_id":"0.0-4.0-1.60","subject_id":"61356377bda43b654ccd65ca","study_id":"6197b3f67c2b5cd3b6d9596a","session_id":"619be31e19886dee245cca70","condition":"contingent","relevant_dimensions":["antennae","wings"],"bee_group":{"antennae":"A","wings":"2","pattern":"X","legs":"X"},"bonus":0.02},{"rt":1570.800000011921,"stimulus":"bees-with-color/bee-B1DM.svg","response":1,"trial_type":"image-button-response","trial_index":129,"time_elapsed":383127,"internal_node_id":"0.0-4.0-0.61","subject_id":"61356377bda43b654ccd65ca","study_id":"6197b3f67c2b5cd3b6d9596a","session_id":"619be31e19886dee245cca70","condition":"contingent","relevant_dimensions":["antennae","wings"],"bee_group":{"antennae":"A","wings":"2","pattern":"X","legs":"X"},"action":"avoid","summary":"bad-avoid","bonus":0.02},{"rt":815.1999999880791,"stimulus":"\n                    <p><b>Action: <em>avoid</em></b></p>\n                    <p>This is the bee that you just saw.</p>\n                    <img src=\"bees-with-color/bee-B1DM.svg\" width=\"200\">\n                    <p><br>Your bonus pay is unchanged, and remains at $0.16.</p>\n            ","response":0,"trial_type":"html-button-response","trial_index":130,"time_elapsed":383943,"internal_node_id":"0.0-4.0-1.61","subject_id":"61356377bda43b654ccd65ca","study_id":"6197b3f67c2b5cd3b6d9596a","session_id":"619be31e19886dee245cca70","condition":"contingent","relevant_dimensions":["antennae","wings"],"bee_group":{"antennae":"A","wings":"2","pattern":"X","legs":"X"},"bonus":0.02},{"rt":803,"stimulus":"bees-with-color/bee-A1DF.svg","response":0,"trial_type":"image-button-response","trial_index":131,"time_elapsed":384747,"internal_node_id":"0.0-4.0-0.62","subject_id":"61356377bda43b654ccd65ca","study_id":"6197b3f67c2b5cd3b6d9596a","session_id":"619be31e19886dee245cca70","condition":"contingent","relevant_dimensions":["antennae","wings"],"bee_group":{"antennae":"A","wings":"2","pattern":"X","legs":"X"},"action":"harvest","summary":"good-harvest","bonus":0.02},{"rt":527.1999999880791,"stimulus":"\n                    <p><b>Action: <em>harvest</em></b></p>\n                    <p>This is the bee that you just saw.</p>\n                    <img src=\"bees-with-color/bee-A1DF.svg\" width=\"200\">\n                    <p><span class=\"greenText\"><b>Successful harvest!</b></span><br>Your pay has increased by $0.02. Your bonus pay is now $0.18.</p>\n            ","response":0,"trial_type":"html-button-response","trial_index":132,"time_elapsed":385275,"internal_node_id":"0.0-4.0-1.62","subject_id":"61356377bda43b654ccd65ca","study_id":"6197b3f67c2b5cd3b6d9596a","session_id":"619be31e19886dee245cca70","condition":"contingent","relevant_dimensions":["antennae","wings"],"bee_group":{"antennae":"A","wings":"2","pattern":"X","legs":"X"},"bonus":0.02},{"rt":779.2000000178814,"stimulus":"bees-with-color/bee-B2DF.svg","response":0,"trial_type":"image-button-response","trial_index":133,"time_elapsed":386055,"internal_node_id":"0.0-4.0-0.63","subject_id":"61356377bda43b654ccd65ca","study_id":"6197b3f67c2b5cd3b6d9596a","session_id":"619be31e19886dee245cca70","condition":"contingent","relevant_dimensions":["antennae","wings"],"bee_group":{"antennae":"A","wings":"2","pattern":"X","legs":"X"},"action":"harvest","summary":"good-harvest","bonus":0.02},{"rt":419.19999998807907,"stimulus":"\n                    <p><b>Action: <em>harvest</em></b></p>\n                    <p>This is the bee that you just saw.</p>\n                    <img src=\"bees-with-color/bee-B2DF.svg\" width=\"200\">\n                    <p><span class=\"greenText\"><b>Successful harvest!</b></span><br>Your pay has increased by $0.02. Your bonus pay is now $0.20.</p>\n            ","response":0,"trial_type":"html-button-response","trial_index":134,"time_elapsed":386475,"internal_node_id":"0.0-4.0-1.63","subject_id":"61356377bda43b654ccd65ca","study_id":"6197b3f67c2b5cd3b6d9596a","session_id":"619be31e19886dee245cca70","condition":"contingent","relevant_dimensions":["antennae","wings"],"bee_group":{"antennae":"A","wings":"2","pattern":"X","legs":"X"},"bonus":0.02},{"rt":2061.5999999940395,"stimulus":"You have completed the first part of this experiment.<br><br>You will now begin a shorter second part, in which you will receive no feedback.<br>The same rules regarding bonus pay apply.<br><br>Press any key to begin.","response":"alt","trial_type":"html-keyboard-response","trial_index":135,"time_elapsed":388538,"internal_node_id":"0.0-5.0","subject_id":"61356377bda43b654ccd65ca","study_id":"6197b3f67c2b5cd3b6d9596a","session_id":"619be31e19886dee245cca70","condition":"contingent","relevant_dimensions":["antennae","wings"],"bee_group":{"antennae":"A","wings":"2","pattern":"X","legs":"X"},"bonus":0.02},{"rt":4827.0999999940395,"stimulus":"bees-with-color/bee-B2SF.svg","response":0,"trial_type":"image-button-response","trial_index":136,"time_elapsed":393387,"internal_node_id":"0.0-6.0-0.0","subject_id":"61356377bda43b654ccd65ca","study_id":"6197b3f67c2b5cd3b6d9596a","session_id":"619be31e19886dee245cca70","condition":"contingent","relevant_dimensions":["antennae","wings"],"bee_group":{"antennae":"A","wings":"2","pattern":"X","legs":"X"},"bonus":0.02},{"rt":2206.5,"stimulus":"bees-with-color/bee-A1DM.svg","response":1,"trial_type":"image-button-response","trial_index":137,"time_elapsed":395595,"internal_node_id":"0.0-6.0-0.1","subject_id":"61356377bda43b654ccd65ca","study_id":"6197b3f67c2b5cd3b6d9596a","session_id":"619be31e19886dee245cca70","condition":"contingent","relevant_dimensions":["antennae","wings"],"bee_group":{"antennae":"A","wings":"2","pattern":"X","legs":"X"},"bonus":0.02},{"rt":3214.9000000059605,"stimulus":"bees-with-color/bee-B2SM.svg","response":1,"trial_type":"image-button-response","trial_index":138,"time_elapsed":398811,"internal_node_id":"0.0-6.0-0.2","subject_id":"61356377bda43b654ccd65ca","study_id":"6197b3f67c2b5cd3b6d9596a","session_id":"619be31e19886dee245cca70","condition":"contingent","relevant_dimensions":["antennae","wings"],"bee_group":{"antennae":"A","wings":"2","pattern":"X","legs":"X"},"bonus":0.02},{"rt":598.5999999940395,"stimulus":"bees-with-color/bee-A1DF.svg","response":0,"trial_type":"image-button-response","trial_index":139,"time_elapsed":399411,"internal_node_id":"0.0-6.0-0.3","subject_id":"61356377bda43b654ccd65ca","study_id":"6197b3f67c2b5cd3b6d9596a","session_id":"619be31e19886dee245cca70","condition":"contingent","relevant_dimensions":["antennae","wings"],"bee_group":{"antennae":"A","wings":"2","pattern":"X","legs":"X"},"bonus":0.02},{"rt":946.8000000119209,"stimulus":"bees-with-color/bee-A2SF.svg","response":0,"trial_type":"image-button-response","trial_index":140,"time_elapsed":400359,"internal_node_id":"0.0-6.0-0.4","subject_id":"61356377bda43b654ccd65ca","study_id":"6197b3f67c2b5cd3b6d9596a","session_id":"619be31e19886dee245cca70","condition":"contingent","relevant_dimensions":["antennae","wings"],"bee_group":{"antennae":"A","wings":"2","pattern":"X","legs":"X"},"bonus":0.02},{"rt":1775.1000000238419,"stimulus":"bees-with-color/bee-A2DM.svg","response":0,"trial_type":"image-button-response","trial_index":141,"time_elapsed":402135,"internal_node_id":"0.0-6.0-0.5","subject_id":"61356377bda43b654ccd65ca","study_id":"6197b3f67c2b5cd3b6d9596a","session_id":"619be31e19886dee245cca70","condition":"contingent","relevant_dimensions":["antennae","wings"],"bee_group":{"antennae":"A","wings":"2","pattern":"X","legs":"X"},"bonus":0.02},{"rt":1882.300000011921,"stimulus":"bees-with-color/bee-B2DF.svg","response":0,"trial_type":"image-button-response","trial_index":142,"time_elapsed":404019,"internal_node_id":"0.0-6.0-0.6","subject_id":"61356377bda43b654ccd65ca","study_id":"6197b3f67c2b5cd3b6d9596a","session_id":"619be31e19886dee245cca70","condition":"contingent","relevant_dimensions":["antennae","wings"],"bee_group":{"antennae":"A","wings":"2","pattern":"X","legs":"X"},"bonus":0.02},{"rt":2675.100000023842,"stimulus":"bees-with-color/bee-A1SF.svg","response":0,"trial_type":"image-button-response","trial_index":143,"time_elapsed":406695,"internal_node_id":"0.0-6.0-0.7","subject_id":"61356377bda43b654ccd65ca","study_id":"6197b3f67c2b5cd3b6d9596a","session_id":"619be31e19886dee245cca70","condition":"contingent","relevant_dimensions":["antennae","wings"],"bee_group":{"antennae":"A","wings":"2","pattern":"X","legs":"X"},"bonus":0.02},{"rt":1474.300000011921,"stimulus":"bees-with-color/bee-B1SF.svg","response":0,"trial_type":"image-button-response","trial_index":144,"time_elapsed":408171,"internal_node_id":"0.0-6.0-0.8","subject_id":"61356377bda43b654ccd65ca","study_id":"6197b3f67c2b5cd3b6d9596a","session_id":"619be31e19886dee245cca70","condition":"contingent","relevant_dimensions":["antennae","wings"],"bee_group":{"antennae":"A","wings":"2","pattern":"X","legs":"X"},"bonus":0.02},{"rt":1990.9000000059605,"stimulus":"bees-with-color/bee-B1DF.svg","response":1,"trial_type":"image-button-response","trial_index":145,"time_elapsed":410163,"internal_node_id":"0.0-6.0-0.9","subject_id":"61356377bda43b654ccd65ca","study_id":"6197b3f67c2b5cd3b6d9596a","session_id":"619be31e19886dee245cca70","condition":"contingent","relevant_dimensions":["antennae","wings"],"bee_group":{"antennae":"A","wings":"2","pattern":"X","legs":"X"},"bonus":0.02},{"rt":1042.6000000238419,"stimulus":"bees-with-color/bee-B1SM.svg","response":1,"trial_type":"image-button-response","trial_index":146,"time_elapsed":411207,"internal_node_id":"0.0-6.0-0.10","subject_id":"61356377bda43b654ccd65ca","study_id":"6197b3f67c2b5cd3b6d9596a","session_id":"619be31e19886dee245cca70","condition":"contingent","relevant_dimensions":["antennae","wings"],"bee_group":{"antennae":"A","wings":"2","pattern":"X","legs":"X"},"bonus":0.02},{"rt":1007.2000000178814,"stimulus":"bees-with-color/bee-B2DM.svg","response":1,"trial_type":"image-button-response","trial_index":147,"time_elapsed":412215,"internal_node_id":"0.0-6.0-0.11","subject_id":"61356377bda43b654ccd65ca","study_id":"6197b3f67c2b5cd3b6d9596a","session_id":"619be31e19886dee245cca70","condition":"contingent","relevant_dimensions":["antennae","wings"],"bee_group":{"antennae":"A","wings":"2","pattern":"X","legs":"X"},"bonus":0.02},{"rt":1582.300000011921,"stimulus":"bees-with-color/bee-A2SM.svg","response":1,"trial_type":"image-button-response","trial_index":148,"time_elapsed":413799,"internal_node_id":"0.0-6.0-0.12","subject_id":"61356377bda43b654ccd65ca","study_id":"6197b3f67c2b5cd3b6d9596a","session_id":"619be31e19886dee245cca70","condition":"contingent","relevant_dimensions":["antennae","wings"],"bee_group":{"antennae":"A","wings":"2","pattern":"X","legs":"X"},"bonus":0.02},{"rt":2350.800000011921,"stimulus":"bees-with-color/bee-A1SM.svg","response":0,"trial_type":"image-button-response","trial_index":149,"time_elapsed":416151,"internal_node_id":"0.0-6.0-0.13","subject_id":"61356377bda43b654ccd65ca","study_id":"6197b3f67c2b5cd3b6d9596a","session_id":"619be31e19886dee245cca70","condition":"contingent","relevant_dimensions":["antennae","wings"],"bee_group":{"antennae":"A","wings":"2","pattern":"X","legs":"X"},"bonus":0.02},{"rt":1210.5,"stimulus":"bees-with-color/bee-B1DM.svg","response":1,"trial_type":"image-button-response","trial_index":150,"time_elapsed":417363,"internal_node_id":"0.0-6.0-0.14","subject_id":"61356377bda43b654ccd65ca","study_id":"6197b3f67c2b5cd3b6d9596a","session_id":"619be31e19886dee245cca70","condition":"contingent","relevant_dimensions":["antennae","wings"],"bee_group":{"antennae":"A","wings":"2","pattern":"X","legs":"X"},"bonus":0.02},{"rt":922.5,"stimulus":"bees-with-color/bee-A2DF.svg","response":0,"trial_type":"image-button-response","trial_index":151,"time_elapsed":418287,"internal_node_id":"0.0-6.0-0.15","subject_id":"61356377bda43b654ccd65ca","study_id":"6197b3f67c2b5cd3b6d9596a","session_id":"619be31e19886dee245cca70","condition":"contingent","relevant_dimensions":["antennae","wings"],"bee_group":{"antennae":"A","wings":"2","pattern":"X","legs":"X"},"bonus":0.02},{"rt":755.0999999940395,"stimulus":"bees-with-color/bee-B2DF.svg","response":0,"trial_type":"image-button-response","trial_index":152,"time_elapsed":419043,"internal_node_id":"0.0-6.0-0.16","subject_id":"61356377bda43b654ccd65ca","study_id":"6197b3f67c2b5cd3b6d9596a","session_id":"619be31e19886dee245cca70","condition":"contingent","relevant_dimensions":["antennae","wings"],"bee_group":{"antennae":"A","wings":"2","pattern":"X","legs":"X"},"bonus":0.02},{"rt":1199.0999999940395,"stimulus":"bees-with-color/bee-B1SM.svg","response":1,"trial_type":"image-button-response","trial_index":153,"time_elapsed":420243,"internal_node_id":"0.0-6.0-0.17","subject_id":"61356377bda43b654ccd65ca","study_id":"6197b3f67c2b5cd3b6d9596a","session_id":"619be31e19886dee245cca70","condition":"contingent","relevant_dimensions":["antennae","wings"],"bee_group":{"antennae":"A","wings":"2","pattern":"X","legs":"X"},"bonus":0.02},{"rt":2735.9000000059605,"stimulus":"bees-with-color/bee-A1DM.svg","response":1,"trial_type":"image-button-response","trial_index":154,"time_elapsed":422979,"internal_node_id":"0.0-6.0-0.18","subject_id":"61356377bda43b654ccd65ca","study_id":"6197b3f67c2b5cd3b6d9596a","session_id":"619be31e19886dee245cca70","condition":"contingent","relevant_dimensions":["antennae","wings"],"bee_group":{"antennae":"A","wings":"2","pattern":"X","legs":"X"},"bonus":0.02},{"rt":669.9000000059605,"stimulus":"bees-with-color/bee-B2SF.svg","response":0,"trial_type":"image-button-response","trial_index":155,"time_elapsed":423651,"internal_node_id":"0.0-6.0-0.19","subject_id":"61356377bda43b654ccd65ca","study_id":"6197b3f67c2b5cd3b6d9596a","session_id":"619be31e19886dee245cca70","condition":"contingent","relevant_dimensions":["antennae","wings"],"bee_group":{"antennae":"A","wings":"2","pattern":"X","legs":"X"},"bonus":0.02},{"rt":778.9000000059605,"stimulus":"bees-with-color/bee-A2SM.svg","response":1,"trial_type":"image-button-response","trial_index":156,"time_elapsed":424431,"internal_node_id":"0.0-6.0-0.20","subject_id":"61356377bda43b654ccd65ca","study_id":"6197b3f67c2b5cd3b6d9596a","session_id":"619be31e19886dee245cca70","condition":"contingent","relevant_dimensions":["antennae","wings"],"bee_group":{"antennae":"A","wings":"2","pattern":"X","legs":"X"},"bonus":0.02},{"rt":1031,"stimulus":"bees-with-color/bee-A2DM.svg","response":1,"trial_type":"image-button-response","trial_index":157,"time_elapsed":425463,"internal_node_id":"0.0-6.0-0.21","subject_id":"61356377bda43b654ccd65ca","study_id":"6197b3f67c2b5cd3b6d9596a","session_id":"619be31e19886dee245cca70","condition":"contingent","relevant_dimensions":["antennae","wings"],"bee_group":{"antennae":"A","wings":"2","pattern":"X","legs":"X"},"bonus":0.02},{"rt":910.8000000119209,"stimulus":"bees-with-color/bee-A1DF.svg","response":0,"trial_type":"image-button-response","trial_index":158,"time_elapsed":426375,"internal_node_id":"0.0-6.0-0.22","subject_id":"61356377bda43b654ccd65ca","study_id":"6197b3f67c2b5cd3b6d9596a","session_id":"619be31e19886dee245cca70","condition":"contingent","relevant_dimensions":["antennae","wings"],"bee_group":{"antennae":"A","wings":"2","pattern":"X","legs":"X"},"bonus":0.02},{"rt":1823.2000000178814,"stimulus":"bees-with-color/bee-A1SM.svg","response":1,"trial_type":"image-button-response","trial_index":159,"time_elapsed":428199,"internal_node_id":"0.0-6.0-0.23","subject_id":"61356377bda43b654ccd65ca","study_id":"6197b3f67c2b5cd3b6d9596a","session_id":"619be31e19886dee245cca70","condition":"contingent","relevant_dimensions":["antennae","wings"],"bee_group":{"antennae":"A","wings":"2","pattern":"X","legs":"X"},"bonus":0.02},{"rt":1415.199999988079,"stimulus":"bees-with-color/bee-A1SF.svg","response":0,"trial_type":"image-button-response","trial_index":160,"time_elapsed":429615,"internal_node_id":"0.0-6.0-0.24","subject_id":"61356377bda43b654ccd65ca","study_id":"6197b3f67c2b5cd3b6d9596a","session_id":"619be31e19886dee245cca70","condition":"contingent","relevant_dimensions":["antennae","wings"],"bee_group":{"antennae":"A","wings":"2","pattern":"X","legs":"X"},"bonus":0.02},{"rt":1811.300000011921,"stimulus":"bees-with-color/bee-B1DF.svg","response":0,"trial_type":"image-button-response","trial_index":161,"time_elapsed":431427,"internal_node_id":"0.0-6.0-0.25","subject_id":"61356377bda43b654ccd65ca","study_id":"6197b3f67c2b5cd3b6d9596a","session_id":"619be31e19886dee245cca70","condition":"contingent","relevant_dimensions":["antennae","wings"],"bee_group":{"antennae":"A","wings":"2","pattern":"X","legs":"X"},"bonus":0.02},{"rt":1342.4000000059605,"stimulus":"bees-with-color/bee-B2SM.svg","response":1,"trial_type":"image-button-response","trial_index":162,"time_elapsed":432771,"internal_node_id":"0.0-6.0-0.26","subject_id":"61356377bda43b654ccd65ca","study_id":"6197b3f67c2b5cd3b6d9596a","session_id":"619be31e19886dee245cca70","condition":"contingent","relevant_dimensions":["antennae","wings"],"bee_group":{"antennae":"A","wings":"2","pattern":"X","legs":"X"},"bonus":0.02},{"rt":1031,"stimulus":"bees-with-color/bee-B2DM.svg","response":1,"trial_type":"image-button-response","trial_index":163,"time_elapsed":433803,"internal_node_id":"0.0-6.0-0.27","subject_id":"61356377bda43b654ccd65ca","study_id":"6197b3f67c2b5cd3b6d9596a","session_id":"619be31e19886dee245cca70","condition":"contingent","relevant_dimensions":["antennae","wings"],"bee_group":{"antennae":"A","wings":"2","pattern":"X","legs":"X"},"bonus":0.02},{"rt":983.4000000059605,"stimulus":"bees-with-color/bee-A2DF.svg","response":0,"trial_type":"image-button-response","trial_index":164,"time_elapsed":434787,"internal_node_id":"0.0-6.0-0.28","subject_id":"61356377bda43b654ccd65ca","study_id":"6197b3f67c2b5cd3b6d9596a","session_id":"619be31e19886dee245cca70","condition":"contingent","relevant_dimensions":["antennae","wings"],"bee_group":{"antennae":"A","wings":"2","pattern":"X","legs":"X"},"bonus":0.02},{"rt":4234.399999976158,"stimulus":"bees-with-color/bee-B1DM.svg","response":1,"trial_type":"image-button-response","trial_index":165,"time_elapsed":439023,"internal_node_id":"0.0-6.0-0.29","subject_id":"61356377bda43b654ccd65ca","study_id":"6197b3f67c2b5cd3b6d9596a","session_id":"619be31e19886dee245cca70","condition":"contingent","relevant_dimensions":["antennae","wings"],"bee_group":{"antennae":"A","wings":"2","pattern":"X","legs":"X"},"bonus":0.02},{"rt":1138.7000000178814,"stimulus":"bees-with-color/bee-A2SF.svg","response":0,"trial_type":"image-button-response","trial_index":166,"time_elapsed":440163,"internal_node_id":"0.0-6.0-0.30","subject_id":"61356377bda43b654ccd65ca","study_id":"6197b3f67c2b5cd3b6d9596a","session_id":"619be31e19886dee245cca70","condition":"contingent","relevant_dimensions":["antennae","wings"],"bee_group":{"antennae":"A","wings":"2","pattern":"X","legs":"X"},"bonus":0.02},{"rt":1115.1000000238419,"stimulus":"bees-with-color/bee-B1SF.svg","response":0,"trial_type":"image-button-response","trial_index":167,"time_elapsed":441279,"internal_node_id":"0.0-6.0-0.31","subject_id":"61356377bda43b654ccd65ca","study_id":"6197b3f67c2b5cd3b6d9596a","session_id":"619be31e19886dee245cca70","condition":"contingent","relevant_dimensions":["antennae","wings"],"bee_group":{"antennae":"A","wings":"2","pattern":"X","legs":"X"},"bonus":0.02},{"rt":6299.4000000059605,"stimulus":"You started with $2.50 of base pay.<br><br>\n            You made $0.02 in bonus pay,\n            for a total of <b>$2.52</b>.","response":0,"trial_type":"html-button-response","trial_index":168,"time_elapsed":447579,"internal_node_id":"0.0-7.0-0.0","subject_id":"61356377bda43b654ccd65ca","study_id":"6197b3f67c2b5cd3b6d9596a","session_id":"619be31e19886dee245cca70","condition":"contingent","relevant_dimensions":["antennae","wings"],"bee_group":{"antennae":"A","wings":"2","pattern":"X","legs":"X"},"bonus":0.02},{"rt":9009.09999999404,"response":{"percent-dangerous-bees":"60"},"trial_type":"survey-text","trial_ind