[{"success":true,"trial_type":"fullscreen","trial_index":0,"time_elapsed":4081,"internal_node_id":"0.0-0.0","subject_id":"60fd56b6df52345b18535feb","study_id":"6197b3f67c2b5cd3b6d9596a","session_id":"619be31e2fcc7296545c190a","condition":"contingent","relevant_dimensions":["antennae","legs"],"bee_group":{"antennae":"B","wings":"X","pattern":"X","legs":"M"},"bonus":1.180000000000001},{"success":true,"timeout":false,"failed_images":[],"failed_audio":[],"failed_video":[],"trial_type":"preload","trial_index":1,"time_elapsed":9056,"internal_node_id":"0.0-1.0","subject_id":"60fd56b6df52345b18535feb","study_id":"6197b3f67c2b5cd3b6d9596a","session_id":"619be31e2fcc7296545c190a","condition":"contingent","relevant_dimensions":["antennae","legs"],"bee_group":{"antennae":"B","wings":"X","pattern":"X","legs":"M"},"bonus":1.180000000000001},{"rt":2144.5,"stimulus":"Welcome! Press any key to begin.","response":"m","trial_type":"html-keyboard-response","trial_index":2,"time_elapsed":11203,"internal_node_id":"0.0-2.0","subject_id":"60fd56b6df52345b18535feb","study_id":"6197b3f67c2b5cd3b6d9596a","session_id":"619be31e2fcc7296545c190a","condition":"contingent","relevant_dimensions":["antennae","legs"],"bee_group":{"antennae":"B","wings":"X","pattern":"X","legs":"M"},"bonus":1.180000000000001},{"view_history":[{"page_index":0,"viewing_time":4449.699999928474},{"page_index":1,"viewing_time":9972.800000071526},{"page_index":2,"viewing_time":11267.600000023842},{"page_index":3,"viewing_time":11658.899999976158},{"page_index":4,"viewing_time":9384.799999952316},{"page_index":5,"viewing_time":9777.300000071526},{"page_index":6,"viewing_time":26505},{"page_index":7,"viewing_time":9536.799999952316},{"page_index":8,"viewing_time":5701.600000023842},{"page_index":9,"viewing_time":7638.399999976158},{"page_index":10,"viewing_time":7621.600000023842},{"page_index":11,"viewing_time":9207.399999976158},{"page_index":12,"viewing_time":27620.100000023842},{"page_index":13,"viewing_time":1830.6999999284744},{"page_index":14,"viewing_time":2434.2000000476837}],"rt":154607.19999992847,"trial_type":"instructions","trial_index":3,"time_elapsed":165810,"internal_node_id":"0.0-3.0-0.0","subject_id":"60fd56b6df52345b18535feb","study_id":"6197b3f67c2b5cd3b6d9596a","session_id":"619be31e2fcc7296545c190a","condition":"contingent","relevant_dimensions":["antennae","legs"],"bee_group":{"antennae":"B","wings":"X","pattern":"X","legs":"M"},"bonus":1.180000000000001},{"rt":13406.799999952316,"response":{"Q0":["Two or six legs","Stripes or spots on body","Single or double wings","Antennae or no antennae"]},"question_order":[0],"trial_type":"survey-multi-select","trial_index":4,"time_elapsed":179226,"internal_node_id":"0.0-3.0-1.0","subject_id":"60fd56b6df52345b18535feb","study_id":"6197b3f67c2b5cd3b6d9596a","session_id":"619be31e2fcc7296545c190a","condition":"contingent","relevant_dimensions":["antennae","legs"],"bee_group":{"antennae":"B","wings":"X","pattern":"X","legs":"M"},"correct":true,"bonus":1.180000000000001},{"rt":20030.600000023842,"response":{"Q1":"No.","Q2":"Based on the four features of the bee.","Q3":"You do not learn if it was friendly or dangerous, and do not alter your bonus."},"question_order":[0,1,2],"trial_type":"survey-multi-choice","trial_index":5,"time_elapsed":199262,"internal_node_id":"0.0-3.0-2.0","subject_id":"60fd56b6df52345b18535feb","study_id":"6197b3f67c2b5cd3b6d9596a","session_id":"619be31e2fcc7296545c190a","condition":"contingent","relevant_dimensions":["antennae","legs"],"bee_group":{"antennae":"B","wings":"X","pattern":"X","legs":"M"},"correct":true,"bonus":1.180000000000001},{"rt":7017.200000047684,"stimulus":"<p>Congrats, you got everything right<br>When you're ready, click the button below to continue to the experiment.</p>","response":0,"trial_type":"html-button-response","trial_index":6,"time_elapsed":206282,"internal_node_id":"0.0-3.0-3.0","subject_id":"60fd56b6df52345b18535feb","study_id":"6197b3f67c2b5cd3b6d9596a","session_id":"619be31e2fcc7296545c190a","condition":"contingent","relevant_dimensions":["antennae","legs"],"bee_group":{"antennae":"B","wings":"X","pattern":"X","legs":"M"},"bonus":1.180000000000001},{"rt":13160.899999976158,"stimulus":"bees-with-color/bee-B1SM.svg","response":0,"trial_type":"image-button-response","trial_index":7,"time_elapsed":219453,"internal_node_id":"0.0-4.0-0.0","subject_id":"60fd56b6df52345b18535feb","study_id":"6197b3f67c2b5cd3b6d9596a","session_id":"619be31e2fcc7296545c190a","condition":"contingent","relevant_dimensions":["antennae","legs"],"bee_group":{"antennae":"B","wings":"X","pattern":"X","legs":"M"},"action":"harvest","summary":"bad-harvest","bonus":1.180000000000001},{"rt":7997.300000071526,"stimulus":"\n                    <p><b>Action: <em>harvest</em></b></p>\n                    <p>This is the bee that you just saw.</p>\n                    <img src=\"bees-with-color/bee-B1SM.svg\" width=\"200\">\n                    <p><span class=\"redText\">Bad choice, the bee was angry.</span><br><b>You have been stung!</b><br>Your pay has been decreased by $0.10. Your bonus pay is now $0.44.</p>\n            ","response":0,"trial_type":"html-button-response","trial_index":8,"time_elapsed":227462,"internal_node_id":"0.0-4.0-1.0","subject_id":"60fd56b6df52345b18535feb","study_id":"6197b3f67c2b5cd3b6d9596a","session_id":"619be31e2fcc7296545c190a","condition":"contingent","relevant_dimensions":["antennae","legs"],"bee_group":{"antennae":"B","wings":"X","pattern":"X","legs":"M"},"bonus":1.180000000000001},{"rt":10248.800000071526,"stimulus":"bees-with-color/bee-B2SF.svg","response":0,"trial_type":"image-button-response","trial_index":9,"time_elapsed":237718,"internal_node_id":"0.0-4.0-0.1","subject_id":"60fd56b6df52345b18535feb","study_id":"6197b3f67c2b5cd3b6d9596a","session_id":"619be31e2fcc7296545c190a","condition":"contingent","relevant_dimensions":["antennae","legs"],"bee_group":{"antennae":"B","wings":"X","pattern":"X","legs":"M"},"action":"harvest","summary":"good-harvest","bonus":1.180000000000001},{"rt":14550.200000047684,"stimulus":"\n                    <p><b>Action: <em>harvest</em></b></p>\n                    <p>This is the bee that you just saw.</p>\n                    <img src=\"bees-with-color/bee-B2SF.svg\" width=\"200\">\n                    <p><span class=\"greenText\"><b>Successful harvest!</b></span><br>Your pay has increased by $0.02. Your bonus pay is now $0.46.</p>\n            ","response":0,"trial_type":"html-button-response","trial_index":10,"time_elapsed":252274,"internal_node_id":"0.0-4.0-1.1","subject_id":"60fd56b6df52345b18535feb","study_id":"6197b3f67c2b5cd3b6d9596a","session_id":"619be31e2fcc7296545c190a","condition":"contingent","relevant_dimensions":["antennae","legs"],"bee_group":{"antennae":"B","wings":"X","pattern":"X","legs":"M"},"bonus":1.180000000000001},{"rt":4332.299999952316,"stimulus":"bees-with-color/bee-A1SM.svg","response":0,"trial_type":"image-button-response","trial_index":11,"time_elapsed":256614,"internal_node_id":"0.0-4.0-0.2","subject_id":"60fd56b6df52345b18535feb","study_id":"6197b3f67c2b5cd3b6d9596a","session_id":"619be31e2fcc7296545c190a","condition":"contingent","relevant_dimensions":["antennae","legs"],"bee_group":{"antennae":"B","wings":"X","pattern":"X","legs":"M"},"action":"harvest","summary":"good-harvest","bonus":1.180000000000001},{"rt":8463.100000023842,"stimulus":"\n                    <p><b>Action: <em>harvest</em></b></p>\n                    <p>This is the bee that you just saw.</p>\n                    <img src=\"bees-with-color/bee-A1SM.svg\" width=\"200\">\n                    <p><span class=\"greenText\"><b>Successful harvest!</b></span><br>Your pay has increased by $0.02. Your bonus pay is now $0.48.</p>\n            ","response":0,"trial_type":"html-button-response","trial_index":12,"time_elapsed":265081,"internal_node_id":"0.0-4.0-1.2","subject_id":"60fd56b6df52345b18535feb","study_id":"6197b3f67c2b5cd3b6d9596a","session_id":"619be31e2fcc7296545c190a","condition":"contingent","relevant_dimensions":["antennae","legs"],"bee_group":{"antennae":"B","wings":"X","pattern":"X","legs":"M"},"bonus":1.180000000000001},{"rt":4145,"stimulus":"bees-with-color/bee-B2DM.svg","response":0,"trial_type":"image-button-response","trial_index":13,"time_elapsed":269233,"internal_node_id":"0.0-4.0-0.3","subject_id":"60fd56b6df52345b18535feb","study_id":"6197b3f67c2b5cd3b6d9596a","session_id":"619be31e2fcc7296545c190a","condition":"contingent","relevant_dimensions":["antennae","legs"],"bee_group":{"antennae":"B","wings":"X","pattern":"X","legs":"M"},"action":"harvest","summary":"bad-harvest","bonus":1.180000000000001},{"rt":8740.600000023842,"stimulus":"\n                    <p><b>Action: <em>harvest</em></b></p>\n                    <p>This is the bee that you just saw.</p>\n                    <img src=\"bees-with-color/bee-B2DM.svg\" width=\"200\">\n                    <p><span class=\"redText\">Bad choice, the bee was angry.</span><br><b>You have been stung!</b><br>Your pay has been decreased by $0.10. Your bonus pay is now $0.38.</p>\n            ","response":0,"trial_type":"html-button-response","trial_index":14,"time_elapsed":277978,"internal_node_id":"0.0-4.0-1.3","subject_id":"60fd56b6df52345b18535feb","study_id":"6197b3f67c2b5cd3b6d9596a","session_id":"619be31e2fcc7296545c190a","condition":"contingent","relevant_dimensions":["antennae","legs"],"bee_group":{"antennae":"B","wings":"X","pattern":"X","legs":"M"},"bonus":1.180000000000001},{"rt":5128.899999976158,"stimulus":"bees-with-color/bee-A2SM.svg","response":0,"trial_type":"image-button-response","trial_index":15,"time_elapsed":283111,"internal_node_id":"0.0-4.0-0.4","subject_id":"60fd56b6df52345b18535feb","study_id":"6197b3f67c2b5cd3b6d9596a","session_id":"619be31e2fcc7296545c190a","condition":"contingent","relevant_dimensions":["antennae","legs"],"bee_group":{"antennae":"B","wings":"X","pattern":"X","legs":"M"},"action":"harvest","summary":"good-harvest","bonus":1.180000000000001},{"rt":6859.899999976158,"stimulus":"\n                    <p><b>Action: <em>harvest</em></b></p>\n                    <p>This is the bee that you just saw.</p>\n                    <img src=\"bees-with-color/bee-A2SM.svg\" width=\"200\">\n                    <p><span class=\"greenText\"><b>Successful harvest!</b></span><br>Your pay has increased by $0.02. Your bonus pay is now $0.40.</p>\n            ","response":0,"trial_type":"html-button-response","trial_index":16,"time_elapsed":289974,"internal_node_id":"0.0-4.0-1.4","subject_id":"60fd56b6df52345b18535feb","study_id":"6197b3f67c2b5cd3b6d9596a","session_id":"619be31e2fcc7296545c190a","condition":"contingent","relevant_dimensions":["antennae","legs"],"bee_group":{"antennae":"B","wings":"X","pattern":"X","legs":"M"},"bonus":1.180000000000001},{"rt":5940.699999928474,"stimulus":"bees-with-color/bee-A1SF.svg","response":0,"trial_type":"image-button-response","trial_index":17,"time_elapsed":295921,"internal_node_id":"0.0-4.0-0.5","subject_id":"60fd56b6df52345b18535feb","study_id":"6197b3f67c2b5cd3b6d9596a","session_id":"619be31e2fcc7296545c190a","condition":"contingent","relevant_dimensions":["antennae","legs"],"bee_group":{"antennae":"B","wings":"X","pattern":"X","legs":"M"},"action":"harvest","summary":"good-harvest","bonus":1.180000000000001},{"rt":6358.599999904633,"stimulus":"\n                    <p><b>Action: <em>harvest</em></b></p>\n                    <p>This is the bee that you just saw.</p>\n                    <img src=\"bees-with-color/bee-A1SF.svg\" width=\"200\">\n                    <p><span class=\"greenText\"><b>Successful harvest!</b></span><br>Your pay has increased by $0.02. Your bonus pay is now $0.42.</p>\n            ","response":0,"trial_type":"html-button-response","trial_index":18,"time_elapsed":302283,"internal_node_id":"0.0-4.0-1.5","subject_id":"60fd56b6df52345b18535feb","study_id":"6197b3f67c2b5cd3b6d9596a","session_id":"619be31e2fcc7296545c190a","condition":"contingent","relevant_dimensions":["antennae","legs"],"bee_group":{"antennae":"B","wings":"X","pattern":"X","legs":"M"},"bonus":1.180000000000001},{"rt":24348.300000071526,"stimulus":"bees-with-color/bee-A1DF.svg","response":0,"trial_type":"image-button-response","trial_index":19,"time_elapsed":326636,"internal_node_id":"0.0-4.0-0.6","subject_id":"60fd56b6df52345b18535feb","study_id":"6197b3f67c2b5cd3b6d9596a","session_id":"619be31e2fcc7296545c190a","condition":"contingent","relevant_dimensions":["antennae","legs"],"bee_group":{"antennae":"B","wings":"X","pattern":"X","legs":"M"},"action":"harvest","summary":"good-harvest","bonus":1.180000000000001},{"rt":7372,"stimulus":"\n                    <p><b>Action: <em>harvest</em></b></p>\n                    <p>This is the bee that you just saw.</p>\n                    <img src=\"bees-with-color/bee-A1DF.svg\" width=\"200\">\n                    <p><span class=\"greenText\"><b>Successful harvest!</b></span><br>Your pay has increased by $0.02. Your bonus pay is now $0.44.</p>\n            ","response":0,"trial_type":"html-button-response","trial_index":20,"time_elapsed":334012,"internal_node_id":"0.0-4.0-1.6","subject_id":"60fd56b6df52345b18535feb","study_id":"6197b3f67c2b5cd3b6d9596a","session_id":"619be31e2fcc7296545c190a","condition":"contingent","relevant_dimensions":["antennae","legs"],"bee_group":{"antennae":"B","wings":"X","pattern":"X","legs":"M"},"bonus":1.180000000000001},{"rt":2218.7999999523163,"stimulus":"bees-with-color/bee-B1DF.svg","response":0,"trial_type":"image-button-response","trial_index":21,"time_elapsed":336236,"internal_node_id":"0.0-4.0-0.7","subject_id":"60fd56b6df52345b18535feb","study_id":"6197b3f67c2b5cd3b6d9596a","session_id":"619be31e2fcc7296545c190a","condition":"contingent","relevant_dimensions":["antennae","legs"],"bee_group":{"antennae":"B","wings":"X","pattern":"X","legs":"M"},"action":"harvest","summary":"good-harvest","bonus":1.180000000000001},{"rt":1865.2999999523163,"stimulus":"\n                    <p><b>Action: <em>harvest</em></b></p>\n                    <p>This is the bee that you just saw.</p>\n                    <img src=\"bees-with-color/bee-B1DF.svg\" width=\"200\">\n                    <p><span class=\"greenText\"><b>Successful harvest!</b></span><br>Your pay has increased by $0.02. Your bonus pay is now $0.46.</p>\n            ","response":0,"trial_type":"html-button-response","trial_index":22,"time_elapsed":338105,"internal_node_id":"0.0-4.0-1.7","subject_id":"60fd56b6df52345b18535feb","study_id":"6197b3f67c2b5cd3b6d9596a","session_id":"619be31e2fcc7296545c190a","condition":"contingent","relevant_dimensions":["antennae","legs"],"bee_group":{"antennae":"B","wings":"X","pattern":"X","legs":"M"},"bonus":1.180000000000001},{"rt":3957.8000000715256,"stimulus":"bees-with-color/bee-A2SF.svg","response":0,"trial_type":"image-button-response","trial_index":23,"time_elapsed":342069,"internal_node_id":"0.0-4.0-0.8","subject_id":"60fd56b6df52345b18535feb","study_id":"6197b3f67c2b5cd3b6d9596a","session_id":"619be31e2fcc7296545c190a","condition":"contingent","relevant_dimensions":["antennae","legs"],"bee_group":{"antennae":"B","wings":"X","pattern":"X","legs":"M"},"action":"harvest","summary":"good-harvest","bonus":1.180000000000001},{"rt":6427.5,"stimulus":"\n                    <p><b>Action: <em>harvest</em></b></p>\n                    <p>This is the bee that you just saw.</p>\n                    <img src=\"bees-with-color/bee-A2SF.svg\" width=\"200\">\n                    <p><span class=\"greenText\"><b>Successful harvest!</b></span><br>Your pay has increased by $0.02. Your bonus pay is now $0.48.</p>\n            ","response":0,"trial_type":"html-button-response","trial_index":24,"time_elapsed":348502,"internal_node_id":"0.0-4.0-1.8","subject_id":"60fd56b6df52345b18535feb","study_id":"6197b3f67c2b5cd3b6d9596a","session_id":"619be31e2fcc7296545c190a","condition":"contingent","relevant_dimensions":["antennae","legs"],"bee_group":{"antennae":"B","wings":"X","pattern":"X","legs":"M"},"bonus":1.180000000000001},{"rt":4074.899999976158,"stimulus":"bees-with-color/bee-B2DF.svg","response":0,"trial_type":"image-button-response","trial_index":25,"time_elapsed":352582,"internal_node_id":"0.0-4.0-0.9","subject_id":"60fd56b6df52345b18535feb","study_id":"6197b3f67c2b5cd3b6d9596a","session_id":"619be31e2fcc7296545c190a","condition":"contingent","relevant_dimensions":["antennae","legs"],"bee_group":{"antennae":"B","wings":"X","pattern":"X","legs":"M"},"action":"harvest","summary":"good-harvest","bonus":1.180000000000001},{"rt":5390.200000047684,"stimulus":"\n                    <p><b>Action: <em>harvest</em></b></p>\n                    <p>This is the bee that you just saw.</p>\n                    <img src=\"bees-with-color/bee-B2DF.svg\" width=\"200\">\n                    <p><span class=\"greenText\"><b>Successful harvest!</b></span><br>Your pay has increased by $0.02. Your bonus pay is now $0.50.</p>\n            ","response":0,"trial_type":"html-button-response","trial_index":26,"time_elapsed":357976,"internal_node_id":"0.0-4.0-1.9","subject_id":"60fd56b6df52345b18535feb","study_id":"6197b3f67c2b5cd3b6d9596a","session_id":"619be31e2fcc7296545c190a","condition":"contingent","relevant_dimensions":["antennae","legs"],"bee_group":{"antennae":"B","wings":"X","pattern":"X","legs":"M"},"bonus":1.180000000000001},{"rt":3902.7000000476837,"stimulus":"bees-with-color/bee-B1SF.svg","response":0,"trial_type":"image-button-response","trial_index":27,"time_elapsed":361882,"internal_node_id":"0.0-4.0-0.10","subject_id":"60fd56b6df52345b18535feb","study_id":"6197b3f67c2b5cd3b6d9596a","session_id":"619be31e2fcc7296545c190a","condition":"contingent","relevant_dimensions":["antennae","legs"],"bee_group":{"antennae":"B","wings":"X","pattern":"X","legs":"M"},"action":"harvest","summary":"good-harvest","bonus":1.180000000000001},{"rt":4783.399999976158,"stimulus":"\n                    <p><b>Action: <em>harvest</em></b></p>\n                    <p>This is the bee that you just saw.</p>\n                    <img src=\"bees-with-color/bee-B1SF.svg\" width=\"200\">\n                    <p><span class=\"greenText\"><b>Successful harvest!</b></span><br>Your pay has increased by $0.02. Your bonus pay is now $0.52.</p>\n            ","response":0,"trial_type":"html-button-response","trial_index":28,"time_elapsed":366671,"internal_node_id":"0.0-4.0-1.10","subject_id":"60fd56b6df52345b18535feb","study_id":"6197b3f67c2b5cd3b6d9596a","session_id":"619be31e2fcc7296545c190a","condition":"contingent","relevant_dimensions":["antennae","legs"],"bee_group":{"antennae":"B","wings":"X","pattern":"X","legs":"M"},"bonus":1.180000000000001},{"rt":6255.400000095367,"stimulus":"bees-with-color/bee-A1DM.svg","response":0,"trial_type":"image-button-response","trial_index":29,"time_elapsed":372932,"internal_node_id":"0.0-4.0-0.11","subject_id":"60fd56b6df52345b18535feb","study_id":"6197b3f67c2b5cd3b6d9596a","session_id":"619be31e2fcc7296545c190a","condition":"contingent","relevant_dimensions":["antennae","legs"],"bee_group":{"antennae":"B","wings":"X","pattern":"X","legs":"M"},"action":"harvest","summary":"good-harvest","bonus":1.180000000000001},{"rt":5345.100000023842,"stimulus":"\n                    <p><b>Action: <em>harvest</em></b></p>\n                    <p>This is the bee that you just saw.</p>\n                    <img src=\"bees-with-color/bee-A1DM.svg\" width=\"200\">\n                    <p><span class=\"greenText\"><b>Successful harvest!</b></span><br>Your pay has increased by $0.02. Your bonus pay is now $0.54.</p>\n            ","response":0,"trial_type":"html-button-response","trial_index":30,"time_elapsed":378281,"internal_node_id":"0.0-4.0-1.11","subject_id":"60fd56b6df52345b18535feb","study_id":"6197b3f67c2b5cd3b6d9596a","session_id":"619be31e2fcc7296545c190a","condition":"contingent","relevant_dimensions":["antennae","legs"],"bee_group":{"antennae":"B","wings":"X","pattern":"X","legs":"M"},"bonus":1.180000000000001},{"rt":2180.9000000953674,"stimulus":"bees-with-color/bee-A2DM.svg","response":0,"trial_type":"image-button-response","trial_index":31,"time_elapsed":380466,"internal_node_id":"0.0-4.0-0.12","subject_id":"60fd56b6df52345b18535feb","study_id":"6197b3f67c2b5cd3b6d9596a","session_id":"619be31e2fcc7296545c190a","condition":"contingent","relevant_dimensions":["antennae","legs"],"bee_group":{"antennae":"B","wings":"X","pattern":"X","legs":"M"},"action":"harvest","summary":"good-harvest","bonus":1.180000000000001},{"rt":4989.299999952316,"stimulus":"\n                    <p><b>Action: <em>harvest</em></b></p>\n                    <p>This is the bee that you just saw.</p>\n                    <img src=\"bees-with-color/bee-A2DM.svg\" width=\"200\">\n                    <p><span class=\"greenText\"><b>Successful harvest!</b></span><br>Your pay has increased by $0.02. Your bonus pay is now $0.56.</p>\n            ","response":0,"trial_type":"html-button-response","trial_index":32,"time_elapsed":385461,"internal_node_id":"0.0-4.0-1.12","subject_id":"60fd56b6df52345b18535feb","study_id":"6197b3f67c2b5cd3b6d9596a","session_id":"619be31e2fcc7296545c190a","condition":"contingent","relevant_dimensions":["antennae","legs"],"bee_group":{"antennae":"B","wings":"X","pattern":"X","legs":"M"},"bonus":1.180000000000001},{"rt":3111.3000000715256,"stimulus":"bees-with-color/bee-B2SM.svg","response":0,"trial_type":"image-button-response","trial_index":33,"time_elapsed":388577,"internal_node_id":"0.0-4.0-0.13","subject_id":"60fd56b6df52345b18535feb","study_id":"6197b3f67c2b5cd3b6d9596a","session_id":"619be31e2fcc7296545c190a","condition":"contingent","relevant_dimensions":["antennae","legs"],"bee_group":{"antennae":"B","wings":"X","pattern":"X","legs":"M"},"action":"harvest","summary":"bad-harvest","bonus":1.180000000000001},{"rt":5514,"stimulus":"\n                    <p><b>Action: <em>harvest</em></b></p>\n                    <p>This is the bee that you just saw.</p>\n                    <img src=\"bees-with-color/bee-B2SM.svg\" width=\"200\">\n                    <p><span class=\"redText\">Bad choice, the bee was angry.</span><br><b>You have been stung!</b><br>Your pay has been decreased by $0.10. Your bonus pay is now $0.46.</p>\n            ","response":0,"trial_type":"html-button-response","trial_index":34,"time_elapsed":394096,"internal_node_id":"0.0-4.0-1.13","subject_id":"60fd56b6df52345b18535feb","study_id":"6197b3f67c2b5cd3b6d9596a","session_id":"619be31e2fcc7296545c190a","condition":"contingent","relevant_dimensions":["antennae","legs"],"bee_group":{"antennae":"B","wings":"X","pattern":"X","legs":"M"},"bonus":1.180000000000001},{"rt":2741.600000023842,"stimulus":"bees-with-color/bee-A2DF.svg","response":0,"trial_type":"image-button-response","trial_index":35,"time_elapsed":396843,"internal_node_id":"0.0-4.0-0.14","subject_id":"60fd56b6df52345b18535feb","study_id":"6197b3f67c2b5cd3b6d9596a","session_id":"619be31e2fcc7296545c190a","condition":"contingent","relevant_dimensions":["antennae","legs"],"bee_group":{"antennae":"B","wings":"X","pattern":"X","legs":"M"},"action":"harvest","summary":"good-harvest","bonus":1.180000000000001},{"rt":5113,"stimulus":"\n                    <p><b>Action: <em>harvest</em></b></p>\n                    <p>This is the bee that you just saw.</p>\n                    <img src=\"bees-with-color/bee-A2DF.svg\" width=\"200\">\n                    <p><span class=\"greenText\"><b>Successful harvest!</b></span><br>Your pay has increased by $0.02. Your bonus pay is now $0.48.</p>\n            ","response":0,"trial_type":"html-button-response","trial_index":36,"time_elapsed":401961,"internal_node_id":"0.0-4.0-1.14","subject_id":"60fd56b6df52345b18535feb","study_id":"6197b3f67c2b5cd3b6d9596a","session_id":"619be31e2fcc7296545c190a","condition":"contingent","relevant_dimensions":["antennae","legs"],"bee_group":{"antennae":"B","wings":"X","pattern":"X","legs":"M"},"bonus":1.180000000000001},{"rt":4047.5,"stimulus":"bees-with-color/bee-B1DM.svg","response":1,"trial_type":"image-button-response","trial_index":37,"time_elapsed":406016,"internal_node_id":"0.0-4.0-0.15","subject_id":"60fd56b6df52345b18535feb","study_id":"6197b3f67c2b5cd3b6d9596a","session_id":"619be31e2fcc7296545c190a","condition":"contingent","relevant_dimensions":["antennae","legs"],"bee_group":{"antennae":"B","wings":"X","pattern":"X","legs":"M"},"action":"avoid","summary":"good-avoid","bonus":1.180000000000001},{"rt":6162.200000047684,"stimulus":"\n                    <p><b>Action: <em>avoid</em></b></p>\n                    <p>This is the bee that you just saw.</p>\n                    <img src=\"bees-with-color/bee-B1DM.svg\" width=\"200\">\n                    <p><br>Your bonus pay is unchanged, and remains at $0.48.</p>\n            ","response":0,"trial_type":"html-button-response","trial_index":38,"time_elapsed":412184,"internal_node_id":"0.0-4.0-1.15","subject_id":"60fd56b6df52345b18535feb","study_id":"6197b3f67c2b5cd3b6d9596a","session_id":"619be31e2fcc7296545c190a","condition":"contingent","relevant_dimensions":["antennae","legs"],"bee_group":{"antennae":"B","wings":"X","pattern":"X","legs":"M"},"bonus":1.180000000000001},{"rt":2275.899999976158,"stimulus":"bees-with-color/bee-A2DM.svg","response":0,"trial_type":"image-button-response","trial_index":39,"time_elapsed":414465,"internal_node_id":"0.0-4.0-0.16","subject_id":"60fd56b6df52345b18535feb","study_id":"6197b3f67c2b5cd3b6d9596a","session_id":"619be31e2fcc7296545c190a","condition":"contingent","relevant_dimensions":["antennae","legs"],"bee_group":{"antennae":"B","wings":"X","pattern":"X","legs":"M"},"action":"harvest","summary":"good-harvest","bonus":1.180000000000001},{"rt":5183.600000023842,"stimulus":"\n                    <p><b>Action: <em>harvest</em></b></p>\n                    <p>This is the bee that you just saw.</p>\n                    <img src=\"bees-with-color/bee-A2DM.svg\" width=\"200\">\n                    <p><span class=\"greenText\"><b>Successful harvest!</b></span><br>Your pay has increased by $0.02. Your bonus pay is now $0.50.</p>\n            ","response":0,"trial_type":"html-button-response","trial_index":40,"time_elapsed":419652,"internal_node_id":"0.0-4.0-1.16","subject_id":"60fd56b6df52345b18535feb","study_id":"6197b3f67c2b5cd3b6d9596a","session_id":"619be31e2fcc7296545c190a","condition":"contingent","relevant_dimensions":["antennae","legs"],"bee_group":{"antennae":"B","wings":"X","pattern":"X","legs":"M"},"bonus":1.180000000000001},{"rt":6499.5,"stimulus":"bees-with-color/bee-B1SM.svg","response":1,"trial_type":"image-button-response","trial_index":41,"time_elapsed":426158,"internal_node_id":"0.0-4.0-0.17","subject_id":"60fd56b6df52345b18535feb","study_id":"6197b3f67c2b5cd3b6d9596a","session_id":"619be31e2fcc7296545c190a","condition":"contingent","relevant_dimensions":["antennae","legs"],"bee_group":{"antennae":"B","wings":"X","pattern":"X","legs":"M"},"action":"avoid","summary":"good-avoid","bonus":1.180000000000001},{"rt":2047.5,"stimulus":"\n                    <p><b>Action: <em>avoid</em></b></p>\n                    <p>This is the bee that you just saw.</p>\n                    <img src=\"bees-with-color/bee-B1SM.svg\" width=\"200\">\n                    <p><br>Your bonus pay is unchanged, and remains at $0.50.</p>\n            ","response":0,"trial_type":"html-button-response","trial_index":42,"time_elapsed":428209,"internal_node_id":"0.0-4.0-1.17","subject_id":"60fd56b6df52345b18535feb","study_id":"6197b3f67c2b5cd3b6d9596a","session_id":"619be31e2fcc7296545c190a","condition":"contingent","relevant_dimensions":["antennae","legs"],"bee_group":{"antennae":"B","wings":"X","pattern":"X","legs":"M"},"bonus":1.180000000000001},{"rt":2828.5,"stimulus":"bees-with-color/bee-B1DM.svg","response":1,"trial_type":"image-button-response","trial_index":43,"time_elapsed":431041,"internal_node_id":"0.0-4.0-0.18","subject_id":"60fd56b6df52345b18535feb","study_id":"6197b3f67c2b5cd3b6d9596a","session_id":"619be31e2fcc7296545c190a","condition":"contingent","relevant_dimensions":["antennae","legs"],"bee_group":{"antennae":"B","wings":"X","pattern":"X","legs":"M"},"action":"avoid","summary":"good-avoid","bonus":1.180000000000001},{"rt":1825.2000000476837,"stimulus":"\n                    <p><b>Action: <em>avoid</em></b></p>\n                    <p>This is the bee that you just saw.</p>\n                    <img src=\"bees-with-color/bee-B1DM.svg\" width=\"200\">\n                    <p><br>Your bonus pay is unchanged, and remains at $0.50.</p>\n            ","response":0,"trial_type":"html-button-response","trial_index":44,"time_elapsed":432870,"internal_node_id":"0.0-4.0-1.18","subject_id":"60fd56b6df52345b18535feb","study_id":"6197b3f67c2b5cd3b6d9596a","session_id":"619be31e2fcc7296545c190a","condition":"contingent","relevant_dimensions":["antennae","legs"],"bee_group":{"antennae":"B","wings":"X","pattern":"X","legs":"M"},"bonus":1.180000000000001},{"rt":2243.7000000476837,"stimulus":"bees-with-color/bee-A2DF.svg","response":0,"trial_type":"image-button-response","trial_index":45,"time_elapsed":435118,"internal_node_id":"0.0-4.0-0.19","subject_id":"60fd56b6df52345b18535feb","study_id":"6197b3f67c2b5cd3b6d9596a","session_id":"619be31e2fcc7296545c190a","condition":"contingent","relevant_dimensions":["antennae","legs"],"bee_group":{"antennae":"B","wings":"X","pattern":"X","legs":"M"},"action":"harvest","summary":"good-harvest","bonus":1.180000000000001},{"rt":5823.700000047684,"stimulus":"\n                    <p><b>Action: <em>harvest</em></b></p>\n                    <p>This is the bee that you just saw.</p>\n                    <img src=\"bees-with-color/bee-A2DF.svg\" width=\"200\">\n                    <p><span class=\"greenText\"><b>Successful harvest!</b></span><br>Your pay has increased by $0.02. Your bonus pay is now $0.52.</p>\n            ","response":0,"trial_type":"html-button-response","trial_index":46,"time_elapsed":440947,"internal_node_id":"0.0-4.0-1.19","subject_id":"60fd56b6df52345b18535feb","study_id":"6197b3f67c2b5cd3b6d9596a","session_id":"619be31e2fcc7296545c190a","condition":"contingent","relevant_dimensions":["antennae","legs"],"bee_group":{"antennae":"B","wings":"X","pattern":"X","legs":"M"},"bonus":1.180000000000001},{"rt":3011.600000023842,"stimulus":"bees-with-color/bee-B2DF.svg","response":1,"trial_type":"image-button-response","trial_index":47,"time_elapsed":443963,"internal_node_id":"0.0-4.0-0.20","subject_id":"60fd56b6df52345b18535feb","study_id":"6197b3f67c2b5cd3b6d9596a","session_id":"619be31e2fcc7296545c190a","condition":"contingent","relevant_dimensions":["antennae","legs"],"bee_group":{"antennae":"B","wings":"X","pattern":"X","legs":"M"},"action":"avoid","summary":"bad-avoid","bonus":1.180000000000001},{"rt":1389.1999999284744,"stimulus":"\n                    <p><b>Action: <em>avoid</em></b></p>\n                    <p>This is the bee that you just saw.</p>\n                    <img src=\"bees-with-color/bee-B2DF.svg\" width=\"200\">\n                    <p><br>Your bonus pay is unchanged, and remains at $0.52.</p>\n            ","response":0,"trial_type":"html-button-response","trial_index":48,"time_elapsed":445354,"internal_node_id":"0.0-4.0-1.20","subject_id":"60fd56b6df52345b18535feb","study_id":"6197b3f67c2b5cd3b6d9596a","session_id":"619be31e2fcc7296545c190a","condition":"contingent","relevant_dimensions":["antennae","legs"],"bee_group":{"antennae":"B","wings":"X","pattern":"X","legs":"M"},"bonus":1.180000000000001},{"rt":3585.100000023842,"stimulus":"bees-with-color/bee-A1DM.svg","response":1,"trial_type":"image-button-response","trial_index":49,"time_elapsed":448943,"internal_node_id":"0.0-4.0-0.21","subject_id":"60fd56b6df52345b18535feb","study_id":"6197b3f67c2b5cd3b6d9596a","session_id":"619be31e2fcc7296545c190a","condition":"contingent","relevant_dimensions":["antennae","legs"],"bee_group":{"antennae":"B","wings":"X","pattern":"X","legs":"M"},"action":"avoid","summary":"bad-avoid","bonus":1.180000000000001},{"rt":1535.2000000476837,"stimulus":"\n                    <p><b>Action: <em>avoid</em></b></p>\n                    <p>This is the bee that you just saw.</p>\n                    <img src=\"bees-with-color/bee-A1DM.svg\" width=\"200\">\n                    <p><br>Your bonus pay is unchanged, and remains at $0.52.</p>\n            ","response":0,"trial_type":"html-button-response","trial_index":50,"time_elapsed":450482,"internal_node_id":"0.0-4.0-1.21","subject_id":"60fd56b6df52345b18535feb","study_id":"6197b3f67c2b5cd3b6d9596a","session_id":"619be31e2fcc7296545c190a","condition":"contingent","relevant_dimensions":["antennae","legs"],"bee_group":{"antennae":"B","wings":"X","pattern":"X","legs":"M"},"bonus":1.180000000000001},{"rt":1677.6999999284744,"stimulus":"bees-with-color/bee-A1SM.svg","response":0,"trial_type":"image-button-response","trial_index":51,"time_elapsed":452163,"internal_node_id":"0.0-4.0-0.22","subject_id":"60fd56b6df52345b18535feb","study_id":"6197b3f67c2b5cd3b6d9596a","session_id":"619be31e2fcc7296545c190a","condition":"contingent","relevant_dimensions":["antennae","legs"],"bee_group":{"antennae":"B","wings":"X","pattern":"X","legs":"M"},"action":"harvest","summary":"good-harvest","bonus":1.180000000000001},{"rt":5366.199999928474,"stimulus":"\n                    <p><b>Action: <em>harvest</em></b></p>\n                    <p>This is the bee that you just saw.</p>\n                    <img src=\"bees-with-color/bee-A1SM.svg\" width=\"200\">\n                    <p><span class=\"greenText\"><b>Successful harvest!</b></span><br>Your pay has increased by $0.02. Your bonus pay is now $0.54.</p>\n            ","response":0,"trial_type":"html-button-response","trial_index":52,"time_elapsed":457534,"internal_node_id":"0.0-4.0-1.22","subject_id":"60fd56b6df52345b18535feb","study_id":"6197b3f67c2b5cd3b6d9596a","session_id":"619be31e2fcc7296545c190a","condition":"contingent","relevant_dimensions":["antennae","legs"],"bee_group":{"antennae":"B","wings":"X","pattern":"X","legs":"M"},"bonus":1.180000000000001},{"rt":4589.399999976158,"stimulus":"bees-with-color/bee-B2SF.svg","response":1,"trial_type":"image-button-response","trial_index":53,"time_elapsed":462130,"internal_node_id":"0.0-4.0-0.23","subject_id":"60fd56b6df52345b18535feb","study_id":"6197b3f67c2b5cd3b6d9596a","session_id":"619be31e2fcc7296545c190a","condition":"contingent","relevant_dimensions":["antennae","legs"],"bee_group":{"antennae":"B","wings":"X","pattern":"X","legs":"M"},"action":"avoid","summary":"bad-avoid","bonus":1.180000000000001},{"rt":1204.5,"stimulus":"\n                    <p><b>Action: <em>avoid</em></b></p>\n                    <p>This is the bee that you just saw.</p>\n                    <img src=\"bees-with-color/bee-B2SF.svg\" width=\"200\">\n                    <p><br>Your bonus pay is unchanged, and remains at $0.54.</p>\n            ","response":0,"trial_type":"html-button-response","trial_index":54,"time_elapsed":463338,"internal_node_id":"0.0-4.0-1.23","subject_id":"60fd56b6df52345b18535feb","study_id":"6197b3f67c2b5cd3b6d9596a","session_id":"619be31e2fcc7296545c190a","condition":"contingent","relevant_dimensions":["antennae","legs"],"bee_group":{"antennae":"B","wings":"X","pattern":"X","legs":"M"},"bonus":1.180000000000001},{"rt":3514.100000023842,"stimulus":"bees-with-color/bee-B1SF.svg","response":0,"trial_type":"image-button-response","trial_index":55,"time_elapsed":466857,"internal_node_id":"0.0-4.0-0.24","subject_id":"60fd56b6df52345b18535feb","study_id":"6197b3f67c2b5cd3b6d9596a","session_id":"619be31e2fcc7296545c190a","condition":"contingent","relevant_dimensions":["antennae","legs"],"bee_group":{"antennae":"B","wings":"X","pattern":"X","legs":"M"},"action":"harvest","summary":"good-harvest","bonus":1.180000000000001},{"rt":5707.200000047684,"stimulus":"\n                    <p><b>Action: <em>harvest</em></b></p>\n                    <p>This is the bee that you just saw.</p>\n                    <img src=\"bees-with-color/bee-B1SF.svg\" width=\"200\">\n                    <p><span class=\"greenText\"><b>Successful harvest!</b></span><br>Your pay has increased by $0.02. Your bonus pay is now $0.56.</p>\n            ","response":0,"trial_type":"html-button-response","trial_index":56,"time_elapsed":472568,"internal_node_id":"0.0-4.0-1.24","subject_id":"60fd56b6df52345b18535feb","study_id":"6197b3f67c2b5cd3b6d9596a","session_id":"619be31e2fcc7296545c190a","condition":"contingent","relevant_dimensions":["antennae","legs"],"bee_group":{"antennae":"B","wings":"X","pattern":"X","legs":"M"},"bonus":1.180000000000001},{"rt":3879.600000023842,"stimulus":"bees-with-color/bee-A2SM.svg","response":0,"trial_type":"image-button-response","trial_index":57,"time_elapsed":476453,"internal_node_id":"0.0-4.0-0.25","subject_id":"60fd56b6df52345b18535feb","study_id":"6197b3f67c2b5cd3b6d9596a","session_id":"619be31e2fcc7296545c190a","condition":"contingent","relevant_dimensions":["antennae","legs"],"bee_group":{"antennae":"B","wings":"X","pattern":"X","legs":"M"},"action":"harvest","summary":"good-harvest","bonus":1.180000000000001},{"rt":6499,"stimulus":"\n                    <p><b>Action: <em>harvest</em></b></p>\n                    <p>This is the bee that you just saw.</p>\n                    <img src=\"bees-with-color/bee-A2SM.svg\" width=\"200\">\n                    <p><span class=\"greenText\"><b>Successful harvest!</b></span><br>Your pay has increased by $0.02. Your bonus pay is now $0.58.</p>\n            ","response":0,"trial_type":"html-button-response","trial_index":58,"time_elapsed":482955,"internal_node_id":"0.0-4.0-1.25","subject_id":"60fd56b6df52345b18535feb","study_id":"6197b3f67c2b5cd3b6d9596a","session_id":"619be31e2fcc7296545c190a","condition":"contingent","relevant_dimensions":["antennae","legs"],"bee_group":{"antennae":"B","wings":"X","pattern":"X","legs":"M"},"bonus":1.180000000000001},{"rt":4292.400000095367,"stimulus":"bees-with-color/bee-B2SM.svg","response":0,"trial_type":"image-button-response","trial_index":59,"time_elapsed":487258,"internal_node_id":"0.0-4.0-0.26","subject_id":"60fd56b6df52345b18535feb","study_id":"6197b3f67c2b5cd3b6d9596a","session_id":"619be31e2fcc7296545c190a","condition":"contingent","relevant_dimensions":["antennae","legs"],"bee_group":{"antennae":"B","wings":"X","pattern":"X","legs":"M"},"action":"harvest","summary":"bad-harvest","bonus":1.180000000000001},{"rt":8241.299999952316,"stimulus":"\n                    <p><b>Action: <em>harvest</em></b></p>\n                    <p>This is the bee that you just saw.</p>\n                    <img src=\"bees-with-color/bee-B2SM.svg\" width=\"200\">\n                    <p><span class=\"redText\">Bad choice, the bee was angry.</span><br><b>You have been stung!</b><br>Your pay has been decreased by $0.10. Your bonus pay is now $0.48.</p>\n            ","response":0,"trial_type":"html-button-response","trial_index":60,"time_elapsed":495504,"internal_node_id":"0.0-4.0-1.26","subject_id":"60fd56b6df52345b18535feb","study_id":"6197b3f67c2b5cd3b6d9596a","session_id":"619be31e2fcc7296545c190a","condition":"contingent","relevant_dimensions":["antennae","legs"],"bee_group":{"antennae":"B","wings":"X","pattern":"X","legs":"M"},"bonus":1.180000000000001},{"rt":2584.8000000715256,"stimulus":"bees-with-color/bee-A1SF.svg","response":0,"trial_type":"image-button-response","trial_index":61,"time_elapsed":498097,"internal_node_id":"0.0-4.0-0.27","subject_id":"60fd56b6df52345b18535feb","study_id":"6197b3f67c2b5cd3b6d9596a","session_id":"619be31e2fcc7296545c190a","condition":"contingent","relevant_dimensions":["antennae","legs"],"bee_group":{"antennae":"B","wings":"X","pattern":"X","legs":"M"},"action":"harvest","summary":"good-harvest","bonus":1.180000000000001},{"rt":2985.600000023842,"stimulus":"\n                    <p><b>Action: <em>harvest</em></b></p>\n                    <p>This is the bee that you just saw.</p>\n                    <img src=\"bees-with-color/bee-A1SF.svg\" width=\"200\">\n                    <p><span class=\"greenText\"><b>Successful harvest!</b></span><br>Your pay has increased by $0.02. Your bonus pay is now $0.50.</p>\n            ","response":0,"trial_type":"html-button-response","trial_index":62,"time_elapsed":501086,"internal_node_id":"0.0-4.0-1.27","subject_id":"60fd56b6df52345b18535feb","study_id":"6197b3f67c2b5cd3b6d9596a","session_id":"619be31e2fcc7296545c190a","condition":"contingent","relevant_dimensions":["antennae","legs"],"bee_group":{"antennae":"B","wings":"X","pattern":"X","legs":"M"},"bonus":1.180000000000001},{"rt":2805.4000000953674,"stimulus":"bees-with-color/bee-B1DF.svg","response":1,"trial_type":"image-button-response","trial_index":63,"time_elapsed":503896,"internal_node_id":"0.0-4.0-0.28","subject_id":"60fd56b6df52345b18535feb","study_id":"6197b3f67c2b5cd3b6d9596a","session_id":"619be31e2fcc7296545c190a","condition":"contingent","relevant_dimensions":["antennae","legs"],"bee_group":{"antennae":"B","wings":"X","pattern":"X","legs":"M"},"action":"avoid","summary":"bad-avoid","bonus":1.180000000000001},{"rt":1148.3999999761581,"stimulus":"\n                    <p><b>Action: <em>avoid</em></b></p>\n                    <p>This is the bee that you just saw.</p>\n                    <img src=\"bees-with-color/bee-B1DF.svg\" width=\"200\">\n                    <p><br>Your bonus pay is unchanged, and remains at $0.50.</p>\n            ","response":0,"trial_type":"html-button-response","trial_index":64,"time_elapsed":505052,"internal_node_id":"0.0-4.0-1.28","subject_id":"60fd56b6df52345b18535feb","study_id":"6197b3f67c2b5cd3b6d9596a","session_id":"619be31e2fcc7296545c190a","condition":"contingent","relevant_dimensions":["antennae","legs"],"bee_group":{"antennae":"B","wings":"X","pattern":"X","legs":"M"},"bonus":1.180000000000001},{"rt":1809.5,"stimulus":"bees-with-color/bee-A2SF.svg","response":0,"trial_type":"image-button-response","trial_index":65,"time_elapsed":506866,"internal_node_id":"0.0-4.0-0.29","subject_id":"60fd56b6df52345b18535feb","study_id":"6197b3f67c2b5cd3b6d9596a","session_id":"619be31e2fcc7296545c190a","condition":"contingent","relevant_dimensions":["antennae","legs"],"bee_group":{"antennae":"B","wings":"X","pattern":"X","legs":"M"},"action":"harvest","summary":"good-harvest","bonus":1.180000000000001},{"rt":1849.1999999284744,"stimulus":"\n                    <p><b>Action: <em>harvest</em></b></p>\n                    <p>This is the bee that you just saw.</p>\n                    <img src=\"bees-with-color/bee-A2SF.svg\" width=\"200\">\n                    <p><span class=\"greenText\"><b>Successful harvest!</b></span><br>Your pay has increased by $0.02. Your bonus pay is now $0.52.</p>\n            ","response":0,"trial_type":"html-button-response","trial_index":66,"time_elapsed":508719,"internal_node_id":"0.0-4.0-1.29","subject_id":"60fd56b6df52345b18535feb","study_id":"6197b3f67c2b5cd3b6d9596a","session_id":"619be31e2fcc7296545c190a","condition":"contingent","relevant_dimensions":["antennae","legs"],"bee_group":{"antennae":"B","wings":"X","pattern":"X","legs":"M"},"bonus":1.180000000000001},{"rt":1833.1000000238419,"stimulus":"bees-with-color/bee-B2DM.svg","response":1,"trial_type":"image-button-response","trial_index":67,"time_elapsed":510557,"internal_node_id":"0.0-4.0-0.30","subject_id":"60fd56b6df52345b18535feb","study_id":"6197b3f67c2b5cd3b6d9596a","session_id":"619be31e2fcc7296545c190a","condition":"contingent","relevant_dimensions":["antennae","legs"],"bee_group":{"antennae":"B","wings":"X","pattern":"X","legs":"M"},"action":"avoid","summary":"good-avoid","bonus":1.180000000000001},{"rt":1718.6000000238419,"stimulus":"\n                    <p><b>Action: <em>avoid</em></b></p>\n                    <p>This is the bee that you just saw.</p>\n                    <img src=\"bees-with-color/bee-B2DM.svg\" width=\"200\">\n                    <p><br>Your bonus pay is unchanged, and remains at $0.52.</p>\n            ","response":0,"trial_type":"html-button-response","trial_index":68,"time_elapsed":512279,"internal_node_id":"0.0-4.0-1.30","subject_id":"60fd56b6df52345b18535feb","study_id":"6197b3f67c2b5cd3b6d9596a","session_id":"619be31e2fcc7296545c190a","condition":"contingent","relevant_dimensions":["antennae","legs"],"bee_group":{"antennae":"B","wings":"X","pattern":"X","legs":"M"},"bonus":1.180000000000001},{"rt":1362.5,"stimulus":"bees-with-color/bee-A1DF.svg","response":0,"trial_type":"image-button-response","trial_index":69,"time_elapsed":513646,"internal_node_id":"0.0-4.0-0.31","subject_id":"60fd56b6df52345b18535feb","study_id":"6197b3f67c2b5cd3b6d9596a","session_id":"619be31e2fcc7296545c190a","condition":"contingent","relevant_dimensions":["antennae","legs"],"bee_group":{"antennae":"B","wings":"X","pattern":"X","legs":"M"},"action":"harvest","summary":"good-harvest","bonus":1.180000000000001},{"rt":1793.5,"stimulus":"\n                    <p><b>Action: <em>harvest</em></b></p>\n                    <p>This is the bee that you just saw.</p>\n                    <img src=\"bees-with-color/bee-A1DF.svg\" width=\"200\">\n                    <p><span class=\"greenText\"><b>Successful harvest!</b></span><br>Your pay has increased by $0.02. Your bonus pay is now $0.54.</p>\n            ","response":0,"trial_type":"html-button-response","trial_index":70,"time_elapsed":515445,"internal_node_id":"0.0-4.0-1.31","subject_id":"60fd56b6df52345b18535feb","study_id":"6197b3f67c2b5cd3b6d9596a","session_id":"619be31e2fcc7296545c190a","condition":"contingent","relevant_dimensions":["antennae","legs"],"bee_group":{"antennae":"B","wings":"X","pattern":"X","legs":"M"},"bonus":1.180000000000001},{"rt":2729.399999976158,"stimulus":"bees-with-color/bee-B2SM.svg","response":1,"trial_type":"image-button-response","trial_index":71,"time_elapsed":518178,"internal_node_id":"0.0-4.0-0.32","subject_id":"60fd56b6df52345b18535feb","study_id":"6197b3f67c2b5cd3b6d9596a","session_id":"619be31e2fcc7296545c190a","condition":"contingent","relevant_dimensions":["antennae","legs"],"bee_group":{"antennae":"B","wings":"X","pattern":"X","legs":"M"},"action":"avoid","summary":"good-avoid","bonus":1.180000000000001},{"rt":1398.5,"stimulus":"\n                    <p><b>Action: <em>avoid</em></b></p>\n                    <p>This is the bee that you just saw.</p>\n                    <img src=\"bees-with-color/bee-B2SM.svg\" width=\"200\">\n                    <p><br>Your bonus pay is unchanged, and remains at $0.54.</p>\n            ","response":0,"trial_type":"html-button-response","trial_index":72,"time_elapsed":519582,"internal_node_id":"0.0-4.0-1.32","subject_id":"60fd56b6df52345b18535feb","study_id":"6197b3f67c2b5cd3b6d9596a","session_id":"619be31e2fcc7296545c190a","condition":"contingent","relevant_dimensions":["antennae","legs"],"bee_group":{"antennae":"B","wings":"X","pattern":"X","legs":"M"},"bonus":1.180000000000001},{"rt":1252.7000000476837,"stimulus":"bees-with-color/bee-A1SM.svg","response":0,"trial_type":"image-button-response","trial_index":73,"time_elapsed":520839,"internal_node_id":"0.0-4.0-0.33","subject_id":"60fd56b6df52345b18535feb","study_id":"6197b3f67c2b5cd3b6d9596a","session_id":"619be31e2fcc7296545c190a","condition":"contingent","relevant_dimensions":["antennae","legs"],"bee_group":{"antennae":"B","wings":"X","pattern":"X","legs":"M"},"action":"harvest","summary":"good-harvest","bonus":1.180000000000001},{"rt":1953.3999999761581,"stimulus":"\n                    <p><b>Action: <em>harvest</em></b></p>\n                    <p>This is the bee that you just saw.</p>\n                    <img src=\"bees-with-color/bee-A1SM.svg\" width=\"200\">\n                    <p><span class=\"greenText\"><b>Successful harvest!</b></span><br>Your pay has increased by $0.02. Your bonus pay is now $0.56.</p>\n            ","response":0,"trial_type":"html-button-response","trial_index":74,"time_elapsed":522798,"internal_node_id":"0.0-4.0-1.33","subject_id":"60fd56b6df52345b18535feb","study_id":"6197b3f67c2b5cd3b6d9596a","session_id":"619be31e2fcc7296545c190a","condition":"contingent","relevant_dimensions":["antennae","legs"],"bee_group":{"antennae":"B","wings":"X","pattern":"X","legs":"M"},"bonus":1.180000000000001},{"rt":1918.6000000238419,"stimulus":"bees-with-color/bee-A2SM.svg","response":0,"trial_type":"image-button-response","trial_index":75,"time_elapsed":524719,"internal_node_id":"0.0-4.0-0.34","subject_id":"60fd56b6df52345b18535feb","study_id":"6197b3f67c2b5cd3b6d9596a","session_id":"619be31e2fcc7296545c190a","condition":"contingent","relevant_dimensions":["antennae","legs"],"bee_group":{"antennae":"B","wings":"X","pattern":"X","legs":"M"},"action":"harvest","summary":"good-harvest","bonus":1.180000000000001},{"rt":1771.5999999046326,"stimulus":"\n                    <p><b>Action: <em>harvest</em></b></p>\n                    <p>This is the bee that you just saw.</p>\n                    <img src=\"bees-with-color/bee-A2SM.svg\" width=\"200\">\n                    <p><span class=\"greenText\"><b>Successful harvest!</b></span><br>Your pay has increased by $0.02. Your bonus pay is now $0.58.</p>\n            ","response":0,"trial_type":"html-button-response","trial_index":76,"time_elapsed":526495,"internal_node_id":"0.0-4.0-1.34","subject_id":"60fd56b6df52345b18535feb","study_id":"6197b3f67c2b5cd3b6d9596a","session_id":"619be31e2fcc7296545c190a","condition":"contingent","relevant_dimensions":["antennae","legs"],"bee_group":{"antennae":"B","wings":"X","pattern":"X","legs":"M"},"bonus":1.180000000000001},{"rt":1514.6000000238419,"stimulus":"bees-with-color/bee-B2SF.svg","response":1,"trial_type":"image-button-response","trial_index":77,"time_elapsed":528014,"internal_node_id":"0.0-4.0-0.35","subject_id":"60fd56b6df52345b18535feb","study_id":"6197b3f67c2b5cd3b6d9596a","session_id":"619be31e2fcc7296545c190a","condition":"contingent","relevant_dimensions":["antennae","legs"],"bee_group":{"antennae":"B","wings":"X","pattern":"X","legs":"M"},"action":"avoid","summary":"bad-avoid","bonus":1.180000000000001},{"rt":1432.1999999284744,"stimulus":"\n                    <p><b>Action: <em>avoid</em></b></p>\n                    <p>This is the bee that you just saw.</p>\n                    <img src=\"bees-with-color/bee-B2SF.svg\" width=\"200\">\n                    <p><br>Your bonus pay is unchanged, and remains at $0.58.</p>\n            ","response":0,"trial_type":"html-button-response","trial_index":78,"time_elapsed":529449,"internal_node_id":"0.0-4.0-1.35","subject_id":"60fd56b6df52345b18535feb","study_id":"6197b3f67c2b5cd3b6d9596a","session_id":"619be31e2fcc7296545c190a","condition":"contingent","relevant_dimensions":["antennae","legs"],"bee_group":{"antennae":"B","wings":"X","pattern":"X","legs":"M"},"bonus":1.180000000000001},{"rt":1417.2000000476837,"stimulus":"bees-with-color/bee-B1SF.svg","response":1,"trial_type":"image-button-response","trial_index":79,"time_elapsed":530871,"internal_node_id":"0.0-4.0-0.36","subject_id":"60fd56b6df52345b18535feb","study_id":"6197b3f67c2b5cd3b6d9596a","session_id":"619be31e2fcc7296545c190a","condition":"contingent","relevant_dimensions":["antennae","legs"],"bee_group":{"antennae":"B","wings":"X","pattern":"X","legs":"M"},"action":"avoid","summary":"bad-avoid","bonus":1.180000000000001},{"rt":1394.3999999761581,"stimulus":"\n                    <p><b>Action: <em>avoid</em></b></p>\n                    <p>This is the bee that you just saw.</p>\n                    <img src=\"bees-with-color/bee-B1SF.svg\" width=\"200\">\n                    <p><br>Your bonus pay is unchanged, and remains at $0.58.</p>\n            ","response":0,"trial_type":"html-button-response","trial_index":80,"time_elapsed":532269,"internal_node_id":"0.0-4.0-1.36","subject_id":"60fd56b6df52345b18535feb","study_id":"6197b3f67c2b5cd3b6d9596a","session_id":"619be31e2fcc7296545c190a","condition":"contingent","relevant_dimensions":["antennae","legs"],"bee_group":{"antennae":"B","wings":"X","pattern":"X","legs":"M"},"bonus":1.180000000000001},{"rt":1639.8999999761581,"stimulus":"bees-with-color/bee-B2DF.svg","response":1,"trial_type":"image-button-response","trial_index":81,"time_elapsed":533913,"internal_node_id":"0.0-4.0-0.37","subject_id":"60fd56b6df52345b18535feb","study_id":"6197b3f67c2b5cd3b6d9596a","session_id":"619be31e2fcc7296545c190a","condition":"contingent","relevant_dimensions":["antennae","legs"],"bee_group":{"antennae":"B","wings":"X","pattern":"X","legs":"M"},"action":"avoid","summary":"bad-avoid","bonus":1.180000000000001},{"rt":1295.6000000238419,"stimulus":"\n                    <p><b>Action: <em>avoid</em></b></p>\n                    <p>This is the bee that you just saw.</p>\n                    <img src=\"bees-with-color/bee-B2DF.svg\" width=\"200\">\n                    <p><br>Your bonus pay is unchanged, and remains at $0.58.</p>\n            ","response":0,"trial_type":"html-button-response","trial_index":82,"time_elapsed":535217,"internal_node_id":"0.0-4.0-1.37","subject_id":"60fd56b6df52345b18535feb","study_id":"6197b3f67c2b5cd3b6d9596a","session_id":"619be31e2fcc7296545c190a","condition":"contingent","relevant_dimensions":["antennae","legs"],"bee_group":{"antennae":"B","wings":"X","pattern":"X","legs":"M"},"bonus":1.180000000000001},{"rt":1479.2000000476837,"stimulus":"bees-with-color/bee-B2DM.svg","response":1,"trial_type":"image-button-response","trial_index":83,"time_elapsed":536700,"internal_node_id":"0.0-4.0-0.38","subject_id":"60fd56b6df52345b18535feb","study_id":"6197b3f67c2b5cd3b6d9596a","session_id":"619be31e2fcc7296545c190a","condition":"contingent","relevant_dimensions":["antennae","legs"],"bee_group":{"antennae":"B","wings":"X","pattern":"X","legs":"M"},"action":"avoid","summary":"good-avoid","bonus":1.180000000000001},{"rt":1308.6999999284744,"stimulus":"\n                    <p><b>Action: <em>avoid</em></b></p>\n                    <p>This is the bee that you just saw.</p>\n                    <img src=\"bees-with-color/bee-B2DM.svg\" width=\"200\">\n                    <p><br>Your bonus pay is unchanged, and remains at $0.58.</p>\n            ","response":0,"trial_type":"html-button-response","trial_index":84,"time_elapsed":538014,"internal_node_id":"0.0-4.0-1.38","subject_id":"60fd56b6df52345b18535feb","study_id":"6197b3f67c2b5cd3b6d9596a","session_id":"619be31e2fcc7296545c190a","condition":"contingent","relevant_dimensions":["antennae","legs"],"bee_group":{"antennae":"B","wings":"X","pattern":"X","legs":"M"},"bonus":1.180000000000001},{"rt":1106.1000000238419,"stimulus":"bees-with-color/bee-A1DF.svg","response":0,"trial_type":"image-button-response","trial_index":85,"time_elapsed":539125,"internal_node_id":"0.0-4.0-0.39","subject_id":"60fd56b6df52345b18535feb","study_id":"6197b3f67c2b5cd3b6d9596a","session_id":"619be31e2fcc7296545c190a","condition":"contingent","relevant_dimensions":["antennae","legs"],"bee_group":{"antennae":"B","wings":"X","pattern":"X","legs":"M"},"action":"harvest","summary":"good-harvest","bonus":1.180000000000001},{"rt":1687.3999999761581,"stimulus":"\n                    <p><b>Action: <em>harvest</em></b></p>\n                    <p>This is the bee that you just saw.</p>\n                    <img src=\"bees-with-color/bee-A1DF.svg\" width=\"200\">\n                    <p><span class=\"greenText\"><b>Successful harvest!</b></span><br>Your pay has increased by $0.02. Your bonus pay is now $0.60.</p>\n            ","response":0,"trial_type":"html-button-response","trial_index":86,"time_elapsed":540815,"internal_node_id":"0.0-4.0-1.39","subject_id":"60fd56b6df52345b18535feb","study_id":"6197b3f67c2b5cd3b6d9596a","session_id":"619be31e2fcc7296545c190a","condition":"contingent","relevant_dimensions":["antennae","legs"],"bee_group":{"antennae":"B","wings":"X","pattern":"X","legs":"M"},"bonus":1.180000000000001},{"rt":1458.3000000715256,"stimulus":"bees-with-color/bee-A2DM.svg","response":0,"trial_type":"image-button-response","trial_index":87,"time_elapsed":542278,"internal_node_id":"0.0-4.0-0.40","subject_id":"60fd56b6df52345b18535feb","study_id":"6197b3f67c2b5cd3b6d9596a","session_id":"619be31e2fcc7296545c190a","condition":"contingent","relevant_dimensions":["antennae","legs"],"bee_group":{"antennae":"B","wings":"X","pattern":"X","legs":"M"},"action":"harvest","summary":"good-harvest","bonus":1.180000000000001},{"rt":1595.3000000715256,"stimulus":"\n                    <p><b>Action: <em>harvest</em></b></p>\n                    <p>This is the bee that you just saw.</p>\n                    <img src=\"bees-with-color/bee-A2DM.svg\" width=\"200\">\n                    <p><span class=\"greenText\"><b>Successful harvest!</b></span><br>Your pay has increased by $0.02. Your bonus pay is now $0.62.</p>\n            ","response":0,"trial_type":"html-button-response","trial_index":88,"time_elapsed":543879,"internal_node_id":"0.0-4.0-1.40","subject_id":"60fd56b6df52345b18535feb","study_id":"6197b3f67c2b5cd3b6d9596a","session_id":"619be31e2fcc7296545c190a","condition":"contingent","relevant_dimensions":["antennae","legs"],"bee_group":{"antennae":"B","wings":"X","pattern":"X","legs":"M"},"bonus":1.180000000000001},{"rt":1492.7000000476837,"stimulus":"bees-with-color/bee-A2DF.svg","response":0,"trial_type":"image-button-response","trial_index":89,"time_elapsed":545376,"internal_node_id":"0.0-4.0-0.41","subject_id":"60fd56b6df52345b18535feb","study_id":"6197b3f67c2b5cd3b6d9596a","session_id":"619be31e2fcc7296545c190a","condition":"contingent","relevant_dimensions":["antennae","legs"],"bee_group":{"antennae":"B","wings":"X","pattern":"X","legs":"M"},"action":"harvest","summary":"good-harvest","bonus":1.180000000000001},{"rt":2313.2000000476837,"stimulus":"\n                    <p><b>Action: <em>harvest</em></b></p>\n                    <p>This is the bee that you just saw.</p>\n                    <img src=\"bees-with-color/bee-A2DF.svg\" width=\"200\">\n                    <p><span class=\"greenText\"><b>Successful harvest!</b></span><br>Your pay has increased by $0.02. Your bonus pay is now $0.64.</p>\n            ","response":0,"trial_type":"html-button-response","trial_index":90,"time_elapsed":547695,"internal_node_id":"0.0-4.0-1.41","subject_id":"60fd56b6df52345b18535feb","study_id":"6197b3f67c2b5cd3b6d9596a","session_id":"619be31e2fcc7296545c190a","condition":"contingent","relevant_dimensions":["antennae","legs"],"bee_group":{"antennae":"B","wings":"X","pattern":"X","legs":"M"},"bonus":1.180000000000001},{"rt":1504.2999999523163,"stimulus":"bees-with-color/bee-A2SF.svg","response":0,"trial_type":"image-button-response","trial_index":91,"time_elapsed":549204,"internal_node_id":"0.0-4.0-0.42","subject_id":"60fd56b6df52345b18535feb","study_id":"6197b3f67c2b5cd3b6d9596a","session_id":"619be31e2fcc7296545c190a","condition":"contingent","relevant_dimensions":["antennae","legs"],"bee_group":{"antennae":"B","wings":"X","pattern":"X","legs":"M"},"action":"harvest","summary":"good-harvest","bonus":1.180000000000001},{"rt":1543.7000000476837,"stimulus":"\n                    <p><b>Action: <em>harvest</em></b></p>\n                    <p>This is the bee that you just saw.</p>\n                    <img src=\"bees-with-color/bee-A2SF.svg\" width=\"200\">\n                    <p><span class=\"greenText\"><b>Successful harvest!</b></span><br>Your pay has increased by $0.02. Your bonus pay is now $0.66.</p>\n            ","response":0,"trial_type":"html-button-response","trial_index":92,"time_elapsed":550751,"internal_node_id":"0.0-4.0-1.42","subject_id":"60fd56b6df52345b18535feb","study_id":"6197b3f67c2b5cd3b6d9596a","session_id":"619be31e2fcc7296545c190a","condition":"contingent","relevant_dimensions":["antennae","legs"],"bee_group":{"antennae":"B","wings":"X","pattern":"X","legs":"M"},"bonus":1.180000000000001},{"rt":1750.3000000715256,"stimulus":"bees-with-color/bee-A1DM.svg","response":0,"trial_type":"image-button-response","trial_index":93,"time_elapsed":552505,"internal_node_id":"0.0-4.0-0.43","subject_id":"60fd56b6df52345b18535feb","study_id":"6197b3f67c2b5cd3b6d9596a","session_id":"619be31e2fcc7296545c190a","condition":"contingent","relevant_dimensions":["antennae","legs"],"bee_group":{"antennae":"B","wings":"X","pattern":"X","legs":"M"},"action":"harvest","summary":"good-harvest","bonus":1.180000000000001},{"rt":1721.6000000238419,"stimulus":"\n                    <p><b>Action: <em>harvest</em></b></p>\n                    <p>This is the bee that you just saw.</p>\n                    <img src=\"bees-with-color/bee-A1DM.svg\" width=\"200\">\n                    <p><span class=\"greenText\"><b>Successful harvest!</b></span><br>Your pay has increased by $0.02. Your bonus pay is now $0.68.</p>\n            ","response":0,"trial_type":"html-button-response","trial_index":94,"time_elapsed":554233,"internal_node_id":"0.0-4.0-1.43","subject_id":"60fd56b6df52345b18535feb","study_id":"6197b3f67c2b5cd3b6d9596a","session_id":"619be31e2fcc7296545c190a","condition":"contingent","relevant_dimensions":["antennae","legs"],"bee_group":{"antennae":"B","wings":"X","pattern":"X","legs":"M"},"bonus":1.180000000000001},{"rt":1391.1000000238419,"stimulus":"bees-with-color/bee-B1SM.svg","response":1,"trial_type":"image-button-response","trial_index":95,"time_elapsed":555628,"internal_node_id":"0.0-4.0-0.44","subject_id":"60fd56b6df52345b18535feb","study_id":"6197b3f67c2b5cd3b6d9596a","session_id":"619be31e2fcc7296545c190a","condition":"contingent","relevant_dimensions":["antennae","legs"],"bee_group":{"antennae":"B","wings":"X","pattern":"X","legs":"M"},"action":"avoid","summary":"good-avoid","bonus":1.180000000000001},{"rt":1691.6000000238419,"stimulus":"\n                    <p><b>Action: <em>avoid</em></b></p>\n                    <p>This is the bee that you just saw.</p>\n                    <img src=\"bees-with-color/bee-B1SM.svg\" width=\"200\">\n                    <p><br>Your bonus pay is unchanged, and remains at $0.68.</p>\n            ","response":0,"trial_type":"html-button-response","trial_index":96,"time_elapsed":557323,"internal_node_id":"0.0-4.0-1.44","subject_id":"60fd56b6df52345b18535feb","study_id":"6197b3f67c2b5cd3b6d9596a","session_id":"619be31e2fcc7296545c190a","condition":"contingent","relevant_dimensions":["antennae","legs"],"bee_group":{"antennae":"B","wings":"X","pattern":"X","legs":"M"},"bonus":1.180000000000001},{"rt":1329.2999999523163,"stimulus":"bees-with-color/bee-B1DF.svg","response":1,"trial_type":"image-button-response","trial_index":97,"time_elapsed":558656,"internal_node_id":"0.0-4.0-0.45","subject_id":"60fd56b6df52345b18535feb","study_id":"6197b3f67c2b5cd3b6d9596a","session_id":"619be31e2fcc7296545c190a","condition":"contingent","relevant_dimensions":["antennae","legs"],"bee_group":{"antennae":"B","wings":"X","pattern":"X","legs":"M"},"action":"avoid","summary":"bad-avoid","bonus":1.180000000000001},{"rt":2014.2999999523163,"stimulus":"\n                    <p><b>Action: <em>avoid</em></b></p>\n                    <p>This is the bee that you just saw.</p>\n                    <img src=\"bees-with-color/bee-B1DF.svg\" width=\"200\">\n                    <p><br>Your bonus pay is unchanged, and remains at $0.68.</p>\n            ","response":0,"trial_type":"html-button-response","trial_index":98,"time_elapsed":560675,"internal_node_id":"0.0-4.0-1.45","subject_id":"60fd56b6df52345b18535feb","study_id":"6197b3f67c2b5cd3b6d9596a","session_id":"619be31e2fcc7296545c190a","condition":"contingent","relevant_dimensions":["antennae","legs"],"bee_group":{"antennae":"B","wings":"X","pattern":"X","legs":"M"},"bonus":1.180000000000001},{"rt":1342,"stimulus":"bees-with-color/bee-A1SF.svg","response":0,"trial_type":"image-button-response","trial_index":99,"time_elapsed":562022,"internal_node_id":"0.0-4.0-0.46","subject_id":"60fd56b6df52345b18535feb","study_id":"6197b3f67c2b5cd3b6d9596a","session_id":"619be31e2fcc7296545c190a","condition":"contingent","relevant_dimensions":["antennae","legs"],"bee_group":{"antennae":"B","wings":"X","pattern":"X","legs":"M"},"action":"harvest","summary":"good-harvest","bonus":1.180000000000001},{"rt":1581.5999999046326,"stimulus":"\n                    <p><b>Action: <em>harvest</em></b></p>\n                    <p>This is the bee that you just saw.</p>\n                    <img src=\"bees-with-color/bee-A1SF.svg\" width=\"200\">\n                    <p><span class=\"greenText\"><b>Successful harvest!</b></span><br>Your pay has increased by $0.02. Your bonus pay is now $0.70.</p>\n            ","response":0,"trial_type":"html-button-response","trial_index":100,"time_elapsed":563607,"internal_node_id":"0.0-4.0-1.46","subject_id":"60fd56b6df52345b18535feb","study_id":"6197b3f67c2b5cd3b6d9596a","session_id":"619be31e2fcc7296545c190a","condition":"contingent","relevant_dimensions":["antennae","legs"],"bee_group":{"antennae":"B","wings":"X","pattern":"X","legs":"M"},"bonus":1.180000000000001},{"rt":1486,"stimulus":"bees-with-color/bee-B1DM.svg","response":1,"trial_type":"image-button-response","trial_index":101,"time_elapsed":565096,"internal_node_id":"0.0-4.0-0.47","subject_id":"60fd56b6df52345b18535feb","study_id":"6197b3f67c2b5cd3b6d9596a","session_id":"619be31e2fcc7296545c190a","condition":"contingent","relevant_dimensions":["antennae","legs"],"bee_group":{"antennae":"B","wings":"X","pattern":"X","legs":"M"},"action":"avoid","summary":"good-avoid","bonus":1.180000000000001},{"rt":1379.6000000238419,"stimulus":"\n                    <p><b>Action: <em>avoid</em></b></p>\n                    <p>This is the bee that you just saw.</p>\n                    <img src=\"bees-with-color/bee-B1DM.svg\" width=\"200\">\n                    <p><br>Your bonus pay is unchanged, and remains at $0.70.</p>\n            ","response":0,"trial_type":"html-button-response","trial_index":102,"time_elapsed":566482,"internal_node_id":"0.0-4.0-1.47","subject_id":"60fd56b6df52345b18535feb","study_id":"6197b3f67c2b5cd3b6d9596a","session_id":"619be31e2fcc7296545c190a","condition":"contingent","relevant_dimensions":["antennae","legs"],"bee_group":{"antennae":"B","wings":"X","pattern":"X","legs":"M"},"bonus":1.180000000000001},{"rt":1454.9000000953674,"stimulus":"bees-with-color/bee-B2SF.svg","response":1,"trial_type":"image-button-response","trial_index":103,"time_elapsed":567945,"internal_node_id":"0.0-4.0-0.48","subject_id":"60fd56b6df52345b18535feb","study_id":"6197b3f67c2b5cd3b6d9596a","session_id":"619be31e2fcc7296545c190a","condition":"contingent","relevant_dimensions":["antennae","legs"],"bee_group":{"antennae":"B","wings":"X","pattern":"X","legs":"M"},"action":"avoid","summary":"bad-avoid","bonus":1.180000000000001},{"rt":1799.2999999523163,"stimulus":"\n                    <p><b>Action: <em>avoid</em></b></p>\n                    <p>This is the bee that you just saw.</p>\n                    <img src=\"bees-with-color/bee-B2SF.svg\" width=\"200\">\n                    <p><br>Your bonus pay is unchanged, and remains at $0.70.</p>\n            ","response":0,"trial_type":"html-button-response","trial_index":104,"time_elapsed":569751,"internal_node_id":"0.0-4.0-1.48","subject_id":"60fd56b6df52345b18535feb","study_id":"6197b3f67c2b5cd3b6d9596a","session_id":"619be31e2fcc7296545c190a","condition":"contingent","relevant_dimensions":["antennae","legs"],"bee_group":{"antennae":"B","wings":"X","pattern":"X","legs":"M"},"bonus":1.180000000000001},{"rt":1279.7999999523163,"stimulus":"bees-with-color/bee-B2DM.svg","response":1,"trial_type":"image-button-response","trial_index":105,"time_elapsed":571035,"internal_node_id":"0.0-4.0-0.49","subject_id":"60fd56b6df52345b18535feb","study_id":"6197b3f67c2b5cd3b6d9596a","session_id":"619be31e2fcc7296545c190a","condition":"contingent","relevant_dimensions":["antennae","legs"],"bee_group":{"antennae":"B","wings":"X","pattern":"X","legs":"M"},"action":"avoid","summary":"good-avoid","bonus":1.180000000000001},{"rt":1265.5,"stimulus":"\n                    <p><b>Action: <em>avoid</em></b></p>\n                    <p>This is the bee that you just saw.</p>\n                    <img src=\"bees-with-color/bee-B2DM.svg\" width=\"200\">\n                    <p><br>Your bonus pay is unchanged, and remains at $0.70.</p>\n            ","response":0,"trial_type":"html-button-response","trial_index":106,"time_elapsed":572306,"internal_node_id":"0.0-4.0-1.49","subject_id":"60fd56b6df52345b18535feb","study_id":"6197b3f67c2b5cd3b6d9596a","session_id":"619be31e2fcc7296545c190a","condition":"contingent","relevant_dimensions":["antennae","legs"],"bee_group":{"antennae":"B","wings":"X","pattern":"X","legs":"M"},"bonus":1.180000000000001},{"rt":1683.3000000715256,"stimulus":"bees-with-color/bee-B1SF.svg","response":1,"trial_type":"image-button-response","trial_index":107,"time_elapsed":573993,"internal_node_id":"0.0-4.0-0.50","subject_id":"60fd56b6df52345b18535feb","study_id":"6197b3f67c2b5cd3b6d9596a","session_id":"619be31e2fcc7296545c190a","condition":"contingent","relevant_dimensions":["antennae","legs"],"bee_group":{"antennae":"B","wings":"X","pattern":"X","legs":"M"},"action":"avoid","summary":"bad-avoid","bonus":1.180000000000001},{"rt":1132.6999999284744,"stimulus":"\n                    <p><b>Action: <em>avoid</em></b></p>\n                    <p>This is the bee that you just saw.</p>\n                    <img src=\"bees-with-color/bee-B1SF.svg\" width=\"200\">\n                    <p><br>Your bonus pay is unchanged, and remains at $0.70.</p>\n            ","response":0,"trial_type":"html-button-response","trial_index":108,"time_elapsed":575132,"internal_node_id":"0.0-4.0-1.50","subject_id":"60fd56b6df52345b18535feb","study_id":"6197b3f67c2b5cd3b6d9596a","session_id":"619be31e2fcc7296545c190a","condition":"contingent","relevant_dimensions":["antennae","legs"],"bee_group":{"antennae":"B","wings":"X","pattern":"X","legs":"M"},"bonus":1.180000000000001},{"rt":1146.8999999761581,"stimulus":"bees-with-color/bee-A2DF.svg","response":0,"trial_type":"image-button-response","trial_index":109,"time_elapsed":576283,"internal_node_id":"0.0-4.0-0.51","subject_id":"60fd56b6df52345b18535feb","study_id":"6197b3f67c2b5cd3b6d9596a","session_id":"619be31e2fcc7296545c190a","condition":"contingent","relevant_dimensions":["antennae","legs"],"bee_group":{"antennae":"B","wings":"X","pattern":"X","legs":"M"},"action":"harvest","summary":"good-harvest","bonus":1.180000000000001},{"rt":1427.7000000476837,"stimulus":"\n                    <p><b>Action: <em>harvest</em></b></p>\n                    <p>This is the bee that you just saw.</p>\n                    <img src=\"bees-with-color/bee-A2DF.svg\" width=\"200\">\n                    <p><span class=\"greenText\"><b>Successful harvest!</b></span><br>Your pay has increased by $0.02. Your bonus pay is now $0.72.</p>\n            ","response":0,"trial_type":"html-button-response","trial_index":110,"time_elapsed":577716,"internal_node_id":"0.0-4.0-1.51","subject_id":"60fd56b6df52345b18535feb","study_id":"6197b3f67c2b5cd3b6d9596a","session_id":"619be31e2fcc7296545c190a","condition":"contingent","relevant_dimensions":["antennae","legs"],"bee_group":{"antennae":"B","wings":"X","pattern":"X","legs":"M"},"bonus":1.180000000000001},{"rt":1210.8999999761581,"stimulus":"bees-with-color/bee-B1SM.svg","response":1,"trial_type":"image-button-response","trial_index":111,"time_elapsed":578930,"internal_node_id":"0.0-4.0-0.52","subject_id":"60fd56b6df52345b18535feb","study_id":"6197b3f67c2b5cd3b6d9596a","session_id":"619be31e2fcc7296545c190a","condition":"contingent","relevant_dimensions":["antennae","legs"],"bee_group":{"antennae":"B","wings":"X","pattern":"X","legs":"M"},"action":"avoid","summary":"good-avoid","bonus":1.180000000000001},{"rt":1255.3999999761581,"stimulus":"\n                    <p><b>Action: <em>avoid</em></b></p>\n                    <p>This is the bee that you just saw.</p>\n                    <img src=\"bees-with-color/bee-B1SM.svg\" width=\"200\">\n                    <p><br>Your bonus pay is unchanged, and remains at $0.72.</p>\n            ","response":0,"trial_type":"html-button-response","trial_index":112,"time_elapsed":580191,"internal_node_id":"0.0-4.0-1.52","subject_id":"60fd56b6df52345b18535feb","study_id":"6197b3f67c2b5cd3b6d9596a","session_id":"619be31e2fcc7296545c190a","condition":"contingent","relevant_dimensions":["antennae","legs"],"bee_group":{"antennae":"B","wings":"X","pattern":"X","legs":"M"},"bonus":1.180000000000001},{"rt":1616,"stimulus":"bees-with-color/bee-B2DF.svg","response":1,"trial_type":"image-button-response","trial_index":113,"time_elapsed":581815,"internal_node_id":"0.0-4.0-0.53","subject_id":"60fd56b6df52345b18535feb","study_id":"6197b3f67c2b5cd3b6d9596a","session_id":"619be31e2fcc7296545c190a","condition":"contingent","relevant_dimensions":["antennae","legs"],"bee_group":{"antennae":"B","wings":"X","pattern":"X","legs":"M"},"action":"avoid","summary":"bad-avoid","bonus":1.180000000000001},{"rt":1122.1000000238419,"stimulus":"\n                    <p><b>Action: <em>avoid</em></b></p>\n                    <p>This is the bee that you just saw.</p>\n                    <img src=\"bees-with-color/bee-B2DF.svg\" width=\"200\">\n                    <p><br>Your bonus pay is unchanged, and remains at $0.72.</p>\n            ","response":0,"trial_type":"html-button-response","trial_index":114,"time_elapsed":582940,"internal_node_id":"0.0-4.0-1.53","subject_id":"60fd56b6df52345b18535feb","study_id":"6197b3f67c2b5cd3b6d9596a","session_id":"619be31e2fcc7296545c190a","condition":"contingent","relevant_dimensions":["antennae","legs"],"bee_group":{"antennae":"B","wings":"X","pattern":"X","legs":"M"},"bonus":1.180000000000001},{"rt":1121.1999999284744,"stimulus":"bees-with-color/bee-B1DF.svg","response":1,"trial_type":"image-button-response","trial_index":115,"time_elapsed":584067,"internal_node_id":"0.0-4.0-0.54","subject_id":"60fd56b6df52345b18535feb","study_id":"6197b3f67c2b5cd3b6d9596a","session_id":"619be31e2fcc7296545c190a","condition":"contingent","relevant_dimensions":["antennae","legs"],"bee_group":{"antennae":"B","wings":"X","pattern":"X","legs":"M"},"action":"avoid","summary":"bad-avoid","bonus":1.180000000000001},{"rt":1236.5,"stimulus":"\n                    <p><b>Action: <em>avoid</em></b></p>\n                    <p>This is the bee that you just saw.</p>\n                    <img src=\"bees-with-color/bee-B1DF.svg\" width=\"200\">\n                    <p><br>Your bonus pay is unchanged, and remains at $0.72.</p>\n            ","response":0,"trial_type":"html-button-response","trial_index":116,"time_elapsed":585306,"internal_node_id":"0.0-4.0-1.54","subject_id":"60fd56b6df52345b18535feb","study_id":"6197b3f67c2b5cd3b6d9596a","session_id":"619be31e2fcc7296545c190a","condition":"contingent","relevant_dimensions":["antennae","legs"],"bee_group":{"antennae":"B","wings":"X","pattern":"X","legs":"M"},"bonus":1.180000000000001},{"rt":1282.6000000238419,"stimulus":"bees-with-color/bee-A2SF.svg","response":0,"trial_type":"image-button-response","trial_index":117,"time_elapsed":586593,"internal_node_id":"0.0-4.0-0.55","subject_id":"60fd56b6df52345b18535feb","study_id":"6197b3f67c2b5cd3b6d9596a","session_id":"619be31e2fcc7296545c190a","condition":"contingent","relevant_dimensions":["antennae","legs"],"bee_group":{"antennae":"B","wings":"X","pattern":"X","legs":"M"},"action":"harvest","summary":"good-harvest","bonus":1.180000000000001},{"rt":1398.3000000715256,"stimulus":"\n                    <p><b>Action: <em>harvest</em></b></p>\n                    <p>This is the bee that you just saw.</p>\n                    <img src=\"bees-with-color/bee-A2SF.svg\" width=\"200\">\n                    <p><span class=\"greenText\"><b>Successful harvest!</b></span><br>Your pay has increased by $0.02. Your bonus pay is now $0.74.</p>\n            ","response":0,"trial_type":"html-button-response","trial_index":118,"time_elapsed":587995,"internal_node_id":"0.0-4.0-1.55","subject_id":"60fd56b6df52345b18535feb","study_id":"6197b3f67c2b5cd3b6d9596a","session_id":"619be31e2fcc7296545c190a","condition":"contingent","relevant_dimensions":["antennae","legs"],"bee_group":{"antennae":"B","wings":"X","pattern":"X","legs":"M"},"bonus":1.180000000000001},{"rt":1305.5,"stimulus":"bees-with-color/bee-A2SM.svg","response":0,"trial_type":"image-button-response","trial_index":119,"time_elapsed":589304,"internal_node_id":"0.0-4.0-0.56","subject_id":"60fd56b6df52345b18535feb","study_id":"6197b3f67c2b5cd3b6d9596a","session_id":"619be31e2fcc7296545c190a","condition":"contingent","relevant_dimensions":["antennae","legs"],"bee_group":{"antennae":"B","wings":"X","pattern":"X","legs":"M"},"action":"harvest","summary":"good-harvest","bonus":1.180000000000001},{"rt":1418.7999999523163,"stimulus":"\n                    <p><b>Action: <em>harvest</em></b></p>\n                    <p>This is the bee that you just saw.</p>\n                    <img src=\"bees-with-color/bee-A2SM.svg\" width=\"200\">\n                    <p><span class=\"greenText\"><b>Successful harvest!</b></span><br>Your pay has increased by $0.02. Your bonus pay is now $0.76.</p>\n            ","response":0,"trial_type":"html-button-response","trial_index":120,"time_elapsed":590727,"internal_node_id":"0.0-4.0-1.56","subject_id":"60fd56b6df52345b18535feb","study_id":"6197b3f67c2b5cd3b6d9596a","session_id":"619be31e2fcc7296545c190a","condition":"contingent","relevant_dimensions":["antennae","legs"],"bee_group":{"antennae":"B","wings":"X","pattern":"X","legs":"M"},"bonus":1.180000000000001},{"rt":1348.6999999284744,"stimulus":"bees-with-color/bee-A1SF.svg","response":0,"trial_type":"image-button-response","trial_index":121,"time_elapsed":592079,"internal_node_id":"0.0-4.0-0.57","subject_id":"60fd56b6df52345b18535feb","study_id":"6197b3f67c2b5cd3b6d9596a","session_id":"619be31e2fcc7296545c190a","condition":"contingent","relevant_dimensions":["antennae","legs"],"bee_group":{"antennae":"B","wings":"X","pattern":"X","legs":"M"},"action":"harvest","summary":"good-harvest","bonus":1.180000000000001},{"rt":1339.8000000715256,"stimulus":"\n                    <p><b>Action: <em>harvest</em></b></p>\n                    <p>This is the bee that you just saw.</p>\n                    <img src=\"bees-with-color/bee-A1SF.svg\" width=\"200\">\n                    <p><span class=\"greenText\"><b>Successful harvest!</b></span><br>Your pay has increased by $0.02. Your bonus pay is now $0.78.</p>\n            ","response":0,"trial_type":"html-button-response","trial_index":122,"time_elapsed":593421,"internal_node_id":"0.0-4.0-1.57","subject_id":"60fd56b6df52345b18535feb","study_id":"6197b3f67c2b5cd3b6d9596a","session_id":"619be31e2fcc7296545c190a","condition":"contingent","relevant_dimensions":["antennae","legs"],"bee_group":{"antennae":"B","wings":"X","pattern":"X","legs":"M"},"bonus":1.180000000000001},{"rt":1189.3999999761581,"stimulus":"bees-with-color/bee-B1DM.svg","response":1,"trial_type":"image-button-response","trial_index":123,"time_elapsed":594613,"internal_node_id":"0.0-4.0-0.58","subject_id":"60fd56b6df52345b18535feb","study_id":"6197b3f67c2b5cd3b6d9596a","session_id":"619be31e2fcc7296545c190a","condition":"contingent","relevant_dimensions":["antennae","legs"],"bee_group":{"antennae":"B","wings":"X","pattern":"X","legs":"M"},"action":"avoid","summary":"good-avoid","bonus":1.180000000000001},{"rt":1267.2999999523163,"stimulus":"\n                    <p><b>Action: <em>avoid</em></b></p>\n                    <p>This is the bee that you just saw.</p>\n                    <img src=\"bees-with-color/bee-B1DM.svg\" width=\"200\">\n                    <p><br>Your bonus pay is unchanged, and remains at $0.78.</p>\n            ","response":0,"trial_type":"html-button-response","trial_index":124,"time_elapsed":595884,"internal_node_id":"0.0-4.0-1.58","subject_id":"60fd56b6df52345b18535feb","study_id":"6197b3f67c2b5cd3b6d9596a","session_id":"619be31e2fcc7296545c190a","condition":"contingent","relevant_dimensions":["antennae","legs"],"bee_group":{"antennae":"B","wings":"X","pattern":"X","legs":"M"},"bonus":1.180000000000001},{"rt":1132.7000000476837,"stimulus":"bees-with-color/bee-A1DF.svg","response":0,"trial_type":"image-button-response","trial_index":125,"time_elapsed":597022,"internal_node_id":"0.0-4.0-0.59","subject_id":"60fd56b6df52345b18535feb","study_id":"6197b3f67c2b5cd3b6d9596a","session_id":"619be31e2fcc7296545c190a","condition":"contingent","relevant_dimensions":["antennae","legs"],"bee_group":{"antennae":"B","wings":"X","pattern":"X","legs":"M"},"action":"harvest","summary":"good-harvest","bonus":1.180000000000001},{"rt":1515.6999999284744,"stimulus":"\n                    <p><b>Action: <em>harvest</em></b></p>\n                    <p>This is the bee that you just saw.</p>\n                    <img src=\"bees-with-color/bee-A1DF.svg\" width=\"200\">\n                    <p><span class=\"greenText\"><b>Successful harvest!</b></span><br>Your pay has increased by $0.02. Your bonus pay is now $0.80.</p>\n            ","response":0,"trial_type":"html-button-response","trial_index":126,"time_elapsed":598541,"internal_node_id":"0.0-4.0-1.59","subject_id":"60fd56b6df52345b18535feb","study_id":"6197b3f67c2b5cd3b6d9596a","session_id":"619be31e2fcc7296545c190a","condition":"contingent","relevant_dimensions":["antennae","legs"],"bee_group":{"antennae":"B","wings":"X","pattern":"X","legs":"M"},"bonus":1.180000000000001},{"rt":1346.3000000715256,"stimulus":"bees-with-color/bee-A1DM.svg","response":0,"trial_type":"image-button-response","trial_index":127,"time_elapsed":599891,"internal_node_id":"0.0-4.0-0.60","subject_id":"60fd56b6df52345b18535feb","study_id":"6197b3f67c2b5cd3b6d9596a","session_id":"619be31e2fcc7296545c190a","condition":"contingent","relevant_dimensions":["antennae","legs"],"bee_group":{"antennae":"B","wings":"X","pattern":"X","legs":"M"},"action":"harvest","summary":"good-harvest","bonus":1.180000000000001},{"rt":1416.5,"stimulus":"\n                    <p><b>Action: <em>harvest</em></b></p>\n                    <p>This is the bee that you just saw.</p>\n                    <img src=\"bees-with-color/bee-A1DM.svg\" width=\"200\">\n                    <p><span class=\"greenText\"><b>Successful harvest!</b></span><br>Your pay has increased by $0.02. Your bonus pay is now $0.82.</p>\n            ","response":0,"trial_type":"html-button-response","trial_index":128,"time_elapsed":601312,"internal_node_id":"0.0-4.0-1.60","subject_id":"60fd56b6df52345b18535feb","study_id":"6197b3f67c2b5cd3b6d9596a","session_id":"619be31e2fcc7296545c190a","condition":"contingent","relevant_dimensions":["antennae","legs"],"bee_group":{"antennae":"B","wings":"X","pattern":"X","legs":"M"},"bonus":1.180000000000001},{"rt":1835.2000000476837,"stimulus":"bees-with-color/bee-B2SM.svg","response":1,"trial_type":"image-button-response","trial_index":129,"time_elapsed":603151,"internal_node_id":"0.0-4.0-0.61","subject_id":"60fd56b6df52345b18535feb","study_id":"6197b3f67c2b5cd3b6d9596a","session_id":"619be31e2fcc7296545c190a","condition":"contingent","relevant_dimensions":["antennae","legs"],"bee_group":{"antennae":"B","wings":"X","pattern":"X","legs":"M"},"action":"avoid","summary":"good-avoid","bonus":1.180000000000001},{"rt":1241.1999999284744,"stimulus":"\n                    <p><b>Action: <em>avoid</em></b></p>\n                    <p>This is the bee that you just saw.</p>\n                    <img src=\"bees-with-color/bee-B2SM.svg\" width=\"200\">\n                    <p><br>Your bonus pay is unchanged, and remains at $0.82.</p>\n            ","response":0,"trial_type":"html-button-response","trial_index":130,"time_elapsed":604395,"internal_node_id":"0.0-4.0-1.61","subject_id":"60fd56b6df52345b18535feb","study_id":"6197b3f67c2b5cd3b6d9596a","session_id":"619be31e2fcc7296545c190a","condition":"contingent","relevant_dimensions":["antennae","legs"],"bee_group":{"antennae":"B","wings":"X","pattern":"X","legs":"M"},"bonus":1.180000000000001},{"rt":1515.1000000238419,"stimulus":"bees-with-color/bee-A1SM.svg","response":0,"trial_type":"image-button-response","trial_index":131,"time_elapsed":605916,"internal_node_id":"0.0-4.0-0.62","subject_id":"60fd56b6df52345b18535feb","study_id":"6197b3f67c2b5cd3b6d9596a","session_id":"619be31e2fcc7296545c190a","condition":"contingent","relevant_dimensions":["antennae","legs"],"bee_group":{"antennae":"B","wings":"X","pattern":"X","legs":"M"},"action":"harvest","summary":"good-harvest","bonus":1.180000000000001},{"rt":2526.2000000476837,"stimulus":"\n                    <p><b>Action: <em>harvest</em></b></p>\n                    <p>This is the bee that you just saw.</p>\n                    <img src=\"bees-with-color/bee-A1SM.svg\" width=\"200\">\n                    <p><span class=\"greenText\"><b>Successful harvest!</b></span><br>Your pay has increased by $0.02. Your bonus pay is now $0.84.</p>\n            ","response":0,"trial_type":"html-button-response","trial_index":132,"time_elapsed":608448,"internal_node_id":"0.0-4.0-1.62","subject_id":"60fd56b6df52345b18535feb","study_id":"6197b3f67c2b5cd3b6d9596a","session_id":"619be31e2fcc7296545c190a","condition":"contingent","relevant_dimensions":["antennae","legs"],"bee_group":{"antennae":"B","wings":"X","pattern":"X","legs":"M"},"bonus":1.180000000000001},{"rt":1563.1999999284744,"stimulus":"bees-with-color/bee-A2DM.svg","response":0,"trial_type":"image-button-response","trial_index":133,"time_elapsed":610015,"internal_node_id":"0.0-4.0-0.63","subject_id":"60fd56b6df52345b18535feb","study_id":"6197b3f67c2b5cd3b6d9596a","session_id":"619be31e2fcc7296545c190a","condition":"contingent","relevant_dimensions":["antennae","legs"],"bee_group":{"antennae":"B","wings":"X","pattern":"X","legs":"M"},"action":"harvest","summary":"good-harvest","bonus":1.180000000000001},{"rt":1552.7000000476837,"stimulus":"\n                    <p><b>Action: <em>harvest</em></b></p>\n                    <p>This is the bee that you just saw.</p>\n                    <img src=\"bees-with-color/bee-A2DM.svg\" width=\"200\">\n                    <p><span class=\"greenText\"><b>Successful harvest!</b></span><br>Your pay has increased by $0.02. Your bonus pay is now $0.86.</p>\n            ","response":0,"trial_type":"html-button-response","trial_index":134,"time_elapsed":611572,"internal_node_id":"0.0-4.0-1.63","subject_id":"60fd56b6df52345b18535feb","study_id":"6197b3f67c2b5cd3b6d9596a","session_id":"619be31e2fcc7296545c190a","condition":"contingent","relevant_dimensions":["antennae","legs"],"bee_group":{"antennae":"B","wings":"X","pattern":"X","legs":"M"},"bonus":1.180000000000001},{"rt":7574,"stimulus":"You have completed the first part of this experiment.<br><br>You will now begin a shorter second part, in which you will receive no feedback.<br>The same rules regarding bonus pay apply.<br><br>Press any key to begin.","response":"m","trial_type":"html-keyboard-response","trial_index":135,"time_elapsed":619148,"internal_node_id":"0.0-5.0","subject_id":"60fd56b6df52345b18535feb","study_id":"6197b3f67c2b5cd3b6d9596a","session_id":"619be31e2fcc7296545c190a","condition":"contingent","relevant_dimensions":["antennae","legs"],"bee_group":{"antennae":"B","wings":"X","pattern":"X","legs":"M"},"bonus":1.180000000000001},{"rt":2271.7999999523163,"stimulus":"bees-with-color/bee-A1DM.svg","response":0,"trial_type":"image-button-response","trial_index":136,"time_elapsed":621445,"internal_node_id":"0.0-6.0-0.0","subject_id":"60fd56b6df52345b18535feb","study_id":"6197b3f67c2b5cd3b6d9596a","session_id":"619be31e2fcc7296545c190a","condition":"contingent","relevant_dimensions":["antennae","legs"],"bee_group":{"antennae":"B","wings":"X","pattern":"X","legs":"M"},"bonus":1.180000000000001},{"rt":1216,"stimulus":"bees-with-color/bee-B2SF.svg","response":1,"trial_type":"image-button-response","trial_index":137,"time_elapsed":622666,"internal_node_id":"0.0-6.0-0.1","subject_id":"60fd56b6df52345b18535feb","study_id":"6197b3f67c2b5cd3b6d9596a","session_id":"619be31e2fcc7296545c190a","condition":"contingent","relevant_dimensions":["antennae","legs"],"bee_group":{"antennae":"B","wings":"X","pattern":"X","legs":"M"},"bonus":1.180000000000001},{"rt":1159,"stimulus":"bees-with-color/bee-B1SM.svg","response":1,"trial_type":"image-button-response","trial_index":138,"time_elapsed":623830,"internal_node_id":"0.0-6.0-0.2","subject_id":"60fd56b6df52345b18535feb","study_id":"6197b3f67c2b5cd3b6d9596a","session_id":"619be31e2fcc7296545c190a","condition":"contingent","relevant_dimensions":["antennae","legs"],"bee_group":{"antennae":"B","wings":"X","pattern":"X","legs":"M"},"bonus":1.180000000000001},{"rt":1137.5,"stimulus":"bees-with-color/bee-B1SF.svg","response":1,"trial_type":"image-button-response","trial_index":139,"time_elapsed":624972,"internal_node_id":"0.0-6.0-0.3","subject_id":"60fd56b6df52345b18535feb","study_id":"6197b3f67c2b5cd3b6d9596a","session_id":"619be31e2fcc7296545c190a","condition":"contingent","relevant_dimensions":["antennae","legs"],"bee_group":{"antennae":"B","wings":"X","pattern":"X","legs":"M"},"bonus":1.180000000000001},{"rt":1747.8000000715256,"stimulus":"bees-with-color/bee-B2SM.svg","response":1,"trial_type":"image-button-response","trial_index":140,"time_elapsed":626722,"internal_node_id":"0.0-6.0-0.4","subject_id":"60fd56b6df52345b18535feb","study_id":"6197b3f67c2b5cd3b6d9596a","session_id":"619be31e2fcc7296545c190a","condition":"contingent","relevant_dimensions":["antennae","legs"],"bee_group":{"antennae":"B","wings":"X","pattern":"X","legs":"M"},"bonus":1.180000000000001},{"rt":1245.1999999284744,"stimulus":"bees-with-color/bee-B2DF.svg","response":1,"trial_type":"image-button-response","trial_index":141,"time_elapsed":627973,"internal_node_id":"0.0-6.0-0.5","subject_id":"60fd56b6df52345b18535feb","study_id":"6197b3f67c2b5cd3b6d9596a","session_id":"619be31e2fcc7296545c190a","condition":"contingent","relevant_dimensions":["antennae","legs"],"bee_group":{"antennae":"B","wings":"X","pattern":"X","legs":"M"},"bonus":1.180000000000001},{"rt":1266.6999999284744,"stimulus":"bees-with-color/bee-B1DF.svg","response":1,"trial_type":"image-button-response","trial_index":142,"time_elapsed":629245,"internal_node_id":"0.0-6.0-0.6","subject_id":"60fd56b6df52345b18535feb","study_id":"6197b3f67c2b5cd3b6d9596a","session_id":"619be31e2fcc7296545c190a","condition":"contingent","relevant_dimensions":["antennae","legs"],"bee_group":{"antennae":"B","wings":"X","pattern":"X","legs":"M"},"bonus":1.180000000000001},{"rt":1749.4000000953674,"stimulus":"bees-with-color/bee-A1SF.svg","response":0,"trial_type":"image-button-response","trial_index":143,"time_elapsed":630999,"internal_node_id":"0.0-6.0-0.7","subject_id":"60fd56b6df52345b18535feb","study_id":"6197b3f67c2b5cd3b6d9596a","session_id":"619be31e2fcc7296545c190a","condition":"contingent","relevant_dimensions":["antennae","legs"],"bee_group":{"antennae":"B","wings":"X","pattern":"X","legs":"M"},"bonus":1.180000000000001},{"rt":1236.3999999761581,"stimulus":"bees-with-color/bee-A2SF.svg","response":0,"trial_type":"image-button-response","trial_index":144,"time_elapsed":632244,"internal_node_id":"0.0-6.0-0.8","subject_id":"60fd56b6df52345b18535feb","study_id":"6197b3f67c2b5cd3b6d9596a","session_id":"619be31e2fcc7296545c190a","condition":"contingent","relevant_dimensions":["antennae","legs"],"bee_group":{"antennae":"B","wings":"X","pattern":"X","legs":"M"},"bonus":1.180000000000001},{"rt":1585.2999999523163,"stimulus":"bees-with-color/bee-B2DM.svg","response":1,"trial_type":"image-button-response","trial_index":145,"time_elapsed":633835,"internal_node_id":"0.0-6.0-0.9","subject_id":"60fd56b6df52345b18535feb","study_id":"6197b3f67c2b5cd3b6d9596a","session_id":"619be31e2fcc7296545c190a","condition":"contingent","relevant_dimensions":["antennae","legs"],"bee_group":{"antennae":"B","wings":"X","pattern":"X","legs":"M"},"bonus":1.180000000000001},{"rt":1335.8999999761581,"stimulus":"bees-with-color/bee-A2DM.svg","response":0,"trial_type":"image-button-response","trial_index":146,"time_elapsed":635178,"internal_node_id":"0.0-6.0-0.10","subject_id":"60fd56b6df52345b18535feb","study_id":"6197b3f67c2b5cd3b6d9596a","session_id":"619be31e2fcc7296545c190a","condition":"contingent","relevant_dimensions":["antennae","legs"],"bee_group":{"antennae":"B","wings":"X","pattern":"X","legs":"M"},"bonus":1.180000000000001},{"rt":1194.8999999761581,"stimulus":"bees-with-color/bee-A2DF.svg","response":0,"trial_type":"image-button-response","trial_index":147,"time_elapsed":636401,"internal_node_id":"0.0-6.0-0.11","subject_id":"60fd56b6df52345b18535feb","study_id":"6197b3f67c2b5cd3b6d9596a","session_id":"619be31e2fcc7296545c190a","condition":"contingent","relevant_dimensions":["antennae","legs"],"bee_group":{"antennae":"B","wings":"X","pattern":"X","legs":"M"},"bonus":1.180000000000001},{"rt":1233.2999999523163,"stimulus":"bees-with-color/bee-A2SM.svg","response":0,"trial_type":"image-button-response","trial_index":148,"time_elapsed":637639,"internal_node_id":"0.0-6.0-0.12","subject_id":"60fd56b6df52345b18535feb","study_id":"6197b3f67c2b5cd3b6d9596a","session_id":"619be31e2fcc7296545c190a","condition":"contingent","relevant_dimensions":["antennae","legs"],"bee_group":{"antennae":"B","wings":"X","pattern":"X","legs":"M"},"bonus":1.180000000000001},{"rt":1393.2000000476837,"stimulus":"bees-with-color/bee-B1DM.svg","response":1,"trial_type":"image-button-response","trial_index":149,"time_elapsed":639036,"internal_node_id":"0.0-6.0-0.13","subject_id":"60fd56b6df52345b18535feb","study_id":"6197b3f67c2b5cd3b6d9596a","session_id":"619be31e2fcc7296545c190a","condition":"contingent","relevant_dimensions":["antennae","legs"],"bee_group":{"antennae":"B","wings":"X","pattern":"X","legs":"M"},"bonus":1.180000000000001},{"rt":1550.1000000238419,"stimulus":"bees-with-color/bee-A1SM.svg","response":0,"trial_type":"image-button-response","trial_index":150,"time_elapsed":640591,"internal_node_id":"0.0-6.0-0.14","subject_id":"60fd56b6df52345b18535feb","study_id":"6197b3f67c2b5cd3b6d9596a","session_id":"619be31e2fcc7296545c190a","condition":"contingent","relevant_dimensions":["antennae","legs"],"bee_group":{"antennae":"B","wings":"X","pattern":"X","legs":"M"},"bonus":1.180000000000001},{"rt":1275.3000000715256,"stimulus":"bees-with-color/bee-A1DF.svg","response":0,"trial_type":"image-button-response","trial_index":151,"time_elapsed":641876,"internal_node_id":"0.0-6.0-0.15","subject_id":"60fd56b6df52345b18535feb","study_id":"6197b3f67c2b5cd3b6d9596a","session_id":"619be31e2fcc7296545c190a","condition":"contingent","relevant_dimensions":["antennae","legs"],"bee_group":{"antennae":"B","wings":"X","pattern":"X","legs":"M"},"bonus":1.180000000000001},{"rt":1250.1999999284744,"stimulus":"bees-with-color/bee-A2SM.svg","response":0,"trial_type":"image-button-response","trial_index":152,"time_elapsed":643132,"internal_node_id":"0.0-6.0-0.16","subject_id":"60fd56b6df52345b18535feb","study_id":"6197b3f67c2b5cd3b6d9596a","session_id":"619be31e2fcc7296545c190a","condition":"contingent","relevant_dimensions":["antennae","legs"],"bee_group":{"antennae":"B","wings":"X","pattern":"X","legs":"M"},"bonus":1.180000000000001},{"rt":1359,"stimulus":"bees-with-color/bee-B2SM.svg","response":1,"trial_type":"image-button-response","trial_index":153,"time_elapsed":644497,"internal_node_id":"0.0-6.0-0.17","subject_id":"60fd56b6df52345b18535feb","study_id":"6197b3f67c2b5cd3b6d9596a","session_id":"619be31e2fcc7296545c190a","condition":"contingent","relevant_dimensions":["antennae","legs"],"bee_group":{"antennae":"B","wings":"X","pattern":"X","legs":"M"},"bonus":1.180000000000001},{"rt":1272.5,"stimulus":"bees-with-color/bee-B1SF.svg","response":1,"trial_type":"image-button-response","trial_index":154,"time_elapsed":645774,"internal_node_id":"0.0-6.0-0.18","subject_id":"60fd56b6df52345b18535feb","study_id":"6197b3f67c2b5cd3b6d9596a","session_id":"619be31e2fcc7296545c190a","condition":"contingent","relevant_dimensions":["antennae","legs"],"bee_group":{"antennae":"B","wings":"X","pattern":"X","legs":"M"},"bonus":1.180000000000001},{"rt":1252.7999999523163,"stimulus":"bees-with-color/bee-A1SM.svg","response":0,"trial_type":"image-button-response","trial_index":155,"time_elapsed":647032,"internal_node_id":"0.0-6.0-0.19","subject_id":"60fd56b6df52345b18535feb","study_id":"6197b3f67c2b5cd3b6d9596a","session_id":"619be31e2fcc7296545c190a","condition":"contingent","relevant_dimensions":["antennae","legs"],"bee_group":{"antennae":"B","wings":"X","pattern":"X","legs":"M"},"bonus":1.180000000000001},{"rt":1276,"stimulus":"bees-with-color/bee-A2DF.svg","response":0,"trial_type":"image-button-response","trial_index":156,"time_elapsed":648311,"internal_node_id":"0.0-6.0-0.20","subject_id":"60fd56b6df52345b18535feb","study_id":"6197b3f67c2b5cd3b6d9596a","session_id":"619be31e2fcc7296545c190a","condition":"contingent","relevant_dimensions":["antennae","legs"],"bee_group":{"antennae":"B","wings":"X","pattern":"X","legs":"M"},"bonus":1.180000000000001},{"rt":1213.1000000238419,"stimulus":"bees-with-color/bee-A2DM.svg","response":0,"trial_type":"image-button-response","trial_index":157,"time_elapsed":649528,"internal_node_id":"0.0-6.0-0.21","subject_id":"60fd56b6df52345b18535feb","study_id":"6197b3f67c2b5cd3b6d9596a","session_id":"619be31e2fcc7296545c190a","condition":"contingent","relevant_dimensions":["antennae","legs"],"bee_group":{"antennae":"B","wings":"X","pattern":"X","legs":"M"},"bonus":1.180000000000001},{"rt":1399.2999999523163,"stimulus":"bees-with-color/bee-B1DM.svg","response":1,"trial_type":"image-button-response","trial_index":158,"time_elapsed":650931,"internal_node_id":"0.0-6.0-0.22","subject_id":"60fd56b6df52345b18535feb","study_id":"6197b3f67c2b5cd3b6d9596a","session_id":"619be31e2fcc7296545c190a","condition":"contingent","relevant_dimensions":["antennae","legs"],"bee_group":{"antennae":"B","wings":"X","pattern":"X","legs":"M"},"bonus":1.180000000000001},{"rt":1202.1999999284744,"stimulus":"bees-with-color/bee-B2SF.svg","response":1,"trial_type":"image-button-response","trial_index":159,"time_elapsed":652137,"internal_node_id":"0.0-6.0-0.23","subject_id":"60fd56b6df52345b18535feb","study_id":"6197b3f67c2b5cd3b6d9596a","session_id":"619be31e2fcc7296545c190a","condition":"contingent","relevant_dimensions":["antennae","legs"],"bee_group":{"antennae":"B","wings":"X","pattern":"X","legs":"M"},"bonus":1.180000000000001},{"rt":1242.8000000715256,"stimulus":"bees-with-color/bee-B1SM.svg","response":1,"trial_type":"image-button-response","trial_index":160,"time_elapsed":653384,"internal_node_id":"0.0-6.0-0.24","subject_id":"60fd56b6df52345b18535feb","study_id":"6197b3f67c2b5cd3b6d9596a","session_id":"619be31e2fcc7296545c190a","condition":"contingent","relevant_dimensions":["antennae","legs"],"bee_group":{"antennae":"B","wings":"X","pattern":"X","legs":"M"},"bonus":1.180000000000001},{"rt":1240.9000000953674,"stimulus":"bees-with-color/bee-B2DF.svg","response":1,"trial_type":"image-button-response","trial_index":161,"time_elapsed":654629,"internal_node_id":"0.0-6.0-0.25","subject_id":"60fd56b6df52345b18535feb","study_id":"6197b3f67c2b5cd3b6d9596a","session_id":"619be31e2fcc7296545c190a","condition":"contingent","relevant_dimensions":["antennae","legs"],"bee_group":{"antennae":"B","wings":"X","pattern":"X","legs":"M"},"bonus":1.180000000000001},{"rt":1187.2000000476837,"stimulus":"bees-with-color/bee-B1DF.svg","response":1,"trial_type":"image-button-response","trial_index":162,"time_elapsed":655820,"internal_node_id":"0.0-6.0-0.26","subject_id":"60fd56b6df52345b18535feb","study_id":"6197b3f67c2b5cd3b6d9596a","session_id":"619be31e2fcc7296545c190a","condition":"contingent","relevant_dimensions":["antennae","legs"],"bee_group":{"antennae":"B","wings":"X","pattern":"X","legs":"M"},"bonus":1.180000000000001},{"rt":1283.6999999284744,"stimulus":"bees-with-color/bee-B2DM.svg","response":1,"trial_type":"image-button-response","trial_index":163,"time_elapsed":657110,"internal_node_id