[{"success":true,"trial_type":"fullscreen","trial_index":0,"time_elapsed":2857,"internal_node_id":"0.0-0.0","subject_id":"5aeab425f00c7f00018f74d0","study_id":"60edd13110225f80f9f3709b","session_id":"6196c4a3a690e9c677f3e254","condition":"full-information","relevant_dimensions":["antennae","wings"],"bee_group":{"antennae":"A","wings":"1","pattern":"X","legs":"X"},"bonus":1.4800000000000013},{"success":true,"timeout":false,"failed_images":[],"failed_audio":[],"failed_video":[],"trial_type":"preload","trial_index":1,"time_elapsed":4585,"internal_node_id":"0.0-1.0","subject_id":"5aeab425f00c7f00018f74d0","study_id":"60edd13110225f80f9f3709b","session_id":"6196c4a3a690e9c677f3e254","condition":"full-information","relevant_dimensions":["antennae","wings"],"bee_group":{"antennae":"A","wings":"1","pattern":"X","legs":"X"},"bonus":1.4800000000000013},{"rt":2805.800000011921,"stimulus":"Welcome! Press any key to begin.","response":" ","trial_type":"html-keyboard-response","trial_index":2,"time_elapsed":7393,"internal_node_id":"0.0-2.0","subject_id":"5aeab425f00c7f00018f74d0","study_id":"60edd13110225f80f9f3709b","session_id":"6196c4a3a690e9c677f3e254","condition":"full-information","relevant_dimensions":["antennae","wings"],"bee_group":{"antennae":"A","wings":"1","pattern":"X","legs":"X"},"bonus":1.4800000000000013},{"view_history":[{"page_index":0,"viewing_time":3035.100000023842},{"page_index":1,"viewing_time":8023.699999988079},{"page_index":2,"viewing_time":6592.100000023842},{"page_index":3,"viewing_time":8576},{"page_index":4,"viewing_time":3423.899999976158},{"page_index":5,"viewing_time":31.900000035762787},{"page_index":6,"viewing_time":1520.2999999523163},{"page_index":5,"viewing_time":2775.900000035763},{"page_index":4,"viewing_time":1055.8999999761581},{"page_index":5,"viewing_time":4584.100000023842},{"page_index":6,"viewing_time":2056},{"page_index":5,"viewing_time":2352},{"page_index":6,"viewing_time":6120.099999964237},{"page_index":7,"viewing_time":9983.900000035763},{"page_index":8,"viewing_time":8200},{"page_index":9,"viewing_time":6399.899999976158},{"page_index":10,"viewing_time":7303.900000035763},{"page_index":11,"viewing_time":4720.199999988079},{"page_index":12,"viewing_time":10456},{"page_index":13,"viewing_time":1175.8999999761581},{"page_index":14,"viewing_time":1688.1000000238419}],"rt":100075.30000001192,"trial_type":"instructions","trial_index":3,"time_elapsed":107469,"internal_node_id":"0.0-3.0-0.0","subject_id":"5aeab425f00c7f00018f74d0","study_id":"60edd13110225f80f9f3709b","session_id":"6196c4a3a690e9c677f3e254","condition":"full-information","relevant_dimensions":["antennae","wings"],"bee_group":{"antennae":"A","wings":"1","pattern":"X","legs":"X"},"bonus":1.4800000000000013},{"rt":16930,"response":{"Q0":["Two or six legs","Stripes or spots on body","Single or double wings","Antennae or no antennae"]},"question_order":[0],"trial_type":"survey-multi-select","trial_index":4,"time_elapsed":124407,"internal_node_id":"0.0-3.0-1.0","subject_id":"5aeab425f00c7f00018f74d0","study_id":"60edd13110225f80f9f3709b","session_id":"6196c4a3a690e9c677f3e254","condition":"full-information","relevant_dimensions":["antennae","wings"],"bee_group":{"antennae":"A","wings":"1","pattern":"X","legs":"X"},"correct":true,"bonus":1.4800000000000013},{"rt":13875,"response":{"Q1":"No.","Q2":"Based on the four features of the bee.","Q3":"You learn if it was friendly or dangerous, but do not alter your bonus."},"question_order":[0,1,2],"trial_type":"survey-multi-choice","trial_index":5,"time_elapsed":138286,"internal_node_id":"0.0-3.0-2.0","subject_id":"5aeab425f00c7f00018f74d0","study_id":"60edd13110225f80f9f3709b","session_id":"6196c4a3a690e9c677f3e254","condition":"full-information","relevant_dimensions":["antennae","wings"],"bee_group":{"antennae":"A","wings":"1","pattern":"X","legs":"X"},"correct":true,"bonus":1.4800000000000013},{"rt":2077.599999964237,"stimulus":"<p>Congrats, you got everything right<br>When you're ready, click the button below to continue to the experiment.</p>","response":0,"trial_type":"html-button-response","trial_index":6,"time_elapsed":140366,"internal_node_id":"0.0-3.0-3.0","subject_id":"5aeab425f00c7f00018f74d0","study_id":"60edd13110225f80f9f3709b","session_id":"6196c4a3a690e9c677f3e254","condition":"full-information","relevant_dimensions":["antennae","wings"],"bee_group":{"antennae":"A","wings":"1","pattern":"X","legs":"X"},"bonus":1.4800000000000013},{"rt":6412.399999976158,"stimulus":"bees-with-color/bee-B2SM.svg","response":0,"trial_type":"image-button-response","trial_index":7,"time_elapsed":146782,"internal_node_id":"0.0-4.0-0.0","subject_id":"5aeab425f00c7f00018f74d0","study_id":"60edd13110225f80f9f3709b","session_id":"6196c4a3a690e9c677f3e254","condition":"full-information","relevant_dimensions":["antennae","wings"],"bee_group":{"antennae":"A","wings":"1","pattern":"X","legs":"X"},"action":"harvest","summary":"good-harvest","bonus":1.4800000000000013},{"rt":9542.300000011921,"stimulus":"\n                    <p><b>Action: <em>harvest</em></b></p>\n                    <p>This is the bee that you just saw.</p>\n                    <img src=\"bees-with-color/bee-B2SM.svg\" width=\"200\">\n                    <p><span class=\"greenText\"><b>Successful harvest!</b></span><br>Your pay has increased by $0.02. Your bonus pay is now $0.56.</p>\n            ","response":0,"trial_type":"html-button-response","trial_index":8,"time_elapsed":156334,"internal_node_id":"0.0-4.0-1.0","subject_id":"5aeab425f00c7f00018f74d0","study_id":"60edd13110225f80f9f3709b","session_id":"6196c4a3a690e9c677f3e254","condition":"full-information","relevant_dimensions":["antennae","wings"],"bee_group":{"antennae":"A","wings":"1","pattern":"X","legs":"X"},"bonus":1.4800000000000013},{"rt":1763.8999999761581,"stimulus":"bees-with-color/bee-A1SM.svg","response":0,"trial_type":"image-button-response","trial_index":9,"time_elapsed":158101,"internal_node_id":"0.0-4.0-0.1","subject_id":"5aeab425f00c7f00018f74d0","study_id":"60edd13110225f80f9f3709b","session_id":"6196c4a3a690e9c677f3e254","condition":"full-information","relevant_dimensions":["antennae","wings"],"bee_group":{"antennae":"A","wings":"1","pattern":"X","legs":"X"},"action":"harvest","summary":"bad-harvest","bonus":1.4800000000000013},{"rt":6837.300000011921,"stimulus":"\n                    <p><b>Action: <em>harvest</em></b></p>\n                    <p>This is the bee that you just saw.</p>\n                    <img src=\"bees-with-color/bee-A1SM.svg\" width=\"200\">\n                    <p><span class=\"redText\">Bad choice, the bee was angry.</span><br><b>You have been stung!</b><br>Your pay has been decreased by $0.10. Your bonus pay is now $0.46.</p>\n            ","response":0,"trial_type":"html-button-response","trial_index":10,"time_elapsed":164941,"internal_node_id":"0.0-4.0-1.1","subject_id":"5aeab425f00c7f00018f74d0","study_id":"60edd13110225f80f9f3709b","session_id":"6196c4a3a690e9c677f3e254","condition":"full-information","relevant_dimensions":["antennae","wings"],"bee_group":{"antennae":"A","wings":"1","pattern":"X","legs":"X"},"bonus":1.4800000000000013},{"rt":3077.400000035763,"stimulus":"bees-with-color/bee-A2SM.svg","response":0,"trial_type":"image-button-response","trial_index":11,"time_elapsed":168021,"internal_node_id":"0.0-4.0-0.2","subject_id":"5aeab425f00c7f00018f74d0","study_id":"60edd13110225f80f9f3709b","session_id":"6196c4a3a690e9c677f3e254","condition":"full-information","relevant_dimensions":["antennae","wings"],"bee_group":{"antennae":"A","wings":"1","pattern":"X","legs":"X"},"action":"harvest","summary":"good-harvest","bonus":1.4800000000000013},{"rt":5229.899999976158,"stimulus":"\n                    <p><b>Action: <em>harvest</em></b></p>\n                    <p>This is the bee that you just saw.</p>\n                    <img src=\"bees-with-color/bee-A2SM.svg\" width=\"200\">\n                    <p><span class=\"greenText\"><b>Successful harvest!</b></span><br>Your pay has increased by $0.02. Your bonus pay is now $0.48.</p>\n            ","response":0,"trial_type":"html-button-response","trial_index":12,"time_elapsed":173253,"internal_node_id":"0.0-4.0-1.2","subject_id":"5aeab425f00c7f00018f74d0","study_id":"60edd13110225f80f9f3709b","session_id":"6196c4a3a690e9c677f3e254","condition":"full-information","relevant_dimensions":["antennae","wings"],"bee_group":{"antennae":"A","wings":"1","pattern":"X","legs":"X"},"bonus":1.4800000000000013},{"rt":9614,"stimulus":"bees-with-color/bee-A2SF.svg","response":0,"trial_type":"image-button-response","trial_index":13,"time_elapsed":182869,"internal_node_id":"0.0-4.0-0.3","subject_id":"5aeab425f00c7f00018f74d0","study_id":"60edd13110225f80f9f3709b","session_id":"6196c4a3a690e9c677f3e254","condition":"full-information","relevant_dimensions":["antennae","wings"],"bee_group":{"antennae":"A","wings":"1","pattern":"X","legs":"X"},"action":"harvest","summary":"good-harvest","bonus":1.4800000000000013},{"rt":5990.199999988079,"stimulus":"\n                    <p><b>Action: <em>harvest</em></b></p>\n                    <p>This is the bee that you just saw.</p>\n                    <img src=\"bees-with-color/bee-A2SF.svg\" width=\"200\">\n                    <p><span class=\"greenText\"><b>Successful harvest!</b></span><br>Your pay has increased by $0.02. Your bonus pay is now $0.50.</p>\n            ","response":0,"trial_type":"html-button-response","trial_index":14,"time_elapsed":188861,"internal_node_id":"0.0-4.0-1.3","subject_id":"5aeab425f00c7f00018f74d0","study_id":"60edd13110225f80f9f3709b","session_id":"6196c4a3a690e9c677f3e254","condition":"full-information","relevant_dimensions":["antennae","wings"],"bee_group":{"antennae":"A","wings":"1","pattern":"X","legs":"X"},"bonus":1.4800000000000013},{"rt":11341.899999976158,"stimulus":"bees-with-color/bee-A1SF.svg","response":0,"trial_type":"image-button-response","trial_index":15,"time_elapsed":200205,"internal_node_id":"0.0-4.0-0.4","subject_id":"5aeab425f00c7f00018f74d0","study_id":"60edd13110225f80f9f3709b","session_id":"6196c4a3a690e9c677f3e254","condition":"full-information","relevant_dimensions":["antennae","wings"],"bee_group":{"antennae":"A","wings":"1","pattern":"X","legs":"X"},"action":"harvest","summary":"bad-harvest","bonus":1.4800000000000013},{"rt":7886.199999988079,"stimulus":"\n                    <p><b>Action: <em>harvest</em></b></p>\n                    <p>This is the bee that you just saw.</p>\n                    <img src=\"bees-with-color/bee-A1SF.svg\" width=\"200\">\n                    <p><span class=\"redText\">Bad choice, the bee was angry.</span><br><b>You have been stung!</b><br>Your pay has been decreased by $0.10. Your bonus pay is now $0.40.</p>\n            ","response":0,"trial_type":"html-button-response","trial_index":16,"time_elapsed":208093,"internal_node_id":"0.0-4.0-1.4","subject_id":"5aeab425f00c7f00018f74d0","study_id":"60edd13110225f80f9f3709b","session_id":"6196c4a3a690e9c677f3e254","condition":"full-information","relevant_dimensions":["antennae","wings"],"bee_group":{"antennae":"A","wings":"1","pattern":"X","legs":"X"},"bonus":1.4800000000000013},{"rt":11062.099999964237,"stimulus":"bees-with-color/bee-A2DF.svg","response":0,"trial_type":"image-button-response","trial_index":17,"time_elapsed":219157,"internal_node_id":"0.0-4.0-0.5","subject_id":"5aeab425f00c7f00018f74d0","study_id":"60edd13110225f80f9f3709b","session_id":"6196c4a3a690e9c677f3e254","condition":"full-information","relevant_dimensions":["antennae","wings"],"bee_group":{"antennae":"A","wings":"1","pattern":"X","legs":"X"},"action":"harvest","summary":"good-harvest","bonus":1.4800000000000013},{"rt":6317.199999988079,"stimulus":"\n                    <p><b>Action: <em>harvest</em></b></p>\n                    <p>This is the bee that you just saw.</p>\n                    <img src=\"bees-with-color/bee-A2DF.svg\" width=\"200\">\n                    <p><span class=\"greenText\"><b>Successful harvest!</b></span><br>Your pay has increased by $0.02. Your bonus pay is now $0.42.</p>\n            ","response":0,"trial_type":"html-button-response","trial_index":18,"time_elapsed":225477,"internal_node_id":"0.0-4.0-1.5","subject_id":"5aeab425f00c7f00018f74d0","study_id":"60edd13110225f80f9f3709b","session_id":"6196c4a3a690e9c677f3e254","condition":"full-information","relevant_dimensions":["antennae","wings"],"bee_group":{"antennae":"A","wings":"1","pattern":"X","legs":"X"},"bonus":1.4800000000000013},{"rt":10989.5,"stimulus":"bees-with-color/bee-B2SF.svg","response":0,"trial_type":"image-button-response","trial_index":19,"time_elapsed":236469,"internal_node_id":"0.0-4.0-0.6","subject_id":"5aeab425f00c7f00018f74d0","study_id":"60edd13110225f80f9f3709b","session_id":"6196c4a3a690e9c677f3e254","condition":"full-information","relevant_dimensions":["antennae","wings"],"bee_group":{"antennae":"A","wings":"1","pattern":"X","legs":"X"},"action":"harvest","summary":"good-harvest","bonus":1.4800000000000013},{"rt":6150.300000011921,"stimulus":"\n                    <p><b>Action: <em>harvest</em></b></p>\n                    <p>This is the bee that you just saw.</p>\n                    <img src=\"bees-with-color/bee-B2SF.svg\" width=\"200\">\n                    <p><span class=\"greenText\"><b>Successful harvest!</b></span><br>Your pay has increased by $0.02. Your bonus pay is now $0.44.</p>\n            ","response":0,"trial_type":"html-button-response","trial_index":20,"time_elapsed":242622,"internal_node_id":"0.0-4.0-1.6","subject_id":"5aeab425f00c7f00018f74d0","study_id":"60edd13110225f80f9f3709b","session_id":"6196c4a3a690e9c677f3e254","condition":"full-information","relevant_dimensions":["antennae","wings"],"bee_group":{"antennae":"A","wings":"1","pattern":"X","legs":"X"},"bonus":1.4800000000000013},{"rt":17164.900000035763,"stimulus":"bees-with-color/bee-B1DM.svg","response":0,"trial_type":"image-button-response","trial_index":21,"time_elapsed":259790,"internal_node_id":"0.0-4.0-0.7","subject_id":"5aeab425f00c7f00018f74d0","study_id":"60edd13110225f80f9f3709b","session_id":"6196c4a3a690e9c677f3e254","condition":"full-information","relevant_dimensions":["antennae","wings"],"bee_group":{"antennae":"A","wings":"1","pattern":"X","legs":"X"},"action":"harvest","summary":"good-harvest","bonus":1.4800000000000013},{"rt":5238.199999988079,"stimulus":"\n                    <p><b>Action: <em>harvest</em></b></p>\n                    <p>This is the bee that you just saw.</p>\n                    <img src=\"bees-with-color/bee-B1DM.svg\" width=\"200\">\n                    <p><span class=\"greenText\"><b>Successful harvest!</b></span><br>Your pay has increased by $0.02. Your bonus pay is now $0.46.</p>\n            ","response":0,"trial_type":"html-button-response","trial_index":22,"time_elapsed":265030,"internal_node_id":"0.0-4.0-1.7","subject_id":"5aeab425f00c7f00018f74d0","study_id":"60edd13110225f80f9f3709b","session_id":"6196c4a3a690e9c677f3e254","condition":"full-information","relevant_dimensions":["antennae","wings"],"bee_group":{"antennae":"A","wings":"1","pattern":"X","legs":"X"},"bonus":1.4800000000000013},{"rt":19821.600000023842,"stimulus":"bees-with-color/bee-A2DM.svg","response":0,"trial_type":"image-button-response","trial_index":23,"time_elapsed":284854,"internal_node_id":"0.0-4.0-0.8","subject_id":"5aeab425f00c7f00018f74d0","study_id":"60edd13110225f80f9f3709b","session_id":"6196c4a3a690e9c677f3e254","condition":"full-information","relevant_dimensions":["antennae","wings"],"bee_group":{"antennae":"A","wings":"1","pattern":"X","legs":"X"},"action":"harvest","summary":"good-harvest","bonus":1.4800000000000013},{"rt":10645.899999976158,"stimulus":"\n                    <p><b>Action: <em>harvest</em></b></p>\n                    <p>This is the bee that you just saw.</p>\n                    <img src=\"bees-with-color/bee-A2DM.svg\" width=\"200\">\n                    <p><span class=\"greenText\"><b>Successful harvest!</b></span><br>Your pay has increased by $0.02. Your bonus pay is now $0.48.</p>\n            ","response":0,"trial_type":"html-button-response","trial_index":24,"time_elapsed":295502,"internal_node_id":"0.0-4.0-1.8","subject_id":"5aeab425f00c7f00018f74d0","study_id":"60edd13110225f80f9f3709b","session_id":"6196c4a3a690e9c677f3e254","condition":"full-information","relevant_dimensions":["antennae","wings"],"bee_group":{"antennae":"A","wings":"1","pattern":"X","legs":"X"},"bonus":1.4800000000000013},{"rt":13845.599999964237,"stimulus":"bees-with-color/bee-A1DF.svg","response":0,"trial_type":"image-button-response","trial_index":25,"time_elapsed":309349,"internal_node_id":"0.0-4.0-0.9","subject_id":"5aeab425f00c7f00018f74d0","study_id":"60edd13110225f80f9f3709b","session_id":"6196c4a3a690e9c677f3e254","condition":"full-information","relevant_dimensions":["antennae","wings"],"bee_group":{"antennae":"A","wings":"1","pattern":"X","legs":"X"},"action":"harvest","summary":"bad-harvest","bonus":1.4800000000000013},{"rt":7086,"stimulus":"\n                    <p><b>Action: <em>harvest</em></b></p>\n                    <p>This is the bee that you just saw.</p>\n                    <img src=\"bees-with-color/bee-A1DF.svg\" width=\"200\">\n                    <p><span class=\"redText\">Bad choice, the bee was angry.</span><br><b>You have been stung!</b><br>Your pay has been decreased by $0.10. Your bonus pay is now $0.38.</p>\n            ","response":0,"trial_type":"html-button-response","trial_index":26,"time_elapsed":316437,"internal_node_id":"0.0-4.0-1.9","subject_id":"5aeab425f00c7f00018f74d0","study_id":"60edd13110225f80f9f3709b","session_id":"6196c4a3a690e9c677f3e254","condition":"full-information","relevant_dimensions":["antennae","wings"],"bee_group":{"antennae":"A","wings":"1","pattern":"X","legs":"X"},"bonus":1.4800000000000013},{"rt":15557.699999988079,"stimulus":"bees-with-color/bee-B1DF.svg","response":0,"trial_type":"image-button-response","trial_index":27,"time_elapsed":331998,"internal_node_id":"0.0-4.0-0.10","subject_id":"5aeab425f00c7f00018f74d0","study_id":"60edd13110225f80f9f3709b","session_id":"6196c4a3a690e9c677f3e254","condition":"full-information","relevant_dimensions":["antennae","wings"],"bee_group":{"antennae":"A","wings":"1","pattern":"X","legs":"X"},"action":"harvest","summary":"good-harvest","bonus":1.4800000000000013},{"rt":12421.800000011921,"stimulus":"\n                    <p><b>Action: <em>harvest</em></b></p>\n                    <p>This is the bee that you just saw.</p>\n                    <img src=\"bees-with-color/bee-B1DF.svg\" width=\"200\">\n                    <p><span class=\"greenText\"><b>Successful harvest!</b></span><br>Your pay has increased by $0.02. Your bonus pay is now $0.40.</p>\n            ","response":0,"trial_type":"html-button-response","trial_index":28,"time_elapsed":344421,"internal_node_id":"0.0-4.0-1.10","subject_id":"5aeab425f00c7f00018f74d0","study_id":"60edd13110225f80f9f3709b","session_id":"6196c4a3a690e9c677f3e254","condition":"full-information","relevant_dimensions":["antennae","wings"],"bee_group":{"antennae":"A","wings":"1","pattern":"X","legs":"X"},"bonus":1.4800000000000013},{"rt":16901.899999976158,"stimulus":"bees-with-color/bee-B1SM.svg","response":0,"trial_type":"image-button-response","trial_index":29,"time_elapsed":361326,"internal_node_id":"0.0-4.0-0.11","subject_id":"5aeab425f00c7f00018f74d0","study_id":"60edd13110225f80f9f3709b","session_id":"6196c4a3a690e9c677f3e254","condition":"full-information","relevant_dimensions":["antennae","wings"],"bee_group":{"antennae":"A","wings":"1","pattern":"X","legs":"X"},"action":"harvest","summary":"good-harvest","bonus":1.4800000000000013},{"rt":3998,"stimulus":"\n                    <p><b>Action: <em>harvest</em></b></p>\n                    <p>This is the bee that you just saw.</p>\n                    <img src=\"bees-with-color/bee-B1SM.svg\" width=\"200\">\n                    <p><span class=\"greenText\"><b>Successful harvest!</b></span><br>Your pay has increased by $0.02. Your bonus pay is now $0.42.</p>\n            ","response":0,"trial_type":"html-button-response","trial_index":30,"time_elapsed":365326,"internal_node_id":"0.0-4.0-1.11","subject_id":"5aeab425f00c7f00018f74d0","study_id":"60edd13110225f80f9f3709b","session_id":"6196c4a3a690e9c677f3e254","condition":"full-information","relevant_dimensions":["antennae","wings"],"bee_group":{"antennae":"A","wings":"1","pattern":"X","legs":"X"},"bonus":1.4800000000000013},{"rt":13373.600000023842,"stimulus":"bees-with-color/bee-A1DM.svg","response":0,"trial_type":"image-button-response","trial_index":31,"time_elapsed":378702,"internal_node_id":"0.0-4.0-0.12","subject_id":"5aeab425f00c7f00018f74d0","study_id":"60edd13110225f80f9f3709b","session_id":"6196c4a3a690e9c677f3e254","condition":"full-information","relevant_dimensions":["antennae","wings"],"bee_group":{"antennae":"A","wings":"1","pattern":"X","legs":"X"},"action":"harvest","summary":"bad-harvest","bonus":1.4800000000000013},{"rt":6430.099999964237,"stimulus":"\n                    <p><b>Action: <em>harvest</em></b></p>\n                    <p>This is the bee that you just saw.</p>\n                    <img src=\"bees-with-color/bee-A1DM.svg\" width=\"200\">\n                    <p><span class=\"redText\">Bad choice, the bee was angry.</span><br><b>You have been stung!</b><br>Your pay has been decreased by $0.10. Your bonus pay is now $0.32.</p>\n            ","response":0,"trial_type":"html-button-response","trial_index":32,"time_elapsed":385134,"internal_node_id":"0.0-4.0-1.12","subject_id":"5aeab425f00c7f00018f74d0","study_id":"60edd13110225f80f9f3709b","session_id":"6196c4a3a690e9c677f3e254","condition":"full-information","relevant_dimensions":["antennae","wings"],"bee_group":{"antennae":"A","wings":"1","pattern":"X","legs":"X"},"bonus":1.4800000000000013},{"rt":28541.400000035763,"stimulus":"bees-with-color/bee-B2DF.svg","response":0,"trial_type":"image-button-response","trial_index":33,"time_elapsed":413678,"internal_node_id":"0.0-4.0-0.13","subject_id":"5aeab425f00c7f00018f74d0","study_id":"60edd13110225f80f9f3709b","session_id":"6196c4a3a690e9c677f3e254","condition":"full-information","relevant_dimensions":["antennae","wings"],"bee_group":{"antennae":"A","wings":"1","pattern":"X","legs":"X"},"action":"harvest","summary":"good-harvest","bonus":1.4800000000000013},{"rt":7910.599999964237,"stimulus":"\n                    <p><b>Action: <em>harvest</em></b></p>\n                    <p>This is the bee that you just saw.</p>\n                    <img src=\"bees-with-color/bee-B2DF.svg\" width=\"200\">\n                    <p><span class=\"greenText\"><b>Successful harvest!</b></span><br>Your pay has increased by $0.02. Your bonus pay is now $0.34.</p>\n            ","response":0,"trial_type":"html-button-response","trial_index":34,"time_elapsed":421590,"internal_node_id":"0.0-4.0-1.13","subject_id":"5aeab425f00c7f00018f74d0","study_id":"60edd13110225f80f9f3709b","session_id":"6196c4a3a690e9c677f3e254","condition":"full-information","relevant_dimensions":["antennae","wings"],"bee_group":{"antennae":"A","wings":"1","pattern":"X","legs":"X"},"bonus":1.4800000000000013},{"rt":16053.900000035763,"stimulus":"bees-with-color/bee-B2DM.svg","response":0,"trial_type":"image-button-response","trial_index":35,"time_elapsed":437646,"internal_node_id":"0.0-4.0-0.14","subject_id":"5aeab425f00c7f00018f74d0","study_id":"60edd13110225f80f9f3709b","session_id":"6196c4a3a690e9c677f3e254","condition":"full-information","relevant_dimensions":["antennae","wings"],"bee_group":{"antennae":"A","wings":"1","pattern":"X","legs":"X"},"action":"harvest","summary":"good-harvest","bonus":1.4800000000000013},{"rt":7606.5,"stimulus":"\n                    <p><b>Action: <em>harvest</em></b></p>\n                    <p>This is the bee that you just saw.</p>\n                    <img src=\"bees-with-color/bee-B2DM.svg\" width=\"200\">\n                    <p><span class=\"greenText\"><b>Successful harvest!</b></span><br>Your pay has increased by $0.02. Your bonus pay is now $0.36.</p>\n            ","response":0,"trial_type":"html-button-response","trial_index":36,"time_elapsed":445253,"internal_node_id":"0.0-4.0-1.14","subject_id":"5aeab425f00c7f00018f74d0","study_id":"60edd13110225f80f9f3709b","session_id":"6196c4a3a690e9c677f3e254","condition":"full-information","relevant_dimensions":["antennae","wings"],"bee_group":{"antennae":"A","wings":"1","pattern":"X","legs":"X"},"bonus":1.4800000000000013},{"rt":19550.100000023842,"stimulus":"bees-with-color/bee-B1SF.svg","response":0,"trial_type":"image-button-response","trial_index":37,"time_elapsed":464805,"internal_node_id":"0.0-4.0-0.15","subject_id":"5aeab425f00c7f00018f74d0","study_id":"60edd13110225f80f9f3709b","session_id":"6196c4a3a690e9c677f3e254","condition":"full-information","relevant_dimensions":["antennae","wings"],"bee_group":{"antennae":"A","wings":"1","pattern":"X","legs":"X"},"action":"harvest","summary":"good-harvest","bonus":1.4800000000000013},{"rt":5430.599999964237,"stimulus":"\n                    <p><b>Action: <em>harvest</em></b></p>\n                    <p>This is the bee that you just saw.</p>\n                    <img src=\"bees-with-color/bee-B1SF.svg\" width=\"200\">\n                    <p><span class=\"greenText\"><b>Successful harvest!</b></span><br>Your pay has increased by $0.02. Your bonus pay is now $0.38.</p>\n            ","response":0,"trial_type":"html-button-response","trial_index":38,"time_elapsed":470237,"internal_node_id":"0.0-4.0-1.15","subject_id":"5aeab425f00c7f00018f74d0","study_id":"60edd13110225f80f9f3709b","session_id":"6196c4a3a690e9c677f3e254","condition":"full-information","relevant_dimensions":["antennae","wings"],"bee_group":{"antennae":"A","wings":"1","pattern":"X","legs":"X"},"bonus":1.4800000000000013},{"rt":15790.099999964237,"stimulus":"bees-with-color/bee-B2DM.svg","response":0,"trial_type":"image-button-response","trial_index":39,"time_elapsed":486029,"internal_node_id":"0.0-4.0-0.16","subject_id":"5aeab425f00c7f00018f74d0","study_id":"60edd13110225f80f9f3709b","session_id":"6196c4a3a690e9c677f3e254","condition":"full-information","relevant_dimensions":["antennae","wings"],"bee_group":{"antennae":"A","wings":"1","pattern":"X","legs":"X"},"action":"harvest","summary":"good-harvest","bonus":1.4800000000000013},{"rt":5294.300000011921,"stimulus":"\n                    <p><b>Action: <em>harvest</em></b></p>\n                    <p>This is the bee that you just saw.</p>\n                    <img src=\"bees-with-color/bee-B2DM.svg\" width=\"200\">\n                    <p><span class=\"greenText\"><b>Successful harvest!</b></span><br>Your pay has increased by $0.02. Your bonus pay is now $0.40.</p>\n            ","response":0,"trial_type":"html-button-response","trial_index":40,"time_elapsed":491325,"internal_node_id":"0.0-4.0-1.16","subject_id":"5aeab425f00c7f00018f74d0","study_id":"60edd13110225f80f9f3709b","session_id":"6196c4a3a690e9c677f3e254","condition":"full-information","relevant_dimensions":["antennae","wings"],"bee_group":{"antennae":"A","wings":"1","pattern":"X","legs":"X"},"bonus":1.4800000000000013},{"rt":17244.600000023842,"stimulus":"bees-with-color/bee-B1DM.svg","response":0,"trial_type":"image-button-response","trial_index":41,"time_elapsed":508573,"internal_node_id":"0.0-4.0-0.17","subject_id":"5aeab425f00c7f00018f74d0","study_id":"60edd13110225f80f9f3709b","session_id":"6196c4a3a690e9c677f3e254","condition":"full-information","relevant_dimensions":["antennae","wings"],"bee_group":{"antennae":"A","wings":"1","pattern":"X","legs":"X"},"action":"harvest","summary":"good-harvest","bonus":1.4800000000000013},{"rt":1486.300000011921,"stimulus":"\n                    <p><b>Action: <em>harvest</em></b></p>\n                    <p>This is the bee that you just saw.</p>\n                    <img src=\"bees-with-color/bee-B1DM.svg\" width=\"200\">\n                    <p><span class=\"greenText\"><b>Successful harvest!</b></span><br>Your pay has increased by $0.02. Your bonus pay is now $0.42.</p>\n            ","response":0,"trial_type":"html-button-response","trial_index":42,"time_elapsed":510061,"internal_node_id":"0.0-4.0-1.17","subject_id":"5aeab425f00c7f00018f74d0","study_id":"60edd13110225f80f9f3709b","session_id":"6196c4a3a690e9c677f3e254","condition":"full-information","relevant_dimensions":["antennae","wings"],"bee_group":{"antennae":"A","wings":"1","pattern":"X","legs":"X"},"bonus":1.4800000000000013},{"rt":18265.599999964237,"stimulus":"bees-with-color/bee-B2SM.svg","response":0,"trial_type":"image-button-response","trial_index":43,"time_elapsed":528329,"internal_node_id":"0.0-4.0-0.18","subject_id":"5aeab425f00c7f00018f74d0","study_id":"60edd13110225f80f9f3709b","session_id":"6196c4a3a690e9c677f3e254","condition":"full-information","relevant_dimensions":["antennae","wings"],"bee_group":{"antennae":"A","wings":"1","pattern":"X","legs":"X"},"action":"harvest","summary":"good-harvest","bonus":1.4800000000000013},{"rt":6960.900000035763,"stimulus":"\n                    <p><b>Action: <em>harvest</em></b></p>\n                    <p>This is the bee that you just saw.</p>\n                    <img src=\"bees-with-color/bee-B2SM.svg\" width=\"200\">\n                    <p><span class=\"greenText\"><b>Successful harvest!</b></span><br>Your pay has increased by $0.02. Your bonus pay is now $0.44.</p>\n            ","response":0,"trial_type":"html-button-response","trial_index":44,"time_elapsed":535293,"internal_node_id":"0.0-4.0-1.18","subject_id":"5aeab425f00c7f00018f74d0","study_id":"60edd13110225f80f9f3709b","session_id":"6196c4a3a690e9c677f3e254","condition":"full-information","relevant_dimensions":["antennae","wings"],"bee_group":{"antennae":"A","wings":"1","pattern":"X","legs":"X"},"bonus":1.4800000000000013},{"rt":16102,"stimulus":"bees-with-color/bee-B2SF.svg","response":0,"trial_type":"image-button-response","trial_index":45,"time_elapsed":551397,"internal_node_id":"0.0-4.0-0.19","subject_id":"5aeab425f00c7f00018f74d0","study_id":"60edd13110225f80f9f3709b","session_id":"6196c4a3a690e9c677f3e254","condition":"full-information","relevant_dimensions":["antennae","wings"],"bee_group":{"antennae":"A","wings":"1","pattern":"X","legs":"X"},"action":"harvest","summary":"good-harvest","bonus":1.4800000000000013},{"rt":5038.900000035763,"stimulus":"\n                    <p><b>Action: <em>harvest</em></b></p>\n                    <p>This is the bee that you just saw.</p>\n                    <img src=\"bees-with-color/bee-B2SF.svg\" width=\"200\">\n                    <p><span class=\"greenText\"><b>Successful harvest!</b></span><br>Your pay has increased by $0.02. Your bonus pay is now $0.46.</p>\n            ","response":0,"trial_type":"html-button-response","trial_index":46,"time_elapsed":556437,"internal_node_id":"0.0-4.0-1.19","subject_id":"5aeab425f00c7f00018f74d0","study_id":"60edd13110225f80f9f3709b","session_id":"6196c4a3a690e9c677f3e254","condition":"full-information","relevant_dimensions":["antennae","wings"],"bee_group":{"antennae":"A","wings":"1","pattern":"X","legs":"X"},"bonus":1.4800000000000013},{"rt":24549.399999976158,"stimulus":"bees-with-color/bee-A1DM.svg","response":1,"trial_type":"image-button-response","trial_index":47,"time_elapsed":580990,"internal_node_id":"0.0-4.0-0.20","subject_id":"5aeab425f00c7f00018f74d0","study_id":"60edd13110225f80f9f3709b","session_id":"6196c4a3a690e9c677f3e254","condition":"full-information","relevant_dimensions":["antennae","wings"],"bee_group":{"antennae":"A","wings":"1","pattern":"X","legs":"X"},"action":"avoid","summary":"good-avoid","bonus":1.4800000000000013},{"rt":6972.600000023842,"stimulus":"\n                    <p><b>Action: <em>avoid</em></b></p>\n                    <p>This is the bee that you just saw.</p>\n                    <img src=\"bees-with-color/bee-A1DM.svg\" width=\"200\">\n                    <p><span class=\"greenText\">Good choice!</span>  This bee would have stung you.<br>Your bonus pay is unchanged, and remains at $0.46.</p>\n            ","response":0,"trial_type":"html-button-response","trial_index":48,"time_elapsed":587966,"internal_node_id":"0.0-4.0-1.20","subject_id":"5aeab425f00c7f00018f74d0","study_id":"60edd13110225f80f9f3709b","session_id":"6196c4a3a690e9c677f3e254","condition":"full-information","relevant_dimensions":["antennae","wings"],"bee_group":{"antennae":"A","wings":"1","pattern":"X","legs":"X"},"bonus":1.4800000000000013},{"rt":22285.899999976158,"stimulus":"bees-with-color/bee-A1DF.svg","response":1,"trial_type":"image-button-response","trial_index":49,"time_elapsed":610254,"internal_node_id":"0.0-4.0-0.21","subject_id":"5aeab425f00c7f00018f74d0","study_id":"60edd13110225f80f9f3709b","session_id":"6196c4a3a690e9c677f3e254","condition":"full-information","relevant_dimensions":["antennae","wings"],"bee_group":{"antennae":"A","wings":"1","pattern":"X","legs":"X"},"action":"avoid","summary":"good-avoid","bonus":1.4800000000000013},{"rt":1311.0999999642372,"stimulus":"\n                    <p><b>Action: <em>avoid</em></b></p>\n                    <p>This is the bee that you just saw.</p>\n                    <img src=\"bees-with-color/bee-A1DF.svg\" width=\"200\">\n                    <p><span class=\"greenText\">Good choice!</span>  This bee would have stung you.<br>Your bonus pay is unchanged, and remains at $0.46.</p>\n            ","response":0,"trial_type":"html-button-response","trial_index":50,"time_elapsed":611567,"internal_node_id":"0.0-4.0-1.21","subject_id":"5aeab425f00c7f00018f74d0","study_id":"60edd13110225f80f9f3709b","session_id":"6196c4a3a690e9c677f3e254","condition":"full-information","relevant_dimensions":["antennae","wings"],"bee_group":{"antennae":"A","wings":"1","pattern":"X","legs":"X"},"bonus":1.4800000000000013},{"rt":12604.700000047684,"stimulus":"bees-with-color/bee-B1SF.svg","response":0,"trial_type":"image-button-response","trial_index":51,"time_elapsed":624174,"internal_node_id":"0.0-4.0-0.22","subject_id":"5aeab425f00c7f00018f74d0","study_id":"60edd13110225f80f9f3709b","session_id":"6196c4a3a690e9c677f3e254","condition":"full-information","relevant_dimensions":["antennae","wings"],"bee_group":{"antennae":"A","wings":"1","pattern":"X","legs":"X"},"action":"harvest","summary":"good-harvest","bonus":1.4800000000000013},{"rt":4398,"stimulus":"\n                    <p><b>Action: <em>harvest</em></b></p>\n                    <p>This is the bee that you just saw.</p>\n                    <img src=\"bees-with-color/bee-B1SF.svg\" width=\"200\">\n                    <p><span class=\"greenText\"><b>Successful harvest!</b></span><br>Your pay has increased by $0.02. Your bonus pay is now $0.48.</p>\n            ","response":0,"trial_type":"html-button-response","trial_index":52,"time_elapsed":628574,"internal_node_id":"0.0-4.0-1.22","subject_id":"5aeab425f00c7f00018f74d0","study_id":"60edd13110225f80f9f3709b","session_id":"6196c4a3a690e9c677f3e254","condition":"full-information","relevant_dimensions":["antennae","wings"],"bee_group":{"antennae":"A","wings":"1","pattern":"X","legs":"X"},"bonus":1.4800000000000013},{"rt":9413.800000011921,"stimulus":"bees-with-color/bee-B1SM.svg","response":0,"trial_type":"image-button-response","trial_index":53,"time_elapsed":637990,"internal_node_id":"0.0-4.0-0.23","subject_id":"5aeab425f00c7f00018f74d0","study_id":"60edd13110225f80f9f3709b","session_id":"6196c4a3a690e9c677f3e254","condition":"full-information","relevant_dimensions":["antennae","wings"],"bee_group":{"antennae":"A","wings":"1","pattern":"X","legs":"X"},"action":"harvest","summary":"good-harvest","bonus":1.4800000000000013},{"rt":998.6000000238419,"stimulus":"\n                    <p><b>Action: <em>harvest</em></b></p>\n                    <p>This is the bee that you just saw.</p>\n                    <img src=\"bees-with-color/bee-B1SM.svg\" width=\"200\">\n                    <p><span class=\"greenText\"><b>Successful harvest!</b></span><br>Your pay has increased by $0.02. Your bonus pay is now $0.50.</p>\n            ","response":0,"trial_type":"html-button-response","trial_index":54,"time_elapsed":638991,"internal_node_id":"0.0-4.0-1.23","subject_id":"5aeab425f00c7f00018f74d0","study_id":"60edd13110225f80f9f3709b","session_id":"6196c4a3a690e9c677f3e254","condition":"full-information","relevant_dimensions":["antennae","wings"],"bee_group":{"antennae":"A","wings":"1","pattern":"X","legs":"X"},"bonus":1.4800000000000013},{"rt":11012.800000011921,"stimulus":"bees-with-color/bee-A1SF.svg","response":1,"trial_type":"image-button-response","trial_index":55,"time_elapsed":650006,"internal_node_id":"0.0-4.0-0.24","subject_id":"5aeab425f00c7f00018f74d0","study_id":"60edd13110225f80f9f3709b","session_id":"6196c4a3a690e9c677f3e254","condition":"full-information","relevant_dimensions":["antennae","wings"],"bee_group":{"antennae":"A","wings":"1","pattern":"X","legs":"X"},"action":"avoid","summary":"good-avoid","bonus":1.4800000000000013},{"rt":5110.100000023842,"stimulus":"\n                    <p><b>Action: <em>avoid</em></b></p>\n                    <p>This is the bee that you just saw.</p>\n                    <img src=\"bees-with-color/bee-A1SF.svg\" width=\"200\">\n                    <p><span class=\"greenText\">Good choice!</span>  This bee would have stung you.<br>Your bonus pay is unchanged, and remains at $0.50.</p>\n            ","response":0,"trial_type":"html-button-response","trial_index":56,"time_elapsed":655117,"internal_node_id":"0.0-4.0-1.24","subject_id":"5aeab425f00c7f00018f74d0","study_id":"60edd13110225f80f9f3709b","session_id":"6196c4a3a690e9c677f3e254","condition":"full-information","relevant_dimensions":["antennae","wings"],"bee_group":{"antennae":"A","wings":"1","pattern":"X","legs":"X"},"bonus":1.4800000000000013},{"rt":12613.699999988079,"stimulus":"bees-with-color/bee-A2DF.svg","response":0,"trial_type":"image-button-response","trial_index":57,"time_elapsed":667733,"internal_node_id":"0.0-4.0-0.25","subject_id":"5aeab425f00c7f00018f74d0","study_id":"60edd13110225f80f9f3709b","session_id":"6196c4a3a690e9c677f3e254","condition":"full-information","relevant_dimensions":["antennae","wings"],"bee_group":{"antennae":"A","wings":"1","pattern":"X","legs":"X"},"action":"harvest","summary":"good-harvest","bonus":1.4800000000000013},{"rt":3414.100000023842,"stimulus":"\n                    <p><b>Action: <em>harvest</em></b></p>\n                    <p>This is the bee that you just saw.</p>\n                    <img src=\"bees-with-color/bee-A2DF.svg\" width=\"200\">\n                    <p><span class=\"greenText\"><b>Successful harvest!</b></span><br>Your pay has increased by $0.02. Your bonus pay is now $0.52.</p>\n            ","response":0,"trial_type":"html-button-response","trial_index":58,"time_elapsed":671150,"internal_node_id":"0.0-4.0-1.25","subject_id":"5aeab425f00c7f00018f74d0","study_id":"60edd13110225f80f9f3709b","session_id":"6196c4a3a690e9c677f3e254","condition":"full-information","relevant_dimensions":["antennae","wings"],"bee_group":{"antennae":"A","wings":"1","pattern":"X","legs":"X"},"bonus":1.4800000000000013},{"rt":16021.600000023842,"stimulus":"bees-with-color/bee-B2DF.svg","response":0,"trial_type":"image-button-response","trial_index":59,"time_elapsed":687173,"internal_node_id":"0.0-4.0-0.26","subject_id":"5aeab425f00c7f00018f74d0","study_id":"60edd13110225f80f9f3709b","session_id":"6196c4a3a690e9c677f3e254","condition":"full-information","relevant_dimensions":["antennae","wings"],"bee_group":{"antennae":"A","wings":"1","pattern":"X","legs":"X"},"action":"harvest","summary":"good-harvest","bonus":1.4800000000000013},{"rt":4846.600000023842,"stimulus":"\n                    <p><b>Action: <em>harvest</em></b></p>\n                    <p>This is the bee that you just saw.</p>\n                    <img src=\"bees-with-color/bee-B2DF.svg\" width=\"200\">\n                    <p><span class=\"greenText\"><b>Successful harvest!</b></span><br>Your pay has increased by $0.02. Your bonus pay is now $0.54.</p>\n            ","response":0,"trial_type":"html-button-response","trial_index":60,"time_elapsed":692021,"internal_node_id":"0.0-4.0-1.26","subject_id":"5aeab425f00c7f00018f74d0","study_id":"60edd13110225f80f9f3709b","session_id":"6196c4a3a690e9c677f3e254","condition":"full-information","relevant_dimensions":["antennae","wings"],"bee_group":{"antennae":"A","wings":"1","pattern":"X","legs":"X"},"bonus":1.4800000000000013},{"rt":9230.100000023842,"stimulus":"bees-with-color/bee-B1DF.svg","response":0,"trial_type":"image-button-response","trial_index":61,"time_elapsed":701253,"internal_node_id":"0.0-4.0-0.27","subject_id":"5aeab425f00c7f00018f74d0","study_id":"60edd13110225f80f9f3709b","session_id":"6196c4a3a690e9c677f3e254","condition":"full-information","relevant_dimensions":["antennae","wings"],"bee_group":{"antennae":"A","wings":"1","pattern":"X","legs":"X"},"action":"harvest","summary":"good-harvest","bonus":1.4800000000000013},{"rt":4495.100000023842,"stimulus":"\n                    <p><b>Action: <em>harvest</em></b></p>\n                    <p>This is the bee that you just saw.</p>\n                    <img src=\"bees-with-color/bee-B1DF.svg\" width=\"200\">\n                    <p><span class=\"greenText\"><b>Successful harvest!</b></span><br>Your pay has increased by $0.02. Your bonus pay is now $0.56.</p>\n            ","response":0,"trial_type":"html-button-response","trial_index":62,"time_elapsed":705750,"internal_node_id":"0.0-4.0-1.27","subject_id":"5aeab425f00c7f00018f74d0","study_id":"60edd13110225f80f9f3709b","session_id":"6196c4a3a690e9c677f3e254","condition":"full-information","relevant_dimensions":["antennae","wings"],"bee_group":{"antennae":"A","wings":"1","pattern":"X","legs":"X"},"bonus":1.4800000000000013},{"rt":13293.199999988079,"stimulus":"bees-with-color/bee-A2SM.svg","response":0,"trial_type":"image-button-response","trial_index":63,"time_elapsed":719045,"internal_node_id":"0.0-4.0-0.28","subject_id":"5aeab425f00c7f00018f74d0","study_id":"60edd13110225f80f9f3709b","session_id":"6196c4a3a690e9c677f3e254","condition":"full-information","relevant_dimensions":["antennae","wings"],"bee_group":{"antennae":"A","wings":"1","pattern":"X","legs":"X"},"action":"harvest","summary":"good-harvest","bonus":1.4800000000000013},{"rt":4702.600000023842,"stimulus":"\n                    <p><b>Action: <em>harvest</em></b></p>\n                    <p>This is the bee that you just saw.</p>\n                    <img src=\"bees-with-color/bee-A2SM.svg\" width=\"200\">\n                    <p><span class=\"greenText\"><b>Successful harvest!</b></span><br>Your pay has increased by $0.02. Your bonus pay is now $0.58.</p>\n            ","response":0,"trial_type":"html-button-response","trial_index":64,"time_elapsed":723749,"internal_node_id":"0.0-4.0-1.28","subject_id":"5aeab425f00c7f00018f74d0","study_id":"60edd13110225f80f9f3709b","session_id":"6196c4a3a690e9c677f3e254","condition":"full-information","relevant_dimensions":["antennae","wings"],"bee_group":{"antennae":"A","wings":"1","pattern":"X","legs":"X"},"bonus":1.4800000000000013},{"rt":10261.800000011921,"stimulus":"bees-with-color/bee-A2SF.svg","response":0,"trial_type":"image-button-response","trial_index":65,"time_elapsed":734013,"internal_node_id":"0.0-4.0-0.29","subject_id":"5aeab425f00c7f00018f74d0","study_id":"60edd13110225f80f9f3709b","session_id":"6196c4a3a690e9c677f3e254","condition":"full-information","relevant_dimensions":["antennae","wings"],"bee_group":{"antennae":"A","wings":"1","pattern":"X","legs":"X"},"action":"harvest","summary":"good-harvest","bonus":1.4800000000000013},{"rt":4495.399999976158,"stimulus":"\n                    <p><b>Action: <em>harvest</em></b></p>\n                    <p>This is the bee that you just saw.</p>\n                    <img src=\"bees-with-color/bee-A2SF.svg\" width=\"200\">\n                    <p><span class=\"greenText\"><b>Successful harvest!</b></span><br>Your pay has increased by $0.02. Your bonus pay is now $0.60.</p>\n            ","response":0,"trial_type":"html-button-response","trial_index":66,"time_elapsed":738510,"internal_node_id":"0.0-4.0-1.29","subject_id":"5aeab425f00c7f00018f74d0","study_id":"60edd13110225f80f9f3709b","session_id":"6196c4a3a690e9c677f3e254","condition":"full-information","relevant_dimensions":["antennae","wings"],"bee_group":{"antennae":"A","wings":"1","pattern":"X","legs":"X"},"bonus":1.4800000000000013},{"rt":14237,"stimulus":"bees-with-color/bee-A1SM.svg","response":0,"trial_type":"image-button-response","trial_index":67,"time_elapsed":752749,"internal_node_id":"0.0-4.0-0.30","subject_id":"5aeab425f00c7f00018f74d0","study_id":"60edd13110225f80f9f3709b","session_id":"6196c4a3a690e9c677f3e254","condition":"full-information","relevant_dimensions":["antennae","wings"],"bee_group":{"antennae":"A","wings":"1","pattern":"X","legs":"X"},"action":"harvest","summary":"bad-harvest","bonus":1.4800000000000013},{"rt":12206.399999976158,"stimulus":"\n                    <p><b>Action: <em>harvest</em></b></p>\n                    <p>This is the bee that you just saw.</p>\n                    <img src=\"bees-with-color/bee-A1SM.svg\" width=\"200\">\n                    <p><span class=\"redText\">Bad choice, the bee was angry.</span><br><b>You have been stung!</b><br>Your pay has been decreased by $0.10. Your bonus pay is now $0.50.</p>\n            ","response":0,"trial_type":"html-button-response","trial_index":68,"time_elapsed":764957,"internal_node_id":"0.0-4.0-1.30","subject_id":"5aeab425f00c7f00018f74d0","study_id":"60edd13110225f80f9f3709b","session_id":"6196c4a3a690e9c677f3e254","condition":"full-information","relevant_dimensions":["antennae","wings"],"bee_group":{"antennae":"A","wings":"1","pattern":"X","legs":"X"},"bonus":1.4800000000000013},{"rt":15589.699999988079,"stimulus":"bees-with-color/bee-A2DM.svg","response":0,"trial_type":"image-button-response","trial_index":69,"time_elapsed":780549,"internal_node_id":"0.0-4.0-0.31","subject_id":"5aeab425f00c7f00018f74d0","study_id":"60edd13110225f80f9f3709b","session_id":"6196c4a3a690e9c677f3e254","condition":"full-information","relevant_dimensions":["antennae","wings"],"bee_group":{"antennae":"A","wings":"1","pattern":"X","legs":"X"},"action":"harvest","summary":"good-harvest","bonus":1.4800000000000013},{"rt":4190.399999976158,"stimulus":"\n                    <p><b>Action: <em>harvest</em></b></p>\n                    <p>This is the bee that you just saw.</p>\n                    <img src=\"bees-with-color/bee-A2DM.svg\" width=\"200\">\n                    <p><span class=\"greenText\"><b>Successful harvest!</b></span><br>Your pay has increased by $0.02. Your bonus pay is now $0.52.</p>\n            ","response":0,"trial_type":"html-button-response","trial_index":70,"time_elapsed":784741,"internal_node_id":"0.0-4.0-1.31","subject_id":"5aeab425f00c7f00018f74d0","study_id":"60edd13110225f80f9f3709b","session_id":"6196c4a3a690e9c677f3e254","condition":"full-information","relevant_dimensions":["antennae","wings"],"bee_group":{"antennae":"A","wings":"1","pattern":"X","legs":"X"},"bonus":1.4800000000000013},{"rt":94157.79999995232,"stimulus":"bees-with-color/bee-A2SM.svg","response":0,"trial_type":"image-button-response","trial_index":71,"time_elapsed":878901,"internal_node_id":"0.0-4.0-0.32","subject_id":"5aeab425f00c7f00018f74d0","study_id":"60edd13110225f80f9f3709b","session_id":"6196c4a3a690e9c677f3e254","condition":"full-information","relevant_dimensions":["antennae","wings"],"bee_group":{"antennae":"A","wings":"1","pattern":"X","legs":"X"},"action":"harvest","summary":"good-harvest","bonus":1.4800000000000013},{"rt":1182.3999999761581,"stimulus":"\n                    <p><b>Action: <em>harvest</em></b></p>\n                    <p>This is the bee that you just saw.</p>\n                    <img src=\"bees-with-color/bee-A2SM.svg\" width=\"200\">\n                    <p><span class=\"greenText\"><b>Successful harvest!</b></span><br>Your pay has increased by $0.02. Your bonus pay is now $0.54.</p>\n            ","response":0,"trial_type":"html-button-response","trial_index":72,"time_elapsed":880085,"internal_node_id":"0.0-4.0-1.32","subject_id":"5aeab425f00c7f00018f74d0","study_id":"60edd13110225f80f9f3709b","session_id":"6196c4a3a690e9c677f3e254","condition":"full-information","relevant_dimensions":["antennae","wings"],"bee_group":{"antennae":"A","wings":"1","pattern":"X","legs":"X"},"bonus":1.4800000000000013},{"rt":12917.899999976158,"stimulus":"bees-with-color/bee-B2SM.svg","response":0,"trial_type":"image-button-response","trial_index":73,"time_elapsed":893005,"internal_node_id":"0.0-4.0-0.33","subject_id":"5aeab425f00c7f00018f74d0","study_id":"60edd13110225f80f9f3709b","session_id":"6196c4a3a690e9c677f3e254","condition":"full-information","relevant_dimensions":["antennae","wings"],"bee_group":{"antennae":"A","wings":"1","pattern":"X","legs":"X"},"action":"harvest","summary":"good-harvest","bonus":1.4800000000000013},{"rt":950.1999999880791,"stimulus":"\n                    <p><b>Action: <em>harvest</em></b></p>\n                    <p>This is the bee that you just saw.</p>\n                    <img src=\"bees-with-color/bee-B2SM.svg\" width=\"200\">\n                    <p><span class=\"greenText\"><b>Successful harvest!</b></span><br>Your pay has increased by $0.02. Your bonus pay is now $0.56.</p>\n            ","response":0,"trial_type":"html-button-response","trial_index":74,"time_elapsed":893957,"internal_node_id":"0.0-4.0-1.33","subject_id":"5aeab425f00c7f00018f74d0","study_id":"60edd13110225f80f9f3709b","session_id":"6196c4a3a690e9c677f3e254","condition":"full-information","relevant_dimensions":["antennae","wings"],"bee_group":{"antennae":"A","wings":"1","pattern":"X","legs":"X"},"bonus":1.4800000000000013},{"rt":17253.400000035763,"stimulus":"bees-with-color/bee-A2DF.svg","response":0,"trial_type":"image-button-response","trial_index":75,"time_elapsed":911213,"internal_node_id":"0.0-4.0-0.34","subject_id":"5aeab425f00c7f00018f74d0","study_id":"60edd13110225f80f9f3709b","session_id":"6196c4a3a690e9c677f3e254","condition":"full-information","relevant_dimensions":["antennae","wings"],"bee_group":{"antennae":"A","wings":"1","pattern":"X","legs":"X"},"action":"harvest","summary":"good-harvest","bonus":1.4800000000000013},{"rt":1086.2999999523163,"stimulus":"\n                    <p><b>Action: <em>harvest</em></b></p>\n                    <p>This is the bee that you just saw.</p>\n                    <img src=\"bees-with-color/bee-A2DF.svg\" width=\"200\">\n                    <p><span class=\"greenText\"><b>Successful harvest!</b></span><br>Your pay has increased by $0.02. Your bonus pay is now $0.58.</p>\n            ","response":0,"trial_type":"html-button-response","trial_index":76,"time_elapsed":912301,"internal_node_id":"0.0-4.0-1.34","subject_id":"5aeab425f00c7f00018f74d0","study_id":"60edd13110225f80f9f3709b","session_id":"6196c4a3a690e9c677f3e254","condition":"full-information","relevant_dimensions":["antennae","wings"],"bee_group":{"antennae":"A","wings":"1","pattern":"X","legs":"X"},"bonus":1.4800000000000013},{"rt":6485.699999988079,"stimulus":"bees-with-color/bee-A2DM.svg","response":0,"trial_type":"image-button-response","trial_index":77,"time_elapsed":918789,"internal_node_id":"0.0-4.0-0.35","subject_id":"5aeab425f00c7f00018f74d0","study_id":"60edd13110225f80f9f3709b","session_id":"6196c4a3a690e9c677f3e254","condition":"full-information","relevant_dimensions":["antennae","wings"],"bee_group":{"antennae":"A","wings":"1","pattern":"X","legs":"X"},"action":"harvest","summary":"good-harvest","bonus":1.4800000000000013},{"rt":1294.0999999642372,"stimulus":"\n                    <p><b>Action: <em>harvest</em></b></p>\n                    <p>This is the bee that you just saw.</p>\n                    <img src=\"bees-with-color/bee-A2DM.svg\" width=\"200\">\n                    <p><span class=\"greenText\"><b>Successful harvest!</b></span><br>Your pay has increased by $0.02. Your bonus pay is now $0.60.</p>\n            ","response":0,"trial_type":"html-button-response","trial_index":78,"time_elapsed":920085,"internal_node_id":"0.0-4.0-1.35","subject_id":"5aeab425f00c7f00018f74d0","study_id":"60edd13110225f80f9f3709b","session_id":"6196c4a3a690e9c677f3e254","condition":"full-information","relevant_dimensions":["antennae","wings"],"bee_group":{"antennae":"A","wings":"1","pattern":"X","legs":"X"},"bonus":1.4800000000000013},{"rt":7349.800000011921,"stimulus":"bees-with-color/bee-A1SM.svg","response":1,"trial_type":"image-button-response","trial_index":79,"time_elapsed":927437,"internal_node_id":"0.0-4.0-0.36","subject_id":"5aeab425f00c7f00018f74d0","study_id":"60edd13110225f80f9f3709b","session_id":"6196c4a3a690e9c677f3e254","condition":"full-information","relevant_dimensions":["antennae","wings"],"bee_group":{"antennae":"A","wings":"1","pattern":"X","legs":"X"},"action":"avoid","summary":"good-avoid","bonus":1.4800000000000013},{"rt":1125.5,"stimulus":"\n                    <p><b>Action: <em>avoid</em></b></p>\n                    <p>This is the bee that you just saw.</p>\n                    <img src=\"bees-with-color/bee-A1SM.svg\" width=\"200\">\n                    <p><span class=\"greenText\">Good choice!</span>  This bee would have stung you.<br>Your bonus pay is unchanged, and remains at $0.60.</p>\n            ","response":0,"trial_type":"html-button-response","trial_index":80,"time_elapsed":928565,"internal_node_id":"0.0-4.0-1.36","subject_id":"5aeab425f00c7f00018f74d0","study_id":"60edd13110225f80f9f3709b","session_id":"6196c4a3a690e9c677f3e254","condition":"full-information","relevant_dimensions":["antennae","wings"],"bee_group":{"antennae":"A","wings":"1","pattern":"X","legs":"X"},"bonus":1.4800000000000013},{"rt":7685.699999988079,"stimulus":"bees-with-color/bee-A1DF.svg","response":1,"trial_type":"image-button-response","trial_index":81,"time_elapsed":936253,"internal_node_id":"0.0-4.0-0.37","subject_id":"5aeab425f00c7f00018f74d0","study_id":"60edd13110225f80f9f3709b","session_id":"6196c4a3a690e9c677f3e254","condition":"full-information","relevant_dimensions":["antennae","wings"],"bee_group":{"antennae":"A","wings":"1","pattern":"X","legs":"X"},"action":"avoid","summary":"good-avoid","bonus":1.4800000000000013},{"rt":1542.300000011921,"stimulus":"\n                    <p><b>Action: <em>avoid</em></b></p>\n                    <p>This is the bee that you just saw.</p>\n                    <img src=\"bees-with-color/bee-A1DF.svg\" width=\"200\">\n                    <p><span class=\"greenText\">Good choice!</span>  This bee would have stung you.<br>Your bonus pay is unchanged, and remains at $0.60.</p>\n            ","response":0,"trial_type":"html-button-response","trial_index":82,"time_elapsed":937797,"internal_node_id":"0.0-4.0-1.37","subject_id":"5aeab425f00c7f00018f74d0","study_id":"60edd13110225f80f9f3709b","session_id":"6196c4a3a690e9c677f3e254","condition":"full-information","relevant_dimensions":["antennae","wings"],"bee_group":{"antennae":"A","wings":"1","pattern":"X","legs":"X"},"bonus":1.4800000000000013},{"rt":10093.399999976158,"stimulus":"bees-with-color/bee-B2SF.svg","response":0,"trial_type":"image-button-response","trial_index":83,"time_elapsed":947893,"internal_node_id":"0.0-4.0-0.38","subject_id":"5aeab425f00c7f00018f74d0","study_id":"60edd13110225f80f9f3709b","session_id":"6196c4a3a690e9c677f3e254","condition":"full-information","relevant_dimensions":["antennae","wings"],"bee_group":{"antennae":"A","wings":"1","pattern":"X","legs":"X"},"action":"harvest","summary":"good-harvest","bonus":1.4800000000000013},{"rt":1125.7999999523163,"stimulus":"\n                    <p><b>Action: <em>harvest</em></b></p>\n                    <p>This is the bee that you just saw.</p>\n                    <img src=\"bees-with-color/bee-B2SF.svg\" width=\"200\">\n                    <p><span class=\"greenText\"><b>Successful harvest!</b></span><br>Your pay has increased by $0.02. Your bonus pay is now $0.62.</p>\n            ","response":0,"trial_type":"html-button-response","trial_index":84,"time_elapsed":949021,"internal_node_id":"0.0-4.0-1.38","subject_id":"5aeab425f00c7f00018f74d0","study_id":"60edd13110225f80f9f3709b","session_id":"6196c4a3a690e9c677f3e254","condition":"full-information","relevant_dimensions":["antennae","wings"],"bee_group":{"antennae":"A","wings":"1","pattern":"X","legs":"X"},"bonus":1.4800000000000013},{"rt":6829.399999976158,"stimulus":"bees-with-color/bee-B1SM.svg","response":0,"trial_type":"image-button-response","trial_index":85,"time_elapsed":955853,"internal_node_id":"0.0-4.0-0.39","subject_id":"5aeab425f00c7f00018f74d0","study_id":"60edd13110225f80f9f3709b","session_id":"6196c4a3a690e9c677f3e254","condition":"full-information","relevant_dimensions":["antennae","wings"],"bee_group":{"antennae":"A","wings":"1","pattern":"X","legs":"X"},"action":"harvest","summary":"good-harvest","bonus":1.4800000000000013},{"rt":1237.800000011921,"stimulus":"\n                    <p><b>Action: <em>harvest</em></b></p>\n                    <p>This is the bee that you just saw.</p>\n                    <img src=\"bees-with-color/bee-B1SM.svg\" width=\"200\">\n                    <p><span class=\"greenText\"><b>Successful harvest!</b></span><br>Your pay has increased by $0.02. Your bonus pay is now $0.64.</p>\n            ","response":0,"trial_type":"html-button-response","trial_index":86,"time_elapsed":957093,"internal_node_id":"0.0-4.0-1.39","subject_id":"5aeab425f00c7f00018f74d0","study_id":"60edd13110225f80f9f3709b","session_id":"6196c4a3a690e9c677f3e254","condition":"full-information","relevant_dimensions":["antennae","wings"],"bee_group":{"antennae":"A","wings":"1","pattern":"X","legs":"X"},"bonus":1.4800000000000013},{"rt":4814.300000011921,"stimulus":"bees-with-color/bee-B1DF.svg","response":0,"trial_type":"image-button-response","trial_index":87,"time_elapsed":961909,"internal_node_id":"0.0-4.0-0.40","subject_id":"5aeab425f00c7f00018f74d0","study_id":"60edd13110225f80f9f3709b","session_id":"6196c4a3a690e9c677f3e254","condition":"full-information","relevant_dimensions":["antennae","wings"],"bee_group":{"antennae":"A","wings":"1","pattern":"X","legs":"X"},"action":"harvest","summary":"good-harvest","bonus":1.4800000000000013},{"rt":846.4000000357628,"stimulus":"\n                    <p><b>Action: <em>harvest</em></b></p>\n                    <p>This is the bee that you just saw.</p>\n                    <img src=\"bees-with-color/bee-B1DF.svg\" width=\"200\">\n                    <p><span class=\"greenText\"><b>Successful harvest!</b></span><br>Your pay has increased by $0.02. Your bonus pay is now $0.66.</p>\n            ","response":0,"trial_type":"html-button-response","trial_index":88,"time_elapsed":962757,"internal_node_id":"0.0-4.0-1.40","subject_id":"5aeab425f00c7f00018f74d0","study_id":"60edd13110225f80f9f3709b","session_id":"6196c4a3a690e9c677f3e254","condition":"full-information","relevant_dimensions":["antennae","wings"],"bee_group":{"antennae":"A","wings":"1","pattern":"X","legs":"X"},"bonus":1.4800000000000013},{"rt":3854.399999976158,"stimulus":"bees-with-color/bee-A2SF.svg","response":0,"trial_type":"image-button-response","trial_index":89,"time_elapsed":966613,"internal_node_id":"0.0-4.0-0.41","subject_id":"5aeab425f00c7f00018f74d0","study_id":"60edd13110225f80f9f3709b","session_id":"6196c4a3a690e9c677f3e254","condition":"full-information","relevant_dimensions":["antennae","wings"],"bee_group":{"antennae":"A","wings":"1","pattern":"X","legs":"X"},"action":"harvest","summary":"good-harvest","bonus":1.4800000000000013},{"rt":1566.6000000238419,"stimulus":"\n                    <p><b>Action: <em>harvest</em></b></p>\n                    <p>This is the bee that you just saw.</p>\n                    <img src=\"bees-with-color/bee-A2SF.svg\" width=\"200\">\n                    <p><span class=\"greenText\"><b>Successful harvest!</b></span><br>Your pay has increased by $0.02. Your bonus pay is now $0.68.</p>\n            ","response":0,"trial_type":"html-button-response","trial_index":90,"time_elapsed":968181,"internal_node_id":"0.0-4.0-1.41","subject_id":"5aeab425f00c7f00018f74d0","study_id":"60edd13110225f80f9f3709b","session_id":"6196c4a3a690e9c677f3e254","condition":"full-information","relevant_dimensions":["antennae","wings"],"bee_group":{"antennae":"A","wings":"1","pattern":"X","legs":"X"},"bonus":1.4800000000000013},{"rt":12277.899999976158,"stimulus":"bees-with-color/bee-A1DM.svg","response":1,"trial_type":"image-button-response","trial_index":91,"time_elapsed":980461,"internal_node_id":"0.0-4.0-0.42","subject_id":"5aeab425f00c7f00018f74d0","study_id":"60edd13110225f80f9f3709b","session_id":"6196c4a3a690e9c677f3e254","condition":"full-information","relevant_dimensions":["antennae","wings"],"bee_group":{"antennae":"A","wings":"1","pattern":"X","legs":"X"},"action":"avoid","summary":"good-avoid","bonus":1.4800000000000013},{"rt":1398.3999999761581,"stimulus":"\n                    <p><b>Action: <em>avoid</em></b></p>\n                    <p>This is the bee that you just saw.</p>\n                    <img src=\"bees-with-color/bee-A1DM.svg\" width=\"200\">\n                    <p><span class=\"greenText\">Good choice!</span>  This bee would have stung you.<br>Your bonus pay is unchanged, and remains at $0.68.</p>\n            ","response":0,"trial_type":"html-button-response","trial_index":92,"time_elapsed":981861,"internal_node_id":"0.0-4.0-1.42","subject_id":"5aeab425f00c7f00018f74d0","study_id":"60edd13110225f80f9f3709b","session_id":"6196c4a3a690e9c677f3e254","condition":"full-information","relevant_dimensions":["antennae","wings"],"bee_group":{"antennae":"A","wings":"1","pattern":"X","legs":"X"},"bonus":1.4800000000000013},{"rt":7134.099999964237,"stimulus":"bees-with-color/bee-B1SF.svg","response":0,"trial_type":"image-button-response","trial_index":93,"time_elapsed":988997,"internal_node_id":"0.0-4.0-0.43","subject_id":"5aeab425f00c7f00018f74d0","study_id":"60edd13110225f80f9f3709b","session_id":"6196c4a3a690e9c677f3e254","condition":"full-information","relevant_dimensions":["antennae","wings"],"bee_group":{"antennae":"A","wings":"1","pattern":"X","legs":"X"},"action":"harvest","summary":"good-harvest","bonus":1.4800000000000013},{"rt":1078.300000011921,"stimulus":"\n                    <p><b>Action: <em>harvest</em></b></p>\n                    <p>This is the bee that you just saw.</p>\n                    <img src=\"bees-with-color/bee-B1SF.svg\" width=\"200\">\n                    <p><span class=\"greenText\"><b>Successful harvest!</b></span><br>Your pay has increased by $0.02. Your bonus pay is now $0.70.</p>\n            ","response":0,"trial_type":"html-button-response","trial_index":94,"time_elapsed":990077,"internal_node_id":"0.0-4.0-1.43","subject_id":"5aeab425f00c7f00018f74d0","study_id":"60edd13110225f80f9f3709b","session_id":"6196c4a3a690e9c677f3e254","condition":"full-information","relevant_dimensions":["antennae","wings"],"bee_group":{"antennae":"A","wings":"1","pattern":"X","legs":"X"},"bonus":1.4800000000000013},{"rt":5974.099999964237,"stimulus":"bees-with-color/bee-A1SF.svg","response":1,"trial_type":"image-button-response","trial_index":95,"time_elapsed":996053,"internal_node_id":"0.0-4.0-0.44","subject_id":"5aeab425f00c7f00018f74d0","study_id":"60edd13110225f80f9f3709b","session_id":"6196c4a3a690e9c677f3e254","condition":"full-information","relevant_dimensions":["antennae","wings"],"bee_group":{"antennae":"A","wings":"1","pattern":"X","legs":"X"},"action":"avoid","summary":"good-avoid","bonus":1.4800000000000013},{"rt":957.8000000119209,"stimulus":"\n                    <p><b>Action: <em>avoid</em></b></p>\n                    <p>This is the bee that you just saw.</p>\n                    <img src=\"bees-with-color/bee-A1SF.svg\" width=\"200\">\n                    <p><span class=\"greenText\">Good choice!</span>  This bee would have stung you.<br>Your bonus pay is unchanged, and remains at $0.70.</p>\n            ","response":0,"trial_type":"html-button-response","trial_index":96,"time_elapsed":997013,"internal_node_id":"0.0-4.0-1.44","subject_id":"5aeab425f00c7f00018f74d0","study_id":"60edd13110225f80f9f3709b","session_id":"6196c4a3a690e9c677f3e254","condition":"full-information","relevant_dimensions":["antennae","wings"],"bee_group":{"antennae":"A","wings":"1","pattern":"X","legs":"X"},"bonus":1.4800000000000013},{"rt":6845.799999952316,"stimulus":"bees-with-color/bee-B2DM.svg","response":0,"trial_type":"image-button-response","trial_index":97,"time_elapsed":1003861,"internal_node_id":"0.0-4.0-0.45","subject_id":"5aeab425f00c7f00018f74d0","study_id":"60edd13110225f80f9f3709b","session_id":"6196c4a3a690e9c677f3e254","condition":"full-information","relevant_dimensions":["antennae","wings"],"bee_group":{"antennae":"A","wings":"1","pattern":"X","legs":"X"},"action":"harvest","summary":"good-harvest","bonus":1.4800000000000013},{"rt":894.8999999761581,"stimulus":"\n                    <p><b>Action: <em>harvest</em></b></p>\n                    <p>This is the bee that you just saw.</p>\n                    <img src=\"bees-with-color/bee-B2DM.svg\" width=\"200\">\n                    <p><span class=\"greenText\"><b>Successful harvest!</b></span><br>Your pay has increased by $0.02. Your bonus pay is now $0.72.</p>\n            ","response":0,"trial_type":"html-button-response","trial_index":98,"time_elapsed":1004758,"internal_node_id":"0.0-4.0-1.45","subject_id":"5aeab425f00c7f00018f74d0","study_id":"60edd13110225f80f9f3709b","session_id":"6196c4a3a690e9c677f3e254","condition":"full-information","relevant_dimensions":["antennae","wings"],"bee_group":{"antennae":"A","wings":"1","pattern":"X","legs":"X"},"bonus":1.4800000000000013},{"rt":4613.399999976158,"stimulus":"bees-with-color/bee-B1DM.svg","response":0,"trial_type":"image-button-response","trial_index":99,"time_elapsed":1009373,"internal_node_id":"0.0-4.0-0.46","subject_id":"5aeab425f00c7f00018f74d0","study_id":"60edd13110225f80f9f3709b","session_id":"6196c4a3a690e9c677f3e254","condition":"full-information","relevant_dimensions":["antennae","wings"],"bee_group":{"antennae":"A","wings":"1","pattern":"X","legs":"X"},"action":"harvest","summary":"good-harvest","bonus":1.4800000000000013},{"rt":926.2999999523163,"stimulus":"\n                    <p><b>Action: <em>harvest</em></b></p>\n                    <p>This is the bee that you just saw.</p>\n                    <img src=\"bees-with-color/bee-B1DM.svg\" width=\"200\">\n                    <p><span class=\"greenText\"><b>Successful harvest!</b></span><br>Your pay has increased by $0.02. Your bonus pay is now $0.74.</p>\n            ","response":0,"trial_type":"html-button-response","trial_index":100,"time_elapsed":1010301,"internal_node_id":"0.0-4.0-1.46","subject_id":"5aeab425f00c7f00018f74d0","study_id":"60edd13110225f80f9f3709b","session_id":"6196c4a3a690e9c677f3e254","condition":"full-information","relevant_dimensions":["antennae","wings"],"bee_group":{"antennae":"A","wings":"1","pattern":"X","legs":"X"},"bonus":1.4800000000000013},{"rt":5366,"stimulus":"bees-with-color/bee-B2DF.svg","response":0,"trial_type":"image-button-response","trial_index":101,"time_elapsed":1015669,"internal_node_id":"0.0-4.0-0.47","subject_id":"5aeab425f00c7f00018f74d0","study_id":"60edd13110225f80f9f3709b","session_id":"6196c4a3a690e9c677f3e254","condition":"full-information","relevant_dimensions":["antennae","wings"],"bee_group":{"antennae":"A","wings":"1","pattern":"X","legs":"X"},"action":"harvest","summary":"good-harvest","bonus":1.4800000000000013},{"rt":1029.8999999761581,"stimulus":"\n                    <p><b>Action: <em>harvest</em></b></p>\n                    <p>This is the bee that you just saw.</p>\n                    <img src=\"bees-with-color/bee-B2DF.svg\" width=\"200\">\n                    <p><span class=\"greenText\"><b>Successful harvest!</b></span><br>Your pay has increased by $0.02. Your bonus pay is now $0.76.</p>\n            ","response":0,"trial_type":"html-button-response","trial_index":102,"time_elapsed":1016701,"internal_node_id":"0.0-4.0-1.47","subject_id":"5aeab425f00c7f00018f74d0","study_id":"60edd13110225f80f9f3709b","session_id":"6196c4a3a690e9c677f3e254","condition":"full-information","relevant_dimensions":["antennae","wings"],"bee_group":{"antennae":"A","wings":"1","pattern":"X","legs":"X"},"bonus":1.4800000000000013},{"rt":3726,"stimulus":"bees-with-color/bee-A2SM.svg","response":0,"trial_type":"image-button-response","trial_index":103,"time_elapsed":1020429,"internal_node_id":"0.0-4.0-0.48","subject_id":"5aeab425f00c7f00018f74d0","study_id":"60edd13110225f80f9f3709b","session_id":"6196c4a3a690e9c677f3e254","condition":"full-information","relevant_dimensions":["antennae","wings"],"bee_group":{"antennae":"A","wings":"1","pattern":"X","legs":"X"},"action":"harvest","summary":"good-harvest","bonus":1.4800000000000013},{"rt":799,"stimulus":"\n                    <p><b>Action: <em>harvest</em></b></p>\n                    <p>This is the bee that you just saw.</p>\n                    <img src=\"bees-with-color/bee-A2SM.svg\" width=\"200\">\n                    <p><span class=\"greenText\"><b>Successful harvest!</b></span><br>Your pay has increased by $0.02. Your bonus pay is now $0.78.</p>\n            ","response":0,"trial_type":"html-button-response","trial_index":104,"time_elapsed":1021230,"internal_node_id":"0.0-4.0-1.48","subject_id":"5aeab425f00c7f00018f74d0","study_id":"60edd13110225f80f9f3709b","session_id":"6196c4a3a690e9c677f3e254","condition":"full-information","relevant_dimensions":["antennae","wings"],"bee_group":{"antennae":"A","wings":"1","pattern":"X","legs":"X"},"bonus":1.4800000000000013},{"rt":9717.699999988079,"stimulus":"bees-with-color/bee-A1SF.svg","response":1,"trial_type":"image-button-response","trial_index":105,"time_elapsed":1030949,"internal_node_id":"0.0-4.0-0.49","subject_id":"5aeab425f00c7f00018f74d0","study_id":"60edd13110225f80f9f3709b","session_id":"6196c4a3a690e9c677f3e254","condition":"full-information","relevant_dimensions":["antennae","wings"],"bee_group":{"antennae":"A","wings":"1","pattern":"X","legs":"X"},"action":"avoid","summary":"good-avoid","bonus":1.4800000000000013},{"rt":813.5999999642372,"stimulus":"\n                    <p><b>Action: <em>avoid</em></b></p>\n                    <p>This is the bee that you just saw.</p>\n                    <img src=\"bees-with-color/bee-A1SF.svg\" width=\"200\">\n                    <p><span class=\"greenText\">Good choice!</span>  This bee would have stung you.<br>Your bonus pay is unchanged, and remains at $0.78.</p>\n            ","response":0,"trial_type":"html-button-response","trial_index":106,"time_elapsed":1031765,"internal_node_id":"0.0-4.0-1.49","subject_id":"5aeab425f00c7f00018f74d0","study_id":"60edd13110225f80f9f3709b","session_id":"6196c4a3a690e9c677f3e254","condition":"full-information","relevant_dimensions":["antennae","wings"],"bee_group":{"antennae":"A","wings":"1","pattern":"X","legs":"X"},"bonus":1.4800000000000013},{"rt":3493.800000011921,"stimulus":"bees-with-color/bee-A2DM.svg","response":0,"trial_type":"image-button-response","trial_index":107,"time_elapsed":1035261,"internal_node_id":"0.0-4.0-0.50","subject_id":"5aeab425f00c7f00018f74d0","study_id":"60edd13110225f80f9f3709b","session_id":"6196c4a3a690e9c677f3e254","condition":"full-information","relevant_dimensions":["antennae","wings"],"bee_group":{"antennae":"A","wings":"1","pattern":"X","legs":"X"},"action":"harvest","summary":"good-harvest","bonus":1.4800000000000013},{"rt":774.2999999523163,"stimulus":"\n                    <p><b>Action: <em>harvest</em></b></p>\n                    <p>This is the bee that you just saw.</p>\n                    <img src=\"bees-with-color/bee-A2DM.svg\" width=\"200\">\n                    <p><span class=\"greenText\"><b>Successful harvest!</b></span><br>Your pay has increased by $0.02. Your bonus pay is now $0.80.</p>\n            ","response":0,"trial_type":"html-button-response","trial_index":108,"time_elapsed":1036037,"internal_node_id":"0.0-4.0-1.50","subject_id":"5aeab425f00c7f00018f74d0","study_id":"60edd13110225f80f9f3709b","session_id":"6196c4a3a690e9c677f3e254","condition":"full-information","relevant_dimensions":["antennae","wings"],"bee_group":{"antennae":"A","wings":"1","pattern":"X","legs":"X"},"bonus":1.4800000000000013},{"rt":2094.100000023842,"stimulus":"bees-with-color/bee-B2SF.svg","response":0,"trial_type":"image-button-response","trial_index":109,"time_elapsed":1038133,"internal_node_id":"0.0-4.0-0.51","subject_id":"5aeab425f00c7f00018f74d0","study_id":"60edd13110225f80f9f3709b","session_id":"6196c4a3a690e9c677f3e254","condition":"full-information","relevant_dimensions":["antennae","wings"],"bee_group":{"antennae":"A","wings":"1","pattern":"X","legs":"X"},"action":"harvest","summary":"good-harvest","bonus":1.4800000000000013},{"rt":1470.199999988079,"stimulus":"\n                    <p><b>Action: <em>harvest</em></b></p>\n                    <p>This is the bee that you just saw.</p>\n                    <img src=\"bees-with-color/bee-B2SF.svg\" width=\"200\">\n                    <p><span class=\"greenText\"><b>Successful harvest!</b></span><br>Your pay has increased by $0.02. Your bonus pay is now $0.82.</p>\n            ","response":0,"trial_type":"html-button-response","trial_index":110,"time_elapsed":1039605,"internal_node_id":"0.0-4.0-1.51","subject_id":"5aeab425f00c7f00018f74d0","study_id":"60edd13110225f80f9f3709b","session_id":"6196c4a3a690e9c677f3e254","condition":"full-information","relevant_dimensions":["antennae","wings"],"bee_group":{"antennae":"A","wings":"1","pattern":"X","legs":"X"},"bonus":1.4800000000000013},{"rt":6758.300000011921,"stimulus":"bees-with-color/bee-A1DM.svg","response":1,"trial_type":"image-button-response","trial_index":111,"time_elapsed":1046365,"internal_node_id":"0.0-4.0-0.52","subject_id":"5aeab425f00c7f00018f74d0","study_id":"60edd13110225f80f9f3709b","session_id":"6196c4a3a690e9c677f3e254","condition":"full-information","relevant_dimensions":["antennae","wings"],"bee_group":{"antennae":"A","wings":"1","pattern":"X","legs":"X"},"action":"avoid","summary":"good-avoid","bonus":1.4800000000000013},{"rt":1318,"stimulus":"\n                    <p><b>Action: <em>avoid</em></b></p>\n                    <p>This is the bee that you just saw.</p>\n                    <img src=\"bees-with-color/bee-A1DM.svg\" width=\"200\">\n                    <p><span class=\"greenText\">Good choice!</span>  This bee would have stung you.<br>Your bonus pay is unchanged, and remains at $0.82.</p>\n            ","response":0,"trial_type":"html-button-response","trial_index":112,"time_elapsed":1047685,"internal_node_id":"0.0-4.0-1.52","subject_id":"5aeab425f00c7f00018f74d0","study_id":"60edd13110225f80f9f3709b","session_id":"6196c4a3a690e9c677f3e254","condition":"full-information","relevant_dimensions":["antennae","wings"],"bee_group":{"antennae":"A","wings":"1","pattern":"X","legs":"X"},"bonus":1.4800000000000013},{"rt":1965.699999988079,"stimulus":"bees-with-color/bee-B2DM.svg","response":0,"trial_type":"image-button-response","trial_index":113,"time_elapsed":1049653,"internal_node_id":"0.0-4.0-0.53","subject_id":"5aeab425f00c7f00018f74d0","study_id":"60edd13110225f80f9f3709b","session_id":"6196c4a3a690e9c677f3e254","condition":"full-information","relevant_dimensions":["antennae","wings"],"bee_group":{"antennae":"A","wings":"1","pattern":"X","legs":"X"},"action":"harvest","summary":"good-harvest","bonus":1.4800000000000013},{"rt":1414,"stimulus":"\n                    <p><b>Action: <em>harvest</em></b></p>\n                    <p>This is the bee that you just saw.</p>\n                    <img src=\"bees-with-color/bee-B2DM.svg\" width=\"200\">\n                    <p><span class=\"greenText\"><b>Successful harvest!</b></span><br>Your pay has increased by $0.02. Your bonus pay is now $0.84.</p>\n            ","response":0,"trial_type":"html-button-response","trial_index":114,"time_elapsed":1051069,"internal_node_id":"0.0-4.0-1.53","subject_id":"5aeab425f00c7f00018f74d0","study_id":"60edd13110225f80f9f3709b","session_id":"6196c4a3a690e9c677f3e254","condition":"full-information","relevant_dimensions":["antennae","wings"],"bee_group":{"antennae":"A","wings":"1","pattern":"X","legs":"X"},"bonus":1.4800000000000013},{"rt":1589.800000011921,"stimulus":"bees-with-color/bee-B2SM.svg","response":0,"trial_type":"image-button-response","trial_index":115,"time_elapsed":1052661,"internal_node_id":"0.0-4.0-0.54","subject_id":"5aeab425f00c7f00018f74d0","study_id":"60edd13110225f80f9f3709b","session_id":"6196c4a3a690e9c677f3e254","condition":"full-information","relevant_dimensions":["antennae","wings"],"bee_group":{"antennae":"A","wings":"1","pattern":"X","legs":"X"},"action":"harvest","summary":"good-harvest","bonus":1.4800000000000013},{"rt":1430.1000000238419,"stimulus":"\n                    <p><b>Action: <em>harvest</em></b></p>\n                    <p>This is the bee that you just saw.</p>\n                    <img src=\"bees-with-color/bee-B2SM.svg\" width=\"200\">\n                    <p><span class=\"greenText\"><b>Successful harvest!</b></span><br>Your pay has increased by $0.02. Your bonus pay is now $0.86.</p>\n            ","response":0,"trial_type":"html-button-response","trial_index":116,"time_elapsed":1054093,"internal_node_id":"0.0-4.0-1.54","subject_id":"5aeab425f00c7f00018f74d0","study_id":"60edd13110225f80f9f3709b","session_id":"6196c4a3a690e9c677f3e254","condition":"full-information","relevant_dimensions":["antennae","wings"],"bee_group":{"antennae":"A","wings":"1","pattern":"X","legs":"X"},"bonus":1.4800000000000013},{"rt":2878.099999964237,"stimulus":"bees-with-color/bee-A2SF.svg","response":0,"trial_type":"image-button-response","trial_index":117,"time_elapsed":1056973,"internal_node_id":"0.0-4.0-0.55","subject_id":"5aeab425f00c7f00018f74d0","study_id":"60edd13110225f80f9f3709b","session_id":"6196c4a3a690e9c677f3e254","condition":"full-information","relevant_dimensions":["antennae","wings"],"bee_group":{"antennae":"A","wings":"1","pattern":"X","legs":"X"},"action":"harvest","summary":"good-harvest","bonus":1.4800000000000013},{"rt":918.0999999642372,"stimulus":"\n                    <p><b>Action: <em>harvest</em></b></p>\n                    <p>This is the bee that you just saw.</p>\n                    <img src=\"bees-with-color/bee-A2SF.svg\" width=\"200\">\n                    <p><span class=\"greenText\"><b>Successful harvest!</b></span><br>Your pay has increased by $0.02. Your bonus pay is now $0.88.</p>\n            ","response":0,"trial_type":"html-button-response","trial_index":118,"time_elapsed":1057893,"internal_node_id":"0.0-4.0-1.55","subject_id":"5aeab425f00c7f00018f74d0","study_id":"60edd13110225f80f9f3709b","session_id":"6196c4a3a690e9c677f3e254","condition":"full-information","relevant_dimensions":["antennae","wings"],"bee_group":{"antennae":"A","wings":"1","pattern":"X","legs":"X"},"bonus":1.4800000000000013},{"rt":1429.8999999761581,"stimulus":"bees-with-color/bee-B1DF.svg","response":0,"trial_type":"image-button-response","trial_index":119,"time_elapsed":1059325,"internal_node_id":"0.0-4.0-0.56","subject_id":"5aeab425f00c7f00018f74d0","study_id":"60edd13110225f80f9f3709b","session_id":"6196c4a3a690e9c677f3e254","condition":"full-information","relevant_dimensions":["antennae","wings"],"bee_group":{"antennae":"A","wings":"1","pattern":"X","legs":"X"},"action":"harvest","summary":"good-harvest","bonus":1.4800000000000013},{"rt":2374,"stimulus":"\n                    <p><b>Action: <em>harvest</em></b></p>\n                    <p>This is the bee that you just saw.</p>\n                    <img src=\"bees-with-color/bee-B1DF.svg\" width=\"200\">\n                    <p><span class=\"greenText\"><b>Successful harvest!</b></span><br>Your pay has increased by $0.02. Your bonus pay is now $0.90.</p>\n            ","response":0,"trial_type":"html-button-response","trial_index":120,"time_elapsed":1061701,"internal_node_id":"0.0-4.0-1.56","subject_id":"5aeab425f00c7f00018f74d0","study_id":"60edd13110225f80f9f3709b","session_id":"6196c4a3a690e9c677f3e254","condition":"full-information","relevant_dimensions":["antennae","wings"],"bee_group":{"antennae":"A","wings":"1","pattern":"X","legs":"X"},"bonus":1.4800000000000013},{"rt":1197.9000000357628,"stimulus":"bees-with-color/bee-B2DF.svg","response":0,"trial_type":"image-button-response","trial_index":121,"time_elapsed":1062901,"internal_node_id":"0.0-4.0-0.57","subject_id":"5aeab425f00c7f00018f74d0","study_id":"60edd13110225f80f9f3709b","session_id":"6196c4a3a690e9c677f3e254","condition":"full-information","relevant_dimensions":["antennae","wings"],"bee_group":{"antennae":"A","wings":"1","pattern":"X","legs":"X"},"action":"harvest","summary":"good-harvest","bonus":1.4800000000000013},{"rt":999.2999999523163,"stimulus":"\n                    <p><b>Action: <em>harvest</em></b></p>\n                    <p>This is the bee that you just saw.</p>\n                    <img src=\"bees-with-color/bee-B2DF.svg\" width=\"200\">\n                    <p><span class=\"greenText\"><b>Successful harvest!</b></span><br>Your pay has increased by $0.02. Your bonus pay is now $0.92.</p>\n            ","response":0,"trial_type":"html-button-response","trial_index":122,"time_elapsed":1063902,"internal_node_id":"0.0-4.0-1.57","subject_id":"5aeab425f00c7f00018f74d0","study_id":"60edd13110225f80f9f3709b","session_id":"6196c4a3a690e9c677f3e254","condition":"full-information","relevant_dimensions":["antennae","wings"],"bee_group":{"antennae":"A","wings":"1","pattern":"X","legs":"X"},"bonus":1.4800000000000013},{"rt":3645.099999964237,"stimulus":"bees-with-color/bee-A2DF.svg","response":0,"trial_type":"image-button-response","trial_index":123,"time_elapsed":1067549,"internal_node_id":"0.0-4.0-0.58","subject_id":"5aeab425f00c7f00018f74d0","study_id":"60edd13110225f80f9f3709b","session_id":"6196c4a3a690e9c677f3e254","condition":"full-information","relevant_dimensions":["antennae","wings"],"bee_group":{"antennae":"A","wings":"1","pattern":"X","legs":"X"},"action":"harvest","summary":"good-harvest","bonus":1.4800000000000013},{"rt":1270.5999999642372,"stimulus":"\n                    <p><b>Action: <em>harvest</em></b></p>\n                    <p>This is the bee that you just saw.</p>\n                    <img src=\"bees-with-color/bee-A2DF.svg\" width=\"200\">\n                    <p><span class=\"greenText\"><b>Successful harvest!</b></span><br>Your pay has increased by $0.02. Your bonus pay is now $0.94.</p>\n            ","response":0,"trial_type":"html-button-response","trial_index":124,"time_elapsed":1068821,"internal_node_id":"0.0-4.0-1.58","subject_id":"5aeab425f00c7f00018f74d0","study_id":"60edd13110225f80f9f3709b","session_id":"6196c4a3a690e9c677f3e254","condition":"full-information","relevant_dimensions":["antennae","wings"],"bee_group":{"antennae":"A","wings":"1","pattern":"X","legs":"X"},"bonus":1.4800000000000013},{"rt":1502.3999999761581,"stimulus":"bees-with-color/bee-B1DM.svg","response":0,"trial_type":"image-button-response","trial_index":125,"time_elapsed":1070325,"internal_node_id":"0.0-4.0-0.59","subject_id":"5aeab425f00c7f00018f74d0","study_id":"60edd13110225f80f9f3709b","session_id":"6196c4a3a690e9c677f3e254","condition":"full-information","relevant_dimensions":["antennae","wings"],"bee_group":{"antennae":"A","wings":"1","pattern":"X","legs":"X"},"action":"harvest","summary":"good-harvest","bonus":1.4800000000000013},{"rt":918.4000000357628,"stimulus":"\n                    <p><b>Action: <em>harvest</em></b></p>\n                    <p>This is the bee that you just saw.</p>\n                    <img src=\"bees-with-color/bee-B1DM.svg\" width=\"200\">\n                    <p><span class=\"greenText\"><b>Successful harvest!</b></span><br>Your pay has increased by $0.02. Your bonus pay is now $0.96.</p>\n            ","response":0,"trial_type":"html-button-response","trial_index":126,"time_elapsed":1071245,"internal_node_id":"0.0-4.0-1.59","subject_id":"5aeab425f00c7f00018f74d0","study_id":"60edd13110225f80f9f3709b","session_id":"6196c4a3a690e9c677f3e254","condition":"full-information","relevant_dimensions":["antennae","wings"],"bee_group":{"antennae":"A","wings":"1","pattern":"X","legs":"X"},"bonus":1.4800000000000013},{"rt":7558.699999988079,"stimulus":"bees-with-color/bee-A1DF.svg","response":1,"trial_type":"image-button-response","trial_index":127,"time_elapsed":1078805,"internal_node_id":"0.0-4.0-0.60","subject_id":"5aeab425f00c7f00018f74d0","study_id":"60edd13110225f80f9f3709b","session_id":"6196c4a3a690e9c677f3e254","condition":"full-information","relevant_dimensions":["antennae","wings"],"bee_group":{"antennae":"A","wings":"1","pattern":"X","legs":"X"},"action":"avoid","summary":"good-avoid","bonus":1.4800000000000013},{"rt":1694.5,"stimulus":"\n                    <p><b>Action: <em>avoid</em></b></p>\n                    <p>This is the bee that you just saw.</p>\n                    <img src=\"bees-with-color/bee-A1DF.svg\" width=\"200\">\n                    <p><span class=\"greenText\">Good choice!</span>  This bee would have stung you.<br>Your bonus pay is unchanged, and remains at $0.96.</p>\n            ","response":0,"trial_type":"html-button-response","trial_index":128,"time_elapsed":1080501,"internal_node_id":"0.0-4.0-1.60","subject_id":"5aeab425f00c7f00018f74d0","study_id":"60edd13110225f80f9f3709b","session_id":"6196c4a3a690e9c677f3e254","condition":"full-information","relevant_dimensions":["antennae","wings"],"bee_group":{"antennae":"A","wings":"1","pattern":"X","legs":"X"},"bonus":1.4800000000000013},{"rt":1766.0999999642372,"stimulus":"bees-with-color/bee-B1SM.svg","response":0,"trial_type":"image-button-response","trial_index":129,"time_elapsed":1082269,"internal_node_id":"0.0-4.0-0.61","subject_id":"5aeab425f00c7f00018f74d0","study_id":"60edd13110225f80f9f3709b","session_id":"6196c4a3a690e9c677f3e254","condition":"full-information","relevant_dimensions":["antennae","wings"],"bee_group":{"antennae":"A","wings":"1","pattern":"X","legs":"X"},"action":"harvest","summary":"good-harvest","bonus":1.4800000000000013},{"rt":726.5,"stimulus":"\n                    <p><b>Action: <em>harvest</em></b></p>\n                    <p>This is the bee that you just saw.</p>\n                    <img src=\"bees-with-color/bee-B1SM.svg\" width=\"200\">\n                    <p><span class=\"greenText\"><b>Successful harvest!</b></span><br>Your pay has increased by $0.02. Your bonus pay is now $0.98.</p>\n            ","response":0,"trial_type":"html-button-response","trial_index":130,"time_elapsed":1082997,"internal_node_id":"0.0-4.0-1.61","subject_id":"5aeab425f00c7f00018f74d0","study_id":"60edd13110225f80f9f3709b","session_id":"6196c4a3a690e9c677f3e254","condition":"full-information","relevant_dimensions":["antennae","wings"],"bee_group":{"antennae":"A","wings":"1","pattern":"X","legs":"X"},"bonus":1.4800000000000013},{"rt":1438.5,"stimulus":"bees-with-color/bee-B1SF.svg","response":0,"trial_type":"image-button-response","trial_index":131,"time_elapsed":1084437,"internal_node_id":"0.0-4.0-0.62","subject_id":"5aeab425f00c7f00018f74d0","study_id":"60edd13110225f80f9f3709b","session_id":"6196c4a3a690e9c677f3e254","condition":"full-information","relevant_dimensions":["antennae","wings"],"bee_group":{"antennae":"A","wings":"1","pattern":"X","legs":"X"},"action":"harvest","summary":"good-harvest","bonus":1.4800000000000013},{"rt":1278.6000000238419,"stimulus":"\n                    <p><b>Action: <em>harvest</em></b></p>\n                    <p>This is the bee that you just saw.</p>\n                    <img src=\"bees-with-color/bee-B1SF.svg\" width=\"200\">\n                    <p><span class=\"greenText\"><b>Successful harvest!</b></span><br>Your pay has increased by $0.02. Your bonus pay is now $1.00.</p>\n            ","response":0,"trial_type":"html-button-response","trial_index":132,"time_elapsed":1085717,"internal_node_id":"0.0-4.0-1.62","subject_id":"5aeab425f00c7f00018f74d0","study_id":"60edd13110225f80f9f3709b","session_id":"6196c4a3a690e9c677f3e254","condition":"full-information","relevant_dimensions":["antennae","wings"],"bee_group":{"antennae":"A","wings":"1","pattern":"X","legs":"X"},"bonus":1.4800000000000013},{"rt":5742.400000035763,"stimulus":"bees-with-color/bee-A1SM.svg","response":1,"trial_type":"image-button-response","trial_index":133,"time_elapsed":1091461,"internal_node_id":"0.0-4.0-0.63","subject_id":"5aeab425f00c7f00018f74d0","study_id":"60edd13110225f80f9f3709b","session_id":"6196c4a3a690e9c677f3e254","condition":"full-information","relevant_dimensions":["antennae","wings"],"bee_group":{"antennae":"A","wings":"1","pattern":"X","legs":"X"},"action":"avoid","summary":"good-avoid","bonus":1.4800000000000013},{"rt":950.3999999761581,"stimulus":"\n                    <p><b>Action: <em>avoid</em></b></p>\n                    <p>This is the bee that you just saw.</p>\n                    <img src=\"bees-with-color/bee-A1SM.svg\" width=\"200\">\n                    <p><span class=\"greenText\">Good choice!</span>  This bee would have stung you.<br>Your bonus pay is unchanged, and remains at $1.00.</p>\n            ","response":0,"trial_type":"html-button-response","trial_index":134,"time_elapsed":1092413,"internal_node_id":"0.0-4.0-1.63","subject_id":"5aeab425f00c7f00018f74d0","study_id":"60edd13110225f80f9f3709b","session_id":"6196c4a3a690e9c677f3e254","condition":"full-information","relevant_dimensions":["antennae","wings"],"bee_group":{"antennae":"A","wings":"1","pattern":"X","legs":"X"},"bonus":1.4800000000000013},{"rt":11384.799999952316,"stimulus":"You have completed the first part of this experiment.<br><br>You will now begin a shorter second part, in which you will receive no feedback.<br>The same rules regarding bonus pay apply.<br><br>Press any key to begin.","response":" ","trial_type":"html-keyboard-response","trial_index":135,"time_elapsed":1103801,"internal_node_id":"0.0-5.0","subject_id":"5aeab425f00c7f00018f74d0","study_id":"60edd13110225f80f9f3709b","session_id":"6196c4a3a690e9c677f3e254","condition":"full-information","relevant_dimensions":["antennae","wings"],"bee_group":{"antennae":"A","wings":"1","pattern":"X","legs":"X"},"bonus":1.4800000000000013},{"rt":2417.5,"stimulus":"bees-with-color/bee-B1SM.svg","response":0,"trial_type":"image-button-response","trial_index":136,"time_elapsed":1106246,"internal_node_id":"0.0-6.0-0.0","subject_id":"5aeab425f00c7f00018f74d0","study_id":"60edd13110225f80f9f3709b","session_id":"6196c4a3a690e9c677f3e254","condition":"full-information","relevant_dimensions":["antennae","wings"],"bee_group":{"antennae":"A","wings":"1","pattern":"X","legs":"X"},"bonus":1.4800000000000013},{"rt":12468.699999988079,"stimulus":"bees-with-color/bee-A1SF.svg","response":1,"trial_type":"image-button-response","trial_index":137,"time_elapsed":1118718,"internal_node_id":"0.0-6.0-0.1","subject_id":"5aeab425f00c7f00018f74d0","study_id":"60edd13110225f80f9f3709b","session_id":"6196c4a3a690e9c677f3e254","condition":"full-information","relevant_dimensions":["antennae","wings"],"bee_group":{"antennae":"A","wings":"1","pattern":"X","legs":"X"},"bonus":1.4800000000000013},{"rt":6580.900000035763,"stimulus":"bees-with-color/bee-A1SM.svg","response":1,"trial_type":"image-button-response","trial_index":138,"time_elapsed":1125302,"internal_node_id":"0.0-6.0-0.2","subject_id":"5aeab425f00c7f00018f74d0","study_id":"60edd13110225f80f9f3709b","session_id":"6196c4a3a690e9c677f3e254","condition":"full-information","relevant_dimensions":["antennae","wings"],"bee_group":{"antennae":"A","wings":"1","pattern":"X","legs":"X"},"bonus":1.4800000000000013},{"rt":1493.199999988079,"stimulus":"bees-with-color/bee-B1DM.svg","response":0,"trial_type":"image-button-response","trial_index":139,"time_elapsed":1126798,"internal_node_id":"0.0-6.0-0.3","subject_id":"5aeab425f00c7f00018f74d0","study_id":"60edd13110225f80f9f3709b","session_id":"6196c4a3a690e9c677f3e254","condition":"full-information","relevant_dimensions":["antennae","wings"],"bee_group":{"antennae":"A","wings":"1","pattern":"X","legs":"X"},"bonus":1.4800000000000013},{"rt":1197.199999988079,"stimulus":"bees-with-color/bee-B1SF.svg","response":0,"trial_type":"image-button-response","trial_index":140,"time_elapsed":1127998,"internal_node_id":"0.0-6.0-0.4","subject_id":"5aeab425f00c7f00018f74d0","study_id":"60edd13110225f80f9f3709b","session_id":"6196c4a3a690e9c677f3e254","condition":"full-information","relevant_dimensions":["antennae","wings"],"bee_group":{"antennae":"A","wings":"1","pattern":"X","legs":"X"},"bonus":1.4800000000000013},{"rt":1453.1000000238419,"stimulus":"bees-with-color/bee-B2SM.svg","response":0,"trial_type":"image-button-response","trial_index":141,"time_elapsed":1129453,"internal_node_id":"0.0-6.0-0.5","subject_id":"5aeab425f00c7f00018f74d0","study_id":"60edd13110225f80f9f3709b","session_id":"6196c4a3a690e9c677f3e254","condition":"full-information","relevant_dimensions":["antennae","wings"],"bee_group":{"antennae":"A","wings":"1","pattern":"X","legs":"X"},"bonus":1.4800000000000013},{"rt":2429.699999988079,"stimulus":"bees-with-color/bee-A2SM.svg","response":0,"trial_type":"image-button-response","trial_index":142,"time_elapsed":1131886,"internal_node_id":"0.0-6.0-0.6","subject_id":"5aeab425f00c7f00018f74d0","study_id":"60edd13110225f80f9f3709b","session_id":"6196c4a3a690e9c677f3e254","condition":"full-information","relevant_dimensions":["antennae","wings"],"bee_group":{"antennae":"A","wings":"1","pattern":"X","legs":"X"},"bonus":1.4800000000000013},{"rt":1845.5999999642372,"stimulus":"bees-with-color/bee-B2SF.svg","response":0,"trial_type":"image-button-response","trial_index":143,"time_elapsed":1133734,"internal_node_id":"0.0-6.0-0.7","subject_id":"5aeab425f00c7f00018f74d0","study_id":"60edd13110225f80f9f3709b","session_id":"6196c4a3a690e9c677f3e254","condition":"full-information","relevant_dimensions":["antennae","wings"],"bee_group":{"antennae":"A","wings":"1","pattern":"X","legs":"X"},"bonus":1.4800000000000013},{"rt":1397.800000011921,"stimulus":"bees-with-color/bee-B2DF.svg","response":0,"trial_type":"image-button-response","trial_index":144,"time_elapsed":1135134,"internal_node_id":"0.0-6.0-0.8","subject_id":"5aeab425f00c7f00018f74d0","study_id":"60edd13110225f80f9f3709b","session_id":"6196c4a3a690e9c677f3e254","condition":"full-information","relevant_dimensions":["antennae","wings"],"bee_group":{"antennae":"A","wings":"1","pattern":"X","legs":"X"},"bonus":1.4800000000000013},{"rt":1412.699999988079,"stimulus":"bees-with-color/bee-B1DF.svg","response":0,"trial_type":"image-button-response","trial_index":145,"time_elapsed":1136549,"internal_node_id":"0.0-6.0-0.9","subject_id":"5aeab425f00c7f00018f74d0","study_id":"60edd13110225f80f9f3709b","session_id":"6196c4a3a690e9c677f3e254","condition":"full-information","relevant_dimensions":["antennae","wings"],"bee_group":{"antennae":"A","wings":"1","pattern":"X","legs":"X"},"bonus":1.4800000000000013},{"rt":2054.099999964237,"stimulus":"bees-with-color/bee-A2DF.svg","response":0,"trial_type":"image-button-response","trial_index":146,"time_elapsed":1138605,"internal_node_id":"0.0-6.0-0.10","subject_id":"5aeab425f00c7f00018f74d0","study_id":"60edd13110225f80f9f3709b","session_id":"6196c4a3a690e9c677f3e254","condition":"full-information","relevant_dimensions":["antennae","wings"],"bee_group":{"antennae":"A","wings":"1","pattern":"X","legs":"X"},"bonus":1.4800000000000013},{"rt":1622.0999999642372,"stimulus":"bees-with-color/bee-B2DM.svg","response":0,"trial_type":"image-button-response","trial_index":147,"time_elapsed":1140229,"internal_node_id":"0.0-6.0-0.11","subject_id":"5aeab425f00c7f00018f74d0","study_id":"60edd13110225f80f9f3709b","session_id":"6196c4a3a690e9c677f3e254","condition":"full-information","relevant_dimensions":["antennae","wings"],"bee_group":{"antennae":"A","wings":"1","pattern":"X","legs":"X"},"bonus":1.4800000000000013},{"rt":3429.599999964237,"stimulus":"bees-with-color/bee-A2SF.svg","response":0,"trial_type":"image-button-response","trial_index":148,"time_elapsed":1143661,"internal_node_id":"0.0-6.0-0.12","subject_id":"5aeab425f00c7f00018f74d0","study_id":"60edd13110225f80f9f3709b","session_id":"6196c4a3a690e9c677f3e254","condition":"full-information","relevant_dimensions":["antennae","wings"],"bee_group":{"antennae":"A","wings":"1","pattern":"X","legs":"X"},"bonus":1.4800000000000013},{"rt":6549.399999976158,"stimulus":"bees-with-color/bee-A1DF.svg","response":1,"trial_type":"image-button-response","trial_index":149,"time_elapsed":1150213,"internal_node_id":"0.0-6.0-0.13","subject_id":"5aeab425f00c7f00018f74d0","study_id":"60edd13110225f80f9f3709b","session_id":"6196c4a3a690e9c677f3e254","condition":"full-information","relevant_dimensions":["antennae","wings"],"bee_group":{"antennae":"A","wings":"1","pattern":"X","legs":"X"},"bonus":1.4800000000000013},{"rt":2197.100000023842,"stimulus":"bees-with-color/bee-A2DM.svg","response":0,"trial_type":"image-button-response","trial_index":150,"time_elapsed":1152413,"internal_node_id":"0.0-6.0-0.14","subject_id":"5aeab425f00c7f00018f74d0","study_id":"60edd13110225f80f9f3709b","session_id":"6196c4a3a690e9c677f3e254","condition":"full-information","relevant_dimensions":["antennae","wings"],"bee_group":{"antennae":"A","wings":"1","pattern":"X","legs":"X"},"bonus":1.4800000000000013},{"rt":4421.400000035763,"stimulus":"bees-with-color/bee-A1DM.svg","response":1,"trial_type":"image-button-response","trial_index":151,"time_elapsed":1156838,"internal_node_id":"0.0-6.0-0.15","subject_id":"5aeab425f00c7f00018f74d0","study_id":"60edd13110225f80f9f3709b","session_id":"6196c4a3a690e9c677f3e254","condition":"full-information","relevant_dimensions":["antennae","wings"],"bee_group":{"antennae":"A","wings":"1","pattern":"X","legs":"X"},"bonus":1.4800000000000013},{"rt":1829.6000000238419,"stimulus":"bees-with-color/bee-B2SF.svg","response":0,"trial_type":"image-button-response","trial_index":152,"time_elapsed":1158669,"internal_node_id":"0.0-6.0-0.16","subject_id":"5aeab425f00c7f00018f74d0","study_id":"60edd13110225f80f9f3709b","session_id":"6196c4a3a690e9c677f3e254","condition":"full-information","relevant_dimensions":["antennae","wings"],"bee_group":{"antennae":"A","wings":"1","pattern":"X","legs":"X"},"bonus":1.4800000000000013},{"rt":1278.1000000238419,"stimulus":"bees-with-color/bee-B2DM.svg","response":0,"trial_type":"image-button-response","trial_index":153,"time_elapsed":1159949,"internal_node_id":"0.0-6.0-0.17","subject_id":"5aeab425f00c7f00018f74d0","study_id":"60edd13110225f80f9f3709b","session_id":"6196c4a3a690e9c677f3e254","condition":"full-information","relevant_dimensions":["antennae","wings"],"bee_group":{"antennae":"A","wings":"1","pattern":"X","legs":"X"},"bonus":1.4800000000000013},{"rt":5758.099999964237,"stimulus":"bees-with-color/bee-A1SF.svg","response":1,"trial_type":"image-button-response","trial_index":154,"time_elapsed":1165709,"internal_node_id":"0.0-6.0-0.18","subject_id":"5aeab425f00c7f00018f74d0","study_id":"60edd13110225f80f9f3709b","session_id":"6196c4a3a690e9c677f3e254","condition":"full-information","relevant_dimensions":["antennae","wings"],"bee_group":{"antennae":"A","wings":"1","pattern":"X","legs":"X"},"bonus":1.4800000000000013},{"rt":1477.5999999642372,"stimulus":"bees-with-color/bee-B2DF.svg","response":0,"trial_type":"image-button-response","trial_index":155,"time_elapsed":1167189,"internal_node_id":"0.0-6.0-0.19","subject_id":"5aeab425f00c7f00018f74d0","study_id":"60edd13110225f80f9f3709b","session_id":"6196c4a3a690e9c677f3e254","condition":"full-information","relevant_dimensions":["antennae","wings"],"bee_group":{"antennae":"A","wings":"1","pattern":"X","leg