[{"success":true,"trial_type":"fullscreen","trial_index":0,"time_elapsed":2911,"internal_node_id":"0.0-0.0","subject_id":"5fb6ed2116919c000a99249e","study_id":"60edd13110225f80f9f3709b","session_id":"6196c709d965ce1e2b690d7c","condition":"contingent","relevant_dimensions":["pattern","legs"],"bee_group":{"antennae":"X","wings":"X","pattern":"S","legs":"F"},"bonus":1.240000000000001},{"success":true,"timeout":false,"failed_images":[],"failed_audio":[],"failed_video":[],"trial_type":"preload","trial_index":1,"time_elapsed":5808,"internal_node_id":"0.0-1.0","subject_id":"5fb6ed2116919c000a99249e","study_id":"60edd13110225f80f9f3709b","session_id":"6196c709d965ce1e2b690d7c","condition":"contingent","relevant_dimensions":["pattern","legs"],"bee_group":{"antennae":"X","wings":"X","pattern":"S","legs":"F"},"bonus":1.240000000000001},{"rt":1474.7999999523163,"stimulus":"Welcome! Press any key to begin.","response":" ","trial_type":"html-keyboard-response","trial_index":2,"time_elapsed":7283,"internal_node_id":"0.0-2.0","subject_id":"5fb6ed2116919c000a99249e","study_id":"60edd13110225f80f9f3709b","session_id":"6196c709d965ce1e2b690d7c","condition":"contingent","relevant_dimensions":["pattern","legs"],"bee_group":{"antennae":"X","wings":"X","pattern":"S","legs":"F"},"bonus":1.240000000000001},{"view_history":[{"page_index":0,"viewing_time":2557.100000023842},{"page_index":1,"viewing_time":9613.600000023842},{"page_index":2,"viewing_time":8710.399999976158},{"page_index":3,"viewing_time":14538.699999928474},{"page_index":4,"viewing_time":5517.900000095367},{"page_index":5,"viewing_time":3152.1999999284744},{"page_index":6,"viewing_time":9054.800000071526},{"page_index":7,"viewing_time":5584.099999904633},{"page_index":8,"viewing_time":7000.900000095367},{"page_index":9,"viewing_time":3652.1999999284744},{"page_index":10,"viewing_time":2042.8000000715256},{"page_index":11,"viewing_time":7967.099999904633},{"page_index":12,"viewing_time":12126.100000023842},{"page_index":13,"viewing_time":1208.8999999761581},{"page_index":14,"viewing_time":1664.3000000715256}],"rt":94391.39999997616,"trial_type":"instructions","trial_index":3,"time_elapsed":101675,"internal_node_id":"0.0-3.0-0.0","subject_id":"5fb6ed2116919c000a99249e","study_id":"60edd13110225f80f9f3709b","session_id":"6196c709d965ce1e2b690d7c","condition":"contingent","relevant_dimensions":["pattern","legs"],"bee_group":{"antennae":"X","wings":"X","pattern":"S","legs":"F"},"bonus":1.240000000000001},{"rt":13271.5,"response":{"Q0":["Two or six legs","Stripes or spots on body","Single or double wings","Antennae or no antennae"]},"question_order":[0],"trial_type":"survey-multi-select","trial_index":4,"time_elapsed":114949,"internal_node_id":"0.0-3.0-1.0","subject_id":"5fb6ed2116919c000a99249e","study_id":"60edd13110225f80f9f3709b","session_id":"6196c709d965ce1e2b690d7c","condition":"contingent","relevant_dimensions":["pattern","legs"],"bee_group":{"antennae":"X","wings":"X","pattern":"S","legs":"F"},"correct":true,"bonus":1.240000000000001},{"rt":14313,"response":{"Q1":"No.","Q2":"Based on the four features of the bee.","Q3":"You do not learn if it was friendly or dangerous, and do not alter your bonus."},"question_order":[0,1,2],"trial_type":"survey-multi-choice","trial_index":5,"time_elapsed":129263,"internal_node_id":"0.0-3.0-2.0","subject_id":"5fb6ed2116919c000a99249e","study_id":"60edd13110225f80f9f3709b","session_id":"6196c709d965ce1e2b690d7c","condition":"contingent","relevant_dimensions":["pattern","legs"],"bee_group":{"antennae":"X","wings":"X","pattern":"S","legs":"F"},"correct":true,"bonus":1.240000000000001},{"rt":2363.899999976158,"stimulus":"<p>Congrats, you got everything right<br>When you're ready, click the button below to continue to the experiment.</p>","response":0,"trial_type":"html-button-response","trial_index":6,"time_elapsed":131628,"internal_node_id":"0.0-3.0-3.0","subject_id":"5fb6ed2116919c000a99249e","study_id":"60edd13110225f80f9f3709b","session_id":"6196c709d965ce1e2b690d7c","condition":"contingent","relevant_dimensions":["pattern","legs"],"bee_group":{"antennae":"X","wings":"X","pattern":"S","legs":"F"},"bonus":1.240000000000001},{"rt":52077.5,"stimulus":"bees-with-color/bee-A1SF.svg","response":0,"trial_type":"image-button-response","trial_index":7,"time_elapsed":183707,"internal_node_id":"0.0-4.0-0.0","subject_id":"5fb6ed2116919c000a99249e","study_id":"60edd13110225f80f9f3709b","session_id":"6196c709d965ce1e2b690d7c","condition":"contingent","relevant_dimensions":["pattern","legs"],"bee_group":{"antennae":"X","wings":"X","pattern":"S","legs":"F"},"action":"harvest","summary":"bad-harvest","bonus":1.240000000000001},{"rt":6525.899999976158,"stimulus":"\n                    <p><b>Action: <em>harvest</em></b></p>\n                    <p>This is the bee that you just saw.</p>\n                    <img src=\"bees-with-color/bee-A1SF.svg\" width=\"200\">\n                    <p><span class=\"redText\">Bad choice, the bee was angry.</span><br><b>You have been stung!</b><br>Your pay has been decreased by $0.10. Your bonus pay is now $0.44.</p>\n            ","response":0,"trial_type":"html-button-response","trial_index":8,"time_elapsed":190235,"internal_node_id":"0.0-4.0-1.0","subject_id":"5fb6ed2116919c000a99249e","study_id":"60edd13110225f80f9f3709b","session_id":"6196c709d965ce1e2b690d7c","condition":"contingent","relevant_dimensions":["pattern","legs"],"bee_group":{"antennae":"X","wings":"X","pattern":"S","legs":"F"},"bonus":1.240000000000001},{"rt":27106.200000047684,"stimulus":"bees-with-color/bee-A2DF.svg","response":0,"trial_type":"image-button-response","trial_index":9,"time_elapsed":217342,"internal_node_id":"0.0-4.0-0.1","subject_id":"5fb6ed2116919c000a99249e","study_id":"60edd13110225f80f9f3709b","session_id":"6196c709d965ce1e2b690d7c","condition":"contingent","relevant_dimensions":["pattern","legs"],"bee_group":{"antennae":"X","wings":"X","pattern":"S","legs":"F"},"action":"harvest","summary":"good-harvest","bonus":1.240000000000001},{"rt":4588.5,"stimulus":"\n                    <p><b>Action: <em>harvest</em></b></p>\n                    <p>This is the bee that you just saw.</p>\n                    <img src=\"bees-with-color/bee-A2DF.svg\" width=\"200\">\n                    <p><span class=\"greenText\"><b>Successful harvest!</b></span><br>Your pay has increased by $0.02. Your bonus pay is now $0.46.</p>\n            ","response":0,"trial_type":"html-button-response","trial_index":10,"time_elapsed":221932,"internal_node_id":"0.0-4.0-1.1","subject_id":"5fb6ed2116919c000a99249e","study_id":"60edd13110225f80f9f3709b","session_id":"6196c709d965ce1e2b690d7c","condition":"contingent","relevant_dimensions":["pattern","legs"],"bee_group":{"antennae":"X","wings":"X","pattern":"S","legs":"F"},"bonus":1.240000000000001},{"rt":23023.200000047684,"stimulus":"bees-with-color/bee-B2DM.svg","response":0,"trial_type":"image-button-response","trial_index":11,"time_elapsed":244956,"internal_node_id":"0.0-4.0-0.2","subject_id":"5fb6ed2116919c000a99249e","study_id":"60edd13110225f80f9f3709b","session_id":"6196c709d965ce1e2b690d7c","condition":"contingent","relevant_dimensions":["pattern","legs"],"bee_group":{"antennae":"X","wings":"X","pattern":"S","legs":"F"},"action":"harvest","summary":"good-harvest","bonus":1.240000000000001},{"rt":9718,"stimulus":"\n                    <p><b>Action: <em>harvest</em></b></p>\n                    <p>This is the bee that you just saw.</p>\n                    <img src=\"bees-with-color/bee-B2DM.svg\" width=\"200\">\n                    <p><span class=\"greenText\"><b>Successful harvest!</b></span><br>Your pay has increased by $0.02. Your bonus pay is now $0.48.</p>\n            ","response":0,"trial_type":"html-button-response","trial_index":12,"time_elapsed":254676,"internal_node_id":"0.0-4.0-1.2","subject_id":"5fb6ed2116919c000a99249e","study_id":"60edd13110225f80f9f3709b","session_id":"6196c709d965ce1e2b690d7c","condition":"contingent","relevant_dimensions":["pattern","legs"],"bee_group":{"antennae":"X","wings":"X","pattern":"S","legs":"F"},"bonus":1.240000000000001},{"rt":14461.899999976158,"stimulus":"bees-with-color/bee-A2SF.svg","response":0,"trial_type":"image-button-response","trial_index":13,"time_elapsed":269138,"internal_node_id":"0.0-4.0-0.3","subject_id":"5fb6ed2116919c000a99249e","study_id":"60edd13110225f80f9f3709b","session_id":"6196c709d965ce1e2b690d7c","condition":"contingent","relevant_dimensions":["pattern","legs"],"bee_group":{"antennae":"X","wings":"X","pattern":"S","legs":"F"},"action":"harvest","summary":"bad-harvest","bonus":1.240000000000001},{"rt":8757,"stimulus":"\n                    <p><b>Action: <em>harvest</em></b></p>\n                    <p>This is the bee that you just saw.</p>\n                    <img src=\"bees-with-color/bee-A2SF.svg\" width=\"200\">\n                    <p><span class=\"redText\">Bad choice, the bee was angry.</span><br><b>You have been stung!</b><br>Your pay has been decreased by $0.10. Your bonus pay is now $0.38.</p>\n            ","response":0,"trial_type":"html-button-response","trial_index":14,"time_elapsed":277896,"internal_node_id":"0.0-4.0-1.3","subject_id":"5fb6ed2116919c000a99249e","study_id":"60edd13110225f80f9f3709b","session_id":"6196c709d965ce1e2b690d7c","condition":"contingent","relevant_dimensions":["pattern","legs"],"bee_group":{"antennae":"X","wings":"X","pattern":"S","legs":"F"},"bonus":1.240000000000001},{"rt":22469.899999976158,"stimulus":"bees-with-color/bee-B1DF.svg","response":0,"trial_type":"image-button-response","trial_index":15,"time_elapsed":300367,"internal_node_id":"0.0-4.0-0.4","subject_id":"5fb6ed2116919c000a99249e","study_id":"60edd13110225f80f9f3709b","session_id":"6196c709d965ce1e2b690d7c","condition":"contingent","relevant_dimensions":["pattern","legs"],"bee_group":{"antennae":"X","wings":"X","pattern":"S","legs":"F"},"action":"harvest","summary":"good-harvest","bonus":1.240000000000001},{"rt":6959.399999976158,"stimulus":"\n                    <p><b>Action: <em>harvest</em></b></p>\n                    <p>This is the bee that you just saw.</p>\n                    <img src=\"bees-with-color/bee-B1DF.svg\" width=\"200\">\n                    <p><span class=\"greenText\"><b>Successful harvest!</b></span><br>Your pay has increased by $0.02. Your bonus pay is now $0.40.</p>\n            ","response":0,"trial_type":"html-button-response","trial_index":16,"time_elapsed":307327,"internal_node_id":"0.0-4.0-1.4","subject_id":"5fb6ed2116919c000a99249e","study_id":"60edd13110225f80f9f3709b","session_id":"6196c709d965ce1e2b690d7c","condition":"contingent","relevant_dimensions":["pattern","legs"],"bee_group":{"antennae":"X","wings":"X","pattern":"S","legs":"F"},"bonus":1.240000000000001},{"rt":25248.699999928474,"stimulus":"bees-with-color/bee-A2DM.svg","response":0,"trial_type":"image-button-response","trial_index":17,"time_elapsed":332577,"internal_node_id":"0.0-4.0-0.5","subject_id":"5fb6ed2116919c000a99249e","study_id":"60edd13110225f80f9f3709b","session_id":"6196c709d965ce1e2b690d7c","condition":"contingent","relevant_dimensions":["pattern","legs"],"bee_group":{"antennae":"X","wings":"X","pattern":"S","legs":"F"},"action":"harvest","summary":"good-harvest","bonus":1.240000000000001},{"rt":4428.599999904633,"stimulus":"\n                    <p><b>Action: <em>harvest</em></b></p>\n                    <p>This is the bee that you just saw.</p>\n                    <img src=\"bees-with-color/bee-A2DM.svg\" width=\"200\">\n                    <p><span class=\"greenText\"><b>Successful harvest!</b></span><br>Your pay has increased by $0.02. Your bonus pay is now $0.42.</p>\n            ","response":0,"trial_type":"html-button-response","trial_index":18,"time_elapsed":337006,"internal_node_id":"0.0-4.0-1.5","subject_id":"5fb6ed2116919c000a99249e","study_id":"60edd13110225f80f9f3709b","session_id":"6196c709d965ce1e2b690d7c","condition":"contingent","relevant_dimensions":["pattern","legs"],"bee_group":{"antennae":"X","wings":"X","pattern":"S","legs":"F"},"bonus":1.240000000000001},{"rt":34171,"stimulus":"bees-with-color/bee-B2DF.svg","response":0,"trial_type":"image-button-response","trial_index":19,"time_elapsed":371179,"internal_node_id":"0.0-4.0-0.6","subject_id":"5fb6ed2116919c000a99249e","study_id":"60edd13110225f80f9f3709b","session_id":"6196c709d965ce1e2b690d7c","condition":"contingent","relevant_dimensions":["pattern","legs"],"bee_group":{"antennae":"X","wings":"X","pattern":"S","legs":"F"},"action":"harvest","summary":"good-harvest","bonus":1.240000000000001},{"rt":4285,"stimulus":"\n                    <p><b>Action: <em>harvest</em></b></p>\n                    <p>This is the bee that you just saw.</p>\n                    <img src=\"bees-with-color/bee-B2DF.svg\" width=\"200\">\n                    <p><span class=\"greenText\"><b>Successful harvest!</b></span><br>Your pay has increased by $0.02. Your bonus pay is now $0.44.</p>\n            ","response":0,"trial_type":"html-button-response","trial_index":20,"time_elapsed":375465,"internal_node_id":"0.0-4.0-1.6","subject_id":"5fb6ed2116919c000a99249e","study_id":"60edd13110225f80f9f3709b","session_id":"6196c709d965ce1e2b690d7c","condition":"contingent","relevant_dimensions":["pattern","legs"],"bee_group":{"antennae":"X","wings":"X","pattern":"S","legs":"F"},"bonus":1.240000000000001},{"rt":29769.800000071526,"stimulus":"bees-with-color/bee-A1DF.svg","response":0,"trial_type":"image-button-response","trial_index":21,"time_elapsed":405236,"internal_node_id":"0.0-4.0-0.7","subject_id":"5fb6ed2116919c000a99249e","study_id":"60edd13110225f80f9f3709b","session_id":"6196c709d965ce1e2b690d7c","condition":"contingent","relevant_dimensions":["pattern","legs"],"bee_group":{"antennae":"X","wings":"X","pattern":"S","legs":"F"},"action":"harvest","summary":"good-harvest","bonus":1.240000000000001},{"rt":1162.3999999761581,"stimulus":"\n                    <p><b>Action: <em>harvest</em></b></p>\n                    <p>This is the bee that you just saw.</p>\n                    <img src=\"bees-with-color/bee-A1DF.svg\" width=\"200\">\n                    <p><span class=\"greenText\"><b>Successful harvest!</b></span><br>Your pay has increased by $0.02. Your bonus pay is now $0.46.</p>\n            ","response":0,"trial_type":"html-button-response","trial_index":22,"time_elapsed":406399,"internal_node_id":"0.0-4.0-1.7","subject_id":"5fb6ed2116919c000a99249e","study_id":"60edd13110225f80f9f3709b","session_id":"6196c709d965ce1e2b690d7c","condition":"contingent","relevant_dimensions":["pattern","legs"],"bee_group":{"antennae":"X","wings":"X","pattern":"S","legs":"F"},"bonus":1.240000000000001},{"rt":42396.799999952316,"stimulus":"bees-with-color/bee-A2SM.svg","response":1,"trial_type":"image-button-response","trial_index":23,"time_elapsed":448796,"internal_node_id":"0.0-4.0-0.8","subject_id":"5fb6ed2116919c000a99249e","study_id":"60edd13110225f80f9f3709b","session_id":"6196c709d965ce1e2b690d7c","condition":"contingent","relevant_dimensions":["pattern","legs"],"bee_group":{"antennae":"X","wings":"X","pattern":"S","legs":"F"},"action":"avoid","summary":"bad-avoid","bonus":1.240000000000001},{"rt":2529.0999999046326,"stimulus":"\n                    <p><b>Action: <em>avoid</em></b></p>\n                    <p>This is the bee that you just saw.</p>\n                    <img src=\"bees-with-color/bee-A2SM.svg\" width=\"200\">\n                    <p><br>Your bonus pay is unchanged, and remains at $0.46.</p>\n            ","response":0,"trial_type":"html-button-response","trial_index":24,"time_elapsed":451326,"internal_node_id":"0.0-4.0-1.8","subject_id":"5fb6ed2116919c000a99249e","study_id":"60edd13110225f80f9f3709b","session_id":"6196c709d965ce1e2b690d7c","condition":"contingent","relevant_dimensions":["pattern","legs"],"bee_group":{"antennae":"X","wings":"X","pattern":"S","legs":"F"},"bonus":1.240000000000001},{"rt":47455,"stimulus":"bees-with-color/bee-B1SF.svg","response":0,"trial_type":"image-button-response","trial_index":25,"time_elapsed":498782,"internal_node_id":"0.0-4.0-0.9","subject_id":"5fb6ed2116919c000a99249e","study_id":"60edd13110225f80f9f3709b","session_id":"6196c709d965ce1e2b690d7c","condition":"contingent","relevant_dimensions":["pattern","legs"],"bee_group":{"antennae":"X","wings":"X","pattern":"S","legs":"F"},"action":"harvest","summary":"bad-harvest","bonus":1.240000000000001},{"rt":8253.299999952316,"stimulus":"\n                    <p><b>Action: <em>harvest</em></b></p>\n                    <p>This is the bee that you just saw.</p>\n                    <img src=\"bees-with-color/bee-B1SF.svg\" width=\"200\">\n                    <p><span class=\"redText\">Bad choice, the bee was angry.</span><br><b>You have been stung!</b><br>Your pay has been decreased by $0.10. Your bonus pay is now $0.36.</p>\n            ","response":0,"trial_type":"html-button-response","trial_index":26,"time_elapsed":507036,"internal_node_id":"0.0-4.0-1.9","subject_id":"5fb6ed2116919c000a99249e","study_id":"60edd13110225f80f9f3709b","session_id":"6196c709d965ce1e2b690d7c","condition":"contingent","relevant_dimensions":["pattern","legs"],"bee_group":{"antennae":"X","wings":"X","pattern":"S","legs":"F"},"bonus":1.240000000000001},{"rt":38523.89999997616,"stimulus":"bees-with-color/bee-B2SM.svg","response":0,"trial_type":"image-button-response","trial_index":27,"time_elapsed":545561,"internal_node_id":"0.0-4.0-0.10","subject_id":"5fb6ed2116919c000a99249e","study_id":"60edd13110225f80f9f3709b","session_id":"6196c709d965ce1e2b690d7c","condition":"contingent","relevant_dimensions":["pattern","legs"],"bee_group":{"antennae":"X","wings":"X","pattern":"S","legs":"F"},"action":"harvest","summary":"good-harvest","bonus":1.240000000000001},{"rt":1331.9000000953674,"stimulus":"\n                    <p><b>Action: <em>harvest</em></b></p>\n                    <p>This is the bee that you just saw.</p>\n                    <img src=\"bees-with-color/bee-B2SM.svg\" width=\"200\">\n                    <p><span class=\"greenText\"><b>Successful harvest!</b></span><br>Your pay has increased by $0.02. Your bonus pay is now $0.38.</p>\n            ","response":0,"trial_type":"html-button-response","trial_index":28,"time_elapsed":546894,"internal_node_id":"0.0-4.0-1.10","subject_id":"5fb6ed2116919c000a99249e","study_id":"60edd13110225f80f9f3709b","session_id":"6196c709d965ce1e2b690d7c","condition":"contingent","relevant_dimensions":["pattern","legs"],"bee_group":{"antennae":"X","wings":"X","pattern":"S","legs":"F"},"bonus":1.240000000000001},{"rt":35875.300000071526,"stimulus":"bees-with-color/bee-B2SF.svg","response":0,"trial_type":"image-button-response","trial_index":29,"time_elapsed":582771,"internal_node_id":"0.0-4.0-0.11","subject_id":"5fb6ed2116919c000a99249e","study_id":"60edd13110225f80f9f3709b","session_id":"6196c709d965ce1e2b690d7c","condition":"contingent","relevant_dimensions":["pattern","legs"],"bee_group":{"antennae":"X","wings":"X","pattern":"S","legs":"F"},"action":"harvest","summary":"bad-harvest","bonus":1.240000000000001},{"rt":18292.100000023842,"stimulus":"\n                    <p><b>Action: <em>harvest</em></b></p>\n                    <p>This is the bee that you just saw.</p>\n                    <img src=\"bees-with-color/bee-B2SF.svg\" width=\"200\">\n                    <p><span class=\"redText\">Bad choice, the bee was angry.</span><br><b>You have been stung!</b><br>Your pay has been decreased by $0.10. Your bonus pay is now $0.28.</p>\n            ","response":0,"trial_type":"html-button-response","trial_index":30,"time_elapsed":601064,"internal_node_id":"0.0-4.0-1.11","subject_id":"5fb6ed2116919c000a99249e","study_id":"60edd13110225f80f9f3709b","session_id":"6196c709d965ce1e2b690d7c","condition":"contingent","relevant_dimensions":["pattern","legs"],"bee_group":{"antennae":"X","wings":"X","pattern":"S","legs":"F"},"bonus":1.240000000000001},{"rt":40692.200000047684,"stimulus":"bees-with-color/bee-A1SM.svg","response":1,"trial_type":"image-button-response","trial_index":31,"time_elapsed":641757,"internal_node_id":"0.0-4.0-0.12","subject_id":"5fb6ed2116919c000a99249e","study_id":"60edd13110225f80f9f3709b","session_id":"6196c709d965ce1e2b690d7c","condition":"contingent","relevant_dimensions":["pattern","legs"],"bee_group":{"antennae":"X","wings":"X","pattern":"S","legs":"F"},"action":"avoid","summary":"bad-avoid","bonus":1.240000000000001},{"rt":2341.3000000715256,"stimulus":"\n                    <p><b>Action: <em>avoid</em></b></p>\n                    <p>This is the bee that you just saw.</p>\n                    <img src=\"bees-with-color/bee-A1SM.svg\" width=\"200\">\n                    <p><br>Your bonus pay is unchanged, and remains at $0.28.</p>\n            ","response":0,"trial_type":"html-button-response","trial_index":32,"time_elapsed":644099,"internal_node_id":"0.0-4.0-1.12","subject_id":"5fb6ed2116919c000a99249e","study_id":"60edd13110225f80f9f3709b","session_id":"6196c709d965ce1e2b690d7c","condition":"contingent","relevant_dimensions":["pattern","legs"],"bee_group":{"antennae":"X","wings":"X","pattern":"S","legs":"F"},"bonus":1.240000000000001},{"rt":1234.1000000238419,"stimulus":"bees-with-color/bee-A1DM.svg","response":0,"trial_type":"image-button-response","trial_index":33,"time_elapsed":645334,"internal_node_id":"0.0-4.0-0.13","subject_id":"5fb6ed2116919c000a99249e","study_id":"60edd13110225f80f9f3709b","session_id":"6196c709d965ce1e2b690d7c","condition":"contingent","relevant_dimensions":["pattern","legs"],"bee_group":{"antennae":"X","wings":"X","pattern":"S","legs":"F"},"action":"harvest","summary":"good-harvest","bonus":1.240000000000001},{"rt":1615.1000000238419,"stimulus":"\n                    <p><b>Action: <em>harvest</em></b></p>\n                    <p>This is the bee that you just saw.</p>\n                    <img src=\"bees-with-color/bee-A1DM.svg\" width=\"200\">\n                    <p><span class=\"greenText\"><b>Successful harvest!</b></span><br>Your pay has increased by $0.02. Your bonus pay is now $0.30.</p>\n            ","response":0,"trial_type":"html-button-response","trial_index":34,"time_elapsed":646950,"internal_node_id":"0.0-4.0-1.13","subject_id":"5fb6ed2116919c000a99249e","study_id":"60edd13110225f80f9f3709b","session_id":"6196c709d965ce1e2b690d7c","condition":"contingent","relevant_dimensions":["pattern","legs"],"bee_group":{"antennae":"X","wings":"X","pattern":"S","legs":"F"},"bonus":1.240000000000001},{"rt":1216.8999999761581,"stimulus":"bees-with-color/bee-B1DM.svg","response":0,"trial_type":"image-button-response","trial_index":35,"time_elapsed":648168,"internal_node_id":"0.0-4.0-0.14","subject_id":"5fb6ed2116919c000a99249e","study_id":"60edd13110225f80f9f3709b","session_id":"6196c709d965ce1e2b690d7c","condition":"contingent","relevant_dimensions":["pattern","legs"],"bee_group":{"antennae":"X","wings":"X","pattern":"S","legs":"F"},"action":"harvest","summary":"good-harvest","bonus":1.240000000000001},{"rt":763.9000000953674,"stimulus":"\n                    <p><b>Action: <em>harvest</em></b></p>\n                    <p>This is the bee that you just saw.</p>\n                    <img src=\"bees-with-color/bee-B1DM.svg\" width=\"200\">\n                    <p><span class=\"greenText\"><b>Successful harvest!</b></span><br>Your pay has increased by $0.02. Your bonus pay is now $0.32.</p>\n            ","response":0,"trial_type":"html-button-response","trial_index":36,"time_elapsed":648933,"internal_node_id":"0.0-4.0-1.14","subject_id":"5fb6ed2116919c000a99249e","study_id":"60edd13110225f80f9f3709b","session_id":"6196c709d965ce1e2b690d7c","condition":"contingent","relevant_dimensions":["pattern","legs"],"bee_group":{"antennae":"X","wings":"X","pattern":"S","legs":"F"},"bonus":1.240000000000001},{"rt":1017.6000000238419,"stimulus":"bees-with-color/bee-B1SM.svg","response":1,"trial_type":"image-button-response","trial_index":37,"time_elapsed":649951,"internal_node_id":"0.0-4.0-0.15","subject_id":"5fb6ed2116919c000a99249e","study_id":"60edd13110225f80f9f3709b","session_id":"6196c709d965ce1e2b690d7c","condition":"contingent","relevant_dimensions":["pattern","legs"],"bee_group":{"antennae":"X","wings":"X","pattern":"S","legs":"F"},"action":"avoid","summary":"bad-avoid","bonus":1.240000000000001},{"rt":652.8999999761581,"stimulus":"\n                    <p><b>Action: <em>avoid</em></b></p>\n                    <p>This is the bee that you just saw.</p>\n                    <img src=\"bees-with-color/bee-B1SM.svg\" width=\"200\">\n                    <p><br>Your bonus pay is unchanged, and remains at $0.32.</p>\n            ","response":0,"trial_type":"html-button-response","trial_index":38,"time_elapsed":650605,"internal_node_id":"0.0-4.0-1.15","subject_id":"5fb6ed2116919c000a99249e","study_id":"60edd13110225f80f9f3709b","session_id":"6196c709d965ce1e2b690d7c","condition":"contingent","relevant_dimensions":["pattern","legs"],"bee_group":{"antennae":"X","wings":"X","pattern":"S","legs":"F"},"bonus":1.240000000000001},{"rt":9900.100000023842,"stimulus":"bees-with-color/bee-A2DF.svg","response":0,"trial_type":"image-button-response","trial_index":39,"time_elapsed":660506,"internal_node_id":"0.0-4.0-0.16","subject_id":"5fb6ed2116919c000a99249e","study_id":"60edd13110225f80f9f3709b","session_id":"6196c709d965ce1e2b690d7c","condition":"contingent","relevant_dimensions":["pattern","legs"],"bee_group":{"antennae":"X","wings":"X","pattern":"S","legs":"F"},"action":"harvest","summary":"good-harvest","bonus":1.240000000000001},{"rt":788.1000000238419,"stimulus":"\n                    <p><b>Action: <em>harvest</em></b></p>\n                    <p>This is the bee that you just saw.</p>\n                    <img src=\"bees-with-color/bee-A2DF.svg\" width=\"200\">\n                    <p><span class=\"greenText\"><b>Successful harvest!</b></span><br>Your pay has increased by $0.02. Your bonus pay is now $0.34.</p>\n            ","response":0,"trial_type":"html-button-response","trial_index":40,"time_elapsed":661295,"internal_node_id":"0.0-4.0-1.16","subject_id":"5fb6ed2116919c000a99249e","study_id":"60edd13110225f80f9f3709b","session_id":"6196c709d965ce1e2b690d7c","condition":"contingent","relevant_dimensions":["pattern","legs"],"bee_group":{"antennae":"X","wings":"X","pattern":"S","legs":"F"},"bonus":1.240000000000001},{"rt":803.1999999284744,"stimulus":"bees-with-color/bee-A1DF.svg","response":0,"trial_type":"image-button-response","trial_index":41,"time_elapsed":662099,"internal_node_id":"0.0-4.0-0.17","subject_id":"5fb6ed2116919c000a99249e","study_id":"60edd13110225f80f9f3709b","session_id":"6196c709d965ce1e2b690d7c","condition":"contingent","relevant_dimensions":["pattern","legs"],"bee_group":{"antennae":"X","wings":"X","pattern":"S","legs":"F"},"action":"harvest","summary":"good-harvest","bonus":1.240000000000001},{"rt":733.2000000476837,"stimulus":"\n                    <p><b>Action: <em>harvest</em></b></p>\n                    <p>This is the bee that you just saw.</p>\n                    <img src=\"bees-with-color/bee-A1DF.svg\" width=\"200\">\n                    <p><span class=\"greenText\"><b>Successful harvest!</b></span><br>Your pay has increased by $0.02. Your bonus pay is now $0.36.</p>\n            ","response":0,"trial_type":"html-button-response","trial_index":42,"time_elapsed":662833,"internal_node_id":"0.0-4.0-1.17","subject_id":"5fb6ed2116919c000a99249e","study_id":"60edd13110225f80f9f3709b","session_id":"6196c709d965ce1e2b690d7c","condition":"contingent","relevant_dimensions":["pattern","legs"],"bee_group":{"antennae":"X","wings":"X","pattern":"S","legs":"F"},"bonus":1.240000000000001},{"rt":812.3000000715256,"stimulus":"bees-with-color/bee-A2SF.svg","response":1,"trial_type":"image-button-response","trial_index":43,"time_elapsed":663646,"internal_node_id":"0.0-4.0-0.18","subject_id":"5fb6ed2116919c000a99249e","study_id":"60edd13110225f80f9f3709b","session_id":"6196c709d965ce1e2b690d7c","condition":"contingent","relevant_dimensions":["pattern","legs"],"bee_group":{"antennae":"X","wings":"X","pattern":"S","legs":"F"},"action":"avoid","summary":"good-avoid","bonus":1.240000000000001},{"rt":575.8000000715256,"stimulus":"\n                    <p><b>Action: <em>avoid</em></b></p>\n                    <p>This is the bee that you just saw.</p>\n                    <img src=\"bees-with-color/bee-A2SF.svg\" width=\"200\">\n                    <p><br>Your bonus pay is unchanged, and remains at $0.36.</p>\n            ","response":0,"trial_type":"html-button-response","trial_index":44,"time_elapsed":664223,"internal_node_id":"0.0-4.0-1.18","subject_id":"5fb6ed2116919c000a99249e","study_id":"60edd13110225f80f9f3709b","session_id":"6196c709d965ce1e2b690d7c","condition":"contingent","relevant_dimensions":["pattern","legs"],"bee_group":{"antennae":"X","wings":"X","pattern":"S","legs":"F"},"bonus":1.240000000000001},{"rt":780.7000000476837,"stimulus":"bees-with-color/bee-A1DM.svg","response":0,"trial_type":"image-button-response","trial_index":45,"time_elapsed":665004,"internal_node_id":"0.0-4.0-0.19","subject_id":"5fb6ed2116919c000a99249e","study_id":"60edd13110225f80f9f3709b","session_id":"6196c709d965ce1e2b690d7c","condition":"contingent","relevant_dimensions":["pattern","legs"],"bee_group":{"antennae":"X","wings":"X","pattern":"S","legs":"F"},"action":"harvest","summary":"good-harvest","bonus":1.240000000000001},{"rt":784.1000000238419,"stimulus":"\n                    <p><b>Action: <em>harvest</em></b></p>\n                    <p>This is the bee that you just saw.</p>\n                    <img src=\"bees-with-color/bee-A1DM.svg\" width=\"200\">\n                    <p><span class=\"greenText\"><b>Successful harvest!</b></span><br>Your pay has increased by $0.02. Your bonus pay is now $0.38.</p>\n            ","response":0,"trial_type":"html-button-response","trial_index":46,"time_elapsed":665789,"internal_node_id":"0.0-4.0-1.19","subject_id":"5fb6ed2116919c000a99249e","study_id":"60edd13110225f80f9f3709b","session_id":"6196c709d965ce1e2b690d7c","condition":"contingent","relevant_dimensions":["pattern","legs"],"bee_group":{"antennae":"X","wings":"X","pattern":"S","legs":"F"},"bonus":1.240000000000001},{"rt":927.1999999284744,"stimulus":"bees-with-color/bee-B2DF.svg","response":0,"trial_type":"image-button-response","trial_index":47,"time_elapsed":666717,"internal_node_id":"0.0-4.0-0.20","subject_id":"5fb6ed2116919c000a99249e","study_id":"60edd13110225f80f9f3709b","session_id":"6196c709d965ce1e2b690d7c","condition":"contingent","relevant_dimensions":["pattern","legs"],"bee_group":{"antennae":"X","wings":"X","pattern":"S","legs":"F"},"action":"harvest","summary":"good-harvest","bonus":1.240000000000001},{"rt":503.2000000476837,"stimulus":"\n                    <p><b>Action: <em>harvest</em></b></p>\n                    <p>This is the bee that you just saw.</p>\n                    <img src=\"bees-with-color/bee-B2DF.svg\" width=\"200\">\n                    <p><span class=\"greenText\"><b>Successful harvest!</b></span><br>Your pay has increased by $0.02. Your bonus pay is now $0.40.</p>\n            ","response":0,"trial_type":"html-button-response","trial_index":48,"time_elapsed":667221,"internal_node_id":"0.0-4.0-1.20","subject_id":"5fb6ed2116919c000a99249e","study_id":"60edd13110225f80f9f3709b","session_id":"6196c709d965ce1e2b690d7c","condition":"contingent","relevant_dimensions":["pattern","legs"],"bee_group":{"antennae":"X","wings":"X","pattern":"S","legs":"F"},"bonus":1.240000000000001},{"rt":574.3999999761581,"stimulus":"bees-with-color/bee-B2DM.svg","response":0,"trial_type":"image-button-response","trial_index":49,"time_elapsed":667796,"internal_node_id":"0.0-4.0-0.21","subject_id":"5fb6ed2116919c000a99249e","study_id":"60edd13110225f80f9f3709b","session_id":"6196c709d965ce1e2b690d7c","condition":"contingent","relevant_dimensions":["pattern","legs"],"bee_group":{"antennae":"X","wings":"X","pattern":"S","legs":"F"},"action":"harvest","summary":"good-harvest","bonus":1.240000000000001},{"rt":565.5,"stimulus":"\n                    <p><b>Action: <em>harvest</em></b></p>\n                    <p>This is the bee that you just saw.</p>\n                    <img src=\"bees-with-color/bee-B2DM.svg\" width=\"200\">\n                    <p><span class=\"greenText\"><b>Successful harvest!</b></span><br>Your pay has increased by $0.02. Your bonus pay is now $0.42.</p>\n            ","response":0,"trial_type":"html-button-response","trial_index":50,"time_elapsed":668362,"internal_node_id":"0.0-4.0-1.21","subject_id":"5fb6ed2116919c000a99249e","study_id":"60edd13110225f80f9f3709b","session_id":"6196c709d965ce1e2b690d7c","condition":"contingent","relevant_dimensions":["pattern","legs"],"bee_group":{"antennae":"X","wings":"X","pattern":"S","legs":"F"},"bonus":1.240000000000001},{"rt":831.8999999761581,"stimulus":"bees-with-color/bee-B1SF.svg","response":1,"trial_type":"image-button-response","trial_index":51,"time_elapsed":669195,"internal_node_id":"0.0-4.0-0.22","subject_id":"5fb6ed2116919c000a99249e","study_id":"60edd13110225f80f9f3709b","session_id":"6196c709d965ce1e2b690d7c","condition":"contingent","relevant_dimensions":["pattern","legs"],"bee_group":{"antennae":"X","wings":"X","pattern":"S","legs":"F"},"action":"avoid","summary":"good-avoid","bonus":1.240000000000001},{"rt":708.5999999046326,"stimulus":"\n                    <p><b>Action: <em>avoid</em></b></p>\n                    <p>This is the bee that you just saw.</p>\n                    <img src=\"bees-with-color/bee-B1SF.svg\" width=\"200\">\n                    <p><br>Your bonus pay is unchanged, and remains at $0.42.</p>\n            ","response":0,"trial_type":"html-button-response","trial_index":52,"time_elapsed":669904,"internal_node_id":"0.0-4.0-1.22","subject_id":"5fb6ed2116919c000a99249e","study_id":"60edd13110225f80f9f3709b","session_id":"6196c709d965ce1e2b690d7c","condition":"contingent","relevant_dimensions":["pattern","legs"],"bee_group":{"antennae":"X","wings":"X","pattern":"S","legs":"F"},"bonus":1.240000000000001},{"rt":811.8999999761581,"stimulus":"bees-with-color/bee-B1DF.svg","response":0,"trial_type":"image-button-response","trial_index":53,"time_elapsed":670717,"internal_node_id":"0.0-4.0-0.23","subject_id":"5fb6ed2116919c000a99249e","study_id":"60edd13110225f80f9f3709b","session_id":"6196c709d965ce1e2b690d7c","condition":"contingent","relevant_dimensions":["pattern","legs"],"bee_group":{"antennae":"X","wings":"X","pattern":"S","legs":"F"},"action":"harvest","summary":"good-harvest","bonus":1.240000000000001},{"rt":539.3000000715256,"stimulus":"\n                    <p><b>Action: <em>harvest</em></b></p>\n                    <p>This is the bee that you just saw.</p>\n                    <img src=\"bees-with-color/bee-B1DF.svg\" width=\"200\">\n                    <p><span class=\"greenText\"><b>Successful harvest!</b></span><br>Your pay has increased by $0.02. Your bonus pay is now $0.44.</p>\n            ","response":0,"trial_type":"html-button-response","trial_index":54,"time_elapsed":671257,"internal_node_id":"0.0-4.0-1.23","subject_id":"5fb6ed2116919c000a99249e","study_id":"60edd13110225f80f9f3709b","session_id":"6196c709d965ce1e2b690d7c","condition":"contingent","relevant_dimensions":["pattern","legs"],"bee_group":{"antennae":"X","wings":"X","pattern":"S","legs":"F"},"bonus":1.240000000000001},{"rt":856.3999999761581,"stimulus":"bees-with-color/bee-B2SF.svg","response":1,"trial_type":"image-button-response","trial_index":55,"time_elapsed":672114,"internal_node_id":"0.0-4.0-0.24","subject_id":"5fb6ed2116919c000a99249e","study_id":"60edd13110225f80f9f3709b","session_id":"6196c709d965ce1e2b690d7c","condition":"contingent","relevant_dimensions":["pattern","legs"],"bee_group":{"antennae":"X","wings":"X","pattern":"S","legs":"F"},"action":"avoid","summary":"good-avoid","bonus":1.240000000000001},{"rt":592.7999999523163,"stimulus":"\n                    <p><b>Action: <em>avoid</em></b></p>\n                    <p>This is the bee that you just saw.</p>\n                    <img src=\"bees-with-color/bee-B2SF.svg\" width=\"200\">\n                    <p><br>Your bonus pay is unchanged, and remains at $0.44.</p>\n            ","response":0,"trial_type":"html-button-response","trial_index":56,"time_elapsed":672708,"internal_node_id":"0.0-4.0-1.24","subject_id":"5fb6ed2116919c000a99249e","study_id":"60edd13110225f80f9f3709b","session_id":"6196c709d965ce1e2b690d7c","condition":"contingent","relevant_dimensions":["pattern","legs"],"bee_group":{"antennae":"X","wings":"X","pattern":"S","legs":"F"},"bonus":1.240000000000001},{"rt":802.5,"stimulus":"bees-with-color/bee-A2SM.svg","response":1,"trial_type":"image-button-response","trial_index":57,"time_elapsed":673511,"internal_node_id":"0.0-4.0-0.25","subject_id":"5fb6ed2116919c000a99249e","study_id":"60edd13110225f80f9f3709b","session_id":"6196c709d965ce1e2b690d7c","condition":"contingent","relevant_dimensions":["pattern","legs"],"bee_group":{"antennae":"X","wings":"X","pattern":"S","legs":"F"},"action":"avoid","summary":"bad-avoid","bonus":1.240000000000001},{"rt":484,"stimulus":"\n                    <p><b>Action: <em>avoid</em></b></p>\n                    <p>This is the bee that you just saw.</p>\n                    <img src=\"bees-with-color/bee-A2SM.svg\" width=\"200\">\n                    <p><br>Your bonus pay is unchanged, and remains at $0.44.</p>\n            ","response":0,"trial_type":"html-button-response","trial_index":58,"time_elapsed":673996,"internal_node_id":"0.0-4.0-1.25","subject_id":"5fb6ed2116919c000a99249e","study_id":"60edd13110225f80f9f3709b","session_id":"6196c709d965ce1e2b690d7c","condition":"contingent","relevant_dimensions":["pattern","legs"],"bee_group":{"antennae":"X","wings":"X","pattern":"S","legs":"F"},"bonus":1.240000000000001},{"rt":501.2999999523163,"stimulus":"bees-with-color/bee-A2DM.svg","response":0,"trial_type":"image-button-response","trial_index":59,"time_elapsed":674498,"internal_node_id":"0.0-4.0-0.26","subject_id":"5fb6ed2116919c000a99249e","study_id":"60edd13110225f80f9f3709b","session_id":"6196c709d965ce1e2b690d7c","condition":"contingent","relevant_dimensions":["pattern","legs"],"bee_group":{"antennae":"X","wings":"X","pattern":"S","legs":"F"},"action":"harvest","summary":"good-harvest","bonus":1.240000000000001},{"rt":440.5,"stimulus":"\n                    <p><b>Action: <em>harvest</em></b></p>\n                    <p>This is the bee that you just saw.</p>\n                    <img src=\"bees-with-color/bee-A2DM.svg\" width=\"200\">\n                    <p><span class=\"greenText\"><b>Successful harvest!</b></span><br>Your pay has increased by $0.02. Your bonus pay is now $0.46.</p>\n            ","response":0,"trial_type":"html-button-response","trial_index":60,"time_elapsed":674939,"internal_node_id":"0.0-4.0-1.26","subject_id":"5fb6ed2116919c000a99249e","study_id":"60edd13110225f80f9f3709b","session_id":"6196c709d965ce1e2b690d7c","condition":"contingent","relevant_dimensions":["pattern","legs"],"bee_group":{"antennae":"X","wings":"X","pattern":"S","legs":"F"},"bonus":1.240000000000001},{"rt":757.3000000715256,"stimulus":"bees-with-color/bee-A1SM.svg","response":1,"trial_type":"image-button-response","trial_index":61,"time_elapsed":675697,"internal_node_id":"0.0-4.0-0.27","subject_id":"5fb6ed2116919c000a99249e","study_id":"60edd13110225f80f9f3709b","session_id":"6196c709d965ce1e2b690d7c","condition":"contingent","relevant_dimensions":["pattern","legs"],"bee_group":{"antennae":"X","wings":"X","pattern":"S","legs":"F"},"action":"avoid","summary":"bad-avoid","bonus":1.240000000000001},{"rt":451.5,"stimulus":"\n                    <p><b>Action: <em>avoid</em></b></p>\n                    <p>This is the bee that you just saw.</p>\n                    <img src=\"bees-with-color/bee-A1SM.svg\" width=\"200\">\n                    <p><br>Your bonus pay is unchanged, and remains at $0.46.</p>\n            ","response":0,"trial_type":"html-button-response","trial_index":62,"time_elapsed":676150,"internal_node_id":"0.0-4.0-1.27","subject_id":"5fb6ed2116919c000a99249e","study_id":"60edd13110225f80f9f3709b","session_id":"6196c709d965ce1e2b690d7c","condition":"contingent","relevant_dimensions":["pattern","legs"],"bee_group":{"antennae":"X","wings":"X","pattern":"S","legs":"F"},"bonus":1.240000000000001},{"rt":745.0999999046326,"stimulus":"bees-with-color/bee-A1SF.svg","response":1,"trial_type":"image-button-response","trial_index":63,"time_elapsed":676895,"internal_node_id":"0.0-4.0-0.28","subject_id":"5fb6ed2116919c000a99249e","study_id":"60edd13110225f80f9f3709b","session_id":"6196c709d965ce1e2b690d7c","condition":"contingent","relevant_dimensions":["pattern","legs"],"bee_group":{"antennae":"X","wings":"X","pattern":"S","legs":"F"},"action":"avoid","summary":"good-avoid","bonus":1.240000000000001},{"rt":438.6999999284744,"stimulus":"\n                    <p><b>Action: <em>avoid</em></b></p>\n                    <p>This is the bee that you just saw.</p>\n                    <img src=\"bees-with-color/bee-A1SF.svg\" width=\"200\">\n                    <p><br>Your bonus pay is unchanged, and remains at $0.46.</p>\n            ","response":0,"trial_type":"html-button-response","trial_index":64,"time_elapsed":677335,"internal_node_id":"0.0-4.0-1.28","subject_id":"5fb6ed2116919c000a99249e","study_id":"60edd13110225f80f9f3709b","session_id":"6196c709d965ce1e2b690d7c","condition":"contingent","relevant_dimensions":["pattern","legs"],"bee_group":{"antennae":"X","wings":"X","pattern":"S","legs":"F"},"bonus":1.240000000000001},{"rt":639.7999999523163,"stimulus":"bees-with-color/bee-B1SM.svg","response":1,"trial_type":"image-button-response","trial_index":65,"time_elapsed":677975,"internal_node_id":"0.0-4.0-0.29","subject_id":"5fb6ed2116919c000a99249e","study_id":"60edd13110225f80f9f3709b","session_id":"6196c709d965ce1e2b690d7c","condition":"contingent","relevant_dimensions":["pattern","legs"],"bee_group":{"antennae":"X","wings":"X","pattern":"S","legs":"F"},"action":"avoid","summary":"bad-avoid","bonus":1.240000000000001},{"rt":868.6000000238419,"stimulus":"\n                    <p><b>Action: <em>avoid</em></b></p>\n                    <p>This is the bee that you just saw.</p>\n                    <img src=\"bees-with-color/bee-B1SM.svg\" width=\"200\">\n                    <p><br>Your bonus pay is unchanged, and remains at $0.46.</p>\n            ","response":0,"trial_type":"html-button-response","trial_index":66,"time_elapsed":678845,"internal_node_id":"0.0-4.0-1.29","subject_id":"5fb6ed2116919c000a99249e","study_id":"60edd13110225f80f9f3709b","session_id":"6196c709d965ce1e2b690d7c","condition":"contingent","relevant_dimensions":["pattern","legs"],"bee_group":{"antennae":"X","wings":"X","pattern":"S","legs":"F"},"bonus":1.240000000000001},{"rt":691.2999999523163,"stimulus":"bees-with-color/bee-B2SM.svg","response":1,"trial_type":"image-button-response","trial_index":67,"time_elapsed":679537,"internal_node_id":"0.0-4.0-0.30","subject_id":"5fb6ed2116919c000a99249e","study_id":"60edd13110225f80f9f3709b","session_id":"6196c709d965ce1e2b690d7c","condition":"contingent","relevant_dimensions":["pattern","legs"],"bee_group":{"antennae":"X","wings":"X","pattern":"S","legs":"F"},"action":"avoid","summary":"bad-avoid","bonus":1.240000000000001},{"rt":573,"stimulus":"\n                    <p><b>Action: <em>avoid</em></b></p>\n                    <p>This is the bee that you just saw.</p>\n                    <img src=\"bees-with-color/bee-B2SM.svg\" width=\"200\">\n                    <p><br>Your bonus pay is unchanged, and remains at $0.46.</p>\n            ","response":0,"trial_type":"html-button-response","trial_index":68,"time_elapsed":680111,"internal_node_id":"0.0-4.0-1.30","subject_id":"5fb6ed2116919c000a99249e","study_id":"60edd13110225f80f9f3709b","session_id":"6196c709d965ce1e2b690d7c","condition":"contingent","relevant_dimensions":["pattern","legs"],"bee_group":{"antennae":"X","wings":"X","pattern":"S","legs":"F"},"bonus":1.240000000000001},{"rt":684.1000000238419,"stimulus":"bees-with-color/bee-B1DM.svg","response":0,"trial_type":"image-button-response","trial_index":69,"time_elapsed":680796,"internal_node_id":"0.0-4.0-0.31","subject_id":"5fb6ed2116919c000a99249e","study_id":"60edd13110225f80f9f3709b","session_id":"6196c709d965ce1e2b690d7c","condition":"contingent","relevant_dimensions":["pattern","legs"],"bee_group":{"antennae":"X","wings":"X","pattern":"S","legs":"F"},"action":"harvest","summary":"good-harvest","bonus":1.240000000000001},{"rt":458.39999997615814,"stimulus":"\n                    <p><b>Action: <em>harvest</em></b></p>\n                    <p>This is the bee that you just saw.</p>\n                    <img src=\"bees-with-color/bee-B1DM.svg\" width=\"200\">\n                    <p><span class=\"greenText\"><b>Successful harvest!</b></span><br>Your pay has increased by $0.02. Your bonus pay is now $0.48.</p>\n            ","response":0,"trial_type":"html-button-response","trial_index":70,"time_elapsed":681255,"internal_node_id":"0.0-4.0-1.31","subject_id":"5fb6ed2116919c000a99249e","study_id":"60edd13110225f80f9f3709b","session_id":"6196c709d965ce1e2b690d7c","condition":"contingent","relevant_dimensions":["pattern","legs"],"bee_group":{"antennae":"X","wings":"X","pattern":"S","legs":"F"},"bonus":1.240000000000001},{"rt":2292.0999999046326,"stimulus":"bees-with-color/bee-B1DM.svg","response":0,"trial_type":"image-button-response","trial_index":71,"time_elapsed":683548,"internal_node_id":"0.0-4.0-0.32","subject_id":"5fb6ed2116919c000a99249e","study_id":"60edd13110225f80f9f3709b","session_id":"6196c709d965ce1e2b690d7c","condition":"contingent","relevant_dimensions":["pattern","legs"],"bee_group":{"antennae":"X","wings":"X","pattern":"S","legs":"F"},"action":"harvest","summary":"good-harvest","bonus":1.240000000000001},{"rt":590.3999999761581,"stimulus":"\n                    <p><b>Action: <em>harvest</em></b></p>\n                    <p>This is the bee that you just saw.</p>\n                    <img src=\"bees-with-color/bee-B1DM.svg\" width=\"200\">\n                    <p><span class=\"greenText\"><b>Successful harvest!</b></span><br>Your pay has increased by $0.02. Your bonus pay is now $0.50.</p>\n            ","response":0,"trial_type":"html-button-response","trial_index":72,"time_elapsed":684139,"internal_node_id":"0.0-4.0-1.32","subject_id":"5fb6ed2116919c000a99249e","study_id":"60edd13110225f80f9f3709b","session_id":"6196c709d965ce1e2b690d7c","condition":"contingent","relevant_dimensions":["pattern","legs"],"bee_group":{"antennae":"X","wings":"X","pattern":"S","legs":"F"},"bonus":1.240000000000001},{"rt":4677.100000023842,"stimulus":"bees-with-color/bee-B1DF.svg","response":0,"trial_type":"image-button-response","trial_index":73,"time_elapsed":688817,"internal_node_id":"0.0-4.0-0.33","subject_id":"5fb6ed2116919c000a99249e","study_id":"60edd13110225f80f9f3709b","session_id":"6196c709d965ce1e2b690d7c","condition":"contingent","relevant_dimensions":["pattern","legs"],"bee_group":{"antennae":"X","wings":"X","pattern":"S","legs":"F"},"action":"harvest","summary":"good-harvest","bonus":1.240000000000001},{"rt":803.2999999523163,"stimulus":"\n                    <p><b>Action: <em>harvest</em></b></p>\n                    <p>This is the bee that you just saw.</p>\n                    <img src=\"bees-with-color/bee-B1DF.svg\" width=\"200\">\n                    <p><span class=\"greenText\"><b>Successful harvest!</b></span><br>Your pay has increased by $0.02. Your bonus pay is now $0.52.</p>\n            ","response":0,"trial_type":"html-button-response","trial_index":74,"time_elapsed":689621,"internal_node_id":"0.0-4.0-1.33","subject_id":"5fb6ed2116919c000a99249e","study_id":"60edd13110225f80f9f3709b","session_id":"6196c709d965ce1e2b690d7c","condition":"contingent","relevant_dimensions":["pattern","legs"],"bee_group":{"antennae":"X","wings":"X","pattern":"S","legs":"F"},"bonus":1.240000000000001},{"rt":925.1000000238419,"stimulus":"bees-with-color/bee-A2SM.svg","response":1,"trial_type":"image-button-response","trial_index":75,"time_elapsed":690547,"internal_node_id":"0.0-4.0-0.34","subject_id":"5fb6ed2116919c000a99249e","study_id":"60edd13110225f80f9f3709b","session_id":"6196c709d965ce1e2b690d7c","condition":"contingent","relevant_dimensions":["pattern","legs"],"bee_group":{"antennae":"X","wings":"X","pattern":"S","legs":"F"},"action":"avoid","summary":"bad-avoid","bonus":1.240000000000001},{"rt":547,"stimulus":"\n                    <p><b>Action: <em>avoid</em></b></p>\n                    <p>This is the bee that you just saw.</p>\n                    <img src=\"bees-with-color/bee-A2SM.svg\" width=\"200\">\n                    <p><br>Your bonus pay is unchanged, and remains at $0.52.</p>\n            ","response":0,"trial_type":"html-button-response","trial_index":76,"time_elapsed":691095,"internal_node_id":"0.0-4.0-1.34","subject_id":"5fb6ed2116919c000a99249e","study_id":"60edd13110225f80f9f3709b","session_id":"6196c709d965ce1e2b690d7c","condition":"contingent","relevant_dimensions":["pattern","legs"],"bee_group":{"antennae":"X","wings":"X","pattern":"S","legs":"F"},"bonus":1.240000000000001},{"rt":1125.6000000238419,"stimulus":"bees-with-color/bee-B1SM.svg","response":1,"trial_type":"image-button-response","trial_index":77,"time_elapsed":692221,"internal_node_id":"0.0-4.0-0.35","subject_id":"5fb6ed2116919c000a99249e","study_id":"60edd13110225f80f9f3709b","session_id":"6196c709d965ce1e2b690d7c","condition":"contingent","relevant_dimensions":["pattern","legs"],"bee_group":{"antennae":"X","wings":"X","pattern":"S","legs":"F"},"action":"avoid","summary":"bad-avoid","bonus":1.240000000000001},{"rt":494.89999997615814,"stimulus":"\n                    <p><b>Action: <em>avoid</em></b></p>\n                    <p>This is the bee that you just saw.</p>\n                    <img src=\"bees-with-color/bee-B1SM.svg\" width=\"200\">\n                    <p><br>Your bonus pay is unchanged, and remains at $0.52.</p>\n            ","response":0,"trial_type":"html-button-response","trial_index":78,"time_elapsed":692717,"internal_node_id":"0.0-4.0-1.35","subject_id":"5fb6ed2116919c000a99249e","study_id":"60edd13110225f80f9f3709b","session_id":"6196c709d965ce1e2b690d7c","condition":"contingent","relevant_dimensions":["pattern","legs"],"bee_group":{"antennae":"X","wings":"X","pattern":"S","legs":"F"},"bonus":1.240000000000001},{"rt":464.6999999284744,"stimulus":"bees-with-color/bee-A2DM.svg","response":0,"trial_type":"image-button-response","trial_index":79,"time_elapsed":693182,"internal_node_id":"0.0-4.0-0.36","subject_id":"5fb6ed2116919c000a99249e","study_id":"60edd13110225f80f9f3709b","session_id":"6196c709d965ce1e2b690d7c","condition":"contingent","relevant_dimensions":["pattern","legs"],"bee_group":{"antennae":"X","wings":"X","pattern":"S","legs":"F"},"action":"harvest","summary":"good-harvest","bonus":1.240000000000001},{"rt":482.60000002384186,"stimulus":"\n                    <p><b>Action: <em>harvest</em></b></p>\n                    <p>This is the bee that you just saw.</p>\n                    <img src=\"bees-with-color/bee-A2DM.svg\" width=\"200\">\n                    <p><span class=\"greenText\"><b>Successful harvest!</b></span><br>Your pay has increased by $0.02. Your bonus pay is now $0.54.</p>\n            ","response":0,"trial_type":"html-button-response","trial_index":80,"time_elapsed":693666,"internal_node_id":"0.0-4.0-1.36","subject_id":"5fb6ed2116919c000a99249e","study_id":"60edd13110225f80f9f3709b","session_id":"6196c709d965ce1e2b690d7c","condition":"contingent","relevant_dimensions":["pattern","legs"],"bee_group":{"antennae":"X","wings":"X","pattern":"S","legs":"F"},"bonus":1.240000000000001},{"rt":1011.2999999523163,"stimulus":"bees-with-color/bee-A1DM.svg","response":0,"trial_type":"image-button-response","trial_index":81,"time_elapsed":694678,"internal_node_id":"0.0-4.0-0.37","subject_id":"5fb6ed2116919c000a99249e","study_id":"60edd13110225f80f9f3709b","session_id":"6196c709d965ce1e2b690d7c","condition":"contingent","relevant_dimensions":["pattern","legs"],"bee_group":{"antennae":"X","wings":"X","pattern":"S","legs":"F"},"action":"harvest","summary":"good-harvest","bonus":1.240000000000001},{"rt":491,"stimulus":"\n                    <p><b>Action: <em>harvest</em></b></p>\n                    <p>This is the bee that you just saw.</p>\n                    <img src=\"bees-with-color/bee-A1DM.svg\" width=\"200\">\n                    <p><span class=\"greenText\"><b>Successful harvest!</b></span><br>Your pay has increased by $0.02. Your bonus pay is now $0.56.</p>\n            ","response":0,"trial_type":"html-button-response","trial_index":82,"time_elapsed":695170,"internal_node_id":"0.0-4.0-1.37","subject_id":"5fb6ed2116919c000a99249e","study_id":"60edd13110225f80f9f3709b","session_id":"6196c709d965ce1e2b690d7c","condition":"contingent","relevant_dimensions":["pattern","legs"],"bee_group":{"antennae":"X","wings":"X","pattern":"S","legs":"F"},"bonus":1.240000000000001},{"rt":659.3999999761581,"stimulus":"bees-with-color/bee-B2SF.svg","response":1,"trial_type":"image-button-response","trial_index":83,"time_elapsed":695830,"internal_node_id":"0.0-4.0-0.38","subject_id":"5fb6ed2116919c000a99249e","study_id":"60edd13110225f80f9f3709b","session_id":"6196c709d965ce1e2b690d7c","condition":"contingent","relevant_dimensions":["pattern","legs"],"bee_group":{"antennae":"X","wings":"X","pattern":"S","legs":"F"},"action":"avoid","summary":"good-avoid","bonus":1.240000000000001},{"rt":460.10000002384186,"stimulus":"\n                    <p><b>Action: <em>avoid</em></b></p>\n                    <p>This is the bee that you just saw.</p>\n                    <img src=\"bees-with-color/bee-B2SF.svg\" width=\"200\">\n                    <p><br>Your bonus pay is unchanged, and remains at $0.56.</p>\n            ","response":0,"trial_type":"html-button-response","trial_index":84,"time_elapsed":696291,"internal_node_id":"0.0-4.0-1.38","subject_id":"5fb6ed2116919c000a99249e","study_id":"60edd13110225f80f9f3709b","session_id":"6196c709d965ce1e2b690d7c","condition":"contingent","relevant_dimensions":["pattern","legs"],"bee_group":{"antennae":"X","wings":"X","pattern":"S","legs":"F"},"bonus":1.240000000000001},{"rt":670.3999999761581,"stimulus":"bees-with-color/bee-A1SF.svg","response":1,"trial_type":"image-button-response","trial_index":85,"time_elapsed":696962,"internal_node_id":"0.0-4.0-0.39","subject_id":"5fb6ed2116919c000a99249e","study_id":"60edd13110225f80f9f3709b","session_id":"6196c709d965ce1e2b690d7c","condition":"contingent","relevant_dimensions":["pattern","legs"],"bee_group":{"antennae":"X","wings":"X","pattern":"S","legs":"F"},"action":"avoid","summary":"good-avoid","bonus":1.240000000000001},{"rt":472.90000009536743,"stimulus":"\n                    <p><b>Action: <em>avoid</em></b></p>\n                    <p>This is the bee that you just saw.</p>\n                    <img src=\"bees-with-color/bee-A1SF.svg\" width=\"200\">\n                    <p><br>Your bonus pay is unchanged, and remains at $0.56.</p>\n            ","response":0,"trial_type":"html-button-response","trial_index":86,"time_elapsed":697436,"internal_node_id":"0.0-4.0-1.39","subject_id":"5fb6ed2116919c000a99249e","study_id":"60edd13110225f80f9f3709b","session_id":"6196c709d965ce1e2b690d7c","condition":"contingent","relevant_dimensions":["pattern","legs"],"bee_group":{"antennae":"X","wings":"X","pattern":"S","legs":"F"},"bonus":1.240000000000001},{"rt":549,"stimulus":"bees-with-color/bee-B2DF.svg","response":0,"trial_type":"image-button-response","trial_index":87,"time_elapsed":697985,"internal_node_id":"0.0-4.0-0.40","subject_id":"5fb6ed2116919c000a99249e","study_id":"60edd13110225f80f9f3709b","session_id":"6196c709d965ce1e2b690d7c","condition":"contingent","relevant_dimensions":["pattern","legs"],"bee_group":{"antennae":"X","wings":"X","pattern":"S","legs":"F"},"action":"harvest","summary":"good-harvest","bonus":1.240000000000001},{"rt":473.89999997615814,"stimulus":"\n                    <p><b>Action: <em>harvest</em></b></p>\n                    <p>This is the bee that you just saw.</p>\n                    <img src=\"bees-with-color/bee-B2DF.svg\" width=\"200\">\n                    <p><span class=\"greenText\"><b>Successful harvest!</b></span><br>Your pay has increased by $0.02. Your bonus pay is now $0.58.</p>\n            ","response":0,"trial_type":"html-button-response","trial_index":88,"time_elapsed":698460,"internal_node_id":"0.0-4.0-1.40","subject_id":"5fb6ed2116919c000a99249e","study_id":"60edd13110225f80f9f3709b","session_id":"6196c709d965ce1e2b690d7c","condition":"contingent","relevant_dimensions":["pattern","legs"],"bee_group":{"antennae":"X","wings":"X","pattern":"S","legs":"F"},"bonus":1.240000000000001},{"rt":593.5,"stimulus":"bees-with-color/bee-B2DM.svg","response":0,"trial_type":"image-button-response","trial_index":89,"time_elapsed":699054,"internal_node_id":"0.0-4.0-0.41","subject_id":"5fb6ed2116919c000a99249e","study_id":"60edd13110225f80f9f3709b","session_id":"6196c709d965ce1e2b690d7c","condition":"contingent","relevant_dimensions":["pattern","legs"],"bee_group":{"antennae":"X","wings":"X","pattern":"S","legs":"F"},"action":"harvest","summary":"good-harvest","bonus":1.240000000000001},{"rt":497.5,"stimulus":"\n                    <p><b>Action: <em>harvest</em></b></p>\n                    <p>This is the bee that you just saw.</p>\n                    <img src=\"bees-with-color/bee-B2DM.svg\" width=\"200\">\n                    <p><span class=\"greenText\"><b>Successful harvest!</b></span><br>Your pay has increased by $0.02. Your bonus pay is now $0.60.</p>\n            ","response":0,"trial_type":"html-button-response","trial_index":90,"time_elapsed":699553,"internal_node_id":"0.0-4.0-1.41","subject_id":"5fb6ed2116919c000a99249e","study_id":"60edd13110225f80f9f3709b","session_id":"6196c709d965ce1e2b690d7c","condition":"contingent","relevant_dimensions":["pattern","legs"],"bee_group":{"antennae":"X","wings":"X","pattern":"S","legs":"F"},"bonus":1.240000000000001},{"rt":1067.5,"stimulus":"bees-with-color/bee-B1SF.svg","response":1,"trial_type":"image-button-response","trial_index":91,"time_elapsed":700621,"internal_node_id":"0.0-4.0-0.42","subject_id":"5fb6ed2116919c000a99249e","study_id":"60edd13110225f80f9f3709b","session_id":"6196c709d965ce1e2b690d7c","condition":"contingent","relevant_dimensions":["pattern","legs"],"bee_group":{"antennae":"X","wings":"X","pattern":"S","legs":"F"},"action":"avoid","summary":"good-avoid","bonus":1.240000000000001},{"rt":455.2000000476837,"stimulus":"\n                    <p><b>Action: <em>avoid</em></b></p>\n                    <p>This is the bee that you just saw.</p>\n                    <img src=\"bees-with-color/bee-B1SF.svg\" width=\"200\">\n                    <p><br>Your bonus pay is unchanged, and remains at $0.60.</p>\n            ","response":0,"trial_type":"html-button-response","trial_index":92,"time_elapsed":701077,"internal_node_id":"0.0-4.0-1.42","subject_id":"5fb6ed2116919c000a99249e","study_id":"60edd13110225f80f9f3709b","session_id":"6196c709d965ce1e2b690d7c","condition":"contingent","relevant_dimensions":["pattern","legs"],"bee_group":{"antennae":"X","wings":"X","pattern":"S","legs":"F"},"bonus":1.240000000000001},{"rt":663.3999999761581,"stimulus":"bees-with-color/bee-A1SM.svg","response":1,"trial_type":"image-button-response","trial_index":93,"time_elapsed":701741,"internal_node_id":"0.0-4.0-0.43","subject_id":"5fb6ed2116919c000a99249e","study_id":"60edd13110225f80f9f3709b","session_id":"6196c709d965ce1e2b690d7c","condition":"contingent","relevant_dimensions":["pattern","legs"],"bee_group":{"antennae":"X","wings":"X","pattern":"S","legs":"F"},"action":"avoid","summary":"bad-avoid","bonus":1.240000000000001},{"rt":407.89999997615814,"stimulus":"\n                    <p><b>Action: <em>avoid</em></b></p>\n                    <p>This is the bee that you just saw.</p>\n                    <img src=\"bees-with-color/bee-A1SM.svg\" width=\"200\">\n                    <p><br>Your bonus pay is unchanged, and remains at $0.60.</p>\n            ","response":0,"trial_type":"html-button-response","trial_index":94,"time_elapsed":702149,"internal_node_id":"0.0-4.0-1.43","subject_id":"5fb6ed2116919c000a99249e","study_id":"60edd13110225f80f9f3709b","session_id":"6196c709d965ce1e2b690d7c","condition":"contingent","relevant_dimensions":["pattern","legs"],"bee_group":{"antennae":"X","wings":"X","pattern":"S","legs":"F"},"bonus":1.240000000000001},{"rt":717.5,"stimulus":"bees-with-color/bee-A2SF.svg","response":1,"trial_type":"image-button-response","trial_index":95,"time_elapsed":702867,"internal_node_id":"0.0-4.0-0.44","subject_id":"5fb6ed2116919c000a99249e","study_id":"60edd13110225f80f9f3709b","session_id":"6196c709d965ce1e2b690d7c","condition":"contingent","relevant_dimensions":["pattern","legs"],"bee_group":{"antennae":"X","wings":"X","pattern":"S","legs":"F"},"action":"avoid","summary":"good-avoid","bonus":1.240000000000001},{"rt":454,"stimulus":"\n                    <p><b>Action: <em>avoid</em></b></p>\n                    <p>This is the bee that you just saw.</p>\n                    <img src=\"bees-with-color/bee-A2SF.svg\" width=\"200\">\n                    <p><br>Your bonus pay is unchanged, and remains at $0.60.</p>\n            ","response":0,"trial_type":"html-button-response","trial_index":96,"time_elapsed":703322,"internal_node_id":"0.0-4.0-1.44","subject_id":"5fb6ed2116919c000a99249e","study_id":"60edd13110225f80f9f3709b","session_id":"6196c709d965ce1e2b690d7c","condition":"contingent","relevant_dimensions":["pattern","legs"],"bee_group":{"antennae":"X","wings":"X","pattern":"S","legs":"F"},"bonus":1.240000000000001},{"rt":624.8000000715256,"stimulus":"bees-with-color/bee-A2DF.svg","response":0,"trial_type":"image-button-response","trial_index":97,"time_elapsed":703948,"internal_node_id":"0.0-4.0-0.45","subject_id":"5fb6ed2116919c000a99249e","study_id":"60edd13110225f80f9f3709b","session_id":"6196c709d965ce1e2b690d7c","condition":"contingent","relevant_dimensions":["pattern","legs"],"bee_group":{"antennae":"X","wings":"X","pattern":"S","legs":"F"},"action":"harvest","summary":"good-harvest","bonus":1.240000000000001},{"rt":459,"stimulus":"\n                    <p><b>Action: <em>harvest</em></b></p>\n                    <p>This is the bee that you just saw.</p>\n                    <img src=\"bees-with-color/bee-A2DF.svg\" width=\"200\">\n                    <p><span class=\"greenText\"><b>Successful harvest!</b></span><br>Your pay has increased by $0.02. Your bonus pay is now $0.62.</p>\n            ","response":0,"trial_type":"html-button-response","trial_index":98,"time_elapsed":704408,"internal_node_id":"0.0-4.0-1.45","subject_id":"5fb6ed2116919c000a99249e","study_id":"60edd13110225f80f9f3709b","session_id":"6196c709d965ce1e2b690d7c","condition":"contingent","relevant_dimensions":["pattern","legs"],"bee_group":{"antennae":"X","wings":"X","pattern":"S","legs":"F"},"bonus":1.240000000000001},{"rt":537.1999999284744,"stimulus":"bees-with-color/bee-A1DF.svg","response":0,"trial_type":"image-button-response","trial_index":99,"time_elapsed":704946,"internal_node_id":"0.0-4.0-0.46","subject_id":"5fb6ed2116919c000a99249e","study_id":"60edd13110225f80f9f3709b","session_id":"6196c709d965ce1e2b690d7c","condition":"contingent","relevant_dimensions":["pattern","legs"],"bee_group":{"antennae":"X","wings":"X","pattern":"S","legs":"F"},"action":"harvest","summary":"good-harvest","bonus":1.240000000000001},{"rt":460.8000000715256,"stimulus":"\n                    <p><b>Action: <em>harvest</em></b></p>\n                    <p>This is the bee that you just saw.</p>\n                    <img src=\"bees-with-color/bee-A1DF.svg\" width=\"200\">\n                    <p><span class=\"greenText\"><b>Successful harvest!</b></span><br>Your pay has increased by $0.02. Your bonus pay is now $0.64.</p>\n            ","response":0,"trial_type":"html-button-response","trial_index":100,"time_elapsed":705407,"internal_node_id":"0.0-4.0-1.46","subject_id":"5fb6ed2116919c000a99249e","study_id":"60edd13110225f80f9f3709b","session_id":"6196c709d965ce1e2b690d7c","condition":"contingent","relevant_dimensions":["pattern","legs"],"bee_group":{"antennae":"X","wings":"X","pattern":"S","legs":"F"},"bonus":1.240000000000001},{"rt":1027,"stimulus":"bees-with-color/bee-B2SM.svg","response":1,"trial_type":"image-button-response","trial_index":101,"time_elapsed":706435,"internal_node_id":"0.0-4.0-0.47","subject_id":"5fb6ed2116919c000a99249e","study_id":"60edd13110225f80f9f3709b","session_id":"6196c709d965ce1e2b690d7c","condition":"contingent","relevant_dimensions":["pattern","legs"],"bee_group":{"antennae":"X","wings":"X","pattern":"S","legs":"F"},"action":"avoid","summary":"bad-avoid","bonus":1.240000000000001},{"rt":450.5,"stimulus":"\n                    <p><b>Action: <em>avoid</em></b></p>\n                    <p>This is the bee that you just saw.</p>\n                    <img src=\"bees-with-color/bee-B2SM.svg\" width=\"200\">\n                    <p><br>Your bonus pay is unchanged, and remains at $0.64.</p>\n            ","response":0,"trial_type":"html-button-response","trial_index":102,"time_elapsed":706886,"internal_node_id":"0.0-4.0-1.47","subject_id":"5fb6ed2116919c000a99249e","study_id":"60edd13110225f80f9f3709b","session_id":"6196c709d965ce1e2b690d7c","condition":"contingent","relevant_dimensions":["pattern","legs"],"bee_group":{"antennae":"X","wings":"X","pattern":"S","legs":"F"},"bonus":1.240000000000001},{"rt":682.5,"stimulus":"bees-with-color/bee-A1SF.svg","response":1,"trial_type":"image-button-response","trial_index":103,"time_elapsed":707569,"internal_node_id":"0.0-4.0-0.48","subject_id":"5fb6ed2116919c000a99249e","study_id":"60edd13110225f80f9f3709b","session_id":"6196c709d965ce1e2b690d7c","condition":"contingent","relevant_dimensions":["pattern","legs"],"bee_group":{"antennae":"X","wings":"X","pattern":"S","legs":"F"},"action":"avoid","summary":"good-avoid","bonus":1.240000000000001},{"rt":466.10000002384186,"stimulus":"\n                    <p><b>Action: <em>avoid</em></b></p>\n                    <p>This is the bee that you just saw.</p>\n                    <img src=\"bees-with-color/bee-A1SF.svg\" width=\"200\">\n                    <p><br>Your bonus pay is unchanged, and remains at $0.64.</p>\n            ","response":0,"trial_type":"html-button-response","trial_index":104,"time_elapsed":708036,"internal_node_id":"0.0-4.0-1.48","subject_id":"5fb6ed2116919c000a99249e","study_id":"60edd13110225f80f9f3709b","session_id":"6196c709d965ce1e2b690d7c","condition":"contingent","relevant_dimensions":["pattern","legs"],"bee_group":{"antennae":"X","wings":"X","pattern":"S","legs":"F"},"bonus":1.240000000000001},{"rt":687.5,"stimulus":"bees-with-color/bee-B2DM.svg","response":0,"trial_type":"image-button-response","trial_index":105,"time_elapsed":708724,"internal_node_id":"0.0-4.0-0.49","subject_id":"5fb6ed2116919c000a99249e","study_id":"60edd13110225f80f9f3709b","session_id":"6196c709d965ce1e2b690d7c","condition":"contingent","relevant_dimensions":["pattern","legs"],"bee_group":{"antennae":"X","wings":"X","pattern":"S","legs":"F"},"action":"harvest","summary":"good-harvest","bonus":1.240000000000001},{"rt":392.2000000476837,"stimulus":"\n                    <p><b>Action: <em>harvest</em></b></p>\n                    <p>This is the bee that you just saw.</p>\n                    <img src=\"bees-with-color/bee-B2DM.svg\" width=\"200\">\n                    <p><span class=\"greenText\"><b>Successful harvest!</b></span><br>Your pay has increased by $0.02. Your bonus pay is now $0.66.</p>\n            ","response":0,"trial_type":"html-button-response","trial_index":106,"time_elapsed":709117,"internal_node_id":"0.0-4.0-1.49","subject_id":"5fb6ed2116919c000a99249e","study_id":"60edd13110225f80f9f3709b","session_id":"6196c709d965ce1e2b690d7c","condition":"contingent","relevant_dimensions":["pattern","legs"],"bee_group":{"antennae":"X","wings":"X","pattern":"S","legs":"F"},"bonus":1.240000000000001},{"rt":747.6000000238419,"stimulus":"bees-with-color/bee-A2SM.svg","response":1,"trial_type":"image-button-response","trial_index":107,"time_elapsed":709866,"internal_node_id":"0.0-4.0-0.50","subject_id":"5fb6ed2116919c000a99249e","study_id":"60edd13110225f80f9f3709b","session_id":"6196c709d965ce1e2b690d7c","condition":"contingent","relevant_dimensions":["pattern","legs"],"bee_group":{"antennae":"X","wings":"X","pattern":"S","legs":"F"},"action":"avoid","summary":"bad-avoid","bonus":1.240000000000001},{"rt":371.89999997615814,"stimulus":"\n                    <p><b>Action: <em>avoid</em></b></p>\n                    <p>This is the bee that you just saw.</p>\n                    <img src=\"bees-with-color/bee-A2SM.svg\" width=\"200\">\n                    <p><br>Your bonus pay is unchanged, and remains at $0.66.</p>\n            ","response":0,"trial_type":"html-button-response","trial_index":108,"time_elapsed":710238,"internal_node_id":"0.0-4.0-1.50","subject_id":"5fb6ed2116919c000a99249e","study_id":"60edd13110225f80f9f3709b","session_id":"6196c709d965ce1e2b690d7c","condition":"contingent","relevant_dimensions":["pattern","legs"],"bee_group":{"antennae":"X","wings":"X","pattern":"S","legs":"F"},"bonus":1.240000000000001},{"rt":466.5,"stimulus":"bees-with-color/bee-B2SM.svg","response":0,"trial_type":"image-button-response","trial_index":109,"time_elapsed":710705,"internal_node_id":"0.0-4.0-0.51","subject_id":"5fb6ed2116919c000a99249e","study_id":"60edd13110225f80f9f3709b","session_id":"6196c709d965ce1e2b690d7c","condition":"contingent","relevant_dimensions":["pattern","legs"],"bee_group":{"antennae":"X","wings":"X","pattern":"S","legs":"F"},"action":"harvest","summary":"good-harvest","bonus":1.240000000000001},{"rt":3783,"stimulus":"\n                    <p><b>Action: <em>harvest</em></b></p>\n                    <p>This is the bee that you just saw.</p>\n                    <img src=\"bees-with-color/bee-B2SM.svg\" width=\"200\">\n                    <p><span class=\"greenText\"><b>Successful harvest!</b></span><br>Your pay has increased by $0.02. Your bonus pay is now $0.68.</p>\n            ","response":0,"trial_type":"html-button-response","trial_index":110,"time_elapsed":714489,"internal_node_id":"0.0-4.0-1.51","subject_id":"5fb6ed2116919c000a99249e","study_id":"60edd13110225f80f9f3709b","session_id":"6196c709d965ce1e2b690d7c","condition":"contingent","relevant_dimensions":["pattern","legs"],"bee_group":{"antennae":"X","wings":"X","pattern":"S","legs":"F"},"bonus":1.240000000000001},{"rt":1520.1000000238419,"stimulus":"bees-with-color/bee-B2DF.svg","response":0,"trial_type":"image-button-response","trial_index":111,"time_elapsed":716010,"internal_node_id":"0.0-4.0-0.52","subject_id":"5fb6ed2116919c000a99249e","study_id":"60edd13110225f80f9f3709b","session_id":"6196c709d965ce1e2b690d7c","condition":"contingent","relevant_dimensions":["pattern","legs"],"bee_group":{"antennae":"X","wings":"X","pattern":"S","legs":"F"},"action":"harvest","summary":"good-harvest","bonus":1.240000000000001},{"rt":597.2000000476837,"stimulus":"\n                    <p><b>Action: <em>harvest</em></b></p>\n                    <p>This is the bee that you just saw.</p>\n                    <img src=\"bees-with-color/bee-B2DF.svg\" width=\"200\">\n                    <p><span class=\"greenText\"><b>Successful harvest!</b></span><br>Your pay has increased by $0.02. Your bonus pay is now $0.70.</p>\n            ","response":0,"trial_type":"html-button-response","trial_index":112,"time_elapsed":716608,"internal_node_id":"0.0-4.0-1.52","subject_id":"5fb6ed2116919c000a99249e","study_id":"60edd13110225f80f9f3709b","session_id":"6196c709d965ce1e2b690d7c","condition":"contingent","relevant_dimensions":["pattern","legs"],"bee_group":{"antennae":"X","wings":"X","pattern":"S","legs":"F"},"bonus":1.240000000000001},{"rt":5153.400000095367,"stimulus":"bees-with-color/bee-A1SM.svg","response":0,"trial_type":"image-button-response","trial_index":113,"time_elapsed":721763,"internal_node_id":"0.0-4.0-0.53","subject_id":"5fb6ed2116919c000a99249e","study_id":"60edd13110225f80f9f3709b","session_id":"6196c709d965ce1e2b690d7c","condition":"contingent","relevant_dimensions":["pattern","legs"],"bee_group":{"antennae":"X","wings":"X","pattern":"S","legs":"F"},"action":"harvest","summary":"good-harvest","bonus":1.240000000000001},{"rt":66639.79999995232,"stimulus":"\n                    <p><b>Action: <em>harvest</em></b></p>\n                    <p>This is the bee that you just saw.</p>\n                    <img src=\"bees-with-color/bee-A1SM.svg\" width=\"200\">\n                    <p><span class=\"greenText\"><b>Successful harvest!</b></span><br>Your pay has increased by $0.02. Your bonus pay is now $0.72.</p>\n            ","response":0,"trial_type":"html-button-response","trial_index":114,"time_elapsed":788404,"internal_node_id":"0.0-4.0-1.53","subject_id":"5fb6ed2116919c000a99249e","study_id":"60edd13110225f80f9f3709b","session_id":"6196c709d965ce1e2b690d7c","condition":"contingent","relevant_dimensions":["pattern","legs"],"bee_group":{"antennae":"X","wings":"X","pattern":"S","legs":"F"},"bonus":1.240000000000001},{"rt":938.2000000476837,"stimulus":"bees-with-color/bee-B1DM.svg","response":0,"trial_type":"image-button-response","trial_index":115,"time_elapsed":789343,"internal_node_id":"0.0-4.0-0.54","subject_id":"5fb6ed2116919c000a99249e","study_id":"60edd13110225f80f9f3709b","session_id":"6196c709d965ce1e2b690d7c","condition":"contingent","relevant_dimensions":["pattern","legs"],"bee_group":{"antennae":"X","wings":"X","pattern":"S","legs":"F"},"action":"harvest","summary":"good-harvest","bonus":1.240000000000001},{"rt":768.2000000476837,"stimulus":"\n                    <p><b>Action: <em>harvest</em></b></p>\n                    <p>This is the bee that you just saw.</p>\n                    <img src=\"bees-with-color/bee-B1DM.svg\" width=\"200\">\n                    <p><span class=\"greenText\"><b>Successful harvest!</b></span><br>Your pay has increased by $0.02. Your bonus pay is now $0.74.</p>\n            ","response":0,"trial_type":"html-button-response","trial_index":116,"time_elapsed":790112,"internal_node_id":"0.0-4.0-1.54","subject_id":"5fb6ed2116919c000a99249e","study_id":"60edd13110225f80f9f3709b","session_id":"6196c709d965ce1e2b690d7c","condition":"contingent","relevant_dimensions":["pattern","legs"],"bee_group":{"antennae":"X","wings":"X","pattern":"S","legs":"F"},"bonus":1.240000000000001},{"rt":7923.299999952316,"stimulus":"bees-with-color/bee-A2SF.svg","response":0,"trial_type":"image-button-response","trial_index":117,"time_elapsed":798036,"internal_node_id":"0.0-4.0-0.55","subject_id":"5fb6ed2116919c000a99249e","study_id":"60edd13110225f80f9f3709b","session_id":"6196c709d965ce1e2b690d7c","condition":"contingent","relevant_dimensions":["pattern","legs"],"bee_group":{"antennae":"X","wings":"X","pattern":"S","legs":"F"},"action":"harvest","summary":"bad-harvest","bonus":1.240000000000001},{"rt":1073.2000000476837,"stimulus":"\n                    <p><b>Action: <em>harvest</em></b></p>\n                    <p>This is the bee that you just saw.</p>\n                    <img src=\"bees-with-color/bee-A2SF.svg\" width=\"200\">\n                    <p><span class=\"redText\">Bad choice, the bee was angry.</span><br><b>You have been stung!</b><br>Your pay has been decreased by $0.10. Your bonus pay is now $0.64.</p>\n            ","response":0,"trial_type":"html-button-response","trial_index":118,"time_elapsed":799110,"internal_node_id":"0.0-4.0-1.55","subject_id":"5fb6ed2116919c000a99249e","study_id":"60edd13110225f80f9f3709b","session_id":"6196c709d965ce1e2b690d7c","condition":"contingent","relevant_dimensions":["pattern","legs"],"bee_group":{"antennae":"X","wings":"X","pattern":"S","legs":"F"},"bonus":1.240000000000001},{"rt":1425.7999999523163,"stimulus":"bees-with-color/bee-B1DF.svg","response":0,"trial_type":"image-button-response","trial_index":119,"time_elapsed":800537,"internal_node_id":"0.0-4.0-0.56","subject_id":"5fb6ed2116919c000a99249e","study_id":"60edd13110225f80f9f3709b","session_id":"6196c709d965ce1e2b690d7c","condition":"contingent","relevant_dimensions":["pattern","legs"],"bee_group":{"antennae":"X","wings":"X","pattern":"S","legs":"F"},"action":"harvest","summary":"good-harvest","bonus":1.240000000000001},{"rt":519.3000000715256,"stimulus":"\n                    <p><b>Action: <em>harvest</em></b></p>\n                    <p>This is the bee that you just saw.</p>\n                    <img src=\"bees-with-color/bee-B1DF.svg\" width=\"200\">\n                    <p><span class=\"greenText\"><b>Successful harvest!</b></span><br>Your pay has increased by $0.02. Your bonus pay is now $0.66.</p>\n            ","response":0,"trial_type":"html-button-response","trial_index":120,"time_elapsed":801057,"internal_node_id":"0.0-4.0-1.56","subject_id":"5fb6ed2116919c000a99249e","study_id":"60edd13110225f80f9f3709b","session_id":"6196c709d965ce1e2b690d7c","condition":"contingent","relevant_dimensions":["pattern","legs"],"bee_group":{"antennae":"X","wings":"X","pattern":"S","legs":"F"},"bonus":1.240000000000001},{"rt":1200.3999999761581,"stimulus":"bees-with-color/bee-B1SF.svg","response":1,"trial_type":"image-button-response","trial_index":121,"time_elapsed":802258,"internal_node_id":"0.0-4.0-0.57","subject_id":"5fb6ed2116919c000a99249e","study_id":"60edd13110225f80f9f3709b","session_id":"6196c709d965ce1e2b690d7c","condition":"contingent","relevant_dimensions":["pattern","legs"],"bee_group":{"antennae":"X","wings":"X","pattern":"S","legs":"F"},"action":"avoid","summary":"good-avoid","bonus":1.240000000000001},{"rt":469.2000000476837,"stimulus":"\n                    <p><b>Action: <em>avoid</em></b></p>\n                    <p>This is the bee that you just saw.</p>\n                    <img src=\"bees-with-color/bee-B1SF.svg\" width=\"200\">\n                    <p><br>Your bonus pay is unchanged, and remains at $0.66.</p>\n            ","response":0,"trial_type":"html-button-response","trial_index":122,"time_elapsed":802728,"internal_node_id":"0.0-4.0-1.57","subject_id":"5fb6ed2116919c000a99249e","study_id":"60edd13110225f80f9f3709b","session_id":"6196c709d965ce1e2b690d7c","condition":"contingent","relevant_dimensions":["pattern","legs"],"bee_group":{"antennae":"X","wings":"X","pattern":"S","legs":"F"},"bonus":1.240000000000001},{"rt":1598.2000000476837,"stimulus":"bees-with-color/bee-B1SM.svg","response":0,"trial_type":"image-button-response","trial_index":123,"time_elapsed":804327,"internal_node_id":"0.0-4.0-0.58","subject_id":"5fb6ed2116919c000a99249e","study_id":"60edd13110225f80f9f3709b","session_id":"6196c709d965ce1e2b690d7c","condition":"contingent","relevant_dimensions":["pattern","legs"],"bee_group":{"antennae":"X","wings":"X","pattern":"S","legs":"F"},"action":"harvest","summary":"good-harvest","bonus":1.240000000000001},{"rt":522.7999999523163,"stimulus":"\n                    <p><b>Action: <em>harvest</em></b></p>\n                    <p>This is the bee that you just saw.</p>\n                    <img src=\"bees-with-color/bee-B1SM.svg\" width=\"200\">\n                    <p><span class=\"greenText\"><b>Successful harvest!</b></span><br>Your pay has increased by $0.02. Your bonus pay is now $0.68.</p>\n            ","response":0,"trial_type":"html-button-response","trial_index":124,"time_elapsed":804851,"internal_node_id":"0.0-4.0-1.58","subject_id":"5fb6ed2116919c000a99249e","study_id":"60edd13110225f80f9f3709b","session_id":"6196c709d965ce1e2b690d7c","condition":"contingent","relevant_dimensions":["pattern","legs"],"bee_group":{"antennae":"X","wings":"X","pattern":"S","legs":"F"},"bonus":1.240000000000001},{"rt":1248.5,"stimulus":"bees-with-color/bee-A2DM.svg","response":0,"trial_type":"image-button-response","trial_index":125,"time_elapsed":806100,"internal_node_id":"0.0-4.0-0.59","subject_id":"5fb6ed2116919c000a99249e","study_id":"60edd13110225f80f9f3709b","session_id":"6196c709d965ce1e2b690d7c","condition":"contingent","relevant_dimensions":["pattern","legs"],"bee_group":{"antennae":"X","wings":"X","pattern":"S","legs":"F"},"action":"harvest","summary":"good-harvest","bonus":1.240000000000001},{"rt":421.1999999284744,"stimulus":"\n                    <p><b>Action: <em>harvest</em></b></p>\n                    <p>This is the bee that you just saw.</p>\n                    <img src=\"bees-with-color/bee-A2DM.svg\" width=\"200\">\n                    <p><span class=\"greenText\"><b>Successful harvest!</b></span><br>Your pay has increased by $0.02. Your bonus pay is now $0.70.</p>\n            ","response":0,"trial_type":"html-button-response","trial_index":126,"time_elapsed":806522,"internal_node_id":"0.0-4.0-1.59","subject_id":"5fb6ed2116919c000a99249e","study_id":"60edd13110225f80f9f3709b","session_id":"6196c709d965ce1e2b690d7c","condition":"contingent","relevant_dimensions":["pattern","legs"],"bee_group":{"antennae":"X","wings":"X","pattern":"S","legs":"F"},"bonus":1.240000000000001},{"rt":686.8999999761581,"stimulus":"bees-with-color/bee-A1DM.svg","response":0,"trial_type":"image-button-response","trial_index":127,"time_elapsed":807210,"internal_node_id":"0.0-4.0-0.60","subject_id":"5fb6ed2116919c000a99249e","study_id":"60edd13110225f80f9f3709b","session_id":"6196c709d965ce1e2b690d7c","condition":"contingent","relevant_dimensions":["pattern","legs"],"bee_group":{"antennae":"X","wings":"X","pattern":"S","legs":"F"},"action":"harvest","summary":"good-harvest","bonus":1.240000000000001},{"rt":504.60000002384186,"stimulus":"\n                    <p><b>Action: <em>harvest</em></b></p>\n                    <p>This is the bee that you just saw.</p>\n                    <img src=\"bees-with-color/bee-A1DM.svg\" width=\"200\">\n                    <p><span class=\"greenText\"><b>Successful harvest!</b></span><br>Your pay has increased by $0.02. Your bonus pay is now $0.72.</p>\n            ","response":0,"trial_type":"html-button-response","trial_index":128,"time_elapsed":807715,"internal_node_id":"0.0-4.0-1.60","subject_id":"5fb6ed2116919c000a99249e","study_id":"60edd13110225f80f9f3709b","session_id":"6196c709d965ce1e2b690d7c","condition":"contingent","relevant_dimensions":["pattern","legs"],"bee_group":{"antennae":"X","wings":"X","pattern":"S","legs":"F"},"bonus":1.240000000000001},{"rt":1664.2000000476837,"stimulus":"bees-with-color/bee-A2DF.svg","response":0,"trial_type":"image-button-response","trial_index":129,"time_elapsed":809380,"internal_node_id":"0.0-4.0-0.61","subject_id":"5fb6ed2116919c000a99249e","study_id":"60edd13110225f80f9f3709b","session_id":"6196c709d965ce1e2b690d7c","condition":"contingent","relevant_dimensions":["pattern","legs"],"bee_group":{"antennae":"X","wings":"X","pattern":"S","legs":"F"},"action":"harvest","summary":"good-harvest","bonus":1.240000000000001},{"rt":564.3000000715256,"stimulus":"\n                    <p><b>Action: <em>harvest</em></b></p>\n                    <p>This is the bee that you just saw.</p>\n                    <img src=\"bees-with-color/bee-A2DF.svg\" width=\"200\">\n                    <p><span class=\"greenText\"><b>Successful harvest!</b></span><br>Your pay has increased by $0.02. Your bonus pay is now $0.74.</p>\n            ","response":0,"trial_type":"html-button-response","trial_index":130,"time_elapsed":809945,"internal_node_id":"0.0-4.0-1.61","subject_id":"5fb6ed2116919c000a99249e","study_id":"60edd13110225f80f9f3709b","session_id":"6196c709d965ce1e2b690d7c","condition":"contingent","relevant_dimensions":["pattern","legs"],"bee_group":{"antennae":"X","wings":"X","pattern":"S","legs":"F"},"bonus":1.240000000000001},{"rt":880.3000000715256,"stimulus":"bees-with-color/bee-A1DF.svg","response":0,"trial_type":"image-button-response","trial_index":131,"time_elapsed":810826,"internal_node_id":"0.0-4.0-0.62","subject_id":"5fb6ed2116919c000a99249e","study_id":"60edd13110225f80f9f3709b","session_id":"6196c709d965ce1e2b690d7c","condition":"contingent","relevant_dimensions":["pattern","legs"],"bee_group":{"antennae":"X","wings":"X","pattern":"S","legs":"F"},"action":"harvest","summary":"good-harvest","bonus":1.240000000000001},{"rt":468.5,"stimulus":"\n                    <p><b>Action: <em>harvest</em></b></p>\n                    <p>This is the bee that you just saw.</p>\n                    <img src=\"bees-with-color/bee-A1DF.svg\" width=\"200\">\n                    <p><span class=\"greenText\"><b>Successful harvest!</b></span><br>Your pay has increased by $0.02. Your bonus pay is now $0.76.</p>\n            ","response":0,"trial_type":"html-button-response","trial_index":132,"time_elapsed":811295,"internal_node_id":"0.0-4.0-1.62","subject_id":"5fb6ed2116919c000a99249e","study_id":"60edd13110225f80f9f3709b","session_id":"6196c709d965ce1e2b690d7c","condition":"contingent","relevant_dimensions":["pattern","legs"],"bee_group":{"antennae":"X","wings":"X","pattern":"S","legs":"F"},"bonus":1.240000000000001},{"rt":1311.1000000238419,"stimulus":"bees-with-color/bee-B2SF.svg","response":1,"trial_type":"image-button-response","trial_index":133,"time_elapsed":812607,"internal_node_id":"0.0-4.0-0.63","subject_id":"5fb6ed2116919c000a99249e","study_id":"60edd13110225f80f9f3709b","session_id":"6196c709d965ce1e2b690d7c","condition":"contingent","relevant_dimensions":["pattern","legs"],"bee_group":{"antennae":"X","wings":"X","pattern":"S","legs":"F"},"action":"avoid","summary":"good-avoid","bonus":1.240000000000001},{"rt":500.5,"stimulus":"\n                    <p><b>Action: <em>avoid</em></b></p>\n                    <p>This is the bee that you just saw.</p>\n                    <img src=\"bees-with-color/bee-B2SF.svg\" width=\"200\">\n                    <p><br>Your bonus pay is unchanged, and remains at $0.76.</p>\n            ","response":0,"trial_type":"html-button-response","trial_index":134,"time_elapsed":813108,"internal_node_id":"0.0-4.0-1.63","subject_id":"5fb6ed2116919c000a99249e","study_id":"60edd13110225f80f9f3709b","session_id":"6196c709d965ce1e2b690d7c","condition":"contingent","relevant_dimensions":["pattern","legs"],"bee_group":{"antennae":"X","wings":"X","pattern":"S","legs":"F"},"bonus":1.240000000000001},{"rt":11145.600000023842,"stimulus":"You have completed the first part of this experiment.<br><br>You will now begin a shorter second part, in which you will receive no feedback.<br>The same rules regarding bonus pay apply.<br><br>Press any key to begin.","response":" ","trial_type":"html-keyboard-response","trial_index":135,"time_elapsed":824255,"internal_node_id":"0.0-5.0","subject_id":"5fb6ed2116919c000a99249e","study_id":"60edd13110225f80f9f3709b","session_id":"6196c709d965ce1e2b690d7c","condition":"contingent","relevant_dimensions":["pattern","legs"],"bee_group":{"antennae":"X","wings":"X","pattern":"S","legs":"F"},"bonus":1.240000000000001},{"rt":1605,"stimulus":"bees-with-color/bee-B2DM.svg","response":0,"trial_type":"image-button-response","trial_index":136,"time_elapsed":825865,"internal_node_id":"0.0-6.0-0.0","subject_id":"5fb6ed2116919c000a99249e","study_id":"60edd13110225f80f9f3709b","session_id":"6196c709d965ce1e2b690d7c","condition":"contingent","relevant_dimensions":["pattern","legs"],"bee_group":{"antennae":"X","wings":"X","pattern":"S","legs":"F"},"bonus":1.240000000000001},{"rt":1962.1000000238419,"stimulus":"bees-with-color/bee-A2DM.svg","response":0,"trial_type":"image-button-response","trial_index":137,"time_elapsed":827828,"internal_node_id":"0.0-6.0-0.1","subject_id":"5fb6ed2116919c000a99249e","study_id":"60edd13110225f80f9f3709b","session_id":"6196c709d965ce1e2b690d7c","condition":"contingent","relevant_dimensions":["pattern","legs"],"bee_group":{"antennae":"X","wings":"X","pattern":"S","legs":"F"},"bonus":1.240000000000001},{"rt":3242.1999999284744,"stimulus":"bees-with-color/bee-A1SM.svg","response":0,"trial_type":"image-button-response","trial_index":138,"time_elapsed":831071,"internal_node_id":"0.0-6.0-0.2","subject_id":"5fb6ed2116919c000a99249e","study_id":"60edd13110225f80f9f3709b","session_id":"6196c709d965ce1e2b690d7c","condition":"contingent","relevant_dimensions":["pattern","legs"],"bee_group":{"antennae":"X","wings":"X","pattern":"S","legs":"F"},"bonus":1.240000000000001},{"rt":1032.5,"stimulus":"bees-with-color/bee-B1SF.svg","response":1,"trial_type":"image-button-response","trial_index":139,"time_elapsed":832105,"internal_node_id":"0.0-6.0-0.3","subject_id":"5fb6ed2116919c000a99249e","study_id":"60edd13110225f80f9f3709b","session_id":"6196c709d965ce1e2b690d7c","condition":"contingent","relevant_dimensions":["pattern","legs"],"bee_group":{"antennae":"X","wings":"X","pattern":"S","legs":"F"},"bonus":1.240000000000001},{"rt":1055.3999999761581,"stimulus":"bees-with-color/bee-B1SM.svg","response":0,"trial_type":"image-button-response","trial_index":140,"time_elapsed":833162,"internal_node_id":"0.0-6.0-0.4","subject_id":"5fb6ed2116919c000a99249e","study_id":"60edd13110225f80f9f3709b","session_id":"6196c709d965ce1e2b690d7c","condition":"contingent","relevant_dimensions":["pattern","legs"],"bee_group":{"antennae":"X","wings":"X","pattern":"S","legs":"F"},"bonus":1.240000000000001},{"rt":794,"stimulus":"bees-with-color/bee-B1DF.svg","response":0,"trial_type":"image-button-response","trial_index":141,"time_elapsed":833957,"internal_node_id":"0.0-6.0-0.5","subject_id":"5fb6ed2116919c000a99249e","study_id":"60edd13110225f80f9f3709b","session_id":"6196c709d965ce1e2b690d7c","condition":"contingent","relevant_dimensions":["pattern","legs"],"bee_group":{"antennae":"X","wings":"X","pattern":"S","legs":"F"},"bonus":1.240000000000001},{"rt":660.6000000238419,"stimulus":"bees-with-color/bee-A2DF.svg","response":0,"trial_type":"image-button-response","trial_index":142,"time_elapsed":834619,"internal_node_id":"0.0-6.0-0.6","subject_id":"5fb6ed2116919c000a99249e","study_id":"60edd13110225f80f9f3709b","session_id":"6196c709d965ce1e2b690d7c","condition":"contingent","relevant_dimensions":["pattern","legs"],"bee_group":{"antennae":"X","wings":"X","pattern":"S","legs":"F"},"bonus":1.240000000000001},{"rt":909.3999999761581,"stimulus":"bees-with-color/bee-A2SF.svg","response":1,"trial_type":"image-button-response","trial_index":143,"time_elapsed":835530,"internal_node_id":"0.0-6.0-0.7","subject_id":"5fb6ed2116919c000a99249e","study_id":"60edd13110225f80f9f3709b","session_id":"6196c709d965ce1e2b690d7c","condition":"contingent","relevant_dimensions":["pattern","legs"],"bee_group":{"antennae":"X","wings":"X","pattern":"S","legs":"F"},"bonus":1.240000000000001},{"rt":716.3999999761581,"stimulus":"bees-with-color/bee-A1DF.svg","response":0,"trial_type":"image-button-response","trial_index":144,"time_elapsed":836247,"internal_node_id":"0.0-6.0-0.8","subject_id":"5fb6ed2116919c000a99249e","study_id":"60edd13110225f80f9f3709b","session_id":"6196c709d965ce1e2b690d7c","condition":"contingent","relevant_dimensions":["pattern","legs"],"bee_group":{"antennae":"X","wings":"X","pattern":"S","legs":"F"},"bonus":1.240000000000001},{"rt":1173,"stimulus":"bees-with-color/bee-B2SF.svg","response":1,"trial_type":"image-button-response","trial_index":145,"time_elapsed":837421,"internal_node_id":"0.0-6.0-0.9","subject_id":"5fb6ed2116919c000a99249e","study_id":"60edd13110225f80f9f3709b","session_id":"6196c709d965ce1e2b690d7c","condition":"contingent","relevant_dimensions":["pattern","legs"],"bee_group":{"antennae":"X","wings":"X","pattern":"S","legs":"F"},"bonus":1.240000000000001},{"rt":995.8999999761581,"stimulus":"bees-with-color/bee-B2DF.svg","response":0,"trial_type":"image-button-response","trial_index":146,"time_elapsed":838418,"internal_node_id":"0.0-6.0-0.10","subject_id":"5fb6ed2116919c000a99249e","study_id":"60edd13110225f80f9f3709b","session_id":"6196c709d965ce1e2b690d7c","condition":"contingent","relevant_dimensions":["pattern","legs"],"bee_group":{"antennae":"X","wings":"X","pattern":"S","legs":"F"},"bonus":1.240000000000001},{"rt":959.3999999761581,"stimulus":"bees-with-color/bee-A1SF.svg","response":1,"trial_type":"image-button-response","trial_index":147,"time_elapsed":839378,"internal_node_id":"0.0-6.0-0.11","subject_id":"5fb6ed2116919c000a99249e","study_id":"60edd13110225f80f9f3709b","session_id":"6196c709d965ce1e2b690d7c","condition":"contingent","relevant_dimensions":["pattern","legs"],"bee_group":{"antennae":"X","wings":"X","pattern":"S","legs":"F"},"bonus":1.240000000000001},{"rt":865.6000000238419,"stimulus":"bees-with-color/bee-B2SM.svg","response":0,"trial_type":"image-button-response","trial_index":148,"time_elapsed":840245,"internal_node_id":"0.0-6.0-0.12","subject_id":"5fb6ed2116919c000a99249e","study_id":"60edd13110225f80f9f3709b","session_id":"6196c709d965ce1e2b690d7c","condition":"contingent","relevant_dimensions":["pattern","legs"],"bee_group":{"antennae":"X","wings":"X","pattern":"S","legs":"F"},"bonus":1.240000000000001},{"rt":1063.6999999284744,"stimulus":"bees-with-color/bee-B1DM.svg","response":0,"trial_type":"image-button-response","trial_index":149,"time_elapsed":841310,"internal_node_id":"0.0-6.0-0.13","subject_id":"5fb6ed2116919c000a99249e","study_id":"60edd13110225f80f9f3709b","session_id":"6196c709d965ce1e2b690d7c","condition":"contingent","relevant_dimensions":["pattern","legs"],"bee_group":{"antennae":"X","wings":"X","pattern":"S","legs":"F"},"bonus":1.240000000000001},{"rt":1148.2999999523163,"stimulus":"bees-with-color/bee-A2SM.svg","response":0,"trial_type":"image-button-response","trial_index":150,"time_elapsed":842459,"internal_node_id":"0.0-6.0-0.14","subject_id":"5fb6ed2116919c000a99249e","study_id":"60edd13110225f80f9f3709b","session_id":"6196c709d965ce1e2b690d7c","condition":"contingent","relevant_dimensions":["pattern","legs"],"bee_group":{"antennae":"X","wings":"X","pattern":"S","legs":"F"},"bonus":1.240000000000001},{"rt":1960.2000000476837,"stimulus":"bees-with-color/bee-A1DM.svg","response":0,"trial_type":"image-button-response","trial_index":151,"time_elapsed":844420,"internal_node_id":"0.0-6.0-0.15","subject_id":"5fb6ed2116919c000a99249e","study_id":"60edd13110225f80f9f3709b","session_id":"6196c709d965ce1e2b690d7c","condition":"contingent","relevant_dimensions":["pattern","legs"],"bee_group":{"antennae":"X","wings":"X","pattern":"S","legs":"F"},"bonus":1.240000000000001},{"rt":4102.100000023842,"stimulus":"bees-with-color/bee-B1SF.svg","response":1,"trial_type":"image-button-response","trial_index":152,"time_elapsed":848523,"internal_node_id":"0.0-6.0-0.16","subject_id":"5fb6ed2116919c000a99249e","study_id":"60edd13110225f80f9f3709b","session_id":"6196c709d965ce1e2b690d7c","condition":"contingent","relevant_dimensions":["pattern","legs"],"bee_group":{"antennae":"X","wings":"X","pattern":"S","legs":"F"},"bonus":1.240000000000001},{"rt":1428.6999999284744,"stimulus":"bees-with-color/bee-B1SM.svg","response":0,"trial_type":"image-button-response","trial_index":153,"time_elapsed":849953,"internal_node_id":"0.0-6.0-0.17","subject_id":"5fb6ed2116919c000a99249e","study_id":"60edd13110225f80f9f3709b","session_id":"6196c709d965ce1e2b690d7c","condition":"contingent","relevant_dimensions":["pattern","legs"],"bee_group":{"antennae":"X","wings":"X","pattern":"S","legs":"F"},"bonus":1.240000000000001},{"rt":883.7000000476837,"stimulus":"bees-with-color/bee-A1SF.svg","response":1,"trial_type":"image-button-response","trial_index":154,"time_elapsed":850838,"internal_node_id":"0.0-6.0-0.18","subject_id":"5fb6ed2116919c000a99249e","study_id":"60edd13110225f80f9f3709b","session_id":"6196c709d965ce1e2b690d7c","condition":"contingent","relevant_dimensions":["pattern","legs"],"bee_group":{"antennae":"X","wings":"X","pattern":"S","legs":"F"},"bonus":1.240000000000001},{"rt":1102,"stimulus":"bees-with-color/bee-A2DM.svg","response":0,"trial_type":"image-button-response","trial_index":155,"time_elapsed":851941,"internal_node_id":"0.0-6.0-0.19","subject_id":"5fb6ed2116919c000a99249e","study_id":"60edd13110225f80f9f3709b","session_id":"6196c709d965ce1e2b690d7c","condition":"contingent","relevant_dimensions":["pattern","legs"],"bee_group":{"antennae":"X","wings":"X","pattern":"S","legs":"F"},"bonus":1.240000000000001},{"rt":589.8999999761581,"stimulus":"bees-with-color/bee-B2DF.svg","response":0,"trial_type":"image-button-response","trial_index":156,"time_elapsed":852533,"internal_node_id":"0.0-6.0-0.20","subject_id":"5fb6ed2116919c000a99249e","study_id":"60edd13110225f80f9f3709b","session_id":"6196c709d965ce1e2b690d7c","condition":"contingent","relevant_dimensions":["pattern","legs"],"bee_group":{"antennae":"X","wings":"X","pattern":"S","legs":"F"},"bonus":1.240000000000001},{"rt":984.5,"stimulus":"bees-with-color/bee-A2SM.svg","response":0,"trial_type":"image-button-response","trial_index":157,"time_elapsed":853519,"internal_node_id":"0.0-6.0-0.21","subject_id":"5fb6ed2116919c000a99249e","study_id":"60edd13110225f80f9f3709b","session_id":"6196c709d965ce1e2b690d7c","condition":"contingent","relevant_dimensions":["pattern","legs"],"bee_group":{"antennae":"X","wings":"X","pattern":"S","legs":"F"},"bonus":1.240000000000001},{"rt":762.2000000476837,"stimulus":"bees-with-color/bee-B2DM.svg","response":0,"trial_type":"image-button-response","trial_index":158,"time_elapsed":854282,"internal_node_id":"0.0-6.0-0.22","subject_id":"5fb6ed2116919c000a99249e","study_id":"60edd13110225f80f9f3709b","session_id":"6196c709d965ce1e2b690d7c","condition":"contingent","relevant_dimensions":["pattern","legs"],"bee_group":{"antennae":"X","wings":"X","pattern":"S","legs":"F"},"bonus":1.240000000000001},{"rt":692.1999999284744,"stimulus":"bees-with-color/bee-A1DM.svg","response":0,"trial_type":"image-button-response","trial_index":159,"time_elapsed":854975,"internal_node_id":"0.0-6.0-0.23","subject_id":"5fb6ed2116919c000a99249e","study_id":"60edd13110225f80f9f3709b","session_id":"6196c709d965ce1e2b690d7c","condition":"contingent","relevant_dimensions":["pattern","legs"],"bee_group":{"antennae":"X","wings":"X","pattern":"S","legs":"F"},"bonus":1.240000000000001},{"rt":741.6000000238419,"stimulus":"bees-with-color/bee-B1DF.svg","response":0,"trial_type":"image-button-response","trial_index":160,"time_elapsed":855718,"internal_node_id":"0.0-6.0-0.24","subject_id":"5fb6ed2116919c000a99249e","study_id":"60edd13110225f80f9f3709b","session_id":"6196c709d965ce1e2b690d7c","condition":"contingent","relevant_dimensions":["pattern","legs"],"bee_group":{"antennae":"X","wings":"X","pattern":"S","legs":"F"},"bonus":1.240000000000001},{"rt":541.2000000476837,"stimulus":"bees-with-color/bee-A1DF.svg","response":0,"trial_type":"image-button-response","trial_index":161,"time_elapsed":856260,"internal_node_id":"0.0-6.0-0.25","subject_id":"5fb6ed2116919c000a99249e","study_id":"60edd13110225f80f9f3709b","session_id":"6196c709d965ce1e2b690d7c","condition":"contingent","relevant_dimensions":["pattern","legs"],"bee_group":{"antennae":"X","wings":"X","pattern":"S","legs":"F"},"bonus":1.240000000000001},{"rt":555,"stimulus":"bees-with-color/bee-A2DF.svg","response":0,"trial_type":"image-button-response","trial_index":162,"time_elapsed":856816,"internal_node_id":"0.0-6.0-0.26","subject_id":"5fb6ed2116919c000a99249e","study_id":"60edd13110225f80f9f3709b","session_id":"6196c709d965ce1e2b690d7c","condition":"contingent","relevant_dimensions":["pattern","legs"],"bee_group":{"antennae":"X","wings":"X","pattern":"S","legs":"F"},"bonus":1.240000000000001},{"rt":7414,"stimulus":"bees-with-color/bee-B2SM.svg","response":0,"trial_type":"image-button-response","trial_index":163,"time_elapsed":864231,"internal_node_id":"0.0-6.0-0.27","subject_id":"5fb6ed2116919c000a99249e","study_id":"60edd13110225f80f9f3709b","session_id":"6196c709d965ce1e2b690d7c","condition":"contingent","relevant_dimensions":["pattern","legs"],"bee_group":{"antennae":"X","wings":"X","patt