[{"success":true,"trial_type":"fullscreen","trial_index":0,"time_elapsed":6498,"internal_node_id":"0.0-0.0","subject_id":"602e763eef81ce9e57528e1e","study_id":"6197b3f67c2b5cd3b6d9596a","session_id":"619be78a3e491fd14ab1f22c","condition":"full-information","relevant_dimensions":["wings","legs"],"bee_group":{"antennae":"X","wings":"2","pattern":"X","legs":"F"},"bonus":0.06},{"success":true,"timeout":false,"failed_images":[],"failed_audio":[],"failed_video":[],"trial_type":"preload","trial_index":1,"time_elapsed":10031,"internal_node_id":"0.0-1.0","subject_id":"602e763eef81ce9e57528e1e","study_id":"6197b3f67c2b5cd3b6d9596a","session_id":"619be78a3e491fd14ab1f22c","condition":"full-information","relevant_dimensions":["wings","legs"],"bee_group":{"antennae":"X","wings":"2","pattern":"X","legs":"F"},"bonus":0.06},{"rt":4252.5,"stimulus":"Welcome! Press any key to begin.","response":" ","trial_type":"html-keyboard-response","trial_index":2,"time_elapsed":14284,"internal_node_id":"0.0-2.0","subject_id":"602e763eef81ce9e57528e1e","study_id":"6197b3f67c2b5cd3b6d9596a","session_id":"619be78a3e491fd14ab1f22c","condition":"full-information","relevant_dimensions":["wings","legs"],"bee_group":{"antennae":"X","wings":"2","pattern":"X","legs":"F"},"bonus":0.06},{"view_history":[{"page_index":0,"viewing_time":8595.5},{"page_index":1,"viewing_time":65346.700000047684},{"page_index":2,"viewing_time":17392.299999952316},{"page_index":3,"viewing_time":17893},{"page_index":4,"viewing_time":7077.799999952316},{"page_index":5,"viewing_time":10731.800000071526},{"page_index":6,"viewing_time":13771.5},{"page_index":7,"viewing_time":6384.799999952316},{"page_index":8,"viewing_time":3675.8000000715256},{"page_index":9,"viewing_time":5750.199999928474},{"page_index":10,"viewing_time":22239.800000071526},{"page_index":11,"viewing_time":10648.199999928474},{"page_index":12,"viewing_time":17300},{"page_index":13,"viewing_time":1376.1000000238419},{"page_index":14,"viewing_time":3081.899999976158}],"rt":211265.60000002384,"trial_type":"instructions","trial_index":3,"time_elapsed":225550,"internal_node_id":"0.0-3.0-0.0","subject_id":"602e763eef81ce9e57528e1e","study_id":"6197b3f67c2b5cd3b6d9596a","session_id":"619be78a3e491fd14ab1f22c","condition":"full-information","relevant_dimensions":["wings","legs"],"bee_group":{"antennae":"X","wings":"2","pattern":"X","legs":"F"},"bonus":0.06},{"rt":21544.199999928474,"response":{"Q0":["Two or six legs","Stripes or spots on body","Single or double wings","Antennae or no antennae"]},"question_order":[0],"trial_type":"survey-multi-select","trial_index":4,"time_elapsed":247097,"internal_node_id":"0.0-3.0-1.0","subject_id":"602e763eef81ce9e57528e1e","study_id":"6197b3f67c2b5cd3b6d9596a","session_id":"619be78a3e491fd14ab1f22c","condition":"full-information","relevant_dimensions":["wings","legs"],"bee_group":{"antennae":"X","wings":"2","pattern":"X","legs":"F"},"correct":true,"bonus":0.06},{"rt":32598.899999976158,"response":{"Q1":"No.","Q2":"Based on the four features of the bee.","Q3":"You do not learn if it was friendly or dangerous, and do not alter your bonus."},"question_order":[0,1,2],"trial_type":"survey-multi-choice","trial_index":5,"time_elapsed":279697,"internal_node_id":"0.0-3.0-2.0","subject_id":"602e763eef81ce9e57528e1e","study_id":"6197b3f67c2b5cd3b6d9596a","session_id":"619be78a3e491fd14ab1f22c","condition":"full-information","relevant_dimensions":["wings","legs"],"bee_group":{"antennae":"X","wings":"2","pattern":"X","legs":"F"},"correct":false,"bonus":0.06},{"rt":4339.200000047684,"stimulus":"<p>You did not answer all comprehension questions correctly.<br>Press <b>continue</b> to review the instructions again.</p>","response":0,"trial_type":"html-button-response","trial_index":6,"time_elapsed":284038,"internal_node_id":"0.0-3.0-3.0","subject_id":"602e763eef81ce9e57528e1e","study_id":"6197b3f67c2b5cd3b6d9596a","session_id":"619be78a3e491fd14ab1f22c","condition":"full-information","relevant_dimensions":["wings","legs"],"bee_group":{"antennae":"X","wings":"2","pattern":"X","legs":"F"},"bonus":0.06},{"view_history":[{"page_index":0,"viewing_time":6768.799999952316},{"page_index":1,"viewing_time":24718},{"page_index":2,"viewing_time":18633.899999976158},{"page_index":3,"viewing_time":26925.600000023842},{"page_index":4,"viewing_time":11094.700000047684},{"page_index":5,"viewing_time":17627.699999928474},{"page_index":6,"viewing_time":19882.700000047684},{"page_index":7,"viewing_time":6081.399999976158},{"page_index":8,"viewing_time":13124.200000047684},{"page_index":9,"viewing_time":3781.899999976158},{"page_index":10,"viewing_time":13382},{"page_index":11,"viewing_time":19775.899999976158},{"page_index":12,"viewing_time":24834},{"page_index":13,"viewing_time":1561.8000000715256},{"page_index":14,"viewing_time":2134.2999999523163}],"rt":210327.10000002384,"trial_type":"instructions","trial_index":7,"time_elapsed":494366,"internal_node_id":"0.0-3.0-4.0-0.0","subject_id":"602e763eef81ce9e57528e1e","study_id":"6197b3f67c2b5cd3b6d9596a","session_id":"619be78a3e491fd14ab1f22c","condition":"full-information","relevant_dimensions":["wings","legs"],"bee_group":{"antennae":"X","wings":"2","pattern":"X","legs":"F"},"bonus":0.06},{"rt":22099.299999952316,"response":{"Q0":["Two or six legs","Stripes or spots on body","Single or double wings","Antennae or no antennae"]},"question_order":[0],"trial_type":"survey-multi-select","trial_index":8,"time_elapsed":516468,"internal_node_id":"0.0-3.0-4.0-1.0","subject_id":"602e763eef81ce9e57528e1e","study_id":"6197b3f67c2b5cd3b6d9596a","session_id":"619be78a3e491fd14ab1f22c","condition":"full-information","relevant_dimensions":["wings","legs"],"bee_group":{"antennae":"X","wings":"2","pattern":"X","legs":"F"},"correct":true,"bonus":0.06},{"rt":33908.39999997616,"response":{"Q1":"No.","Q2":"Based on the four features of the bee.","Q3":"You learn if it was friendly or dangerous, but do not alter your bonus."},"question_order":[0,1,2],"trial_type":"survey-multi-choice","trial_index":9,"time_elapsed":550378,"internal_node_id":"0.0-3.0-4.0-2.0","subject_id":"602e763eef81ce9e57528e1e","study_id":"6197b3f67c2b5cd3b6d9596a","session_id":"619be78a3e491fd14ab1f22c","condition":"full-information","relevant_dimensions":["wings","legs"],"bee_group":{"antennae":"X","wings":"2","pattern":"X","legs":"F"},"correct":true,"bonus":0.06},{"rt":1318.1000000238419,"stimulus":"<p>Congrats, you got everything right<br>When you're ready, click the button below to continue to the experiment.</p>","response":0,"trial_type":"html-button-response","trial_index":10,"time_elapsed":551698,"internal_node_id":"0.0-3.0-4.0-3.0","subject_id":"602e763eef81ce9e57528e1e","study_id":"6197b3f67c2b5cd3b6d9596a","session_id":"619be78a3e491fd14ab1f22c","condition":"full-information","relevant_dimensions":["wings","legs"],"bee_group":{"antennae":"X","wings":"2","pattern":"X","legs":"F"},"bonus":0.06},{"rt":5598.300000071526,"stimulus":"bees-with-color/bee-A1DF.svg","response":0,"trial_type":"image-button-response","trial_index":11,"time_elapsed":557298,"internal_node_id":"0.0-4.0-0.0","subject_id":"602e763eef81ce9e57528e1e","study_id":"6197b3f67c2b5cd3b6d9596a","session_id":"619be78a3e491fd14ab1f22c","condition":"full-information","relevant_dimensions":["wings","legs"],"bee_group":{"antennae":"X","wings":"2","pattern":"X","legs":"F"},"action":"harvest","summary":"good-harvest","bonus":0.06},{"rt":5092.200000047684,"stimulus":"\n                    <p><b>Action: <em>harvest</em></b></p>\n                    <p>This is the bee that you just saw.</p>\n                    <img src=\"bees-with-color/bee-A1DF.svg\" width=\"200\">\n                    <p><span class=\"greenText\"><b>Successful harvest!</b></span><br>Your pay has increased by $0.02. Your bonus pay is now $0.56.</p>\n            ","response":0,"trial_type":"html-button-response","trial_index":12,"time_elapsed":562392,"internal_node_id":"0.0-4.0-1.0","subject_id":"602e763eef81ce9e57528e1e","study_id":"6197b3f67c2b5cd3b6d9596a","session_id":"619be78a3e491fd14ab1f22c","condition":"full-information","relevant_dimensions":["wings","legs"],"bee_group":{"antennae":"X","wings":"2","pattern":"X","legs":"F"},"bonus":0.06},{"rt":4800.299999952316,"stimulus":"bees-with-color/bee-A2SM.svg","response":0,"trial_type":"image-button-response","trial_index":13,"time_elapsed":567194,"internal_node_id":"0.0-4.0-0.1","subject_id":"602e763eef81ce9e57528e1e","study_id":"6197b3f67c2b5cd3b6d9596a","session_id":"619be78a3e491fd14ab1f22c","condition":"full-information","relevant_dimensions":["wings","legs"],"bee_group":{"antennae":"X","wings":"2","pattern":"X","legs":"F"},"action":"harvest","summary":"good-harvest","bonus":0.06},{"rt":1996.7000000476837,"stimulus":"\n                    <p><b>Action: <em>harvest</em></b></p>\n                    <p>This is the bee that you just saw.</p>\n                    <img src=\"bees-with-color/bee-A2SM.svg\" width=\"200\">\n                    <p><span class=\"greenText\"><b>Successful harvest!</b></span><br>Your pay has increased by $0.02. Your bonus pay is now $0.58.</p>\n            ","response":0,"trial_type":"html-button-response","trial_index":14,"time_elapsed":569192,"internal_node_id":"0.0-4.0-1.1","subject_id":"602e763eef81ce9e57528e1e","study_id":"6197b3f67c2b5cd3b6d9596a","session_id":"619be78a3e491fd14ab1f22c","condition":"full-information","relevant_dimensions":["wings","legs"],"bee_group":{"antennae":"X","wings":"2","pattern":"X","legs":"F"},"bonus":0.06},{"rt":4996.399999976158,"stimulus":"bees-with-color/bee-B2DF.svg","response":1,"trial_type":"image-button-response","trial_index":15,"time_elapsed":574190,"internal_node_id":"0.0-4.0-0.2","subject_id":"602e763eef81ce9e57528e1e","study_id":"6197b3f67c2b5cd3b6d9596a","session_id":"619be78a3e491fd14ab1f22c","condition":"full-information","relevant_dimensions":["wings","legs"],"bee_group":{"antennae":"X","wings":"2","pattern":"X","legs":"F"},"action":"avoid","summary":"good-avoid","bonus":0.06},{"rt":10994.099999904633,"stimulus":"\n                    <p><b>Action: <em>avoid</em></b></p>\n                    <p>This is the bee that you just saw.</p>\n                    <img src=\"bees-with-color/bee-B2DF.svg\" width=\"200\">\n                    <p><span class=\"greenText\">Good choice!</span>  This bee would have stung you.<br>Your bonus pay is unchanged, and remains at $0.58.</p>\n            ","response":0,"trial_type":"html-button-response","trial_index":16,"time_elapsed":585185,"internal_node_id":"0.0-4.0-1.2","subject_id":"602e763eef81ce9e57528e1e","study_id":"6197b3f67c2b5cd3b6d9596a","session_id":"619be78a3e491fd14ab1f22c","condition":"full-information","relevant_dimensions":["wings","legs"],"bee_group":{"antennae":"X","wings":"2","pattern":"X","legs":"F"},"bonus":0.06},{"rt":5985.200000047684,"stimulus":"bees-with-color/bee-B2SF.svg","response":0,"trial_type":"image-button-response","trial_index":17,"time_elapsed":591171,"internal_node_id":"0.0-4.0-0.3","subject_id":"602e763eef81ce9e57528e1e","study_id":"6197b3f67c2b5cd3b6d9596a","session_id":"619be78a3e491fd14ab1f22c","condition":"full-information","relevant_dimensions":["wings","legs"],"bee_group":{"antennae":"X","wings":"2","pattern":"X","legs":"F"},"action":"harvest","summary":"bad-harvest","bonus":0.06},{"rt":6415.200000047684,"stimulus":"\n                    <p><b>Action: <em>harvest</em></b></p>\n                    <p>This is the bee that you just saw.</p>\n                    <img src=\"bees-with-color/bee-B2SF.svg\" width=\"200\">\n                    <p><span class=\"redText\">Bad choice, the bee was angry.</span><br><b>You have been stung!</b><br>Your pay has been decreased by $0.10. Your bonus pay is now $0.48.</p>\n            ","response":0,"trial_type":"html-button-response","trial_index":18,"time_elapsed":597588,"internal_node_id":"0.0-4.0-1.3","subject_id":"602e763eef81ce9e57528e1e","study_id":"6197b3f67c2b5cd3b6d9596a","session_id":"619be78a3e491fd14ab1f22c","condition":"full-information","relevant_dimensions":["wings","legs"],"bee_group":{"antennae":"X","wings":"2","pattern":"X","legs":"F"},"bonus":0.06},{"rt":4034.600000023842,"stimulus":"bees-with-color/bee-A1SM.svg","response":0,"trial_type":"image-button-response","trial_index":19,"time_elapsed":601624,"internal_node_id":"0.0-4.0-0.4","subject_id":"602e763eef81ce9e57528e1e","study_id":"6197b3f67c2b5cd3b6d9596a","session_id":"619be78a3e491fd14ab1f22c","condition":"full-information","relevant_dimensions":["wings","legs"],"bee_group":{"antennae":"X","wings":"2","pattern":"X","legs":"F"},"action":"harvest","summary":"good-harvest","bonus":0.06},{"rt":1862.7000000476837,"stimulus":"\n                    <p><b>Action: <em>harvest</em></b></p>\n                    <p>This is the bee that you just saw.</p>\n                    <img src=\"bees-with-color/bee-A1SM.svg\" width=\"200\">\n                    <p><span class=\"greenText\"><b>Successful harvest!</b></span><br>Your pay has increased by $0.02. Your bonus pay is now $0.50.</p>\n            ","response":0,"trial_type":"html-button-response","trial_index":20,"time_elapsed":603488,"internal_node_id":"0.0-4.0-1.4","subject_id":"602e763eef81ce9e57528e1e","study_id":"6197b3f67c2b5cd3b6d9596a","session_id":"619be78a3e491fd14ab1f22c","condition":"full-information","relevant_dimensions":["wings","legs"],"bee_group":{"antennae":"X","wings":"2","pattern":"X","legs":"F"},"bonus":0.06},{"rt":4038.2999999523163,"stimulus":"bees-with-color/bee-A1DM.svg","response":0,"trial_type":"image-button-response","trial_index":21,"time_elapsed":607528,"internal_node_id":"0.0-4.0-0.5","subject_id":"602e763eef81ce9e57528e1e","study_id":"6197b3f67c2b5cd3b6d9596a","session_id":"619be78a3e491fd14ab1f22c","condition":"full-information","relevant_dimensions":["wings","legs"],"bee_group":{"antennae":"X","wings":"2","pattern":"X","legs":"F"},"action":"harvest","summary":"good-harvest","bonus":0.06},{"rt":1497,"stimulus":"\n                    <p><b>Action: <em>harvest</em></b></p>\n                    <p>This is the bee that you just saw.</p>\n                    <img src=\"bees-with-color/bee-A1DM.svg\" width=\"200\">\n                    <p><span class=\"greenText\"><b>Successful harvest!</b></span><br>Your pay has increased by $0.02. Your bonus pay is now $0.52.</p>\n            ","response":0,"trial_type":"html-button-response","trial_index":22,"time_elapsed":609025,"internal_node_id":"0.0-4.0-1.5","subject_id":"602e763eef81ce9e57528e1e","study_id":"6197b3f67c2b5cd3b6d9596a","session_id":"619be78a3e491fd14ab1f22c","condition":"full-information","relevant_dimensions":["wings","legs"],"bee_group":{"antennae":"X","wings":"2","pattern":"X","legs":"F"},"bonus":0.06},{"rt":1532.5,"stimulus":"bees-with-color/bee-B2SM.svg","response":1,"trial_type":"image-button-response","trial_index":23,"time_elapsed":610560,"internal_node_id":"0.0-4.0-0.6","subject_id":"602e763eef81ce9e57528e1e","study_id":"6197b3f67c2b5cd3b6d9596a","session_id":"619be78a3e491fd14ab1f22c","condition":"full-information","relevant_dimensions":["wings","legs"],"bee_group":{"antennae":"X","wings":"2","pattern":"X","legs":"F"},"action":"avoid","summary":"bad-avoid","bonus":0.06},{"rt":12654.600000023842,"stimulus":"\n                    <p><b>Action: <em>avoid</em></b></p>\n                    <p>This is the bee that you just saw.</p>\n                    <img src=\"bees-with-color/bee-B2SM.svg\" width=\"200\">\n                    <p><span class=\"redText\">Bad choice,</span> the bee was friendly.<br>Your bonus pay is unchanged, and remains at $0.52.</p>\n            ","response":0,"trial_type":"html-button-response","trial_index":24,"time_elapsed":623215,"internal_node_id":"0.0-4.0-1.6","subject_id":"602e763eef81ce9e57528e1e","study_id":"6197b3f67c2b5cd3b6d9596a","session_id":"619be78a3e491fd14ab1f22c","condition":"full-information","relevant_dimensions":["wings","legs"],"bee_group":{"antennae":"X","wings":"2","pattern":"X","legs":"F"},"bonus":0.06},{"rt":2988.5,"stimulus":"bees-with-color/bee-B2DM.svg","response":1,"trial_type":"image-button-response","trial_index":25,"time_elapsed":626205,"internal_node_id":"0.0-4.0-0.7","subject_id":"602e763eef81ce9e57528e1e","study_id":"6197b3f67c2b5cd3b6d9596a","session_id":"619be78a3e491fd14ab1f22c","condition":"full-information","relevant_dimensions":["wings","legs"],"bee_group":{"antennae":"X","wings":"2","pattern":"X","legs":"F"},"action":"avoid","summary":"bad-avoid","bonus":0.06},{"rt":5466.899999976158,"stimulus":"\n                    <p><b>Action: <em>avoid</em></b></p>\n                    <p>This is the bee that you just saw.</p>\n                    <img src=\"bees-with-color/bee-B2DM.svg\" width=\"200\">\n                    <p><span class=\"redText\">Bad choice,</span> the bee was friendly.<br>Your bonus pay is unchanged, and remains at $0.52.</p>\n            ","response":0,"trial_type":"html-button-response","trial_index":26,"time_elapsed":631673,"internal_node_id":"0.0-4.0-1.7","subject_id":"602e763eef81ce9e57528e1e","study_id":"6197b3f67c2b5cd3b6d9596a","session_id":"619be78a3e491fd14ab1f22c","condition":"full-information","relevant_dimensions":["wings","legs"],"bee_group":{"antennae":"X","wings":"2","pattern":"X","legs":"F"},"bonus":0.06},{"rt":2202.399999976158,"stimulus":"bees-with-color/bee-A1SF.svg","response":0,"trial_type":"image-button-response","trial_index":27,"time_elapsed":633877,"internal_node_id":"0.0-4.0-0.8","subject_id":"602e763eef81ce9e57528e1e","study_id":"6197b3f67c2b5cd3b6d9596a","session_id":"619be78a3e491fd14ab1f22c","condition":"full-information","relevant_dimensions":["wings","legs"],"bee_group":{"antennae":"X","wings":"2","pattern":"X","legs":"F"},"action":"harvest","summary":"good-harvest","bonus":0.06},{"rt":1593.1000000238419,"stimulus":"\n                    <p><b>Action: <em>harvest</em></b></p>\n                    <p>This is the bee that you just saw.</p>\n                    <img src=\"bees-with-color/bee-A1SF.svg\" width=\"200\">\n                    <p><span class=\"greenText\"><b>Successful harvest!</b></span><br>Your pay has increased by $0.02. Your bonus pay is now $0.54.</p>\n            ","response":0,"trial_type":"html-button-response","trial_index":28,"time_elapsed":635471,"internal_node_id":"0.0-4.0-1.8","subject_id":"602e763eef81ce9e57528e1e","study_id":"6197b3f67c2b5cd3b6d9596a","session_id":"619be78a3e491fd14ab1f22c","condition":"full-information","relevant_dimensions":["wings","legs"],"bee_group":{"antennae":"X","wings":"2","pattern":"X","legs":"F"},"bonus":0.06},{"rt":1427,"stimulus":"bees-with-color/bee-A2SF.svg","response":0,"trial_type":"image-button-response","trial_index":29,"time_elapsed":636899,"internal_node_id":"0.0-4.0-0.9","subject_id":"602e763eef81ce9e57528e1e","study_id":"6197b3f67c2b5cd3b6d9596a","session_id":"619be78a3e491fd14ab1f22c","condition":"full-information","relevant_dimensions":["wings","legs"],"bee_group":{"antennae":"X","wings":"2","pattern":"X","legs":"F"},"action":"harvest","summary":"bad-harvest","bonus":0.06},{"rt":7655.100000023842,"stimulus":"\n                    <p><b>Action: <em>harvest</em></b></p>\n                    <p>This is the bee that you just saw.</p>\n                    <img src=\"bees-with-color/bee-A2SF.svg\" width=\"200\">\n                    <p><span class=\"redText\">Bad choice, the bee was angry.</span><br><b>You have been stung!</b><br>Your pay has been decreased by $0.10. Your bonus pay is now $0.44.</p>\n            ","response":0,"trial_type":"html-button-response","trial_index":30,"time_elapsed":644555,"internal_node_id":"0.0-4.0-1.9","subject_id":"602e763eef81ce9e57528e1e","study_id":"6197b3f67c2b5cd3b6d9596a","session_id":"619be78a3e491fd14ab1f22c","condition":"full-information","relevant_dimensions":["wings","legs"],"bee_group":{"antennae":"X","wings":"2","pattern":"X","legs":"F"},"bonus":0.06},{"rt":2686.7000000476837,"stimulus":"bees-with-color/bee-A2DM.svg","response":1,"trial_type":"image-button-response","trial_index":31,"time_elapsed":647243,"internal_node_id":"0.0-4.0-0.10","subject_id":"602e763eef81ce9e57528e1e","study_id":"6197b3f67c2b5cd3b6d9596a","session_id":"619be78a3e491fd14ab1f22c","condition":"full-information","relevant_dimensions":["wings","legs"],"bee_group":{"antennae":"X","wings":"2","pattern":"X","legs":"F"},"action":"avoid","summary":"bad-avoid","bonus":0.06},{"rt":4789,"stimulus":"\n                    <p><b>Action: <em>avoid</em></b></p>\n                    <p>This is the bee that you just saw.</p>\n                    <img src=\"bees-with-color/bee-A2DM.svg\" width=\"200\">\n                    <p><span class=\"redText\">Bad choice,</span> the bee was friendly.<br>Your bonus pay is unchanged, and remains at $0.44.</p>\n            ","response":0,"trial_type":"html-button-response","trial_index":32,"time_elapsed":652033,"internal_node_id":"0.0-4.0-1.10","subject_id":"602e763eef81ce9e57528e1e","study_id":"6197b3f67c2b5cd3b6d9596a","session_id":"619be78a3e491fd14ab1f22c","condition":"full-information","relevant_dimensions":["wings","legs"],"bee_group":{"antennae":"X","wings":"2","pattern":"X","legs":"F"},"bonus":0.06},{"rt":8513.600000023842,"stimulus":"bees-with-color/bee-A2DF.svg","response":0,"trial_type":"image-button-response","trial_index":33,"time_elapsed":660548,"internal_node_id":"0.0-4.0-0.11","subject_id":"602e763eef81ce9e57528e1e","study_id":"6197b3f67c2b5cd3b6d9596a","session_id":"619be78a3e491fd14ab1f22c","condition":"full-information","relevant_dimensions":["wings","legs"],"bee_group":{"antennae":"X","wings":"2","pattern":"X","legs":"F"},"action":"harvest","summary":"bad-harvest","bonus":0.06},{"rt":1816.4000000953674,"stimulus":"\n                    <p><b>Action: <em>harvest</em></b></p>\n                    <p>This is the bee that you just saw.</p>\n                    <img src=\"bees-with-color/bee-A2DF.svg\" width=\"200\">\n                    <p><span class=\"redText\">Bad choice, the bee was angry.</span><br><b>You have been stung!</b><br>Your pay has been decreased by $0.10. Your bonus pay is now $0.34.</p>\n            ","response":0,"trial_type":"html-button-response","trial_index":34,"time_elapsed":662366,"internal_node_id":"0.0-4.0-1.11","subject_id":"602e763eef81ce9e57528e1e","study_id":"6197b3f67c2b5cd3b6d9596a","session_id":"619be78a3e491fd14ab1f22c","condition":"full-information","relevant_dimensions":["wings","legs"],"bee_group":{"antennae":"X","wings":"2","pattern":"X","legs":"F"},"bonus":0.06},{"rt":2086.7000000476837,"stimulus":"bees-with-color/bee-B1SM.svg","response":1,"trial_type":"image-button-response","trial_index":35,"time_elapsed":664453,"internal_node_id":"0.0-4.0-0.12","subject_id":"602e763eef81ce9e57528e1e","study_id":"6197b3f67c2b5cd3b6d9596a","session_id":"619be78a3e491fd14ab1f22c","condition":"full-information","relevant_dimensions":["wings","legs"],"bee_group":{"antennae":"X","wings":"2","pattern":"X","legs":"F"},"action":"avoid","summary":"bad-avoid","bonus":0.06},{"rt":4804.799999952316,"stimulus":"\n                    <p><b>Action: <em>avoid</em></b></p>\n                    <p>This is the bee that you just saw.</p>\n                    <img src=\"bees-with-color/bee-B1SM.svg\" width=\"200\">\n                    <p><span class=\"redText\">Bad choice,</span> the bee was friendly.<br>Your bonus pay is unchanged, and remains at $0.34.</p>\n            ","response":0,"trial_type":"html-button-response","trial_index":36,"time_elapsed":669259,"internal_node_id":"0.0-4.0-1.12","subject_id":"602e763eef81ce9e57528e1e","study_id":"6197b3f67c2b5cd3b6d9596a","session_id":"619be78a3e491fd14ab1f22c","condition":"full-information","relevant_dimensions":["wings","legs"],"bee_group":{"antennae":"X","wings":"2","pattern":"X","legs":"F"},"bonus":0.06},{"rt":2774.899999976158,"stimulus":"bees-with-color/bee-B1SF.svg","response":1,"trial_type":"image-button-response","trial_index":37,"time_elapsed":672035,"internal_node_id":"0.0-4.0-0.13","subject_id":"602e763eef81ce9e57528e1e","study_id":"6197b3f67c2b5cd3b6d9596a","session_id":"619be78a3e491fd14ab1f22c","condition":"full-information","relevant_dimensions":["wings","legs"],"bee_group":{"antennae":"X","wings":"2","pattern":"X","legs":"F"},"action":"avoid","summary":"bad-avoid","bonus":0.06},{"rt":2130.6999999284744,"stimulus":"\n                    <p><b>Action: <em>avoid</em></b></p>\n                    <p>This is the bee that you just saw.</p>\n                    <img src=\"bees-with-color/bee-B1SF.svg\" width=\"200\">\n                    <p><span class=\"redText\">Bad choice,</span> the bee was friendly.<br>Your bonus pay is unchanged, and remains at $0.34.</p>\n            ","response":0,"trial_type":"html-button-response","trial_index":38,"time_elapsed":674167,"internal_node_id":"0.0-4.0-1.13","subject_id":"602e763eef81ce9e57528e1e","study_id":"6197b3f67c2b5cd3b6d9596a","session_id":"619be78a3e491fd14ab1f22c","condition":"full-information","relevant_dimensions":["wings","legs"],"bee_group":{"antennae":"X","wings":"2","pattern":"X","legs":"F"},"bonus":0.06},{"rt":2434.5,"stimulus":"bees-with-color/bee-B1DM.svg","response":0,"trial_type":"image-button-response","trial_index":39,"time_elapsed":676603,"internal_node_id":"0.0-4.0-0.14","subject_id":"602e763eef81ce9e57528e1e","study_id":"6197b3f67c2b5cd3b6d9596a","session_id":"619be78a3e491fd14ab1f22c","condition":"full-information","relevant_dimensions":["wings","legs"],"bee_group":{"antennae":"X","wings":"2","pattern":"X","legs":"F"},"action":"harvest","summary":"good-harvest","bonus":0.06},{"rt":1365,"stimulus":"\n                    <p><b>Action: <em>harvest</em></b></p>\n                    <p>This is the bee that you just saw.</p>\n                    <img src=\"bees-with-color/bee-B1DM.svg\" width=\"200\">\n                    <p><span class=\"greenText\"><b>Successful harvest!</b></span><br>Your pay has increased by $0.02. Your bonus pay is now $0.36.</p>\n            ","response":0,"trial_type":"html-button-response","trial_index":40,"time_elapsed":677969,"internal_node_id":"0.0-4.0-1.14","subject_id":"602e763eef81ce9e57528e1e","study_id":"6197b3f67c2b5cd3b6d9596a","session_id":"619be78a3e491fd14ab1f22c","condition":"full-information","relevant_dimensions":["wings","legs"],"bee_group":{"antennae":"X","wings":"2","pattern":"X","legs":"F"},"bonus":0.06},{"rt":1347,"stimulus":"bees-with-color/bee-B1DF.svg","response":0,"trial_type":"image-button-response","trial_index":41,"time_elapsed":679318,"internal_node_id":"0.0-4.0-0.15","subject_id":"602e763eef81ce9e57528e1e","study_id":"6197b3f67c2b5cd3b6d9596a","session_id":"619be78a3e491fd14ab1f22c","condition":"full-information","relevant_dimensions":["wings","legs"],"bee_group":{"antennae":"X","wings":"2","pattern":"X","legs":"F"},"action":"harvest","summary":"good-harvest","bonus":0.06},{"rt":1274.8000000715256,"stimulus":"\n                    <p><b>Action: <em>harvest</em></b></p>\n                    <p>This is the bee that you just saw.</p>\n                    <img src=\"bees-with-color/bee-B1DF.svg\" width=\"200\">\n                    <p><span class=\"greenText\"><b>Successful harvest!</b></span><br>Your pay has increased by $0.02. Your bonus pay is now $0.38.</p>\n            ","response":0,"trial_type":"html-button-response","trial_index":42,"time_elapsed":680593,"internal_node_id":"0.0-4.0-1.15","subject_id":"602e763eef81ce9e57528e1e","study_id":"6197b3f67c2b5cd3b6d9596a","session_id":"619be78a3e491fd14ab1f22c","condition":"full-information","relevant_dimensions":["wings","legs"],"bee_group":{"antennae":"X","wings":"2","pattern":"X","legs":"F"},"bonus":0.06},{"rt":1936.8000000715256,"stimulus":"bees-with-color/bee-B2DF.svg","response":0,"trial_type":"image-button-response","trial_index":43,"time_elapsed":682532,"internal_node_id":"0.0-4.0-0.16","subject_id":"602e763eef81ce9e57528e1e","study_id":"6197b3f67c2b5cd3b6d9596a","session_id":"619be78a3e491fd14ab1f22c","condition":"full-information","relevant_dimensions":["wings","legs"],"bee_group":{"antennae":"X","wings":"2","pattern":"X","legs":"F"},"action":"harvest","summary":"bad-harvest","bonus":0.06},{"rt":1365.7999999523163,"stimulus":"\n                    <p><b>Action: <em>harvest</em></b></p>\n                    <p>This is the bee that you just saw.</p>\n                    <img src=\"bees-with-color/bee-B2DF.svg\" width=\"200\">\n                    <p><span class=\"redText\">Bad choice, the bee was angry.</span><br><b>You have been stung!</b><br>Your pay has been decreased by $0.10. Your bonus pay is now $0.28.</p>\n            ","response":0,"trial_type":"html-button-response","trial_index":44,"time_elapsed":683898,"internal_node_id":"0.0-4.0-1.16","subject_id":"602e763eef81ce9e57528e1e","study_id":"6197b3f67c2b5cd3b6d9596a","session_id":"619be78a3e491fd14ab1f22c","condition":"full-information","relevant_dimensions":["wings","legs"],"bee_group":{"antennae":"X","wings":"2","pattern":"X","legs":"F"},"bonus":0.06},{"rt":4157.799999952316,"stimulus":"bees-with-color/bee-A2SM.svg","response":0,"trial_type":"image-button-response","trial_index":45,"time_elapsed":688057,"internal_node_id":"0.0-4.0-0.17","subject_id":"602e763eef81ce9e57528e1e","study_id":"6197b3f67c2b5cd3b6d9596a","session_id":"619be78a3e491fd14ab1f22c","condition":"full-information","relevant_dimensions":["wings","legs"],"bee_group":{"antennae":"X","wings":"2","pattern":"X","legs":"F"},"action":"harvest","summary":"good-harvest","bonus":0.06},{"rt":1019.2999999523163,"stimulus":"\n                    <p><b>Action: <em>harvest</em></b></p>\n                    <p>This is the bee that you just saw.</p>\n                    <img src=\"bees-with-color/bee-A2SM.svg\" width=\"200\">\n                    <p><span class=\"greenText\"><b>Successful harvest!</b></span><br>Your pay has increased by $0.02. Your bonus pay is now $0.30.</p>\n            ","response":0,"trial_type":"html-button-response","trial_index":46,"time_elapsed":689078,"internal_node_id":"0.0-4.0-1.17","subject_id":"602e763eef81ce9e57528e1e","study_id":"6197b3f67c2b5cd3b6d9596a","session_id":"619be78a3e491fd14ab1f22c","condition":"full-information","relevant_dimensions":["wings","legs"],"bee_group":{"antennae":"X","wings":"2","pattern":"X","legs":"F"},"bonus":0.06},{"rt":2974.399999976158,"stimulus":"bees-with-color/bee-B2SM.svg","response":0,"trial_type":"image-button-response","trial_index":47,"time_elapsed":692054,"internal_node_id":"0.0-4.0-0.18","subject_id":"602e763eef81ce9e57528e1e","study_id":"6197b3f67c2b5cd3b6d9596a","session_id":"619be78a3e491fd14ab1f22c","condition":"full-information","relevant_dimensions":["wings","legs"],"bee_group":{"antennae":"X","wings":"2","pattern":"X","legs":"F"},"action":"harvest","summary":"good-harvest","bonus":0.06},{"rt":688.7000000476837,"stimulus":"\n                    <p><b>Action: <em>harvest</em></b></p>\n                    <p>This is the bee that you just saw.</p>\n                    <img src=\"bees-with-color/bee-B2SM.svg\" width=\"200\">\n                    <p><span class=\"greenText\"><b>Successful harvest!</b></span><br>Your pay has increased by $0.02. Your bonus pay is now $0.32.</p>\n            ","response":0,"trial_type":"html-button-response","trial_index":48,"time_elapsed":692743,"internal_node_id":"0.0-4.0-1.18","subject_id":"602e763eef81ce9e57528e1e","study_id":"6197b3f67c2b5cd3b6d9596a","session_id":"619be78a3e491fd14ab1f22c","condition":"full-information","relevant_dimensions":["wings","legs"],"bee_group":{"antennae":"X","wings":"2","pattern":"X","legs":"F"},"bonus":0.06},{"rt":4186.800000071526,"stimulus":"bees-with-color/bee-B1SF.svg","response":1,"trial_type":"image-button-response","trial_index":49,"time_elapsed":696932,"internal_node_id":"0.0-4.0-0.19","subject_id":"602e763eef81ce9e57528e1e","study_id":"6197b3f67c2b5cd3b6d9596a","session_id":"619be78a3e491fd14ab1f22c","condition":"full-information","relevant_dimensions":["wings","legs"],"bee_group":{"antennae":"X","wings":"2","pattern":"X","legs":"F"},"action":"avoid","summary":"bad-avoid","bonus":0.06},{"rt":1546.8000000715256,"stimulus":"\n                    <p><b>Action: <em>avoid</em></b></p>\n                    <p>This is the bee that you just saw.</p>\n                    <img src=\"bees-with-color/bee-B1SF.svg\" width=\"200\">\n                    <p><span class=\"redText\">Bad choice,</span> the bee was friendly.<br>Your bonus pay is unchanged, and remains at $0.32.</p>\n            ","response":0,"trial_type":"html-button-response","trial_index":50,"time_elapsed":698480,"internal_node_id":"0.0-4.0-1.19","subject_id":"602e763eef81ce9e57528e1e","study_id":"6197b3f67c2b5cd3b6d9596a","session_id":"619be78a3e491fd14ab1f22c","condition":"full-information","relevant_dimensions":["wings","legs"],"bee_group":{"antennae":"X","wings":"2","pattern":"X","legs":"F"},"bonus":0.06},{"rt":1722.7000000476837,"stimulus":"bees-with-color/bee-B2SF.svg","response":0,"trial_type":"image-button-response","trial_index":51,"time_elapsed":700203,"internal_node_id":"0.0-4.0-0.20","subject_id":"602e763eef81ce9e57528e1e","study_id":"6197b3f67c2b5cd3b6d9596a","session_id":"619be78a3e491fd14ab1f22c","condition":"full-information","relevant_dimensions":["wings","legs"],"bee_group":{"antennae":"X","wings":"2","pattern":"X","legs":"F"},"action":"harvest","summary":"bad-harvest","bonus":0.06},{"rt":1173.2999999523163,"stimulus":"\n                    <p><b>Action: <em>harvest</em></b></p>\n                    <p>This is the bee that you just saw.</p>\n                    <img src=\"bees-with-color/bee-B2SF.svg\" width=\"200\">\n                    <p><span class=\"redText\">Bad choice, the bee was angry.</span><br><b>You have been stung!</b><br>Your pay has been decreased by $0.10. Your bonus pay is now $0.22.</p>\n            ","response":0,"trial_type":"html-button-response","trial_index":52,"time_elapsed":701378,"internal_node_id":"0.0-4.0-1.20","subject_id":"602e763eef81ce9e57528e1e","study_id":"6197b3f67c2b5cd3b6d9596a","session_id":"619be78a3e491fd14ab1f22c","condition":"full-information","relevant_dimensions":["wings","legs"],"bee_group":{"antennae":"X","wings":"2","pattern":"X","legs":"F"},"bonus":0.06},{"rt":23121,"stimulus":"bees-with-color/bee-A1SF.svg","response":0,"trial_type":"image-button-response","trial_index":53,"time_elapsed":724499,"internal_node_id":"0.0-4.0-0.21","subject_id":"602e763eef81ce9e57528e1e","study_id":"6197b3f67c2b5cd3b6d9596a","session_id":"619be78a3e491fd14ab1f22c","condition":"full-information","relevant_dimensions":["wings","legs"],"bee_group":{"antennae":"X","wings":"2","pattern":"X","legs":"F"},"action":"harvest","summary":"good-harvest","bonus":0.06},{"rt":2299,"stimulus":"\n                    <p><b>Action: <em>harvest</em></b></p>\n                    <p>This is the bee that you just saw.</p>\n                    <img src=\"bees-with-color/bee-A1SF.svg\" width=\"200\">\n                    <p><span class=\"greenText\"><b>Successful harvest!</b></span><br>Your pay has increased by $0.02. Your bonus pay is now $0.24.</p>\n            ","response":0,"trial_type":"html-button-response","trial_index":54,"time_elapsed":726799,"internal_node_id":"0.0-4.0-1.21","subject_id":"602e763eef81ce9e57528e1e","study_id":"6197b3f67c2b5cd3b6d9596a","session_id":"619be78a3e491fd14ab1f22c","condition":"full-information","relevant_dimensions":["wings","legs"],"bee_group":{"antennae":"X","wings":"2","pattern":"X","legs":"F"},"bonus":0.06},{"rt":2072.7999999523163,"stimulus":"bees-with-color/bee-A2DM.svg","response":0,"trial_type":"image-button-response","trial_index":55,"time_elapsed":728873,"internal_node_id":"0.0-4.0-0.22","subject_id":"602e763eef81ce9e57528e1e","study_id":"6197b3f67c2b5cd3b6d9596a","session_id":"619be78a3e491fd14ab1f22c","condition":"full-information","relevant_dimensions":["wings","legs"],"bee_group":{"antennae":"X","wings":"2","pattern":"X","legs":"F"},"action":"harvest","summary":"good-harvest","bonus":0.06},{"rt":1240.8999999761581,"stimulus":"\n                    <p><b>Action: <em>harvest</em></b></p>\n                    <p>This is the bee that you just saw.</p>\n                    <img src=\"bees-with-color/bee-A2DM.svg\" width=\"200\">\n                    <p><span class=\"greenText\"><b>Successful harvest!</b></span><br>Your pay has increased by $0.02. Your bonus pay is now $0.26.</p>\n            ","response":0,"trial_type":"html-button-response","trial_index":56,"time_elapsed":730115,"internal_node_id":"0.0-4.0-1.22","subject_id":"602e763eef81ce9e57528e1e","study_id":"6197b3f67c2b5cd3b6d9596a","session_id":"619be78a3e491fd14ab1f22c","condition":"full-information","relevant_dimensions":["wings","legs"],"bee_group":{"antennae":"X","wings":"2","pattern":"X","legs":"F"},"bonus":0.06},{"rt":19460.700000047684,"stimulus":"bees-with-color/bee-B1DF.svg","response":0,"trial_type":"image-button-response","trial_index":57,"time_elapsed":749577,"internal_node_id":"0.0-4.0-0.23","subject_id":"602e763eef81ce9e57528e1e","study_id":"6197b3f67c2b5cd3b6d9596a","session_id":"619be78a3e491fd14ab1f22c","condition":"full-information","relevant_dimensions":["wings","legs"],"bee_group":{"antennae":"X","wings":"2","pattern":"X","legs":"F"},"action":"harvest","summary":"good-harvest","bonus":0.06},{"rt":6233.200000047684,"stimulus":"\n                    <p><b>Action: <em>harvest</em></b></p>\n                    <p>This is the bee that you just saw.</p>\n                    <img src=\"bees-with-color/bee-B1DF.svg\" width=\"200\">\n                    <p><span class=\"greenText\"><b>Successful harvest!</b></span><br>Your pay has increased by $0.02. Your bonus pay is now $0.28.</p>\n            ","response":0,"trial_type":"html-button-response","trial_index":58,"time_elapsed":755812,"internal_node_id":"0.0-4.0-1.23","subject_id":"602e763eef81ce9e57528e1e","study_id":"6197b3f67c2b5cd3b6d9596a","session_id":"619be78a3e491fd14ab1f22c","condition":"full-information","relevant_dimensions":["wings","legs"],"bee_group":{"antennae":"X","wings":"2","pattern":"X","legs":"F"},"bonus":0.06},{"rt":3316.5,"stimulus":"bees-with-color/bee-A2SF.svg","response":1,"trial_type":"image-button-response","trial_index":59,"time_elapsed":759129,"internal_node_id":"0.0-4.0-0.24","subject_id":"602e763eef81ce9e57528e1e","study_id":"6197b3f67c2b5cd3b6d9596a","session_id":"619be78a3e491fd14ab1f22c","condition":"full-information","relevant_dimensions":["wings","legs"],"bee_group":{"antennae":"X","wings":"2","pattern":"X","legs":"F"},"action":"avoid","summary":"good-avoid","bonus":0.06},{"rt":2278.6999999284744,"stimulus":"\n                    <p><b>Action: <em>avoid</em></b></p>\n                    <p>This is the bee that you just saw.</p>\n                    <img src=\"bees-with-color/bee-A2SF.svg\" width=\"200\">\n                    <p><span class=\"greenText\">Good choice!</span>  This bee would have stung you.<br>Your bonus pay is unchanged, and remains at $0.28.</p>\n            ","response":0,"trial_type":"html-button-response","trial_index":60,"time_elapsed":761409,"internal_node_id":"0.0-4.0-1.24","subject_id":"602e763eef81ce9e57528e1e","study_id":"6197b3f67c2b5cd3b6d9596a","session_id":"619be78a3e491fd14ab1f22c","condition":"full-information","relevant_dimensions":["wings","legs"],"bee_group":{"antennae":"X","wings":"2","pattern":"X","legs":"F"},"bonus":0.06},{"rt":3091.100000023842,"stimulus":"bees-with-color/bee-A2DF.svg","response":1,"trial_type":"image-button-response","trial_index":61,"time_elapsed":764502,"internal_node_id":"0.0-4.0-0.25","subject_id":"602e763eef81ce9e57528e1e","study_id":"6197b3f67c2b5cd3b6d9596a","session_id":"619be78a3e491fd14ab1f22c","condition":"full-information","relevant_dimensions":["wings","legs"],"bee_group":{"antennae":"X","wings":"2","pattern":"X","legs":"F"},"action":"avoid","summary":"good-avoid","bonus":0.06},{"rt":3170.600000023842,"stimulus":"\n                    <p><b>Action: <em>avoid</em></b></p>\n                    <p>This is the bee that you just saw.</p>\n                    <img src=\"bees-with-color/bee-A2DF.svg\" width=\"200\">\n                    <p><span class=\"greenText\">Good choice!</span>  This bee would have stung you.<br>Your bonus pay is unchanged, and remains at $0.28.</p>\n            ","response":0,"trial_type":"html-button-response","trial_index":62,"time_elapsed":767673,"internal_node_id":"0.0-4.0-1.25","subject_id":"602e763eef81ce9e57528e1e","study_id":"6197b3f67c2b5cd3b6d9596a","session_id":"619be78a3e491fd14ab1f22c","condition":"full-information","relevant_dimensions":["wings","legs"],"bee_group":{"antennae":"X","wings":"2","pattern":"X","legs":"F"},"bonus":0.06},{"rt":2476.899999976158,"stimulus":"bees-with-color/bee-A1DF.svg","response":0,"trial_type":"image-button-response","trial_index":63,"time_elapsed":770151,"internal_node_id":"0.0-4.0-0.26","subject_id":"602e763eef81ce9e57528e1e","study_id":"6197b3f67c2b5cd3b6d9596a","session_id":"619be78a3e491fd14ab1f22c","condition":"full-information","relevant_dimensions":["wings","legs"],"bee_group":{"antennae":"X","wings":"2","pattern":"X","legs":"F"},"action":"harvest","summary":"good-harvest","bonus":0.06},{"rt":866.3999999761581,"stimulus":"\n                    <p><b>Action: <em>harvest</em></b></p>\n                    <p>This is the bee that you just saw.</p>\n                    <img src=\"bees-with-color/bee-A1DF.svg\" width=\"200\">\n                    <p><span class=\"greenText\"><b>Successful harvest!</b></span><br>Your pay has increased by $0.02. Your bonus pay is now $0.30.</p>\n            ","response":0,"trial_type":"html-button-response","trial_index":64,"time_elapsed":771019,"internal_node_id":"0.0-4.0-1.26","subject_id":"602e763eef81ce9e57528e1e","study_id":"6197b3f67c2b5cd3b6d9596a","session_id":"619be78a3e491fd14ab1f22c","condition":"full-information","relevant_dimensions":["wings","legs"],"bee_group":{"antennae":"X","wings":"2","pattern":"X","legs":"F"},"bonus":0.06},{"rt":1532.2999999523163,"stimulus":"bees-with-color/bee-A1SM.svg","response":0,"trial_type":"image-button-response","trial_index":65,"time_elapsed":772554,"internal_node_id":"0.0-4.0-0.27","subject_id":"602e763eef81ce9e57528e1e","study_id":"6197b3f67c2b5cd3b6d9596a","session_id":"619be78a3e491fd14ab1f22c","condition":"full-information","relevant_dimensions":["wings","legs"],"bee_group":{"antennae":"X","wings":"2","pattern":"X","legs":"F"},"action":"harvest","summary":"good-harvest","bonus":0.06},{"rt":568.7999999523163,"stimulus":"\n                    <p><b>Action: <em>harvest</em></b></p>\n                    <p>This is the bee that you just saw.</p>\n                    <img src=\"bees-with-color/bee-A1SM.svg\" width=\"200\">\n                    <p><span class=\"greenText\"><b>Successful harvest!</b></span><br>Your pay has increased by $0.02. Your bonus pay is now $0.32.</p>\n            ","response":0,"trial_type":"html-button-response","trial_index":66,"time_elapsed":773123,"internal_node_id":"0.0-4.0-1.27","subject_id":"602e763eef81ce9e57528e1e","study_id":"6197b3f67c2b5cd3b6d9596a","session_id":"619be78a3e491fd14ab1f22c","condition":"full-information","relevant_dimensions":["wings","legs"],"bee_group":{"antennae":"X","wings":"2","pattern":"X","legs":"F"},"bonus":0.06},{"rt":1697.1000000238419,"stimulus":"bees-with-color/bee-B1DM.svg","response":0,"trial_type":"image-button-response","trial_index":67,"time_elapsed":774822,"internal_node_id":"0.0-4.0-0.28","subject_id":"602e763eef81ce9e57528e1e","study_id":"6197b3f67c2b5cd3b6d9596a","session_id":"619be78a3e491fd14ab1f22c","condition":"full-information","relevant_dimensions":["wings","legs"],"bee_group":{"antennae":"X","wings":"2","pattern":"X","legs":"F"},"action":"harvest","summary":"good-harvest","bonus":0.06},{"rt":896.8000000715256,"stimulus":"\n                    <p><b>Action: <em>harvest</em></b></p>\n                    <p>This is the bee that you just saw.</p>\n                    <img src=\"bees-with-color/bee-B1DM.svg\" width=\"200\">\n                    <p><span class=\"greenText\"><b>Successful harvest!</b></span><br>Your pay has increased by $0.02. Your bonus pay is now $0.34.</p>\n            ","response":0,"trial_type":"html-button-response","trial_index":68,"time_elapsed":775720,"internal_node_id":"0.0-4.0-1.28","subject_id":"602e763eef81ce9e57528e1e","study_id":"6197b3f67c2b5cd3b6d9596a","session_id":"619be78a3e491fd14ab1f22c","condition":"full-information","relevant_dimensions":["wings","legs"],"bee_group":{"antennae":"X","wings":"2","pattern":"X","legs":"F"},"bonus":0.06},{"rt":826.8999999761581,"stimulus":"bees-with-color/bee-B2DM.svg","response":0,"trial_type":"image-button-response","trial_index":69,"time_elapsed":776547,"internal_node_id":"0.0-4.0-0.29","subject_id":"602e763eef81ce9e57528e1e","study_id":"6197b3f67c2b5cd3b6d9596a","session_id":"619be78a3e491fd14ab1f22c","condition":"full-information","relevant_dimensions":["wings","legs"],"bee_group":{"antennae":"X","wings":"2","pattern":"X","legs":"F"},"action":"harvest","summary":"good-harvest","bonus":0.06},{"rt":691,"stimulus":"\n                    <p><b>Action: <em>harvest</em></b></p>\n                    <p>This is the bee that you just saw.</p>\n                    <img src=\"bees-with-color/bee-B2DM.svg\" width=\"200\">\n                    <p><span class=\"greenText\"><b>Successful harvest!</b></span><br>Your pay has increased by $0.02. Your bonus pay is now $0.36.</p>\n            ","response":0,"trial_type":"html-button-response","trial_index":70,"time_elapsed":777240,"internal_node_id":"0.0-4.0-1.29","subject_id":"602e763eef81ce9e57528e1e","study_id":"6197b3f67c2b5cd3b6d9596a","session_id":"619be78a3e491fd14ab1f22c","condition":"full-information","relevant_dimensions":["wings","legs"],"bee_group":{"antennae":"X","wings":"2","pattern":"X","legs":"F"},"bonus":0.06},{"rt":1680.7000000476837,"stimulus":"bees-with-color/bee-B1SM.svg","response":0,"trial_type":"image-button-response","trial_index":71,"time_elapsed":778922,"internal_node_id":"0.0-4.0-0.30","subject_id":"602e763eef81ce9e57528e1e","study_id":"6197b3f67c2b5cd3b6d9596a","session_id":"619be78a3e491fd14ab1f22c","condition":"full-information","relevant_dimensions":["wings","legs"],"bee_group":{"antennae":"X","wings":"2","pattern":"X","legs":"F"},"action":"harvest","summary":"good-harvest","bonus":0.06},{"rt":675.2999999523163,"stimulus":"\n                    <p><b>Action: <em>harvest</em></b></p>\n                    <p>This is the bee that you just saw.</p>\n                    <img src=\"bees-with-color/bee-B1SM.svg\" width=\"200\">\n                    <p><span class=\"greenText\"><b>Successful harvest!</b></span><br>Your pay has increased by $0.02. Your bonus pay is now $0.38.</p>\n            ","response":0,"trial_type":"html-button-response","trial_index":72,"time_elapsed":779598,"internal_node_id":"0.0-4.0-1.30","subject_id":"602e763eef81ce9e57528e1e","study_id":"6197b3f67c2b5cd3b6d9596a","session_id":"619be78a3e491fd14ab1f22c","condition":"full-information","relevant_dimensions":["wings","legs"],"bee_group":{"antennae":"X","wings":"2","pattern":"X","legs":"F"},"bonus":0.06},{"rt":1768.3999999761581,"stimulus":"bees-with-color/bee-A1DM.svg","response":0,"trial_type":"image-button-response","trial_index":73,"time_elapsed":781367,"internal_node_id":"0.0-4.0-0.31","subject_id":"602e763eef81ce9e57528e1e","study_id":"6197b3f67c2b5cd3b6d9596a","session_id":"619be78a3e491fd14ab1f22c","condition":"full-information","relevant_dimensions":["wings","legs"],"bee_group":{"antennae":"X","wings":"2","pattern":"X","legs":"F"},"action":"harvest","summary":"good-harvest","bonus":0.06},{"rt":675.2000000476837,"stimulus":"\n                    <p><b>Action: <em>harvest</em></b></p>\n                    <p>This is the bee that you just saw.</p>\n                    <img src=\"bees-with-color/bee-A1DM.svg\" width=\"200\">\n                    <p><span class=\"greenText\"><b>Successful harvest!</b></span><br>Your pay has increased by $0.02. Your bonus pay is now $0.40.</p>\n            ","response":0,"trial_type":"html-button-response","trial_index":74,"time_elapsed":782044,"internal_node_id":"0.0-4.0-1.31","subject_id":"602e763eef81ce9e57528e1e","study_id":"6197b3f67c2b5cd3b6d9596a","session_id":"619be78a3e491fd14ab1f22c","condition":"full-information","relevant_dimensions":["wings","legs"],"bee_group":{"antennae":"X","wings":"2","pattern":"X","legs":"F"},"bonus":0.06},{"rt":2144.5999999046326,"stimulus":"bees-with-color/bee-B1SM.svg","response":0,"trial_type":"image-button-response","trial_index":75,"time_elapsed":784189,"internal_node_id":"0.0-4.0-0.32","subject_id":"602e763eef81ce9e57528e1e","study_id":"6197b3f67c2b5cd3b6d9596a","session_id":"619be78a3e491fd14ab1f22c","condition":"full-information","relevant_dimensions":["wings","legs"],"bee_group":{"antennae":"X","wings":"2","pattern":"X","legs":"F"},"action":"harvest","summary":"good-harvest","bonus":0.06},{"rt":1083.2999999523163,"stimulus":"\n                    <p><b>Action: <em>harvest</em></b></p>\n                    <p>This is the bee that you just saw.</p>\n                    <img src=\"bees-with-color/bee-B1SM.svg\" width=\"200\">\n                    <p><span class=\"greenText\"><b>Successful harvest!</b></span><br>Your pay has increased by $0.02. Your bonus pay is now $0.42.</p>\n            ","response":0,"trial_type":"html-button-response","trial_index":76,"time_elapsed":785273,"internal_node_id":"0.0-4.0-1.32","subject_id":"602e763eef81ce9e57528e1e","study_id":"6197b3f67c2b5cd3b6d9596a","session_id":"619be78a3e491fd14ab1f22c","condition":"full-information","relevant_dimensions":["wings","legs"],"bee_group":{"antennae":"X","wings":"2","pattern":"X","legs":"F"},"bonus":0.06},{"rt":1321.4000000953674,"stimulus":"bees-with-color/bee-A1SM.svg","response":0,"trial_type":"image-button-response","trial_index":77,"time_elapsed":786596,"internal_node_id":"0.0-4.0-0.33","subject_id":"602e763eef81ce9e57528e1e","study_id":"6197b3f67c2b5cd3b6d9596a","session_id":"619be78a3e491fd14ab1f22c","condition":"full-information","relevant_dimensions":["wings","legs"],"bee_group":{"antennae":"X","wings":"2","pattern":"X","legs":"F"},"action":"harvest","summary":"good-harvest","bonus":0.06},{"rt":943,"stimulus":"\n                    <p><b>Action: <em>harvest</em></b></p>\n                    <p>This is the bee that you just saw.</p>\n                    <img src=\"bees-with-color/bee-A1SM.svg\" width=\"200\">\n                    <p><span class=\"greenText\"><b>Successful harvest!</b></span><br>Your pay has increased by $0.02. Your bonus pay is now $0.44.</p>\n            ","response":0,"trial_type":"html-button-response","trial_index":78,"time_elapsed":787540,"internal_node_id":"0.0-4.0-1.33","subject_id":"602e763eef81ce9e57528e1e","study_id":"6197b3f67c2b5cd3b6d9596a","session_id":"619be78a3e491fd14ab1f22c","condition":"full-information","relevant_dimensions":["wings","legs"],"bee_group":{"antennae":"X","wings":"2","pattern":"X","legs":"F"},"bonus":0.06},{"rt":1351.2000000476837,"stimulus":"bees-with-color/bee-B1SF.svg","response":0,"trial_type":"image-button-response","trial_index":79,"time_elapsed":788892,"internal_node_id":"0.0-4.0-0.34","subject_id":"602e763eef81ce9e57528e1e","study_id":"6197b3f67c2b5cd3b6d9596a","session_id":"619be78a3e491fd14ab1f22c","condition":"full-information","relevant_dimensions":["wings","legs"],"bee_group":{"antennae":"X","wings":"2","pattern":"X","legs":"F"},"action":"harvest","summary":"good-harvest","bonus":0.06},{"rt":912.8999999761581,"stimulus":"\n                    <p><b>Action: <em>harvest</em></b></p>\n                    <p>This is the bee that you just saw.</p>\n                    <img src=\"bees-with-color/bee-B1SF.svg\" width=\"200\">\n                    <p><span class=\"greenText\"><b>Successful harvest!</b></span><br>Your pay has increased by $0.02. Your bonus pay is now $0.46.</p>\n            ","response":0,"trial_type":"html-button-response","trial_index":80,"time_elapsed":789805,"internal_node_id":"0.0-4.0-1.34","subject_id":"602e763eef81ce9e57528e1e","study_id":"6197b3f67c2b5cd3b6d9596a","session_id":"619be78a3e491fd14ab1f22c","condition":"full-information","relevant_dimensions":["wings","legs"],"bee_group":{"antennae":"X","wings":"2","pattern":"X","legs":"F"},"bonus":0.06},{"rt":2013.2000000476837,"stimulus":"bees-with-color/bee-A2DM.svg","response":0,"trial_type":"image-button-response","trial_index":81,"time_elapsed":791819,"internal_node_id":"0.0-4.0-0.35","subject_id":"602e763eef81ce9e57528e1e","study_id":"6197b3f67c2b5cd3b6d9596a","session_id":"619be78a3e491fd14ab1f22c","condition":"full-information","relevant_dimensions":["wings","legs"],"bee_group":{"antennae":"X","wings":"2","pattern":"X","legs":"F"},"action":"harvest","summary":"good-harvest","bonus":0.06},{"rt":871,"stimulus":"\n                    <p><b>Action: <em>harvest</em></b></p>\n                    <p>This is the bee that you just saw.</p>\n                    <img src=\"bees-with-color/bee-A2DM.svg\" width=\"200\">\n                    <p><span class=\"greenText\"><b>Successful harvest!</b></span><br>Your pay has increased by $0.02. Your bonus pay is now $0.48.</p>\n            ","response":0,"trial_type":"html-button-response","trial_index":82,"time_elapsed":792691,"internal_node_id":"0.0-4.0-1.35","subject_id":"602e763eef81ce9e57528e1e","study_id":"6197b3f67c2b5cd3b6d9596a","session_id":"619be78a3e491fd14ab1f22c","condition":"full-information","relevant_dimensions":["wings","legs"],"bee_group":{"antennae":"X","wings":"2","pattern":"X","legs":"F"},"bonus":0.06},{"rt":2668.9000000953674,"stimulus":"bees-with-color/bee-B2SF.svg","response":0,"trial_type":"image-button-response","trial_index":83,"time_elapsed":795362,"internal_node_id":"0.0-4.0-0.36","subject_id":"602e763eef81ce9e57528e1e","study_id":"6197b3f67c2b5cd3b6d9596a","session_id":"619be78a3e491fd14ab1f22c","condition":"full-information","relevant_dimensions":["wings","legs"],"bee_group":{"antennae":"X","wings":"2","pattern":"X","legs":"F"},"action":"harvest","summary":"bad-harvest","bonus":0.06},{"rt":916.7000000476837,"stimulus":"\n                    <p><b>Action: <em>harvest</em></b></p>\n                    <p>This is the bee that you just saw.</p>\n                    <img src=\"bees-with-color/bee-B2SF.svg\" width=\"200\">\n                    <p><span class=\"redText\">Bad choice, the bee was angry.</span><br><b>You have been stung!</b><br>Your pay has been decreased by $0.10. Your bonus pay is now $0.38.</p>\n            ","response":0,"trial_type":"html-button-response","trial_index":84,"time_elapsed":796279,"internal_node_id":"0.0-4.0-1.36","subject_id":"602e763eef81ce9e57528e1e","study_id":"6197b3f67c2b5cd3b6d9596a","session_id":"619be78a3e491fd14ab1f22c","condition":"full-information","relevant_dimensions":["wings","legs"],"bee_group":{"antennae":"X","wings":"2","pattern":"X","legs":"F"},"bonus":0.06},{"rt":1682.8000000715256,"stimulus":"bees-with-color/bee-B1DM.svg","response":0,"trial_type":"image-button-response","trial_index":85,"time_elapsed":797963,"internal_node_id":"0.0-4.0-0.37","subject_id":"602e763eef81ce9e57528e1e","study_id":"6197b3f67c2b5cd3b6d9596a","session_id":"619be78a3e491fd14ab1f22c","condition":"full-information","relevant_dimensions":["wings","legs"],"bee_group":{"antennae":"X","wings":"2","pattern":"X","legs":"F"},"action":"harvest","summary":"good-harvest","bonus":0.06},{"rt":790.8999999761581,"stimulus":"\n                    <p><b>Action: <em>harvest</em></b></p>\n                    <p>This is the bee that you just saw.</p>\n                    <img src=\"bees-with-color/bee-B1DM.svg\" width=\"200\">\n                    <p><span class=\"greenText\"><b>Successful harvest!</b></span><br>Your pay has increased by $0.02. Your bonus pay is now $0.40.</p>\n            ","response":0,"trial_type":"html-button-response","trial_index":86,"time_elapsed":798755,"internal_node_id":"0.0-4.0-1.37","subject_id":"602e763eef81ce9e57528e1e","study_id":"6197b3f67c2b5cd3b6d9596a","session_id":"619be78a3e491fd14ab1f22c","condition":"full-information","relevant_dimensions":["wings","legs"],"bee_group":{"antennae":"X","wings":"2","pattern":"X","legs":"F"},"bonus":0.06},{"rt":1036.8999999761581,"stimulus":"bees-with-color/bee-A2DF.svg","response":0,"trial_type":"image-button-response","trial_index":87,"time_elapsed":799793,"internal_node_id":"0.0-4.0-0.38","subject_id":"602e763eef81ce9e57528e1e","study_id":"6197b3f67c2b5cd3b6d9596a","session_id":"619be78a3e491fd14ab1f22c","condition":"full-information","relevant_dimensions":["wings","legs"],"bee_group":{"antennae":"X","wings":"2","pattern":"X","legs":"F"},"action":"harvest","summary":"bad-harvest","bonus":0.06},{"rt":1155.1000000238419,"stimulus":"\n                    <p><b>Action: <em>harvest</em></b></p>\n                    <p>This is the bee that you just saw.</p>\n                    <img src=\"bees-with-color/bee-A2DF.svg\" width=\"200\">\n                    <p><span class=\"redText\">Bad choice, the bee was angry.</span><br><b>You have been stung!</b><br>Your pay has been decreased by $0.10. Your bonus pay is now $0.30.</p>\n            ","response":0,"trial_type":"html-button-response","trial_index":88,"time_elapsed":800949,"internal_node_id":"0.0-4.0-1.38","subject_id":"602e763eef81ce9e57528e1e","study_id":"6197b3f67c2b5cd3b6d9596a","session_id":"619be78a3e491fd14ab1f22c","condition":"full-information","relevant_dimensions":["wings","legs"],"bee_group":{"antennae":"X","wings":"2","pattern":"X","legs":"F"},"bonus":0.06},{"rt":1321.3000000715256,"stimulus":"bees-with-color/bee-B2SM.svg","response":0,"trial_type":"image-button-response","trial_index":89,"time_elapsed":802271,"internal_node_id":"0.0-4.0-0.39","subject_id":"602e763eef81ce9e57528e1e","study_id":"6197b3f67c2b5cd3b6d9596a","session_id":"619be78a3e491fd14ab1f22c","condition":"full-information","relevant_dimensions":["wings","legs"],"bee_group":{"antennae":"X","wings":"2","pattern":"X","legs":"F"},"action":"harvest","summary":"good-harvest","bonus":0.06},{"rt":704.8999999761581,"stimulus":"\n                    <p><b>Action: <em>harvest</em></b></p>\n                    <p>This is the bee that you just saw.</p>\n                    <img src=\"bees-with-color/bee-B2SM.svg\" width=\"200\">\n                    <p><span class=\"greenText\"><b>Successful harvest!</b></span><br>Your pay has increased by $0.02. Your bonus pay is now $0.32.</p>\n            ","response":0,"trial_type":"html-button-response","trial_index":90,"time_elapsed":802977,"internal_node_id":"0.0-4.0-1.39","subject_id":"602e763eef81ce9e57528e1e","study_id":"6197b3f67c2b5cd3b6d9596a","session_id":"619be78a3e491fd14ab1f22c","condition":"full-information","relevant_dimensions":["wings","legs"],"bee_group":{"antennae":"X","wings":"2","pattern":"X","legs":"F"},"bonus":0.06},{"rt":1183.2000000476837,"stimulus":"bees-with-color/bee-A2SM.svg","response":0,"trial_type":"image-button-response","trial_index":91,"time_elapsed":804161,"internal_node_id":"0.0-4.0-0.40","subject_id":"602e763eef81ce9e57528e1e","study_id":"6197b3f67c2b5cd3b6d9596a","session_id":"619be78a3e491fd14ab1f22c","condition":"full-information","relevant_dimensions":["wings","legs"],"bee_group":{"antennae":"X","wings":"2","pattern":"X","legs":"F"},"action":"harvest","summary":"good-harvest","bonus":0.06},{"rt":963,"stimulus":"\n                    <p><b>Action: <em>harvest</em></b></p>\n                    <p>This is the bee that you just saw.</p>\n                    <img src=\"bees-with-color/bee-A2SM.svg\" width=\"200\">\n                    <p><span class=\"greenText\"><b>Successful harvest!</b></span><br>Your pay has increased by $0.02. Your bonus pay is now $0.34.</p>\n            ","response":0,"trial_type":"html-button-response","trial_index":92,"time_elapsed":805125,"internal_node_id":"0.0-4.0-1.40","subject_id":"602e763eef81ce9e57528e1e","study_id":"6197b3f67c2b5cd3b6d9596a","session_id":"619be78a3e491fd14ab1f22c","condition":"full-information","relevant_dimensions":["wings","legs"],"bee_group":{"antennae":"X","wings":"2","pattern":"X","legs":"F"},"bonus":0.06},{"rt":1407,"stimulus":"bees-with-color/bee-B2DM.svg","response":0,"trial_type":"image-button-response","trial_index":93,"time_elapsed":806533,"internal_node_id":"0.0-4.0-0.41","subject_id":"602e763eef81ce9e57528e1e","study_id":"6197b3f67c2b5cd3b6d9596a","session_id":"619be78a3e491fd14ab1f22c","condition":"full-information","relevant_dimensions":["wings","legs"],"bee_group":{"antennae":"X","wings":"2","pattern":"X","legs":"F"},"action":"harvest","summary":"good-harvest","bonus":0.06},{"rt":629,"stimulus":"\n                    <p><b>Action: <em>harvest</em></b></p>\n                    <p>This is the bee that you just saw.</p>\n                    <img src=\"bees-with-color/bee-B2DM.svg\" width=\"200\">\n                    <p><span class=\"greenText\"><b>Successful harvest!</b></span><br>Your pay has increased by $0.02. Your bonus pay is now $0.36.</p>\n            ","response":0,"trial_type":"html-button-response","trial_index":94,"time_elapsed":807163,"internal_node_id":"0.0-4.0-1.41","subject_id":"602e763eef81ce9e57528e1e","study_id":"6197b3f67c2b5cd3b6d9596a","session_id":"619be78a3e491fd14ab1f22c","condition":"full-information","relevant_dimensions":["wings","legs"],"bee_group":{"antennae":"X","wings":"2","pattern":"X","legs":"F"},"bonus":0.06},{"rt":2389,"stimulus":"bees-with-color/bee-A2SF.svg","response":1,"trial_type":"image-button-response","trial_index":95,"time_elapsed":809553,"internal_node_id":"0.0-4.0-0.42","subject_id":"602e763eef81ce9e57528e1e","study_id":"6197b3f67c2b5cd3b6d9596a","session_id":"619be78a3e491fd14ab1f22c","condition":"full-information","relevant_dimensions":["wings","legs"],"bee_group":{"antennae":"X","wings":"2","pattern":"X","legs":"F"},"action":"avoid","summary":"good-avoid","bonus":0.06},{"rt":1032.8999999761581,"stimulus":"\n                    <p><b>Action: <em>avoid</em></b></p>\n                    <p>This is the bee that you just saw.</p>\n                    <img src=\"bees-with-color/bee-A2SF.svg\" width=\"200\">\n                    <p><span class=\"greenText\">Good choice!</span>  This bee would have stung you.<br>Your bonus pay is unchanged, and remains at $0.36.</p>\n            ","response":0,"trial_type":"html-button-response","trial_index":96,"time_elapsed":810587,"internal_node_id":"0.0-4.0-1.42","subject_id":"602e763eef81ce9e57528e1e","study_id":"6197b3f67c2b5cd3b6d9596a","session_id":"619be78a3e491fd14ab1f22c","condition":"full-information","relevant_dimensions":["wings","legs"],"bee_group":{"antennae":"X","wings":"2","pattern":"X","legs":"F"},"bonus":0.06},{"rt":1516.7000000476837,"stimulus":"bees-with-color/bee-A1SF.svg","response":0,"trial_type":"image-button-response","trial_index":97,"time_elapsed":812105,"internal_node_id":"0.0-4.0-0.43","subject_id":"602e763eef81ce9e57528e1e","study_id":"6197b3f67c2b5cd3b6d9596a","session_id":"619be78a3e491fd14ab1f22c","condition":"full-information","relevant_dimensions":["wings","legs"],"bee_group":{"antennae":"X","wings":"2","pattern":"X","legs":"F"},"action":"harvest","summary":"good-harvest","bonus":0.06},{"rt":644.8999999761581,"stimulus":"\n                    <p><b>Action: <em>harvest</em></b></p>\n                    <p>This is the bee that you just saw.</p>\n                    <img src=\"bees-with-color/bee-A1SF.svg\" width=\"200\">\n                    <p><span class=\"greenText\"><b>Successful harvest!</b></span><br>Your pay has increased by $0.02. Your bonus pay is now $0.38.</p>\n            ","response":0,"trial_type":"html-button-response","trial_index":98,"time_elapsed":812751,"internal_node_id":"0.0-4.0-1.43","subject_id":"602e763eef81ce9e57528e1e","study_id":"6197b3f67c2b5cd3b6d9596a","session_id":"619be78a3e491fd14ab1f22c","condition":"full-information","relevant_dimensions":["wings","legs"],"bee_group":{"antennae":"X","wings":"2","pattern":"X","legs":"F"},"bonus":0.06},{"rt":1349.8999999761581,"stimulus":"bees-with-color/bee-A1DM.svg","response":0,"trial_type":"image-button-response","trial_index":99,"time_elapsed":814103,"internal_node_id":"0.0-4.0-0.44","subject_id":"602e763eef81ce9e57528e1e","study_id":"6197b3f67c2b5cd3b6d9596a","session_id":"619be78a3e491fd14ab1f22c","condition":"full-information","relevant_dimensions":["wings","legs"],"bee_group":{"antennae":"X","wings":"2","pattern":"X","legs":"F"},"action":"harvest","summary":"good-harvest","bonus":0.06},{"rt":628.7000000476837,"stimulus":"\n                    <p><b>Action: <em>harvest</em></b></p>\n                    <p>This is the bee that you just saw.</p>\n                    <img src=\"bees-with-color/bee-A1DM.svg\" width=\"200\">\n                    <p><span class=\"greenText\"><b>Successful harvest!</b></span><br>Your pay has increased by $0.02. Your bonus pay is now $0.40.</p>\n            ","response":0,"trial_type":"html-button-response","trial_index":100,"time_elapsed":814733,"internal_node_id":"0.0-4.0-1.44","subject_id":"602e763eef81ce9e57528e1e","study_id":"6197b3f67c2b5cd3b6d9596a","session_id":"619be78a3e491fd14ab1f22c","condition":"full-information","relevant_dimensions":["wings","legs"],"bee_group":{"antennae":"X","wings":"2","pattern":"X","legs":"F"},"bonus":0.06},{"rt":1053.1000000238419,"stimulus":"bees-with-color/bee-A1DF.svg","response":0,"trial_type":"image-button-response","trial_index":101,"time_elapsed":815787,"internal_node_id":"0.0-4.0-0.45","subject_id":"602e763eef81ce9e57528e1e","study_id":"6197b3f67c2b5cd3b6d9596a","session_id":"619be78a3e491fd14ab1f22c","condition":"full-information","relevant_dimensions":["wings","legs"],"bee_group":{"antennae":"X","wings":"2","pattern":"X","legs":"F"},"action":"harvest","summary":"good-harvest","bonus":0.06},{"rt":614.6999999284744,"stimulus":"\n                    <p><b>Action: <em>harvest</em></b></p>\n                    <p>This is the bee that you just saw.</p>\n                    <img src=\"bees-with-color/bee-A1DF.svg\" width=\"200\">\n                    <p><span class=\"greenText\"><b>Successful harvest!</b></span><br>Your pay has increased by $0.02. Your bonus pay is now $0.42.</p>\n            ","response":0,"trial_type":"html-button-response","trial_index":102,"time_elapsed":816403,"internal_node_id":"0.0-4.0-1.45","subject_id":"602e763eef81ce9e57528e1e","study_id":"6197b3f67c2b5cd3b6d9596a","session_id":"619be78a3e491fd14ab1f22c","condition":"full-information","relevant_dimensions":["wings","legs"],"bee_group":{"antennae":"X","wings":"2","pattern":"X","legs":"F"},"bonus":0.06},{"rt":1601.3000000715256,"stimulus":"bees-with-color/bee-B2DF.svg","response":0,"trial_type":"image-button-response","trial_index":103,"time_elapsed":818005,"internal_node_id":"0.0-4.0-0.46","subject_id":"602e763eef81ce9e57528e1e","study_id":"6197b3f67c2b5cd3b6d9596a","session_id":"619be78a3e491fd14ab1f22c","condition":"full-information","relevant_dimensions":["wings","legs"],"bee_group":{"antennae":"X","wings":"2","pattern":"X","legs":"F"},"action":"harvest","summary":"bad-harvest","bonus":0.06},{"rt":1169.0999999046326,"stimulus":"\n                    <p><b>Action: <em>harvest</em></b></p>\n                    <p>This is the bee that you just saw.</p>\n                    <img src=\"bees-with-color/bee-B2DF.svg\" width=\"200\">\n                    <p><span class=\"redText\">Bad choice, the bee was angry.</span><br><b>You have been stung!</b><br>Your pay has been decreased by $0.10. Your bonus pay is now $0.32.</p>\n            ","response":0,"trial_type":"html-button-response","trial_index":104,"time_elapsed":819175,"internal_node_id":"0.0-4.0-1.46","subject_id":"602e763eef81ce9e57528e1e","study_id":"6197b3f67c2b5cd3b6d9596a","session_id":"619be78a3e491fd14ab1f22c","condition":"full-information","relevant_dimensions":["wings","legs"],"bee_group":{"antennae":"X","wings":"2","pattern":"X","legs":"F"},"bonus":0.06},{"rt":1655.5,"stimulus":"bees-with-color/bee-B1DF.svg","response":0,"trial_type":"image-button-response","trial_index":105,"time_elapsed":820832,"internal_node_id":"0.0-4.0-0.47","subject_id":"602e763eef81ce9e57528e1e","study_id":"6197b3f67c2b5cd3b6d9596a","session_id":"619be78a3e491fd14ab1f22c","condition":"full-information","relevant_dimensions":["wings","legs"],"bee_group":{"antennae":"X","wings":"2","pattern":"X","legs":"F"},"action":"harvest","summary":"good-harvest","bonus":0.06},{"rt":674.2000000476837,"stimulus":"\n                    <p><b>Action: <em>harvest</em></b></p>\n                    <p>This is the bee that you just saw.</p>\n                    <img src=\"bees-with-color/bee-B1DF.svg\" width=\"200\">\n                    <p><span class=\"greenText\"><b>Successful harvest!</b></span><br>Your pay has increased by $0.02. Your bonus pay is now $0.34.</p>\n            ","response":0,"trial_type":"html-button-response","trial_index":106,"time_elapsed":821507,"internal_node_id":"0.0-4.0-1.47","subject_id":"602e763eef81ce9e57528e1e","study_id":"6197b3f67c2b5cd3b6d9596a","session_id":"619be78a3e491fd14ab1f22c","condition":"full-information","relevant_dimensions":["wings","legs"],"bee_group":{"antennae":"X","wings":"2","pattern":"X","legs":"F"},"bonus":0.06},{"rt":3645,"stimulus":"bees-with-color/bee-B1SM.svg","response":1,"trial_type":"image-button-response","trial_index":107,"time_elapsed":825153,"internal_node_id":"0.0-4.0-0.48","subject_id":"602e763eef81ce9e57528e1e","study_id":"6197b3f67c2b5cd3b6d9596a","session_id":"619be78a3e491fd14ab1f22c","condition":"full-information","relevant_dimensions":["wings","legs"],"bee_group":{"antennae":"X","wings":"2","pattern":"X","legs":"F"},"action":"avoid","summary":"bad-avoid","bonus":0.06},{"rt":1032.6000000238419,"stimulus":"\n                    <p><b>Action: <em>avoid</em></b></p>\n                    <p>This is the bee that you just saw.</p>\n                    <img src=\"bees-with-color/bee-B1SM.svg\" width=\"200\">\n                    <p><span class=\"redText\">Bad choice,</span> the bee was friendly.<br>Your bonus pay is unchanged, and remains at $0.34.</p>\n            ","response":0,"trial_type":"html-button-response","trial_index":108,"time_elapsed":826187,"internal_node_id":"0.0-4.0-1.48","subject_id":"602e763eef81ce9e57528e1e","study_id":"6197b3f67c2b5cd3b6d9596a","session_id":"619be78a3e491fd14ab1f22c","condition":"full-information","relevant_dimensions":["wings","legs"],"bee_group":{"antennae":"X","wings":"2","pattern":"X","legs":"F"},"bonus":0.06},{"rt":1413,"stimulus":"bees-with-color/bee-A1DF.svg","response":0,"trial_type":"image-button-response","trial_index":109,"time_elapsed":827602,"internal_node_id":"0.0-4.0-0.49","subject_id":"602e763eef81ce9e57528e1e","study_id":"6197b3f67c2b5cd3b6d9596a","session_id":"619be78a3e491fd14ab1f22c","condition":"full-information","relevant_dimensions":["wings","legs"],"bee_group":{"antennae":"X","wings":"2","pattern":"X","legs":"F"},"action":"harvest","summary":"good-harvest","bonus":0.06},{"rt":674.6000000238419,"stimulus":"\n                    <p><b>Action: <em>harvest</em></b></p>\n                    <p>This is the bee that you just saw.</p>\n                    <img src=\"bees-with-color/bee-A1DF.svg\" width=\"200\">\n                    <p><span class=\"greenText\"><b>Successful harvest!</b></span><br>Your pay has increased by $0.02. Your bonus pay is now $0.36.</p>\n            ","response":0,"trial_type":"html-button-response","trial_index":110,"time_elapsed":828277,"internal_node_id":"0.0-4.0-1.49","subject_id":"602e763eef81ce9e57528e1e","study_id":"6197b3f67c2b5cd3b6d9596a","session_id":"619be78a3e491fd14ab1f22c","condition":"full-information","relevant_dimensions":["wings","legs"],"bee_group":{"antennae":"X","wings":"2","pattern":"X","legs":"F"},"bonus":0.06},{"rt":1229,"stimulus":"bees-with-color/bee-A1DM.svg","response":0,"trial_type":"image-button-response","trial_index":111,"time_elapsed":829507,"internal_node_id":"0.0-4.0-0.50","subject_id":"602e763eef81ce9e57528e1e","study_id":"6197b3f67c2b5cd3b6d9596a","session_id":"619be78a3e491fd14ab1f22c","condition":"full-information","relevant_dimensions":["wings","legs"],"bee_group":{"antennae":"X","wings":"2","pattern":"X","legs":"F"},"action":"harvest","summary":"good-harvest","bonus":0.06},{"rt":721.5,"stimulus":"\n                    <p><b>Action: <em>harvest</em></b></p>\n                    <p>This is the bee that you just saw.</p>\n                    <img src=\"bees-with-color/bee-A1DM.svg\" width=\"200\">\n                    <p><span class=\"greenText\"><b>Successful harvest!</b></span><br>Your pay has increased by $0.02. Your bonus pay is now $0.38.</p>\n            ","response":0,"trial_type":"html-button-response","trial_index":112,"time_elapsed":830229,"internal_node_id":"0.0-4.0-1.50","subject_id":"602e763eef81ce9e57528e1e","study_id":"6197b3f67c2b5cd3b6d9596a","session_id":"619be78a3e491fd14ab1f22c","condition":"full-information","relevant_dimensions":["wings","legs"],"bee_group":{"antennae":"X","wings":"2","pattern":"X","legs":"F"},"bonus":0.06},{"rt":1305.1000000238419,"stimulus":"bees-with-color/bee-B2SM.svg","response":1,"trial_type":"image-button-response","trial_index":113,"time_elapsed":831535,"internal_node_id":"0.0-4.0-0.51","subject_id":"602e763eef81ce9e57528e1e","study_id":"6197b3f67c2b5cd3b6d9596a","session_id":"619be78a3e491fd14ab1f22c","condition":"full-information","relevant_dimensions":["wings","legs"],"bee_group":{"antennae":"X","wings":"2","pattern":"X","legs":"F"},"action":"avoid","summary":"bad-avoid","bonus":0.06},{"rt":1129.1000000238419,"stimulus":"\n                    <p><b>Action: <em>avoid</em></b></p>\n                    <p>This is the bee that you just saw.</p>\n                    <img src=\"bees-with-color/bee-B2SM.svg\" width=\"200\">\n                    <p><span class=\"redText\">Bad choice,</span> the bee was friendly.<br>Your bonus pay is unchanged, and remains at $0.38.</p>\n            ","response":0,"trial_type":"html-button-response","trial_index":114,"time_elapsed":832665,"internal_node_id":"0.0-4.0-1.51","subject_id":"602e763eef81ce9e57528e1e","study_id":"6197b3f67c2b5cd3b6d9596a","session_id":"619be78a3e491fd14ab1f22c","condition":"full-information","relevant_dimensions":["wings","legs"],"bee_group":{"antennae":"X","wings":"2","pattern":"X","legs":"F"},"bonus":0.06},{"rt":2291.3000000715256,"stimulus":"bees-with-color/bee-B2SF.svg","response":1,"trial_type":"image-button-response","trial_index":115,"time_elapsed":834957,"internal_node_id":"0.0-4.0-0.52","subject_id":"602e763eef81ce9e57528e1e","study_id":"6197b3f67c2b5cd3b6d9596a","session_id":"619be78a3e491fd14ab1f22c","condition":"full-information","relevant_dimensions":["wings","legs"],"bee_group":{"antennae":"X","wings":"2","pattern":"X","legs":"F"},"action":"avoid","summary":"good-avoid","bonus":0.06},{"rt":1009,"stimulus":"\n                    <p><b>Action: <em>avoid</em></b></p>\n                    <p>This is the bee that you just saw.</p>\n                    <img src=\"bees-with-color/bee-B2SF.svg\" width=\"200\">\n                    <p><span class=\"greenText\">Good choice!</span>  This bee would have stung you.<br>Your bonus pay is unchanged, and remains at $0.38.</p>\n            ","response":0,"trial_type":"html-button-response","trial_index":116,"time_elapsed":835967,"internal_node_id":"0.0-4.0-1.52","subject_id":"602e763eef81ce9e57528e1e","study_id":"6197b3f67c2b5cd3b6d9596a","session_id":"619be78a3e491fd14ab1f22c","condition":"full-information","relevant_dimensions":["wings","legs"],"bee_group":{"antennae":"X","wings":"2","pattern":"X","legs":"F"},"bonus":0.06},{"rt":1033.2000000476837,"stimulus":"bees-with-color/bee-A2SM.svg","response":0,"trial_type":"image-button-response","trial_index":117,"time_elapsed":837001,"internal_node_id":"0.0-4.0-0.53","subject_id":"602e763eef81ce9e57528e1e","study_id":"6197b3f67c2b5cd3b6d9596a","session_id":"619be78a3e491fd14ab1f22c","condition":"full-information","relevant_dimensions":["wings","legs"],"bee_group":{"antennae":"X","wings":"2","pattern":"X","legs":"F"},"action":"harvest","summary":"good-harvest","bonus":0.06},{"rt":615.1000000238419,"stimulus":"\n                    <p><b>Action: <em>harvest</em></b></p>\n                    <p>This is the bee that you just saw.</p>\n                    <img src=\"bees-with-color/bee-A2SM.svg\" width=\"200\">\n                    <p><span class=\"greenText\"><b>Successful harvest!</b></span><br>Your pay has increased by $0.02. Your bonus pay is now $0.40.</p>\n            ","response":0,"trial_type":"html-button-response","trial_index":118,"time_elapsed":837617,"internal_node_id":"0.0-4.0-1.53","subject_id":"602e763eef81ce9e57528e1e","study_id":"6197b3f67c2b5cd3b6d9596a","session_id":"619be78a3e491fd14ab1f22c","condition":"full-information","relevant_dimensions":["wings","legs"],"bee_group":{"antennae":"X","wings":"2","pattern":"X","legs":"F"},"bonus":0.06},{"rt":931.3000000715256,"stimulus":"bees-with-color/bee-B2DM.svg","response":0,"trial_type":"image-button-response","trial_index":119,"time_elapsed":838549,"internal_node_id":"0.0-4.0-0.54","subject_id":"602e763eef81ce9e57528e1e","study_id":"6197b3f67c2b5cd3b6d9596a","session_id":"619be78a3e491fd14ab1f22c","condition":"full-information","relevant_dimensions":["wings","legs"],"bee_group":{"antennae":"X","wings":"2","pattern":"X","legs":"F"},"action":"harvest","summary":"good-harvest","bonus":0.06},{"rt":867,"stimulus":"\n                    <p><b>Action: <em>harvest</em></b></p>\n                    <p>This is the bee that you just saw.</p>\n                    <img src=\"bees-with-color/bee-B2DM.svg\" width=\"200\">\n                    <p><span class=\"greenText\"><b>Successful harvest!</b></span><br>Your pay has increased by $0.02. Your bonus pay is now $0.42.</p>\n            ","response":0,"trial_type":"html-button-response","trial_index":120,"time_elapsed":839417,"internal_node_id":"0.0-4.0-1.54","subject_id":"602e763eef81ce9e57528e1e","study_id":"6197b3f67c2b5cd3b6d9596a","session_id":"619be78a3e491fd14ab1f22c","condition":"full-information","relevant_dimensions":["wings","legs"],"bee_group":{"antennae":"X","wings":"2","pattern":"X","legs":"F"},"bonus":0.06},{"rt":781.2000000476837,"stimulus":"bees-with-color/bee-A2SF.svg","response":0,"trial_type":"image-button-response","trial_index":121,"time_elapsed":840199,"internal_node_id":"0.0-4.0-0.55","subject_id":"602e763eef81ce9e57528e1e","study_id":"6197b3f67c2b5cd3b6d9596a","session_id":"619be78a3e491fd14ab1f22c","condition":"full-information","relevant_dimensions":["wings","legs"],"bee_group":{"antennae":"X","wings":"2","pattern":"X","legs":"F"},"action":"harvest","summary":"bad-harvest","bonus":0.06},{"rt":1141.1000000238419,"stimulus":"\n                    <p><b>Action: <em>harvest</em></b></p>\n                    <p>This is the bee that you just saw.</p>\n                    <img src=\"bees-with-color/bee-A2SF.svg\" width=\"200\">\n                    <p><span class=\"redText\">Bad choice, the bee was angry.</span><br><b>You have been stung!</b><br>Your pay has been decreased by $0.10. Your bonus pay is now $0.32.</p>\n            ","response":0,"trial_type":"html-button-response","trial_index":122,"time_elapsed":841341,"internal_node_id":"0.0-4.0-1.55","subject_id":"602e763eef81ce9e57528e1e","study_id":"6197b3f67c2b5cd3b6d9596a","session_id":"619be78a3e491fd14ab1f22c","condition":"full-information","relevant_dimensions":["wings","legs"],"bee_group":{"antennae":"X","wings":"2","pattern":"X","legs":"F"},"bonus":0.06},{"rt":2911.100000023842,"stimulus":"bees-with-color/bee-A1SF.svg","response":0,"trial_type":"image-button-response","trial_index":123,"time_elapsed":844253,"internal_node_id":"0.0-4.0-0.56","subject_id":"602e763eef81ce9e57528e1e","study_id":"6197b3f67c2b5cd3b6d9596a","session_id":"619be78a3e491fd14ab1f22c","condition":"full-information","relevant_dimensions":["wings","legs"],"bee_group":{"antennae":"X","wings":"2","pattern":"X","legs":"F"},"action":"harvest","summary":"good-harvest","bonus":0.06},{"rt":690.5,"stimulus":"\n                    <p><b>Action: <em>harvest</em></b></p>\n                    <p>This is the bee that you just saw.</p>\n                    <img src=\"bees-with-color/bee-A1SF.svg\" width=\"200\">\n                    <p><span class=\"greenText\"><b>Successful harvest!</b></span><br>Your pay has increased by $0.02. Your bonus pay is now $0.34.</p>\n            ","response":0,"trial_type":"html-button-response","trial_index":124,"time_elapsed":844945,"internal_node_id":"0.0-4.0-1.56","subject_id":"602e763eef81ce9e57528e1e","study_id":"6197b3f67c2b5cd3b6d9596a","session_id":"619be78a3e491fd14ab1f22c","condition":"full-information","relevant_dimensions":["wings","legs"],"bee_group":{"antennae":"X","wings":"2","pattern":"X","legs":"F"},"bonus":0.06},{"rt":1319.1000000238419,"stimulus":"bees-with-color/bee-B1SF.svg","response":1,"trial_type":"image-button-response","trial_index":125,"time_elapsed":846265,"internal_node_id":"0.0-4.0-0.57","subject_id":"602e763eef81ce9e57528e1e","study_id":"6197b3f67c2b5cd3b6d9596a","session_id":"619be78a3e491fd14ab1f22c","condition":"full-information","relevant_dimensions":["wings","legs"],"bee_group":{"antennae":"X","wings":"2","pattern":"X","legs":"F"},"action":"avoid","summary":"bad-avoid","bonus":0.06},{"rt":1034.7999999523163,"stimulus":"\n                    <p><b>Action: <em>avoid</em></b></p>\n                    <p>This is the bee that you just saw.</p>\n                    <img src=\"bees-with-color/bee-B1SF.svg\" width=\"200\">\n                    <p><span class=\"redText\">Bad choice,</span> the bee was friendly.<br>Your bonus pay is unchanged, and remains at $0.34.</p>\n            ","response":0,"trial_type":"html-button-response","trial_index":126,"time_elapsed":847301,"internal_node_id":"0.0-4.0-1.57","subject_id":"602e763eef81ce9e57528e1e","study_id":"6197b3f67c2b5cd3b6d9596a","session_id":"619be78a3e491fd14ab1f22c","condition":"full-information","relevant_dimensions":["wings","legs"],"bee_group":{"antennae":"X","wings":"2","pattern":"X","legs":"F"},"bonus":0.06},{"rt":2057.399999976158,"stimulus":"bees-with-color/bee-A1SM.svg","response":0,"trial_type":"image-button-response","trial_index":127,"time_elapsed":849360,"internal_node_id":"0.0-4.0-0.58","subject_id":"602e763eef81ce9e57528e1e","study_id":"6197b3f67c2b5cd3b6d9596a","session_id":"619be78a3e491fd14ab1f22c","condition":"full-information","relevant_dimensions":["wings","legs"],"bee_group":{"antennae":"X","wings":"2","pattern":"X","legs":"F"},"action":"harvest","summary":"good-harvest","bonus":0.06},{"rt":554.5,"stimulus":"\n                    <p><b>Action: <em>harvest</em></b></p>\n                    <p>This is the bee that you just saw.</p>\n                    <img src=\"bees-with-color/bee-A1SM.svg\" width=\"200\">\n                    <p><span class=\"greenText\"><b>Successful harvest!</b></span><br>Your pay has increased by $0.02. Your bonus pay is now $0.36.</p>\n            ","response":0,"trial_type":"html-button-response","trial_index":128,"time_elapsed":849915,"internal_node_id":"0.0-4.0-1.58","subject_id":"602e763eef81ce9e57528e1e","study_id":"6197b3f67c2b5cd3b6d9596a","session_id":"619be78a3e491fd14ab1f22c","condition":"full-information","relevant_dimensions":["wings","legs"],"bee_group":{"antennae":"X","wings":"2","pattern":"X","legs":"F"},"bonus":0.06},{"rt":1365.2000000476837,"stimulus":"bees-with-color/bee-A2DF.svg","response":0,"trial_type":"image-button-response","trial_index":129,"time_elapsed":851281,"internal_node_id":"0.0-4.0-0.59","subject_id":"602e763eef81ce9e57528e1e","study_id":"6197b3f67c2b5cd3b6d9596a","session_id":"619be78a3e491fd14ab1f22c","condition":"full-information","relevant_dimensions":["wings","legs"],"bee_group":{"antennae":"X","wings":"2","pattern":"X","legs":"F"},"action":"harvest","summary":"bad-harvest","bonus":0.06},{"rt":986.7000000476837,"stimulus":"\n                    <p><b>Action: <em>harvest</em></b></p>\n                    <p>This is the bee that you just saw.</p>\n                    <img src=\"bees-with-color/bee-A2DF.svg\" width=\"200\">\n                    <p><span class=\"redText\">Bad choice, the bee was angry.</span><br><b>You have been stung!</b><br>Your pay has been decreased by $0.10. Your bonus pay is now $0.26.</p>\n            ","response":0,"trial_type":"html-button-response","trial_index":130,"time_elapsed":852269,"internal_node_id":"0.0-4.0-1.59","subject_id":"602e763eef81ce9e57528e1e","study_id":"6197b3f67c2b5cd3b6d9596a","session_id":"619be78a3e491fd14ab1f22c","condition":"full-information","relevant_dimensions":["wings","legs"],"bee_group":{"antennae":"X","wings":"2","pattern":"X","legs":"F"},"bonus":0.06},{"rt":1308.7999999523163,"stimulus":"bees-with-color/bee-B1DF.svg","response":0,"trial_type":"image-button-response","trial_index":131,"time_elapsed":853579,"internal_node_id":"0.0-4.0-0.60","subject_id":"602e763eef81ce9e57528e1e","study_id":"6197b3f67c2b5cd3b6d9596a","session_id":"619be78a3e491fd14ab1f22c","condition":"full-information","relevant_dimensions":["wings","legs"],"bee_group":{"antennae":"X","wings":"2","pattern":"X","legs":"F"},"action":"harvest","summary":"good-harvest","bonus":0.06},{"rt":1951,"stimulus":"\n                    <p><b>Action: <em>harvest</em></b></p>\n                    <p>This is the bee that you just saw.</p>\n                    <img src=\"bees-with-color/bee-B1DF.svg\" width=\"200\">\n                    <p><span class=\"greenText\"><b>Successful harvest!</b></span><br>Your pay has increased by $0.02. Your bonus pay is now $0.28.</p>\n            ","response":0,"trial_type":"html-button-response","trial_index":132,"time_elapsed":855531,"internal_node_id":"0.0-4.0-1.60","subject_id":"602e763eef81ce9e57528e1e","study_id":"6197b3f67c2b5cd3b6d9596a","session_id":"619be78a3e491fd14ab1f22c","condition":"full-information","relevant_dimensions":["wings","legs"],"bee_group":{"antennae":"X","wings":"2","pattern":"X","legs":"F"},"bonus":0.06},{"rt":1363.5,"stimulus":"bees-with-color/bee-B2DF.svg","response":0,"trial_type":"image-button-response","trial_index":133,"time_elapsed":856896,"internal_node_id":"0.0-4.0-0.61","subject_id":"602e763eef81ce9e57528e1e","study_id":"6197b3f67c2b5cd3b6d9596a","session_id":"619be78a3e491fd14ab1f22c","condition":"full-information","relevant_dimensions":["wings","legs"],"bee_group":{"antennae":"X","wings":"2","pattern":"X","legs":"F"},"action":"harvest","summary":"bad-harvest","bonus":0.06},{"rt":4008.100000023842,"stimulus":"\n                    <p><b>Action: <em>harvest</em></b></p>\n                    <p>This is the bee that you just saw.</p>\n                    <img src=\"bees-with-color/bee-B2DF.svg\" width=\"200\">\n                    <p><span class=\"redText\">Bad choice, the bee was angry.</span><br><b>You have been stung!</b><br>Your pay has been decreased by $0.10. Your bonus pay is now $0.18.</p>\n            ","response":0,"trial_type":"html-button-response","trial_index":134,"time_elapsed":860905,"internal_node_id":"0.0-4.0-1.61","subject_id":"602e763eef81ce9e57528e1e","study_id":"6197b3f67c2b5cd3b6d9596a","session_id":"619be78a3e491fd14ab1f22c","condition":"full-information","relevant_dimensions":["wings","legs"],"bee_group":{"antennae":"X","wings":"2","pattern":"X","legs":"F"},"bonus":0.06},{"rt":1682.7999999523163,"stimulus":"bees-with-color/bee-A2DM.svg","response":0,"trial_type":"image-button-response","trial_index":135,"time_elapsed":862589,"internal_node_id":"0.0-4.0-0.62","subject_id":"602e763eef81ce9e57528e1e","study_id":"6197b3f67c2b5cd3b6d9596a","session_id":"619be78a3e491fd14ab1f22c","condition":"full-information","relevant_dimensions":["wings","legs"],"bee_group":{"antennae":"X","wings":"2","pattern":"X","legs":"F"},"action":"harvest","summary":"good-harvest","bonus":0.06},{"rt":943.3000000715256,"stimulus":"\n                    <p><b>Action: <em>harvest</em></b></p>\n                    <p>This is the bee that you just saw.</p>\n                    <img src=\"bees-with-color/bee-A2DM.svg\" width=\"200\">\n                    <p><span class=\"greenText\"><b>Successful harvest!</b></span><br>Your pay has increased by $0.02. Your bonus pay is now $0.20.</p>\n            ","response":0,"trial_type":"html-button-response","trial_index":136,"time_elapsed":863533,"internal_node_id":"0.0-4.0-1.62","subject_id":"602e763eef81ce9e57528e1e","study_id":"6197b3f67c2b5cd3b6d9596a","session_id":"619be78a3e491fd14ab1f22c","condition":"full-information","relevant_dimensions":["wings","legs"],"bee_group":{"antennae":"X","wings":"2","pattern":"X","legs":"F"},"bonus":0.06},{"rt":2627.100000023842,"stimulus":"bees-with-color/bee-B1DM.svg","response":0,"trial_type":"image-button-response","trial_index":137,"time_elapsed":866161,"internal_node_id":"0.0-4.0-0.63","subject_id":"602e763eef81ce9e57528e1e","study_id":"6197b3f67c2b5cd3b6d9596a","session_id":"619be78a3e491fd14ab1f22c","condition":"full-information","relevant_dimensions":["wings","legs"],"bee_group":{"antennae":"X","wings":"2","pattern":"X","legs":"F"},"action":"harvest","summary":"good-harvest","bonus":0.06},{"rt":840.8999999761581,"stimulus":"\n                    <p><b>Action: <em>harvest</em></b></p>\n                    <p>This is the bee that you just saw.</p>\n                    <img src=\"bees-with-color/bee-B1DM.svg\" width=\"200\">\n                    <p><span class=\"greenText\"><b>Successful harvest!</b></span><br>Your pay has increased by $0.02. Your bonus pay is now $0.22.</p>\n            ","response":0,"trial_type":"html-button-response","trial_index":138,"time_elapsed":867003,"internal_node_id":"0.0-4.0-1.63","subject_id":"602e763eef81ce9e57528e1e","study_id":"6197b3f67c2b5cd3b6d9596a","session_id":"619be78a3e491fd14ab1f22c","condition":"full-information","relevant_dimensions":["wings","legs"],"bee_group":{"antennae":"X","wings":"2","pattern":"X","legs":"F"},"bonus":0.06},{"rt":11343.700000047684,"stimulus":"You have completed the first part of this experiment.<br><br>You will now begin a shorter second part, in which you will receive no feedback.<br>The same rules regarding bonus pay apply.<br><br>Press any key to begin.","response":"enter","trial_type":"html-keyboard-response","trial_index":139,"time_elapsed":878348,"internal_node_id":"0.0-5.0","subject_id":"602e763eef81ce9e57528e1e","study_id":"6197b3f67c2b5cd3b6d9596a","session_id":"619be78a3e491fd14ab1f22c","condition":"full-information","relevant_dimensions":["wings","legs"],"bee_group":{"antennae":"X","wings":"2","pattern":"X","legs":"F"},"bonus":0.06},{"rt":2314.8000000715256,"stimulus":"bees-with-color/bee-B1SM.svg","response":0,"trial_type":"image-button-response","trial_index":140,"time_elapsed":880669,"internal_node_id":"0.0-6.0-0.0","subject_id":"602e763eef81ce9e57528e1e","study_id":"6197b3f67c2b5cd3b6d9596a","session_id":"619be78a3e491fd14ab1f22c","condition":"full-information","relevant_dimensions":["wings","legs"],"bee_group":{"antennae":"X","wings":"2","pattern":"X","legs":"F"},"bonus":0.06},{"rt":3212.5,"stimulus":"bees-with-color/bee-B2SM.svg","response":0,"trial_type":"image-button-response","trial_index":141,"time_elapsed":883883,"internal_node_id":"0.0-6.0-0.1","subject_id":"602e763eef81ce9e57528e1e","study_id":"6197b3f67c2b5cd3b6d9596a","session_id":"619be78a3e491fd14ab1f22c","condition":"full-information","relevant_dimensions":["wings","legs"],"bee_group":{"antennae":"X","wings":"2","pattern":"X","legs":"F"},"bonus":0.06},{"rt":2128.399999976158,"stimulus":"bees-with-color/bee-B2DF.svg","response":1,"trial_type":"image-button-response","trial_index":142,"time_elapsed":886013,"internal_node_id":"0.0-6.0-0.2","subject_id":"602e763eef81ce9e57528e1e","study_id":"6197b3f67c2b5cd3b6d9596a","session_id":"619be78a3e491fd14ab1f22c","condition":"full-information","relevant_dimensions":["wings","legs"],"bee_group":{"antennae":"X","wings":"2","pattern":"X","legs":"F"},"bonus":0.06},{"rt":1186.6000000238419,"stimulus":"bees-with-color/bee-B2SF.svg","response":0,"trial_type":"image-button-response","trial_index":143,"time_elapsed":887201,"internal_node_id":"0.0-6.0-0.3","subject_id":"602e763eef81ce9e57528e1e","study_id":"6197b3f67c2b5cd3b6d9596a","session_id":"619be78a3e491fd14ab1f22c","condition":"full-information","relevant_dimensions":["wings","legs"],"bee_group":{"antennae":"X","wings":"2","pattern":"X","legs":"F"},"bonus":0.06},{"rt":944.5,"stimulus":"bees-with-color/bee-B2DM.svg","response":0,"trial_type":"image-button-response","trial_index":144,"time_elapsed":888147,"internal_node_id":"0.0-6.0-0.4","subject_id":"602e763eef81ce9e57528e1e","study_id":"6197b3f67c2b5cd3b6d9596a","session_id":"619be78a3e491fd14ab1f22c","condition":"full-information","relevant_dimensions":["wings","legs"],"bee_group":{"antennae":"X","wings":"2","pattern":"X","legs":"F"},"bonus":0.06},{"rt":2594.100000023842,"stimulus":"bees-with-color/bee-A1SF.svg","response":1,"trial_type":"image-button-response","trial_index":145,"time_elapsed":890743,"internal_node_id":"0.0-6.0-0.5","subject_id":"602e763eef81ce9e57528e1e","study_id":"6197b3f67c2b5cd3b6d9596a","session_id":"619be78a3e491fd14ab1f22c","condition":"full-information","relevant_dimensions":["wings","legs"],"bee_group":{"antennae":"X","wings":"2","pattern":"X","legs":"F"},"bonus":0.06},{"rt":1996.2000000476837,"stimulus":"bees-with-color/bee-B1SF.svg","response":0,"trial_type":"image-button-response","trial_index":146,"time_elapsed":892741,"internal_node_id":"0.0-6.0-0.6","subject_id":"602e763eef81ce9e57528e1e","study_id":"6197b3f67c2b5cd3b6d9596a","session_id":"619be78a3e491fd14ab1f22c","condition":"full-information","relevant_dimensions":["wings","legs"],"bee_group":{"antennae":"X","wings":"2","pattern":"X","legs":"F"},"bonus":0.06},{"rt":734.3000000715256,"stimulus":"bees-with-color/bee-A1DF.svg","response":0,"trial_type":"image-button-response","trial_index":147,"time_elapsed":893477,"internal_node_id":"0.0-6.0-0.7","subject_id":"602e763eef81ce9e57528e1e","study_id":"6197b3f67c2b5cd3b6d9596a","session_id":"619be78a3e491fd14ab1f22c","condition":"full-information","relevant_dimensions":["wings","legs"],"bee_group":{"antennae":"X","wings":"2","pattern":"X","legs":"F"},"bonus":0.06},{"rt":1456.4000000953674,"stimulus":"bees-with-color/bee-A2DF.svg","response":0,"trial_type":"image-button-response","trial_index":148,"time_elapsed":894935,"internal_node_id":"0.0-6.0-0.8","subject_id":"602e763eef81ce9e57528e1e","study_id":"6197b3f67c2b5cd3b6d9596a","session_id":"619be78a3e491fd14ab1f22c","condition":"full-information","relevant_dimensions":["wings","legs"],"bee_group":{"antennae":"X","wings":"2","pattern":"X","legs":"F"},"bonus":0.06},{"rt":1394.6000000238419,"stimulus":"bees-with-color/bee-B1DM.svg","response":0,"trial_type":"image-button-response","trial_index":149,"time_elapsed":896331,"internal_node_id":"0.0-6.0-0.9","subject_id":"602e763eef81ce9e57528e1e","study_id":"6197b3f67c2b5cd3b6d9596a","session_id":"619be78a3e491fd14ab1f22c","condition":"full-information","relevant_dimensions":["wings","legs"],"bee_group":{"antennae":"X","wings":"2","pattern":"X","legs":"F"},"bonus":0.06},{"rt":1155.7999999523163,"stimulus":"bees-with-color/bee-A1DM.svg","response":0,"trial_type":"image-button-response","trial_index":150,"time_elapsed":897488,"internal_node_id":"0.0-6.0-0.10","subject_id":"602e763eef81ce9e57528e1e","study_id":"6197b3f67c2b5cd3b6d9596a","session_id":"619be78a3e491fd14ab1f22c","condition":"full-information","relevant_dimensions":["wings","legs"],"bee_group":{"antennae":"X","wings":"2","pattern":"X","legs":"F"},"bonus":0.06},{"rt":1767.5,"stimulus":"bees-with-color/bee-A2SF.svg","response":0,"trial_type":"image-button-response","trial_index":151,"time_elapsed":899257,"internal_node_id":"0.0-6.0-0.11","subject_id":"602e763eef81ce9e57528e1e","study_id":"6197b3f67c2b5cd3b6d9596a","session_id":"619be78a3e491fd14ab1f22c","condition":"full-information","relevant_dimensions":["wings","legs"],"bee_group":{"antennae":"X","wings":"2","pattern":"X","legs":"F"},"bonus":0.06},{"rt":1006.9000000953674,"stimulus":"bees-with-color/bee-B1DF.svg","response":0,"trial_type":"image-button-response","trial_index":152,"time_elapsed":900265,"internal_node_id":"0.0-6.0-0.12","subject_id":"602e763eef81ce9e57528e1e","study_id":"6197b3f67c2b5cd3b6d9596a","session_id":"619be78a3e491fd14ab1f22c","condition":"full-information","relevant_dimensions":["wings","legs"],"bee_group":{"antennae":"X","wings":"2","pattern":"X","legs":"F"},"bonus":0.06},{"rt":1244.7999999523163,"stimulus":"bees-with-color/bee-A2SM.svg","response":0,"trial_type":"image-button-response","trial_index":153,"time_elapsed":901511,"internal_node_id":"0.0-6.0-0.13","subject_id":"602e763eef81ce9e57528e1e","study_id":"6197b3f67c2b5cd3b6d9596a","session_id":"619be78a3e491fd14ab1f22c","condition":"full-information","relevant_dimensions":["wings","legs"],"bee_group":{"antennae":"X","wings":"2","pattern":"X","legs":"F"},"bonus":0.06},{"rt":1589,"stimulus":"bees-with-color/bee-A1SM.svg","response":0,"trial_type":"image-button-response","trial_index":154,"time_elapsed":903102,"internal_node_id":"0.0-6.0-0.14","subject_id":"602e763eef81ce9e57528e1e","study_id":"6197b3f67c2b5cd3b6d9596a","session_id":"619be78a3e491fd14ab1f22c","condition":"full-information","relevant_dimensions":["wings","legs"],"bee_group":{"antennae":"X","wings":"2","pattern":"X","legs":"F"},"bonus":0.06},{"rt":1151.8000000715256,"stimulus":"bees-with-color/bee-A2DM.svg","response":0,"trial_type":"image-button-response","trial_index":155,"time_elapsed":904255,"internal_node_id":"0.0-6.0-0.15","subject_id":"602e763eef81ce9e57528e1e","study_id":"6197b3f67c2b5cd3b6d9596a","session_id":"619be78a3e491fd14ab1f22c","condition":"full-information","relevant_dimensions":["wings","legs"],"bee_group":{"antennae":"X","wings":"2","pattern":"X","legs":"F"},"bonus":0.06},{"rt":4204.800000071526,"stimulus":"bees-with-color/bee-A1DF.svg","response":0,"trial_type":"image-button-response","trial_index":156,"time_elapsed":908461,"internal_node_id":"0.0-6.0-0.16","subject_id":"602e763eef81ce9e57528e1e","study_id":"6197b3f67c2b5cd3b6d9596a","session_id":"619be78a3e491fd14ab1f22c","condition":"full-information","relevant_dimensions":["wings","legs"],"bee_group":{"antennae":"X","wings":"2","pattern":"X","legs":"F"},"bonus":0.06},{"rt":1367.1000000238419,"stimulus":"bees-with-color/bee-B2SM.svg","response":1,"trial_type":"image-button-response","trial_index":157,"time_elapsed":909830,"internal_node_id":"0.0-6.0-0.17","subject_id":"602e763eef81ce9e57528e1e","study_id":"6197b3f67c2b5cd3b6d9596a","session_id":"619be78a3e491fd14ab1f22c","condition":"full-information","relevant_dimensions":["wings","legs"],"bee_group":{"antennae":"X","wings":"2","pattern":"X","legs":"F"},"bonus":0.06},{"rt":1004,"stimulus":"bees-with-color/bee-B1DM.svg","response":0,"trial_type":"image-button-response","trial_index":158,"time_elapsed":910835,"internal_node_id":"0.0-6.0-0.18","subject_id":"602e763eef81ce9e57528e1e","study_id":"6197b3f67c2b5cd3b6d9596a","session_id":"619be78a3e491fd14ab1f22c","condition":"full-information","relevant_dimensions":["wings","legs"],"bee_group":{"antennae":"X","wings":"2","pattern":"X","legs":"F"},"bonus":0.06},{"rt":1187.5,"stimulus":"bees-with-color/bee-A2DM.svg","response":1,"trial_type":"image-button-response","trial_index":159,"time_elapsed":912024,"internal_node_id":"0.0-6.0-0.19","subject_id":"602e763eef81ce9e57528e1e","study_id":"6197b3f67c2b5cd3b6d9596a","session_id":"619be78a3e491fd14ab1f22c","condition":"full-information","relevant_dimensions":["wings","legs"],"bee_group":{"antennae":"X","wings":"2","pattern":"X","legs":"F"},"bonus":0.06},{"rt":1046.8999999761581,"stimulus":"bees-with-color/bee-B1SF.svg","response":0,"trial_type":"image-button-response","trial_index":160,"time_elapsed":913072,"internal_node_id":"0.0-6.0-0.20","subject_id":"602e763eef81ce9e57528e1e","study_id":"6197b3f67c2b5cd3b6d9596a","session_id":"619be78a3e491fd14ab1f22c","condition":"full-in