[{"success":true,"trial_type":"fullscreen","trial_index":0,"time_elapsed":7284,"internal_node_id":"0.0-0.0","subject_id":"6154b3a7e4bc93e1ce93c6bc","study_id":"60edd13110225f80f9f3709b","session_id":"6196bf63bf4197ccaabe2f16","condition":"contingent","relevant_dimensions":["wings","legs"],"bee_group":{"antennae":"X","wings":"2","pattern":"X","legs":"M"},"bonus":1.4000000000000008},{"success":true,"timeout":false,"failed_images":[],"failed_audio":[],"failed_video":[],"trial_type":"preload","trial_index":1,"time_elapsed":8685,"internal_node_id":"0.0-1.0","subject_id":"6154b3a7e4bc93e1ce93c6bc","study_id":"60edd13110225f80f9f3709b","session_id":"6196bf63bf4197ccaabe2f16","condition":"contingent","relevant_dimensions":["wings","legs"],"bee_group":{"antennae":"X","wings":"2","pattern":"X","legs":"M"},"bonus":1.4000000000000008},{"rt":1337.4000000000233,"stimulus":"Welcome! Press any key to begin.","response":"a","trial_type":"html-keyboard-response","trial_index":2,"time_elapsed":10024,"internal_node_id":"0.0-2.0","subject_id":"6154b3a7e4bc93e1ce93c6bc","study_id":"60edd13110225f80f9f3709b","session_id":"6196bf63bf4197ccaabe2f16","condition":"contingent","relevant_dimensions":["wings","legs"],"bee_group":{"antennae":"X","wings":"2","pattern":"X","legs":"M"},"bonus":1.4000000000000008},{"view_history":[{"page_index":0,"viewing_time":5189.300000000047},{"page_index":1,"viewing_time":10886.900000000023},{"page_index":2,"viewing_time":11139.5},{"page_index":3,"viewing_time":11893.399999999907},{"page_index":4,"viewing_time":6285.900000000023},{"page_index":5,"viewing_time":10786.70000000007},{"page_index":6,"viewing_time":10908.199999999953},{"page_index":7,"viewing_time":4678.300000000047},{"page_index":8,"viewing_time":6984.399999999907},{"page_index":9,"viewing_time":2630.100000000093},{"page_index":10,"viewing_time":1871.5},{"page_index":11,"viewing_time":11082.79999999993},{"page_index":12,"viewing_time":14805.300000000047},{"page_index":13,"viewing_time":1417.2999999999302},{"page_index":14,"viewing_time":2941.4000000000233}],"rt":113501.20000000007,"trial_type":"instructions","trial_index":3,"time_elapsed":123525,"internal_node_id":"0.0-3.0-0.0","subject_id":"6154b3a7e4bc93e1ce93c6bc","study_id":"60edd13110225f80f9f3709b","session_id":"6196bf63bf4197ccaabe2f16","condition":"contingent","relevant_dimensions":["wings","legs"],"bee_group":{"antennae":"X","wings":"2","pattern":"X","legs":"M"},"bonus":1.4000000000000008},{"rt":18579.899999999907,"response":{"Q0":["Two or six legs","Stripes or spots on body","Single or double wings","Antennae or no antennae"]},"question_order":[0],"trial_type":"survey-multi-select","trial_index":4,"time_elapsed":142108,"internal_node_id":"0.0-3.0-1.0","subject_id":"6154b3a7e4bc93e1ce93c6bc","study_id":"60edd13110225f80f9f3709b","session_id":"6196bf63bf4197ccaabe2f16","condition":"contingent","relevant_dimensions":["wings","legs"],"bee_group":{"antennae":"X","wings":"2","pattern":"X","legs":"M"},"correct":true,"bonus":1.4000000000000008},{"rt":33209.5,"response":{"Q1":"No.","Q2":"Based on the four features of the bee.","Q3":"You do not learn if it was friendly or dangerous, and do not alter your bonus."},"question_order":[0,1,2],"trial_type":"survey-multi-choice","trial_index":5,"time_elapsed":175323,"internal_node_id":"0.0-3.0-2.0","subject_id":"6154b3a7e4bc93e1ce93c6bc","study_id":"60edd13110225f80f9f3709b","session_id":"6196bf63bf4197ccaabe2f16","condition":"contingent","relevant_dimensions":["wings","legs"],"bee_group":{"antennae":"X","wings":"2","pattern":"X","legs":"M"},"correct":true,"bonus":1.4000000000000008},{"rt":2889.3000000000466,"stimulus":"<p>Congrats, you got everything right<br>When you're ready, click the button below to continue to the experiment.</p>","response":0,"trial_type":"html-button-response","trial_index":6,"time_elapsed":178216,"internal_node_id":"0.0-3.0-3.0","subject_id":"6154b3a7e4bc93e1ce93c6bc","study_id":"60edd13110225f80f9f3709b","session_id":"6196bf63bf4197ccaabe2f16","condition":"contingent","relevant_dimensions":["wings","legs"],"bee_group":{"antennae":"X","wings":"2","pattern":"X","legs":"M"},"bonus":1.4000000000000008},{"rt":5247.800000000047,"stimulus":"bees-with-color/bee-A1DF.svg","response":0,"trial_type":"image-button-response","trial_index":7,"time_elapsed":183466,"internal_node_id":"0.0-4.0-0.0","subject_id":"6154b3a7e4bc93e1ce93c6bc","study_id":"60edd13110225f80f9f3709b","session_id":"6196bf63bf4197ccaabe2f16","condition":"contingent","relevant_dimensions":["wings","legs"],"bee_group":{"antennae":"X","wings":"2","pattern":"X","legs":"M"},"action":"harvest","summary":"good-harvest","bonus":1.4000000000000008},{"rt":9246.300000000047,"stimulus":"\n                    <p><b>Action: <em>harvest</em></b></p>\n                    <p>This is the bee that you just saw.</p>\n                    <img src=\"bees-with-color/bee-A1DF.svg\" width=\"200\">\n                    <p><span class=\"greenText\"><b>Successful harvest!</b></span><br>Your pay has increased by $0.02. Your bonus pay is now $0.56.</p>\n            ","response":0,"trial_type":"html-button-response","trial_index":8,"time_elapsed":192715,"internal_node_id":"0.0-4.0-1.0","subject_id":"6154b3a7e4bc93e1ce93c6bc","study_id":"60edd13110225f80f9f3709b","session_id":"6196bf63bf4197ccaabe2f16","condition":"contingent","relevant_dimensions":["wings","legs"],"bee_group":{"antennae":"X","wings":"2","pattern":"X","legs":"M"},"bonus":1.4000000000000008},{"rt":3382.9000000000233,"stimulus":"bees-with-color/bee-A1DM.svg","response":0,"trial_type":"image-button-response","trial_index":9,"time_elapsed":196100,"internal_node_id":"0.0-4.0-0.1","subject_id":"6154b3a7e4bc93e1ce93c6bc","study_id":"60edd13110225f80f9f3709b","session_id":"6196bf63bf4197ccaabe2f16","condition":"contingent","relevant_dimensions":["wings","legs"],"bee_group":{"antennae":"X","wings":"2","pattern":"X","legs":"M"},"action":"harvest","summary":"good-harvest","bonus":1.4000000000000008},{"rt":5841.699999999953,"stimulus":"\n                    <p><b>Action: <em>harvest</em></b></p>\n                    <p>This is the bee that you just saw.</p>\n                    <img src=\"bees-with-color/bee-A1DM.svg\" width=\"200\">\n                    <p><span class=\"greenText\"><b>Successful harvest!</b></span><br>Your pay has increased by $0.02. Your bonus pay is now $0.58.</p>\n            ","response":0,"trial_type":"html-button-response","trial_index":10,"time_elapsed":201944,"internal_node_id":"0.0-4.0-1.1","subject_id":"6154b3a7e4bc93e1ce93c6bc","study_id":"60edd13110225f80f9f3709b","session_id":"6196bf63bf4197ccaabe2f16","condition":"contingent","relevant_dimensions":["wings","legs"],"bee_group":{"antennae":"X","wings":"2","pattern":"X","legs":"M"},"bonus":1.4000000000000008},{"rt":1976.4000000000233,"stimulus":"bees-with-color/bee-A1SF.svg","response":0,"trial_type":"image-button-response","trial_index":11,"time_elapsed":203922,"internal_node_id":"0.0-4.0-0.2","subject_id":"6154b3a7e4bc93e1ce93c6bc","study_id":"60edd13110225f80f9f3709b","session_id":"6196bf63bf4197ccaabe2f16","condition":"contingent","relevant_dimensions":["wings","legs"],"bee_group":{"antennae":"X","wings":"2","pattern":"X","legs":"M"},"action":"harvest","summary":"good-harvest","bonus":1.4000000000000008},{"rt":5359.599999999977,"stimulus":"\n                    <p><b>Action: <em>harvest</em></b></p>\n                    <p>This is the bee that you just saw.</p>\n                    <img src=\"bees-with-color/bee-A1SF.svg\" width=\"200\">\n                    <p><span class=\"greenText\"><b>Successful harvest!</b></span><br>Your pay has increased by $0.02. Your bonus pay is now $0.60.</p>\n            ","response":0,"trial_type":"html-button-response","trial_index":12,"time_elapsed":209284,"internal_node_id":"0.0-4.0-1.2","subject_id":"6154b3a7e4bc93e1ce93c6bc","study_id":"60edd13110225f80f9f3709b","session_id":"6196bf63bf4197ccaabe2f16","condition":"contingent","relevant_dimensions":["wings","legs"],"bee_group":{"antennae":"X","wings":"2","pattern":"X","legs":"M"},"bonus":1.4000000000000008},{"rt":2440.8000000000466,"stimulus":"bees-with-color/bee-B1SM.svg","response":0,"trial_type":"image-button-response","trial_index":13,"time_elapsed":211726,"internal_node_id":"0.0-4.0-0.3","subject_id":"6154b3a7e4bc93e1ce93c6bc","study_id":"60edd13110225f80f9f3709b","session_id":"6196bf63bf4197ccaabe2f16","condition":"contingent","relevant_dimensions":["wings","legs"],"bee_group":{"antennae":"X","wings":"2","pattern":"X","legs":"M"},"action":"harvest","summary":"good-harvest","bonus":1.4000000000000008},{"rt":6289,"stimulus":"\n                    <p><b>Action: <em>harvest</em></b></p>\n                    <p>This is the bee that you just saw.</p>\n                    <img src=\"bees-with-color/bee-B1SM.svg\" width=\"200\">\n                    <p><span class=\"greenText\"><b>Successful harvest!</b></span><br>Your pay has increased by $0.02. Your bonus pay is now $0.62.</p>\n            ","response":0,"trial_type":"html-button-response","trial_index":14,"time_elapsed":218016,"internal_node_id":"0.0-4.0-1.3","subject_id":"6154b3a7e4bc93e1ce93c6bc","study_id":"60edd13110225f80f9f3709b","session_id":"6196bf63bf4197ccaabe2f16","condition":"contingent","relevant_dimensions":["wings","legs"],"bee_group":{"antennae":"X","wings":"2","pattern":"X","legs":"M"},"bonus":1.4000000000000008},{"rt":2872.3000000000466,"stimulus":"bees-with-color/bee-B1DM.svg","response":0,"trial_type":"image-button-response","trial_index":15,"time_elapsed":220890,"internal_node_id":"0.0-4.0-0.4","subject_id":"6154b3a7e4bc93e1ce93c6bc","study_id":"60edd13110225f80f9f3709b","session_id":"6196bf63bf4197ccaabe2f16","condition":"contingent","relevant_dimensions":["wings","legs"],"bee_group":{"antennae":"X","wings":"2","pattern":"X","legs":"M"},"action":"harvest","summary":"good-harvest","bonus":1.4000000000000008},{"rt":4483.099999999977,"stimulus":"\n                    <p><b>Action: <em>harvest</em></b></p>\n                    <p>This is the bee that you just saw.</p>\n                    <img src=\"bees-with-color/bee-B1DM.svg\" width=\"200\">\n                    <p><span class=\"greenText\"><b>Successful harvest!</b></span><br>Your pay has increased by $0.02. Your bonus pay is now $0.64.</p>\n            ","response":0,"trial_type":"html-button-response","trial_index":16,"time_elapsed":225376,"internal_node_id":"0.0-4.0-1.4","subject_id":"6154b3a7e4bc93e1ce93c6bc","study_id":"60edd13110225f80f9f3709b","session_id":"6196bf63bf4197ccaabe2f16","condition":"contingent","relevant_dimensions":["wings","legs"],"bee_group":{"antennae":"X","wings":"2","pattern":"X","legs":"M"},"bonus":1.4000000000000008},{"rt":1816.0999999999767,"stimulus":"bees-with-color/bee-A2DM.svg","response":0,"trial_type":"image-button-response","trial_index":17,"time_elapsed":227193,"internal_node_id":"0.0-4.0-0.5","subject_id":"6154b3a7e4bc93e1ce93c6bc","study_id":"60edd13110225f80f9f3709b","session_id":"6196bf63bf4197ccaabe2f16","condition":"contingent","relevant_dimensions":["wings","legs"],"bee_group":{"antennae":"X","wings":"2","pattern":"X","legs":"M"},"action":"harvest","summary":"bad-harvest","bonus":1.4000000000000008},{"rt":9152.099999999977,"stimulus":"\n                    <p><b>Action: <em>harvest</em></b></p>\n                    <p>This is the bee that you just saw.</p>\n                    <img src=\"bees-with-color/bee-A2DM.svg\" width=\"200\">\n                    <p><span class=\"redText\">Bad choice, the bee was angry.</span><br><b>You have been stung!</b><br>Your pay has been decreased by $0.10. Your bonus pay is now $0.54.</p>\n            ","response":0,"trial_type":"html-button-response","trial_index":18,"time_elapsed":236347,"internal_node_id":"0.0-4.0-1.5","subject_id":"6154b3a7e4bc93e1ce93c6bc","study_id":"60edd13110225f80f9f3709b","session_id":"6196bf63bf4197ccaabe2f16","condition":"contingent","relevant_dimensions":["wings","legs"],"bee_group":{"antennae":"X","wings":"2","pattern":"X","legs":"M"},"bonus":1.4000000000000008},{"rt":1130.5,"stimulus":"bees-with-color/bee-B2SM.svg","response":1,"trial_type":"image-button-response","trial_index":19,"time_elapsed":237479,"internal_node_id":"0.0-4.0-0.6","subject_id":"6154b3a7e4bc93e1ce93c6bc","study_id":"60edd13110225f80f9f3709b","session_id":"6196bf63bf4197ccaabe2f16","condition":"contingent","relevant_dimensions":["wings","legs"],"bee_group":{"antennae":"X","wings":"2","pattern":"X","legs":"M"},"action":"avoid","summary":"good-avoid","bonus":1.4000000000000008},{"rt":2357.5999999999767,"stimulus":"\n                    <p><b>Action: <em>avoid</em></b></p>\n                    <p>This is the bee that you just saw.</p>\n                    <img src=\"bees-with-color/bee-B2SM.svg\" width=\"200\">\n                    <p><br>Your bonus pay is unchanged, and remains at $0.54.</p>\n            ","response":0,"trial_type":"html-button-response","trial_index":20,"time_elapsed":239838,"internal_node_id":"0.0-4.0-1.6","subject_id":"6154b3a7e4bc93e1ce93c6bc","study_id":"60edd13110225f80f9f3709b","session_id":"6196bf63bf4197ccaabe2f16","condition":"contingent","relevant_dimensions":["wings","legs"],"bee_group":{"antennae":"X","wings":"2","pattern":"X","legs":"M"},"bonus":1.4000000000000008},{"rt":1175.1999999999534,"stimulus":"bees-with-color/bee-B1DF.svg","response":0,"trial_type":"image-button-response","trial_index":21,"time_elapsed":241014,"internal_node_id":"0.0-4.0-0.7","subject_id":"6154b3a7e4bc93e1ce93c6bc","study_id":"60edd13110225f80f9f3709b","session_id":"6196bf63bf4197ccaabe2f16","condition":"contingent","relevant_dimensions":["wings","legs"],"bee_group":{"antennae":"X","wings":"2","pattern":"X","legs":"M"},"action":"harvest","summary":"good-harvest","bonus":1.4000000000000008},{"rt":1378.9000000000233,"stimulus":"\n                    <p><b>Action: <em>harvest</em></b></p>\n                    <p>This is the bee that you just saw.</p>\n                    <img src=\"bees-with-color/bee-B1DF.svg\" width=\"200\">\n                    <p><span class=\"greenText\"><b>Successful harvest!</b></span><br>Your pay has increased by $0.02. Your bonus pay is now $0.56.</p>\n            ","response":0,"trial_type":"html-button-response","trial_index":22,"time_elapsed":242395,"internal_node_id":"0.0-4.0-1.7","subject_id":"6154b3a7e4bc93e1ce93c6bc","study_id":"60edd13110225f80f9f3709b","session_id":"6196bf63bf4197ccaabe2f16","condition":"contingent","relevant_dimensions":["wings","legs"],"bee_group":{"antennae":"X","wings":"2","pattern":"X","legs":"M"},"bonus":1.4000000000000008},{"rt":1038.8000000000466,"stimulus":"bees-with-color/bee-B2DM.svg","response":1,"trial_type":"image-button-response","trial_index":23,"time_elapsed":243436,"internal_node_id":"0.0-4.0-0.8","subject_id":"6154b3a7e4bc93e1ce93c6bc","study_id":"60edd13110225f80f9f3709b","session_id":"6196bf63bf4197ccaabe2f16","condition":"contingent","relevant_dimensions":["wings","legs"],"bee_group":{"antennae":"X","wings":"2","pattern":"X","legs":"M"},"action":"avoid","summary":"good-avoid","bonus":1.4000000000000008},{"rt":1251.8999999999069,"stimulus":"\n                    <p><b>Action: <em>avoid</em></b></p>\n                    <p>This is the bee that you just saw.</p>\n                    <img src=\"bees-with-color/bee-B2DM.svg\" width=\"200\">\n                    <p><br>Your bonus pay is unchanged, and remains at $0.56.</p>\n            ","response":0,"trial_type":"html-button-response","trial_index":24,"time_elapsed":244689,"internal_node_id":"0.0-4.0-1.8","subject_id":"6154b3a7e4bc93e1ce93c6bc","study_id":"60edd13110225f80f9f3709b","session_id":"6196bf63bf4197ccaabe2f16","condition":"contingent","relevant_dimensions":["wings","legs"],"bee_group":{"antennae":"X","wings":"2","pattern":"X","legs":"M"},"bonus":1.4000000000000008},{"rt":5366.900000000023,"stimulus":"bees-with-color/bee-A1SM.svg","response":0,"trial_type":"image-button-response","trial_index":25,"time_elapsed":250057,"internal_node_id":"0.0-4.0-0.9","subject_id":"6154b3a7e4bc93e1ce93c6bc","study_id":"60edd13110225f80f9f3709b","session_id":"6196bf63bf4197ccaabe2f16","condition":"contingent","relevant_dimensions":["wings","legs"],"bee_group":{"antennae":"X","wings":"2","pattern":"X","legs":"M"},"action":"harvest","summary":"good-harvest","bonus":1.4000000000000008},{"rt":906.2999999999302,"stimulus":"\n                    <p><b>Action: <em>harvest</em></b></p>\n                    <p>This is the bee that you just saw.</p>\n                    <img src=\"bees-with-color/bee-A1SM.svg\" width=\"200\">\n                    <p><span class=\"greenText\"><b>Successful harvest!</b></span><br>Your pay has increased by $0.02. Your bonus pay is now $0.58.</p>\n            ","response":0,"trial_type":"html-button-response","trial_index":26,"time_elapsed":250965,"internal_node_id":"0.0-4.0-1.9","subject_id":"6154b3a7e4bc93e1ce93c6bc","study_id":"60edd13110225f80f9f3709b","session_id":"6196bf63bf4197ccaabe2f16","condition":"contingent","relevant_dimensions":["wings","legs"],"bee_group":{"antennae":"X","wings":"2","pattern":"X","legs":"M"},"bonus":1.4000000000000008},{"rt":760.1000000000931,"stimulus":"bees-with-color/bee-B1SF.svg","response":0,"trial_type":"image-button-response","trial_index":27,"time_elapsed":251727,"internal_node_id":"0.0-4.0-0.10","subject_id":"6154b3a7e4bc93e1ce93c6bc","study_id":"60edd13110225f80f9f3709b","session_id":"6196bf63bf4197ccaabe2f16","condition":"contingent","relevant_dimensions":["wings","legs"],"bee_group":{"antennae":"X","wings":"2","pattern":"X","legs":"M"},"action":"harvest","summary":"good-harvest","bonus":1.4000000000000008},{"rt":685.2000000000698,"stimulus":"\n                    <p><b>Action: <em>harvest</em></b></p>\n                    <p>This is the bee that you just saw.</p>\n                    <img src=\"bees-with-color/bee-B1SF.svg\" width=\"200\">\n                    <p><span class=\"greenText\"><b>Successful harvest!</b></span><br>Your pay has increased by $0.02. Your bonus pay is now $0.60.</p>\n            ","response":0,"trial_type":"html-button-response","trial_index":28,"time_elapsed":252413,"internal_node_id":"0.0-4.0-1.10","subject_id":"6154b3a7e4bc93e1ce93c6bc","study_id":"60edd13110225f80f9f3709b","session_id":"6196bf63bf4197ccaabe2f16","condition":"contingent","relevant_dimensions":["wings","legs"],"bee_group":{"antennae":"X","wings":"2","pattern":"X","legs":"M"},"bonus":1.4000000000000008},{"rt":930.1999999999534,"stimulus":"bees-with-color/bee-B2SF.svg","response":1,"trial_type":"image-button-response","trial_index":29,"time_elapsed":253345,"internal_node_id":"0.0-4.0-0.11","subject_id":"6154b3a7e4bc93e1ce93c6bc","study_id":"60edd13110225f80f9f3709b","session_id":"6196bf63bf4197ccaabe2f16","condition":"contingent","relevant_dimensions":["wings","legs"],"bee_group":{"antennae":"X","wings":"2","pattern":"X","legs":"M"},"action":"avoid","summary":"bad-avoid","bonus":1.4000000000000008},{"rt":879.7000000000698,"stimulus":"\n                    <p><b>Action: <em>avoid</em></b></p>\n                    <p>This is the bee that you just saw.</p>\n                    <img src=\"bees-with-color/bee-B2SF.svg\" width=\"200\">\n                    <p><br>Your bonus pay is unchanged, and remains at $0.60.</p>\n            ","response":0,"trial_type":"html-button-response","trial_index":30,"time_elapsed":254226,"internal_node_id":"0.0-4.0-1.11","subject_id":"6154b3a7e4bc93e1ce93c6bc","study_id":"60edd13110225f80f9f3709b","session_id":"6196bf63bf4197ccaabe2f16","condition":"contingent","relevant_dimensions":["wings","legs"],"bee_group":{"antennae":"X","wings":"2","pattern":"X","legs":"M"},"bonus":1.4000000000000008},{"rt":825.0999999999767,"stimulus":"bees-with-color/bee-A2SF.svg","response":1,"trial_type":"image-button-response","trial_index":31,"time_elapsed":255052,"internal_node_id":"0.0-4.0-0.12","subject_id":"6154b3a7e4bc93e1ce93c6bc","study_id":"60edd13110225f80f9f3709b","session_id":"6196bf63bf4197ccaabe2f16","condition":"contingent","relevant_dimensions":["wings","legs"],"bee_group":{"antennae":"X","wings":"2","pattern":"X","legs":"M"},"action":"avoid","summary":"bad-avoid","bonus":1.4000000000000008},{"rt":612.0999999999767,"stimulus":"\n                    <p><b>Action: <em>avoid</em></b></p>\n                    <p>This is the bee that you just saw.</p>\n                    <img src=\"bees-with-color/bee-A2SF.svg\" width=\"200\">\n                    <p><br>Your bonus pay is unchanged, and remains at $0.60.</p>\n            ","response":0,"trial_type":"html-button-response","trial_index":32,"time_elapsed":255666,"internal_node_id":"0.0-4.0-1.12","subject_id":"6154b3a7e4bc93e1ce93c6bc","study_id":"60edd13110225f80f9f3709b","session_id":"6196bf63bf4197ccaabe2f16","condition":"contingent","relevant_dimensions":["wings","legs"],"bee_group":{"antennae":"X","wings":"2","pattern":"X","legs":"M"},"bonus":1.4000000000000008},{"rt":994.9000000000233,"stimulus":"bees-with-color/bee-A2SM.svg","response":1,"trial_type":"image-button-response","trial_index":33,"time_elapsed":256662,"internal_node_id":"0.0-4.0-0.13","subject_id":"6154b3a7e4bc93e1ce93c6bc","study_id":"60edd13110225f80f9f3709b","session_id":"6196bf63bf4197ccaabe2f16","condition":"contingent","relevant_dimensions":["wings","legs"],"bee_group":{"antennae":"X","wings":"2","pattern":"X","legs":"M"},"action":"avoid","summary":"good-avoid","bonus":1.4000000000000008},{"rt":952.2000000000698,"stimulus":"\n                    <p><b>Action: <em>avoid</em></b></p>\n                    <p>This is the bee that you just saw.</p>\n                    <img src=\"bees-with-color/bee-A2SM.svg\" width=\"200\">\n                    <p><br>Your bonus pay is unchanged, and remains at $0.60.</p>\n            ","response":0,"trial_type":"html-button-response","trial_index":34,"time_elapsed":257616,"internal_node_id":"0.0-4.0-1.13","subject_id":"6154b3a7e4bc93e1ce93c6bc","study_id":"60edd13110225f80f9f3709b","session_id":"6196bf63bf4197ccaabe2f16","condition":"contingent","relevant_dimensions":["wings","legs"],"bee_group":{"antennae":"X","wings":"2","pattern":"X","legs":"M"},"bonus":1.4000000000000008},{"rt":2689.6999999999534,"stimulus":"bees-with-color/bee-A2DF.svg","response":1,"trial_type":"image-button-response","trial_index":35,"time_elapsed":260307,"internal_node_id":"0.0-4.0-0.14","subject_id":"6154b3a7e4bc93e1ce93c6bc","study_id":"60edd13110225f80f9f3709b","session_id":"6196bf63bf4197ccaabe2f16","condition":"contingent","relevant_dimensions":["wings","legs"],"bee_group":{"antennae":"X","wings":"2","pattern":"X","legs":"M"},"action":"avoid","summary":"bad-avoid","bonus":1.4000000000000008},{"rt":689.5,"stimulus":"\n                    <p><b>Action: <em>avoid</em></b></p>\n                    <p>This is the bee that you just saw.</p>\n                    <img src=\"bees-with-color/bee-A2DF.svg\" width=\"200\">\n                    <p><br>Your bonus pay is unchanged, and remains at $0.60.</p>\n            ","response":0,"trial_type":"html-button-response","trial_index":36,"time_elapsed":260998,"internal_node_id":"0.0-4.0-1.14","subject_id":"6154b3a7e4bc93e1ce93c6bc","study_id":"60edd13110225f80f9f3709b","session_id":"6196bf63bf4197ccaabe2f16","condition":"contingent","relevant_dimensions":["wings","legs"],"bee_group":{"antennae":"X","wings":"2","pattern":"X","legs":"M"},"bonus":1.4000000000000008},{"rt":2004.5999999999767,"stimulus":"bees-with-color/bee-B2DF.svg","response":1,"trial_type":"image-button-response","trial_index":37,"time_elapsed":263004,"internal_node_id":"0.0-4.0-0.15","subject_id":"6154b3a7e4bc93e1ce93c6bc","study_id":"60edd13110225f80f9f3709b","session_id":"6196bf63bf4197ccaabe2f16","condition":"contingent","relevant_dimensions":["wings","legs"],"bee_group":{"antennae":"X","wings":"2","pattern":"X","legs":"M"},"action":"avoid","summary":"bad-avoid","bonus":1.4000000000000008},{"rt":639.1999999999534,"stimulus":"\n                    <p><b>Action: <em>avoid</em></b></p>\n                    <p>This is the bee that you just saw.</p>\n                    <img src=\"bees-with-color/bee-B2DF.svg\" width=\"200\">\n                    <p><br>Your bonus pay is unchanged, and remains at $0.60.</p>\n            ","response":0,"trial_type":"html-button-response","trial_index":38,"time_elapsed":263645,"internal_node_id":"0.0-4.0-1.15","subject_id":"6154b3a7e4bc93e1ce93c6bc","study_id":"60edd13110225f80f9f3709b","session_id":"6196bf63bf4197ccaabe2f16","condition":"contingent","relevant_dimensions":["wings","legs"],"bee_group":{"antennae":"X","wings":"2","pattern":"X","legs":"M"},"bonus":1.4000000000000008},{"rt":883.5,"stimulus":"bees-with-color/bee-B1DF.svg","response":0,"trial_type":"image-button-response","trial_index":39,"time_elapsed":264529,"internal_node_id":"0.0-4.0-0.16","subject_id":"6154b3a7e4bc93e1ce93c6bc","study_id":"60edd13110225f80f9f3709b","session_id":"6196bf63bf4197ccaabe2f16","condition":"contingent","relevant_dimensions":["wings","legs"],"bee_group":{"antennae":"X","wings":"2","pattern":"X","legs":"M"},"action":"harvest","summary":"good-harvest","bonus":1.4000000000000008},{"rt":724.7999999999302,"stimulus":"\n                    <p><b>Action: <em>harvest</em></b></p>\n                    <p>This is the bee that you just saw.</p>\n                    <img src=\"bees-with-color/bee-B1DF.svg\" width=\"200\">\n                    <p><span class=\"greenText\"><b>Successful harvest!</b></span><br>Your pay has increased by $0.02. Your bonus pay is now $0.62.</p>\n            ","response":0,"trial_type":"html-button-response","trial_index":40,"time_elapsed":265256,"internal_node_id":"0.0-4.0-1.16","subject_id":"6154b3a7e4bc93e1ce93c6bc","study_id":"60edd13110225f80f9f3709b","session_id":"6196bf63bf4197ccaabe2f16","condition":"contingent","relevant_dimensions":["wings","legs"],"bee_group":{"antennae":"X","wings":"2","pattern":"X","legs":"M"},"bonus":1.4000000000000008},{"rt":1086.6999999999534,"stimulus":"bees-with-color/bee-B2SF.svg","response":1,"trial_type":"image-button-response","trial_index":41,"time_elapsed":266343,"internal_node_id":"0.0-4.0-0.17","subject_id":"6154b3a7e4bc93e1ce93c6bc","study_id":"60edd13110225f80f9f3709b","session_id":"6196bf63bf4197ccaabe2f16","condition":"contingent","relevant_dimensions":["wings","legs"],"bee_group":{"antennae":"X","wings":"2","pattern":"X","legs":"M"},"action":"avoid","summary":"bad-avoid","bonus":1.4000000000000008},{"rt":541.2999999999302,"stimulus":"\n                    <p><b>Action: <em>avoid</em></b></p>\n                    <p>This is the bee that you just saw.</p>\n                    <img src=\"bees-with-color/bee-B2SF.svg\" width=\"200\">\n                    <p><br>Your bonus pay is unchanged, and remains at $0.62.</p>\n            ","response":0,"trial_type":"html-button-response","trial_index":42,"time_elapsed":266886,"internal_node_id":"0.0-4.0-1.17","subject_id":"6154b3a7e4bc93e1ce93c6bc","study_id":"60edd13110225f80f9f3709b","session_id":"6196bf63bf4197ccaabe2f16","condition":"contingent","relevant_dimensions":["wings","legs"],"bee_group":{"antennae":"X","wings":"2","pattern":"X","legs":"M"},"bonus":1.4000000000000008},{"rt":10806.800000000047,"stimulus":"bees-with-color/bee-B2DF.svg","response":1,"trial_type":"image-button-response","trial_index":43,"time_elapsed":277694,"internal_node_id":"0.0-4.0-0.18","subject_id":"6154b3a7e4bc93e1ce93c6bc","study_id":"60edd13110225f80f9f3709b","session_id":"6196bf63bf4197ccaabe2f16","condition":"contingent","relevant_dimensions":["wings","legs"],"bee_group":{"antennae":"X","wings":"2","pattern":"X","legs":"M"},"action":"avoid","summary":"bad-avoid","bonus":1.4000000000000008},{"rt":1045.0999999999767,"stimulus":"\n                    <p><b>Action: <em>avoid</em></b></p>\n                    <p>This is the bee that you just saw.</p>\n                    <img src=\"bees-with-color/bee-B2DF.svg\" width=\"200\">\n                    <p><br>Your bonus pay is unchanged, and remains at $0.62.</p>\n            ","response":0,"trial_type":"html-button-response","trial_index":44,"time_elapsed":278741,"internal_node_id":"0.0-4.0-1.18","subject_id":"6154b3a7e4bc93e1ce93c6bc","study_id":"60edd13110225f80f9f3709b","session_id":"6196bf63bf4197ccaabe2f16","condition":"contingent","relevant_dimensions":["wings","legs"],"bee_group":{"antennae":"X","wings":"2","pattern":"X","legs":"M"},"bonus":1.4000000000000008},{"rt":1494.8000000000466,"stimulus":"bees-with-color/bee-B1DM.svg","response":0,"trial_type":"image-button-response","trial_index":45,"time_elapsed":280237,"internal_node_id":"0.0-4.0-0.19","subject_id":"6154b3a7e4bc93e1ce93c6bc","study_id":"60edd13110225f80f9f3709b","session_id":"6196bf63bf4197ccaabe2f16","condition":"contingent","relevant_dimensions":["wings","legs"],"bee_group":{"antennae":"X","wings":"2","pattern":"X","legs":"M"},"action":"harvest","summary":"good-harvest","bonus":1.4000000000000008},{"rt":832.2000000000698,"stimulus":"\n                    <p><b>Action: <em>harvest</em></b></p>\n                    <p>This is the bee that you just saw.</p>\n                    <img src=\"bees-with-color/bee-B1DM.svg\" width=\"200\">\n                    <p><span class=\"greenText\"><b>Successful harvest!</b></span><br>Your pay has increased by $0.02. Your bonus pay is now $0.64.</p>\n            ","response":0,"trial_type":"html-button-response","trial_index":46,"time_elapsed":281071,"internal_node_id":"0.0-4.0-1.19","subject_id":"6154b3a7e4bc93e1ce93c6bc","study_id":"60edd13110225f80f9f3709b","session_id":"6196bf63bf4197ccaabe2f16","condition":"contingent","relevant_dimensions":["wings","legs"],"bee_group":{"antennae":"X","wings":"2","pattern":"X","legs":"M"},"bonus":1.4000000000000008},{"rt":2830.9000000000233,"stimulus":"bees-with-color/bee-A2DM.svg","response":1,"trial_type":"image-button-response","trial_index":47,"time_elapsed":283903,"internal_node_id":"0.0-4.0-0.20","subject_id":"6154b3a7e4bc93e1ce93c6bc","study_id":"60edd13110225f80f9f3709b","session_id":"6196bf63bf4197ccaabe2f16","condition":"contingent","relevant_dimensions":["wings","legs"],"bee_group":{"antennae":"X","wings":"2","pattern":"X","legs":"M"},"action":"avoid","summary":"good-avoid","bonus":1.4000000000000008},{"rt":1012.0999999999767,"stimulus":"\n                    <p><b>Action: <em>avoid</em></b></p>\n                    <p>This is the bee that you just saw.</p>\n                    <img src=\"bees-with-color/bee-A2DM.svg\" width=\"200\">\n                    <p><br>Your bonus pay is unchanged, and remains at $0.64.</p>\n            ","response":0,"trial_type":"html-button-response","trial_index":48,"time_elapsed":284917,"internal_node_id":"0.0-4.0-1.20","subject_id":"6154b3a7e4bc93e1ce93c6bc","study_id":"60edd13110225f80f9f3709b","session_id":"6196bf63bf4197ccaabe2f16","condition":"contingent","relevant_dimensions":["wings","legs"],"bee_group":{"antennae":"X","wings":"2","pattern":"X","legs":"M"},"bonus":1.4000000000000008},{"rt":776,"stimulus":"bees-with-color/bee-A2DF.svg","response":1,"trial_type":"image-button-response","trial_index":49,"time_elapsed":285695,"internal_node_id":"0.0-4.0-0.21","subject_id":"6154b3a7e4bc93e1ce93c6bc","study_id":"60edd13110225f80f9f3709b","session_id":"6196bf63bf4197ccaabe2f16","condition":"contingent","relevant_dimensions":["wings","legs"],"bee_group":{"antennae":"X","wings":"2","pattern":"X","legs":"M"},"action":"avoid","summary":"bad-avoid","bonus":1.4000000000000008},{"rt":720.0999999999767,"stimulus":"\n                    <p><b>Action: <em>avoid</em></b></p>\n                    <p>This is the bee that you just saw.</p>\n                    <img src=\"bees-with-color/bee-A2DF.svg\" width=\"200\">\n                    <p><br>Your bonus pay is unchanged, and remains at $0.64.</p>\n            ","response":0,"trial_type":"html-button-response","trial_index":50,"time_elapsed":286417,"internal_node_id":"0.0-4.0-1.21","subject_id":"6154b3a7e4bc93e1ce93c6bc","study_id":"60edd13110225f80f9f3709b","session_id":"6196bf63bf4197ccaabe2f16","condition":"contingent","relevant_dimensions":["wings","legs"],"bee_group":{"antennae":"X","wings":"2","pattern":"X","legs":"M"},"bonus":1.4000000000000008},{"rt":713.4000000000233,"stimulus":"bees-with-color/bee-A2SF.svg","response":1,"trial_type":"image-button-response","trial_index":51,"time_elapsed":287131,"internal_node_id":"0.0-4.0-0.22","subject_id":"6154b3a7e4bc93e1ce93c6bc","study_id":"60edd13110225f80f9f3709b","session_id":"6196bf63bf4197ccaabe2f16","condition":"contingent","relevant_dimensions":["wings","legs"],"bee_group":{"antennae":"X","wings":"2","pattern":"X","legs":"M"},"action":"avoid","summary":"bad-avoid","bonus":1.4000000000000008},{"rt":598,"stimulus":"\n                    <p><b>Action: <em>avoid</em></b></p>\n                    <p>This is the bee that you just saw.</p>\n                    <img src=\"bees-with-color/bee-A2SF.svg\" width=\"200\">\n                    <p><br>Your bonus pay is unchanged, and remains at $0.64.</p>\n            ","response":0,"trial_type":"html-button-response","trial_index":52,"time_elapsed":287731,"internal_node_id":"0.0-4.0-1.22","subject_id":"6154b3a7e4bc93e1ce93c6bc","study_id":"60edd13110225f80f9f3709b","session_id":"6196bf63bf4197ccaabe2f16","condition":"contingent","relevant_dimensions":["wings","legs"],"bee_group":{"antennae":"X","wings":"2","pattern":"X","legs":"M"},"bonus":1.4000000000000008},{"rt":1806.0999999999767,"stimulus":"bees-with-color/bee-B2DM.svg","response":1,"trial_type":"image-button-response","trial_index":53,"time_elapsed":289537,"internal_node_id":"0.0-4.0-0.23","subject_id":"6154b3a7e4bc93e1ce93c6bc","study_id":"60edd13110225f80f9f3709b","session_id":"6196bf63bf4197ccaabe2f16","condition":"contingent","relevant_dimensions":["wings","legs"],"bee_group":{"antennae":"X","wings":"2","pattern":"X","legs":"M"},"action":"avoid","summary":"good-avoid","bonus":1.4000000000000008},{"rt":639.0999999999767,"stimulus":"\n                    <p><b>Action: <em>avoid</em></b></p>\n                    <p>This is the bee that you just saw.</p>\n                    <img src=\"bees-with-color/bee-B2DM.svg\" width=\"200\">\n                    <p><br>Your bonus pay is unchanged, and remains at $0.64.</p>\n            ","response":0,"trial_type":"html-button-response","trial_index":54,"time_elapsed":290179,"internal_node_id":"0.0-4.0-1.23","subject_id":"6154b3a7e4bc93e1ce93c6bc","study_id":"60edd13110225f80f9f3709b","session_id":"6196bf63bf4197ccaabe2f16","condition":"contingent","relevant_dimensions":["wings","legs"],"bee_group":{"antennae":"X","wings":"2","pattern":"X","legs":"M"},"bonus":1.4000000000000008},{"rt":1335.5,"stimulus":"bees-with-color/bee-A1DF.svg","response":0,"trial_type":"image-button-response","trial_index":55,"time_elapsed":291516,"internal_node_id":"0.0-4.0-0.24","subject_id":"6154b3a7e4bc93e1ce93c6bc","study_id":"60edd13110225f80f9f3709b","session_id":"6196bf63bf4197ccaabe2f16","condition":"contingent","relevant_dimensions":["wings","legs"],"bee_group":{"antennae":"X","wings":"2","pattern":"X","legs":"M"},"action":"harvest","summary":"good-harvest","bonus":1.4000000000000008},{"rt":738.3000000000466,"stimulus":"\n                    <p><b>Action: <em>harvest</em></b></p>\n                    <p>This is the bee that you just saw.</p>\n                    <img src=\"bees-with-color/bee-A1DF.svg\" width=\"200\">\n                    <p><span class=\"greenText\"><b>Successful harvest!</b></span><br>Your pay has increased by $0.02. Your bonus pay is now $0.66.</p>\n            ","response":0,"trial_type":"html-button-response","trial_index":56,"time_elapsed":292255,"internal_node_id":"0.0-4.0-1.24","subject_id":"6154b3a7e4bc93e1ce93c6bc","study_id":"60edd13110225f80f9f3709b","session_id":"6196bf63bf4197ccaabe2f16","condition":"contingent","relevant_dimensions":["wings","legs"],"bee_group":{"antennae":"X","wings":"2","pattern":"X","legs":"M"},"bonus":1.4000000000000008},{"rt":1322.3000000000466,"stimulus":"bees-with-color/bee-A1DM.svg","response":0,"trial_type":"image-button-response","trial_index":57,"time_elapsed":293579,"internal_node_id":"0.0-4.0-0.25","subject_id":"6154b3a7e4bc93e1ce93c6bc","study_id":"60edd13110225f80f9f3709b","session_id":"6196bf63bf4197ccaabe2f16","condition":"contingent","relevant_dimensions":["wings","legs"],"bee_group":{"antennae":"X","wings":"2","pattern":"X","legs":"M"},"action":"harvest","summary":"good-harvest","bonus":1.4000000000000008},{"rt":1003.6999999999534,"stimulus":"\n                    <p><b>Action: <em>harvest</em></b></p>\n                    <p>This is the bee that you just saw.</p>\n                    <img src=\"bees-with-color/bee-A1DM.svg\" width=\"200\">\n                    <p><span class=\"greenText\"><b>Successful harvest!</b></span><br>Your pay has increased by $0.02. Your bonus pay is now $0.68.</p>\n            ","response":0,"trial_type":"html-button-response","trial_index":58,"time_elapsed":294584,"internal_node_id":"0.0-4.0-1.25","subject_id":"6154b3a7e4bc93e1ce93c6bc","study_id":"60edd13110225f80f9f3709b","session_id":"6196bf63bf4197ccaabe2f16","condition":"contingent","relevant_dimensions":["wings","legs"],"bee_group":{"antennae":"X","wings":"2","pattern":"X","legs":"M"},"bonus":1.4000000000000008},{"rt":1052.0999999999767,"stimulus":"bees-with-color/bee-A2SM.svg","response":1,"trial_type":"image-button-response","trial_index":59,"time_elapsed":295637,"internal_node_id":"0.0-4.0-0.26","subject_id":"6154b3a7e4bc93e1ce93c6bc","study_id":"60edd13110225f80f9f3709b","session_id":"6196bf63bf4197ccaabe2f16","condition":"contingent","relevant_dimensions":["wings","legs"],"bee_group":{"antennae":"X","wings":"2","pattern":"X","legs":"M"},"action":"avoid","summary":"good-avoid","bonus":1.4000000000000008},{"rt":780.9000000000233,"stimulus":"\n                    <p><b>Action: <em>avoid</em></b></p>\n                    <p>This is the bee that you just saw.</p>\n                    <img src=\"bees-with-color/bee-A2SM.svg\" width=\"200\">\n                    <p><br>Your bonus pay is unchanged, and remains at $0.68.</p>\n            ","response":0,"trial_type":"html-button-response","trial_index":60,"time_elapsed":296419,"internal_node_id":"0.0-4.0-1.26","subject_id":"6154b3a7e4bc93e1ce93c6bc","study_id":"60edd13110225f80f9f3709b","session_id":"6196bf63bf4197ccaabe2f16","condition":"contingent","relevant_dimensions":["wings","legs"],"bee_group":{"antennae":"X","wings":"2","pattern":"X","legs":"M"},"bonus":1.4000000000000008},{"rt":4637.699999999953,"stimulus":"bees-with-color/bee-B1SF.svg","response":0,"trial_type":"image-button-response","trial_index":61,"time_elapsed":301058,"internal_node_id":"0.0-4.0-0.27","subject_id":"6154b3a7e4bc93e1ce93c6bc","study_id":"60edd13110225f80f9f3709b","session_id":"6196bf63bf4197ccaabe2f16","condition":"contingent","relevant_dimensions":["wings","legs"],"bee_group":{"antennae":"X","wings":"2","pattern":"X","legs":"M"},"action":"harvest","summary":"good-harvest","bonus":1.4000000000000008},{"rt":811.0999999999767,"stimulus":"\n                    <p><b>Action: <em>harvest</em></b></p>\n                    <p>This is the bee that you just saw.</p>\n                    <img src=\"bees-with-color/bee-B1SF.svg\" width=\"200\">\n                    <p><span class=\"greenText\"><b>Successful harvest!</b></span><br>Your pay has increased by $0.02. Your bonus pay is now $0.70.</p>\n            ","response":0,"trial_type":"html-button-response","trial_index":62,"time_elapsed":301870,"internal_node_id":"0.0-4.0-1.27","subject_id":"6154b3a7e4bc93e1ce93c6bc","study_id":"60edd13110225f80f9f3709b","session_id":"6196bf63bf4197ccaabe2f16","condition":"contingent","relevant_dimensions":["wings","legs"],"bee_group":{"antennae":"X","wings":"2","pattern":"X","legs":"M"},"bonus":1.4000000000000008},{"rt":1303.2000000000698,"stimulus":"bees-with-color/bee-B1SM.svg","response":0,"trial_type":"image-button-response","trial_index":63,"time_elapsed":303175,"internal_node_id":"0.0-4.0-0.28","subject_id":"6154b3a7e4bc93e1ce93c6bc","study_id":"60edd13110225f80f9f3709b","session_id":"6196bf63bf4197ccaabe2f16","condition":"contingent","relevant_dimensions":["wings","legs"],"bee_group":{"antennae":"X","wings":"2","pattern":"X","legs":"M"},"action":"harvest","summary":"good-harvest","bonus":1.4000000000000008},{"rt":1029.5,"stimulus":"\n                    <p><b>Action: <em>harvest</em></b></p>\n                    <p>This is the bee that you just saw.</p>\n                    <img src=\"bees-with-color/bee-B1SM.svg\" width=\"200\">\n                    <p><span class=\"greenText\"><b>Successful harvest!</b></span><br>Your pay has increased by $0.02. Your bonus pay is now $0.72.</p>\n            ","response":0,"trial_type":"html-button-response","trial_index":64,"time_elapsed":304206,"internal_node_id":"0.0-4.0-1.28","subject_id":"6154b3a7e4bc93e1ce93c6bc","study_id":"60edd13110225f80f9f3709b","session_id":"6196bf63bf4197ccaabe2f16","condition":"contingent","relevant_dimensions":["wings","legs"],"bee_group":{"antennae":"X","wings":"2","pattern":"X","legs":"M"},"bonus":1.4000000000000008},{"rt":701.9000000000233,"stimulus":"bees-with-color/bee-B2SM.svg","response":1,"trial_type":"image-button-response","trial_index":65,"time_elapsed":304909,"internal_node_id":"0.0-4.0-0.29","subject_id":"6154b3a7e4bc93e1ce93c6bc","study_id":"60edd13110225f80f9f3709b","session_id":"6196bf63bf4197ccaabe2f16","condition":"contingent","relevant_dimensions":["wings","legs"],"bee_group":{"antennae":"X","wings":"2","pattern":"X","legs":"M"},"action":"avoid","summary":"good-avoid","bonus":1.4000000000000008},{"rt":640.2000000000698,"stimulus":"\n                    <p><b>Action: <em>avoid</em></b></p>\n                    <p>This is the bee that you just saw.</p>\n                    <img src=\"bees-with-color/bee-B2SM.svg\" width=\"200\">\n                    <p><br>Your bonus pay is unchanged, and remains at $0.72.</p>\n            ","response":0,"trial_type":"html-button-response","trial_index":66,"time_elapsed":305551,"internal_node_id":"0.0-4.0-1.29","subject_id":"6154b3a7e4bc93e1ce93c6bc","study_id":"60edd13110225f80f9f3709b","session_id":"6196bf63bf4197ccaabe2f16","condition":"contingent","relevant_dimensions":["wings","legs"],"bee_group":{"antennae":"X","wings":"2","pattern":"X","legs":"M"},"bonus":1.4000000000000008},{"rt":2247.399999999907,"stimulus":"bees-with-color/bee-A1SM.svg","response":0,"trial_type":"image-button-response","trial_index":67,"time_elapsed":307799,"internal_node_id":"0.0-4.0-0.30","subject_id":"6154b3a7e4bc93e1ce93c6bc","study_id":"60edd13110225f80f9f3709b","session_id":"6196bf63bf4197ccaabe2f16","condition":"contingent","relevant_dimensions":["wings","legs"],"bee_group":{"antennae":"X","wings":"2","pattern":"X","legs":"M"},"action":"harvest","summary":"good-harvest","bonus":1.4000000000000008},{"rt":659.2000000000698,"stimulus":"\n                    <p><b>Action: <em>harvest</em></b></p>\n                    <p>This is the bee that you just saw.</p>\n                    <img src=\"bees-with-color/bee-A1SM.svg\" width=\"200\">\n                    <p><span class=\"greenText\"><b>Successful harvest!</b></span><br>Your pay has increased by $0.02. Your bonus pay is now $0.74.</p>\n            ","response":0,"trial_type":"html-button-response","trial_index":68,"time_elapsed":308459,"internal_node_id":"0.0-4.0-1.30","subject_id":"6154b3a7e4bc93e1ce93c6bc","study_id":"60edd13110225f80f9f3709b","session_id":"6196bf63bf4197ccaabe2f16","condition":"contingent","relevant_dimensions":["wings","legs"],"bee_group":{"antennae":"X","wings":"2","pattern":"X","legs":"M"},"bonus":1.4000000000000008},{"rt":2137.600000000093,"stimulus":"bees-with-color/bee-A1SF.svg","response":0,"trial_type":"image-button-response","trial_index":69,"time_elapsed":310598,"internal_node_id":"0.0-4.0-0.31","subject_id":"6154b3a7e4bc93e1ce93c6bc","study_id":"60edd13110225f80f9f3709b","session_id":"6196bf63bf4197ccaabe2f16","condition":"contingent","relevant_dimensions":["wings","legs"],"bee_group":{"antennae":"X","wings":"2","pattern":"X","legs":"M"},"action":"harvest","summary":"good-harvest","bonus":1.4000000000000008},{"rt":1250.6999999999534,"stimulus":"\n                    <p><b>Action: <em>harvest</em></b></p>\n                    <p>This is the bee that you just saw.</p>\n                    <img src=\"bees-with-color/bee-A1SF.svg\" width=\"200\">\n                    <p><span class=\"greenText\"><b>Successful harvest!</b></span><br>Your pay has increased by $0.02. Your bonus pay is now $0.76.</p>\n            ","response":0,"trial_type":"html-button-response","trial_index":70,"time_elapsed":311850,"internal_node_id":"0.0-4.0-1.31","subject_id":"6154b3a7e4bc93e1ce93c6bc","study_id":"60edd13110225f80f9f3709b","session_id":"6196bf63bf4197ccaabe2f16","condition":"contingent","relevant_dimensions":["wings","legs"],"bee_group":{"antennae":"X","wings":"2","pattern":"X","legs":"M"},"bonus":1.4000000000000008},{"rt":1167.5,"stimulus":"bees-with-color/bee-B2DM.svg","response":1,"trial_type":"image-button-response","trial_index":71,"time_elapsed":313020,"internal_node_id":"0.0-4.0-0.32","subject_id":"6154b3a7e4bc93e1ce93c6bc","study_id":"60edd13110225f80f9f3709b","session_id":"6196bf63bf4197ccaabe2f16","condition":"contingent","relevant_dimensions":["wings","legs"],"bee_group":{"antennae":"X","wings":"2","pattern":"X","legs":"M"},"action":"avoid","summary":"good-avoid","bonus":1.4000000000000008},{"rt":571.2999999999302,"stimulus":"\n                    <p><b>Action: <em>avoid</em></b></p>\n                    <p>This is the bee that you just saw.</p>\n                    <img src=\"bees-with-color/bee-B2DM.svg\" width=\"200\">\n                    <p><br>Your bonus pay is unchanged, and remains at $0.76.</p>\n            ","response":0,"trial_type":"html-button-response","trial_index":72,"time_elapsed":313593,"internal_node_id":"0.0-4.0-1.32","subject_id":"6154b3a7e4bc93e1ce93c6bc","study_id":"60edd13110225f80f9f3709b","session_id":"6196bf63bf4197ccaabe2f16","condition":"contingent","relevant_dimensions":["wings","legs"],"bee_group":{"antennae":"X","wings":"2","pattern":"X","legs":"M"},"bonus":1.4000000000000008},{"rt":758,"stimulus":"bees-with-color/bee-B1DM.svg","response":0,"trial_type":"image-button-response","trial_index":73,"time_elapsed":314352,"internal_node_id":"0.0-4.0-0.33","subject_id":"6154b3a7e4bc93e1ce93c6bc","study_id":"60edd13110225f80f9f3709b","session_id":"6196bf63bf4197ccaabe2f16","condition":"contingent","relevant_dimensions":["wings","legs"],"bee_group":{"antennae":"X","wings":"2","pattern":"X","legs":"M"},"action":"harvest","summary":"good-harvest","bonus":1.4000000000000008},{"rt":517.1999999999534,"stimulus":"\n                    <p><b>Action: <em>harvest</em></b></p>\n                    <p>This is the bee that you just saw.</p>\n                    <img src=\"bees-with-color/bee-B1DM.svg\" width=\"200\">\n                    <p><span class=\"greenText\"><b>Successful harvest!</b></span><br>Your pay has increased by $0.02. Your bonus pay is now $0.78.</p>\n            ","response":0,"trial_type":"html-button-response","trial_index":74,"time_elapsed":314871,"internal_node_id":"0.0-4.0-1.33","subject_id":"6154b3a7e4bc93e1ce93c6bc","study_id":"60edd13110225f80f9f3709b","session_id":"6196bf63bf4197ccaabe2f16","condition":"contingent","relevant_dimensions":["wings","legs"],"bee_group":{"antennae":"X","wings":"2","pattern":"X","legs":"M"},"bonus":1.4000000000000008},{"rt":826.6999999999534,"stimulus":"bees-with-color/bee-A1SM.svg","response":0,"trial_type":"image-button-response","trial_index":75,"time_elapsed":315699,"internal_node_id":"0.0-4.0-0.34","subject_id":"6154b3a7e4bc93e1ce93c6bc","study_id":"60edd13110225f80f9f3709b","session_id":"6196bf63bf4197ccaabe2f16","condition":"contingent","relevant_dimensions":["wings","legs"],"bee_group":{"antennae":"X","wings":"2","pattern":"X","legs":"M"},"action":"harvest","summary":"good-harvest","bonus":1.4000000000000008},{"rt":556.3000000000466,"stimulus":"\n                    <p><b>Action: <em>harvest</em></b></p>\n                    <p>This is the bee that you just saw.</p>\n                    <img src=\"bees-with-color/bee-A1SM.svg\" width=\"200\">\n                    <p><span class=\"greenText\"><b>Successful harvest!</b></span><br>Your pay has increased by $0.02. Your bonus pay is now $0.80.</p>\n            ","response":0,"trial_type":"html-button-response","trial_index":76,"time_elapsed":316257,"internal_node_id":"0.0-4.0-1.34","subject_id":"6154b3a7e4bc93e1ce93c6bc","study_id":"60edd13110225f80f9f3709b","session_id":"6196bf63bf4197ccaabe2f16","condition":"contingent","relevant_dimensions":["wings","legs"],"bee_group":{"antennae":"X","wings":"2","pattern":"X","legs":"M"},"bonus":1.4000000000000008},{"rt":4943.599999999977,"stimulus":"bees-with-color/bee-A1SF.svg","response":0,"trial_type":"image-button-response","trial_index":77,"time_elapsed":321202,"internal_node_id":"0.0-4.0-0.35","subject_id":"6154b3a7e4bc93e1ce93c6bc","study_id":"60edd13110225f80f9f3709b","session_id":"6196bf63bf4197ccaabe2f16","condition":"contingent","relevant_dimensions":["wings","legs"],"bee_group":{"antennae":"X","wings":"2","pattern":"X","legs":"M"},"action":"harvest","summary":"good-harvest","bonus":1.4000000000000008},{"rt":563.0999999999767,"stimulus":"\n                    <p><b>Action: <em>harvest</em></b></p>\n                    <p>This is the bee that you just saw.</p>\n                    <img src=\"bees-with-color/bee-A1SF.svg\" width=\"200\">\n                    <p><span class=\"greenText\"><b>Successful harvest!</b></span><br>Your pay has increased by $0.02. Your bonus pay is now $0.82.</p>\n            ","response":0,"trial_type":"html-button-response","trial_index":78,"time_elapsed":321766,"internal_node_id":"0.0-4.0-1.35","subject_id":"6154b3a7e4bc93e1ce93c6bc","study_id":"60edd13110225f80f9f3709b","session_id":"6196bf63bf4197ccaabe2f16","condition":"contingent","relevant_dimensions":["wings","legs"],"bee_group":{"antennae":"X","wings":"2","pattern":"X","legs":"M"},"bonus":1.4000000000000008},{"rt":1051.2999999999302,"stimulus":"bees-with-color/bee-A2DM.svg","response":1,"trial_type":"image-button-response","trial_index":79,"time_elapsed":322819,"internal_node_id":"0.0-4.0-0.36","subject_id":"6154b3a7e4bc93e1ce93c6bc","study_id":"60edd13110225f80f9f3709b","session_id":"6196bf63bf4197ccaabe2f16","condition":"contingent","relevant_dimensions":["wings","legs"],"bee_group":{"antennae":"X","wings":"2","pattern":"X","legs":"M"},"action":"avoid","summary":"good-avoid","bonus":1.4000000000000008},{"rt":746.0999999999767,"stimulus":"\n                    <p><b>Action: <em>avoid</em></b></p>\n                    <p>This is the bee that you just saw.</p>\n                    <img src=\"bees-with-color/bee-A2DM.svg\" width=\"200\">\n                    <p><br>Your bonus pay is unchanged, and remains at $0.82.</p>\n            ","response":0,"trial_type":"html-button-response","trial_index":80,"time_elapsed":323566,"internal_node_id":"0.0-4.0-1.36","subject_id":"6154b3a7e4bc93e1ce93c6bc","study_id":"60edd13110225f80f9f3709b","session_id":"6196bf63bf4197ccaabe2f16","condition":"contingent","relevant_dimensions":["wings","legs"],"bee_group":{"antennae":"X","wings":"2","pattern":"X","legs":"M"},"bonus":1.4000000000000008},{"rt":1641.3999999999069,"stimulus":"bees-with-color/bee-B1SM.svg","response":0,"trial_type":"image-button-response","trial_index":81,"time_elapsed":325209,"internal_node_id":"0.0-4.0-0.37","subject_id":"6154b3a7e4bc93e1ce93c6bc","study_id":"60edd13110225f80f9f3709b","session_id":"6196bf63bf4197ccaabe2f16","condition":"contingent","relevant_dimensions":["wings","legs"],"bee_group":{"antennae":"X","wings":"2","pattern":"X","legs":"M"},"action":"harvest","summary":"good-harvest","bonus":1.4000000000000008},{"rt":562.5,"stimulus":"\n                    <p><b>Action: <em>harvest</em></b></p>\n                    <p>This is the bee that you just saw.</p>\n                    <img src=\"bees-with-color/bee-B1SM.svg\" width=\"200\">\n                    <p><span class=\"greenText\"><b>Successful harvest!</b></span><br>Your pay has increased by $0.02. Your bonus pay is now $0.84.</p>\n            ","response":0,"trial_type":"html-button-response","trial_index":82,"time_elapsed":325773,"internal_node_id":"0.0-4.0-1.37","subject_id":"6154b3a7e4bc93e1ce93c6bc","study_id":"60edd13110225f80f9f3709b","session_id":"6196bf63bf4197ccaabe2f16","condition":"contingent","relevant_dimensions":["wings","legs"],"bee_group":{"antennae":"X","wings":"2","pattern":"X","legs":"M"},"bonus":1.4000000000000008},{"rt":1701.4000000000233,"stimulus":"bees-with-color/bee-A1DF.svg","response":0,"trial_type":"image-button-response","trial_index":83,"time_elapsed":327475,"internal_node_id":"0.0-4.0-0.38","subject_id":"6154b3a7e4bc93e1ce93c6bc","study_id":"60edd13110225f80f9f3709b","session_id":"6196bf63bf4197ccaabe2f16","condition":"contingent","relevant_dimensions":["wings","legs"],"bee_group":{"antennae":"X","wings":"2","pattern":"X","legs":"M"},"action":"harvest","summary":"good-harvest","bonus":1.4000000000000008},{"rt":1076.3000000000466,"stimulus":"\n                    <p><b>Action: <em>harvest</em></b></p>\n                    <p>This is the bee that you just saw.</p>\n                    <img src=\"bees-with-color/bee-A1DF.svg\" width=\"200\">\n                    <p><span class=\"greenText\"><b>Successful harvest!</b></span><br>Your pay has increased by $0.02. Your bonus pay is now $0.86.</p>\n            ","response":0,"trial_type":"html-button-response","trial_index":84,"time_elapsed":328553,"internal_node_id":"0.0-4.0-1.38","subject_id":"6154b3a7e4bc93e1ce93c6bc","study_id":"60edd13110225f80f9f3709b","session_id":"6196bf63bf4197ccaabe2f16","condition":"contingent","relevant_dimensions":["wings","legs"],"bee_group":{"antennae":"X","wings":"2","pattern":"X","legs":"M"},"bonus":1.4000000000000008},{"rt":1045.0999999999767,"stimulus":"bees-with-color/bee-A2DF.svg","response":1,"trial_type":"image-button-response","trial_index":85,"time_elapsed":329599,"internal_node_id":"0.0-4.0-0.39","subject_id":"6154b3a7e4bc93e1ce93c6bc","study_id":"60edd13110225f80f9f3709b","session_id":"6196bf63bf4197ccaabe2f16","condition":"contingent","relevant_dimensions":["wings","legs"],"bee_group":{"antennae":"X","wings":"2","pattern":"X","legs":"M"},"action":"avoid","summary":"bad-avoid","bonus":1.4000000000000008},{"rt":1115.1999999999534,"stimulus":"\n                    <p><b>Action: <em>avoid</em></b></p>\n                    <p>This is the bee that you just saw.</p>\n                    <img src=\"bees-with-color/bee-A2DF.svg\" width=\"200\">\n                    <p><br>Your bonus pay is unchanged, and remains at $0.86.</p>\n            ","response":0,"trial_type":"html-button-response","trial_index":86,"time_elapsed":330715,"internal_node_id":"0.0-4.0-1.39","subject_id":"6154b3a7e4bc93e1ce93c6bc","study_id":"60edd13110225f80f9f3709b","session_id":"6196bf63bf4197ccaabe2f16","condition":"contingent","relevant_dimensions":["wings","legs"],"bee_group":{"antennae":"X","wings":"2","pattern":"X","legs":"M"},"bonus":1.4000000000000008},{"rt":1212.6999999999534,"stimulus":"bees-with-color/bee-B2SM.svg","response":1,"trial_type":"image-button-response","trial_index":87,"time_elapsed":331929,"internal_node_id":"0.0-4.0-0.40","subject_id":"6154b3a7e4bc93e1ce93c6bc","study_id":"60edd13110225f80f9f3709b","session_id":"6196bf63bf4197ccaabe2f16","condition":"contingent","relevant_dimensions":["wings","legs"],"bee_group":{"antennae":"X","wings":"2","pattern":"X","legs":"M"},"action":"avoid","summary":"good-avoid","bonus":1.4000000000000008},{"rt":536.1000000000931,"stimulus":"\n                    <p><b>Action: <em>avoid</em></b></p>\n                    <p>This is the bee that you just saw.</p>\n                    <img src=\"bees-with-color/bee-B2SM.svg\" width=\"200\">\n                    <p><br>Your bonus pay is unchanged, and remains at $0.86.</p>\n            ","response":0,"trial_type":"html-button-response","trial_index":88,"time_elapsed":332466,"internal_node_id":"0.0-4.0-1.40","subject_id":"6154b3a7e4bc93e1ce93c6bc","study_id":"60edd13110225f80f9f3709b","session_id":"6196bf63bf4197ccaabe2f16","condition":"contingent","relevant_dimensions":["wings","legs"],"bee_group":{"antennae":"X","wings":"2","pattern":"X","legs":"M"},"bonus":1.4000000000000008},{"rt":658,"stimulus":"bees-with-color/bee-B2DF.svg","response":1,"trial_type":"image-button-response","trial_index":89,"time_elapsed":333125,"internal_node_id":"0.0-4.0-0.41","subject_id":"6154b3a7e4bc93e1ce93c6bc","study_id":"60edd13110225f80f9f3709b","session_id":"6196bf63bf4197ccaabe2f16","condition":"contingent","relevant_dimensions":["wings","legs"],"bee_group":{"antennae":"X","wings":"2","pattern":"X","legs":"M"},"action":"avoid","summary":"bad-avoid","bonus":1.4000000000000008},{"rt":492.9000000000233,"stimulus":"\n                    <p><b>Action: <em>avoid</em></b></p>\n                    <p>This is the bee that you just saw.</p>\n                    <img src=\"bees-with-color/bee-B2DF.svg\" width=\"200\">\n                    <p><br>Your bonus pay is unchanged, and remains at $0.86.</p>\n            ","response":0,"trial_type":"html-button-response","trial_index":90,"time_elapsed":333620,"internal_node_id":"0.0-4.0-1.41","subject_id":"6154b3a7e4bc93e1ce93c6bc","study_id":"60edd13110225f80f9f3709b","session_id":"6196bf63bf4197ccaabe2f16","condition":"contingent","relevant_dimensions":["wings","legs"],"bee_group":{"antennae":"X","wings":"2","pattern":"X","legs":"M"},"bonus":1.4000000000000008},{"rt":708.7000000000698,"stimulus":"bees-with-color/bee-B2SF.svg","response":1,"trial_type":"image-button-response","trial_index":91,"time_elapsed":334330,"internal_node_id":"0.0-4.0-0.42","subject_id":"6154b3a7e4bc93e1ce93c6bc","study_id":"60edd13110225f80f9f3709b","session_id":"6196bf63bf4197ccaabe2f16","condition":"contingent","relevant_dimensions":["wings","legs"],"bee_group":{"antennae":"X","wings":"2","pattern":"X","legs":"M"},"action":"avoid","summary":"bad-avoid","bonus":1.4000000000000008},{"rt":600.5999999999767,"stimulus":"\n                    <p><b>Action: <em>avoid</em></b></p>\n                    <p>This is the bee that you just saw.</p>\n                    <img src=\"bees-with-color/bee-B2SF.svg\" width=\"200\">\n                    <p><br>Your bonus pay is unchanged, and remains at $0.86.</p>\n            ","response":0,"trial_type":"html-button-response","trial_index":92,"time_elapsed":334931,"internal_node_id":"0.0-4.0-1.42","subject_id":"6154b3a7e4bc93e1ce93c6bc","study_id":"60edd13110225f80f9f3709b","session_id":"6196bf63bf4197ccaabe2f16","condition":"contingent","relevant_dimensions":["wings","legs"],"bee_group":{"antennae":"X","wings":"2","pattern":"X","legs":"M"},"bonus":1.4000000000000008},{"rt":988.8000000000466,"stimulus":"bees-with-color/bee-B1SF.svg","response":0,"trial_type":"image-button-response","trial_index":93,"time_elapsed":335922,"internal_node_id":"0.0-4.0-0.43","subject_id":"6154b3a7e4bc93e1ce93c6bc","study_id":"60edd13110225f80f9f3709b","session_id":"6196bf63bf4197ccaabe2f16","condition":"contingent","relevant_dimensions":["wings","legs"],"bee_group":{"antennae":"X","wings":"2","pattern":"X","legs":"M"},"action":"harvest","summary":"good-harvest","bonus":1.4000000000000008},{"rt":1582.2999999999302,"stimulus":"\n                    <p><b>Action: <em>harvest</em></b></p>\n                    <p>This is the bee that you just saw.</p>\n                    <img src=\"bees-with-color/bee-B1SF.svg\" width=\"200\">\n                    <p><span class=\"greenText\"><b>Successful harvest!</b></span><br>Your pay has increased by $0.02. Your bonus pay is now $0.88.</p>\n            ","response":0,"trial_type":"html-button-response","trial_index":94,"time_elapsed":337505,"internal_node_id":"0.0-4.0-1.43","subject_id":"6154b3a7e4bc93e1ce93c6bc","study_id":"60edd13110225f80f9f3709b","session_id":"6196bf63bf4197ccaabe2f16","condition":"contingent","relevant_dimensions":["wings","legs"],"bee_group":{"antennae":"X","wings":"2","pattern":"X","legs":"M"},"bonus":1.4000000000000008},{"rt":785.4000000000233,"stimulus":"bees-with-color/bee-B1DF.svg","response":0,"trial_type":"image-button-response","trial_index":95,"time_elapsed":338292,"internal_node_id":"0.0-4.0-0.44","subject_id":"6154b3a7e4bc93e1ce93c6bc","study_id":"60edd13110225f80f9f3709b","session_id":"6196bf63bf4197ccaabe2f16","condition":"contingent","relevant_dimensions":["wings","legs"],"bee_group":{"antennae":"X","wings":"2","pattern":"X","legs":"M"},"action":"harvest","summary":"good-harvest","bonus":1.4000000000000008},{"rt":527.8000000000466,"stimulus":"\n                    <p><b>Action: <em>harvest</em></b></p>\n                    <p>This is the bee that you just saw.</p>\n                    <img src=\"bees-with-color/bee-B1DF.svg\" width=\"200\">\n                    <p><span class=\"greenText\"><b>Successful harvest!</b></span><br>Your pay has increased by $0.02. Your bonus pay is now $0.90.</p>\n            ","response":0,"trial_type":"html-button-response","trial_index":96,"time_elapsed":338822,"internal_node_id":"0.0-4.0-1.44","subject_id":"6154b3a7e4bc93e1ce93c6bc","study_id":"60edd13110225f80f9f3709b","session_id":"6196bf63bf4197ccaabe2f16","condition":"contingent","relevant_dimensions":["wings","legs"],"bee_group":{"antennae":"X","wings":"2","pattern":"X","legs":"M"},"bonus":1.4000000000000008},{"rt":942.7999999999302,"stimulus":"bees-with-color/bee-A2SF.svg","response":1,"trial_type":"image-button-response","trial_index":97,"time_elapsed":339766,"internal_node_id":"0.0-4.0-0.45","subject_id":"6154b3a7e4bc93e1ce93c6bc","study_id":"60edd13110225f80f9f3709b","session_id":"6196bf63bf4197ccaabe2f16","condition":"contingent","relevant_dimensions":["wings","legs"],"bee_group":{"antennae":"X","wings":"2","pattern":"X","legs":"M"},"action":"avoid","summary":"bad-avoid","bonus":1.4000000000000008},{"rt":751.5,"stimulus":"\n                    <p><b>Action: <em>avoid</em></b></p>\n                    <p>This is the bee that you just saw.</p>\n                    <img src=\"bees-with-color/bee-A2SF.svg\" width=\"200\">\n                    <p><br>Your bonus pay is unchanged, and remains at $0.90.</p>\n            ","response":0,"trial_type":"html-button-response","trial_index":98,"time_elapsed":340519,"internal_node_id":"0.0-4.0-1.45","subject_id":"6154b3a7e4bc93e1ce93c6bc","study_id":"60edd13110225f80f9f3709b","session_id":"6196bf63bf4197ccaabe2f16","condition":"contingent","relevant_dimensions":["wings","legs"],"bee_group":{"antennae":"X","wings":"2","pattern":"X","legs":"M"},"bonus":1.4000000000000008},{"rt":2347.5,"stimulus":"bees-with-color/bee-A2SM.svg","response":1,"trial_type":"image-button-response","trial_index":99,"time_elapsed":342868,"internal_node_id":"0.0-4.0-0.46","subject_id":"6154b3a7e4bc93e1ce93c6bc","study_id":"60edd13110225f80f9f3709b","session_id":"6196bf63bf4197ccaabe2f16","condition":"contingent","relevant_dimensions":["wings","legs"],"bee_group":{"antennae":"X","wings":"2","pattern":"X","legs":"M"},"action":"avoid","summary":"good-avoid","bonus":1.4000000000000008},{"rt":610.5,"stimulus":"\n                    <p><b>Action: <em>avoid</em></b></p>\n                    <p>This is the bee that you just saw.</p>\n                    <img src=\"bees-with-color/bee-A2SM.svg\" width=\"200\">\n                    <p><br>Your bonus pay is unchanged, and remains at $0.90.</p>\n            ","response":0,"trial_type":"html-button-response","trial_index":100,"time_elapsed":343480,"internal_node_id":"0.0-4.0-1.46","subject_id":"6154b3a7e4bc93e1ce93c6bc","study_id":"60edd13110225f80f9f3709b","session_id":"6196bf63bf4197ccaabe2f16","condition":"contingent","relevant_dimensions":["wings","legs"],"bee_group":{"antennae":"X","wings":"2","pattern":"X","legs":"M"},"bonus":1.4000000000000008},{"rt":1088.3000000000466,"stimulus":"bees-with-color/bee-A1DM.svg","response":0,"trial_type":"image-button-response","trial_index":101,"time_elapsed":344569,"internal_node_id":"0.0-4.0-0.47","subject_id":"6154b3a7e4bc93e1ce93c6bc","study_id":"60edd13110225f80f9f3709b","session_id":"6196bf63bf4197ccaabe2f16","condition":"contingent","relevant_dimensions":["wings","legs"],"bee_group":{"antennae":"X","wings":"2","pattern":"X","legs":"M"},"action":"harvest","summary":"good-harvest","bonus":1.4000000000000008},{"rt":925.9000000000233,"stimulus":"\n                    <p><b>Action: <em>harvest</em></b></p>\n                    <p>This is the bee that you just saw.</p>\n                    <img src=\"bees-with-color/bee-A1DM.svg\" width=\"200\">\n                    <p><span class=\"greenText\"><b>Successful harvest!</b></span><br>Your pay has increased by $0.02. Your bonus pay is now $0.92.</p>\n            ","response":0,"trial_type":"html-button-response","trial_index":102,"time_elapsed":345496,"internal_node_id":"0.0-4.0-1.47","subject_id":"6154b3a7e4bc93e1ce93c6bc","study_id":"60edd13110225f80f9f3709b","session_id":"6196bf63bf4197ccaabe2f16","condition":"contingent","relevant_dimensions":["wings","legs"],"bee_group":{"antennae":"X","wings":"2","pattern":"X","legs":"M"},"bonus":1.4000000000000008},{"rt":801.0999999999767,"stimulus":"bees-with-color/bee-B1SF.svg","response":0,"trial_type":"image-button-response","trial_index":103,"time_elapsed":346298,"internal_node_id":"0.0-4.0-0.48","subject_id":"6154b3a7e4bc93e1ce93c6bc","study_id":"60edd13110225f80f9f3709b","session_id":"6196bf63bf4197ccaabe2f16","condition":"contingent","relevant_dimensions":["wings","legs"],"bee_group":{"antennae":"X","wings":"2","pattern":"X","legs":"M"},"action":"harvest","summary":"good-harvest","bonus":1.4000000000000008},{"rt":513.2999999999302,"stimulus":"\n                    <p><b>Action: <em>harvest</em></b></p>\n                    <p>This is the bee that you just saw.</p>\n                    <img src=\"bees-with-color/bee-B1SF.svg\" width=\"200\">\n                    <p><span class=\"greenText\"><b>Successful harvest!</b></span><br>Your pay has increased by $0.02. Your bonus pay is now $0.94.</p>\n            ","response":0,"trial_type":"html-button-response","trial_index":104,"time_elapsed":346814,"internal_node_id":"0.0-4.0-1.48","subject_id":"6154b3a7e4bc93e1ce93c6bc","study_id":"60edd13110225f80f9f3709b","session_id":"6196bf63bf4197ccaabe2f16","condition":"contingent","relevant_dimensions":["wings","legs"],"bee_group":{"antennae":"X","wings":"2","pattern":"X","legs":"M"},"bonus":1.4000000000000008},{"rt":702.8000000000466,"stimulus":"bees-with-color/bee-B1SM.svg","response":0,"trial_type":"image-button-response","trial_index":105,"time_elapsed":347518,"internal_node_id":"0.0-4.0-0.49","subject_id":"6154b3a7e4bc93e1ce93c6bc","study_id":"60edd13110225f80f9f3709b","session_id":"6196bf63bf4197ccaabe2f16","condition":"contingent","relevant_dimensions":["wings","legs"],"bee_group":{"antennae":"X","wings":"2","pattern":"X","legs":"M"},"action":"harvest","summary":"good-harvest","bonus":1.4000000000000008},{"rt":490,"stimulus":"\n                    <p><b>Action: <em>harvest</em></b></p>\n                    <p>This is the bee that you just saw.</p>\n                    <img src=\"bees-with-color/bee-B1SM.svg\" width=\"200\">\n                    <p><span class=\"greenText\"><b>Successful harvest!</b></span><br>Your pay has increased by $0.02. Your bonus pay is now $0.96.</p>\n            ","response":0,"trial_type":"html-button-response","trial_index":106,"time_elapsed":348009,"internal_node_id":"0.0-4.0-1.49","subject_id":"6154b3a7e4bc93e1ce93c6bc","study_id":"60edd13110225f80f9f3709b","session_id":"6196bf63bf4197ccaabe2f16","condition":"contingent","relevant_dimensions":["wings","legs"],"bee_group":{"antennae":"X","wings":"2","pattern":"X","legs":"M"},"bonus":1.4000000000000008},{"rt":782.2999999999302,"stimulus":"bees-with-color/bee-A2SF.svg","response":1,"trial_type":"image-button-response","trial_index":107,"time_elapsed":348793,"internal_node_id":"0.0-4.0-0.50","subject_id":"6154b3a7e4bc93e1ce93c6bc","study_id":"60edd13110225f80f9f3709b","session_id":"6196bf63bf4197ccaabe2f16","condition":"contingent","relevant_dimensions":["wings","legs"],"bee_group":{"antennae":"X","wings":"2","pattern":"X","legs":"M"},"action":"avoid","summary":"bad-avoid","bonus":1.4000000000000008},{"rt":638.6999999999534,"stimulus":"\n                    <p><b>Action: <em>avoid</em></b></p>\n                    <p>This is the bee that you just saw.</p>\n                    <img src=\"bees-with-color/bee-A2SF.svg\" width=\"200\">\n                    <p><br>Your bonus pay is unchanged, and remains at $0.96.</p>\n            ","response":0,"trial_type":"html-button-response","trial_index":108,"time_elapsed":349433,"internal_node_id":"0.0-4.0-1.50","subject_id":"6154b3a7e4bc93e1ce93c6bc","study_id":"60edd13110225f80f9f3709b","session_id":"6196bf63bf4197ccaabe2f16","condition":"contingent","relevant_dimensions":["wings","legs"],"bee_group":{"antennae":"X","wings":"2","pattern":"X","legs":"M"},"bonus":1.4000000000000008},{"rt":1096.9000000000233,"stimulus":"bees-with-color/bee-A2SM.svg","response":1,"trial_type":"image-button-response","trial_index":109,"time_elapsed":350532,"internal_node_id":"0.0-4.0-0.51","subject_id":"6154b3a7e4bc93e1ce93c6bc","study_id":"60edd13110225f80f9f3709b","session_id":"6196bf63bf4197ccaabe2f16","condition":"contingent","relevant_dimensions":["wings","legs"],"bee_group":{"antennae":"X","wings":"2","pattern":"X","legs":"M"},"action":"avoid","summary":"good-avoid","bonus":1.4000000000000008},{"rt":1242,"stimulus":"\n                    <p><b>Action: <em>avoid</em></b></p>\n                    <p>This is the bee that you just saw.</p>\n                    <img src=\"bees-with-color/bee-A2SM.svg\" width=\"200\">\n                    <p><br>Your bonus pay is unchanged, and remains at $0.96.</p>\n            ","response":0,"trial_type":"html-button-response","trial_index":110,"time_elapsed":351775,"internal_node_id":"0.0-4.0-1.51","subject_id":"6154b3a7e4bc93e1ce93c6bc","study_id":"60edd13110225f80f9f3709b","session_id":"6196bf63bf4197ccaabe2f16","condition":"contingent","relevant_dimensions":["wings","legs"],"bee_group":{"antennae":"X","wings":"2","pattern":"X","legs":"M"},"bonus":1.4000000000000008},{"rt":952.4000000000233,"stimulus":"bees-with-color/bee-A2DM.svg","response":1,"trial_type":"image-button-response","trial_index":111,"time_elapsed":352729,"internal_node_id":"0.0-4.0-0.52","subject_id":"6154b3a7e4bc93e1ce93c6bc","study_id":"60edd13110225f80f9f3709b","session_id":"6196bf63bf4197ccaabe2f16","condition":"contingent","relevant_dimensions":["wings","legs"],"bee_group":{"antennae":"X","wings":"2","pattern":"X","legs":"M"},"action":"avoid","summary":"good-avoid","bonus":1.4000000000000008},{"rt":985.9000000000233,"stimulus":"\n                    <p><b>Action: <em>avoid</em></b></p>\n                    <p>This is the bee that you just saw.</p>\n                    <img src=\"bees-with-color/bee-A2DM.svg\" width=\"200\">\n                    <p><br>Your bonus pay is unchanged, and remains at $0.96.</p>\n            ","response":0,"trial_type":"html-button-response","trial_index":112,"time_elapsed":353716,"internal_node_id":"0.0-4.0-1.52","subject_id":"6154b3a7e4bc93e1ce93c6bc","study_id":"60edd13110225f80f9f3709b","session_id":"6196bf63bf4197ccaabe2f16","condition":"contingent","relevant_dimensions":["wings","legs"],"bee_group":{"antennae":"X","wings":"2","pattern":"X","legs":"M"},"bonus":1.4000000000000008},{"rt":751.3999999999069,"stimulus":"bees-with-color/bee-A2DF.svg","response":1,"trial_type":"image-button-response","trial_index":113,"time_elapsed":354468,"internal_node_id":"0.0-4.0-0.53","subject_id":"6154b3a7e4bc93e1ce93c6bc","study_id":"60edd13110225f80f9f3709b","session_id":"6196bf63bf4197ccaabe2f16","condition":"contingent","relevant_dimensions":["wings","legs"],"bee_group":{"antennae":"X","wings":"2","pattern":"X","legs":"M"},"action":"avoid","summary":"bad-avoid","bonus":1.4000000000000008},{"rt":602.4000000000233,"stimulus":"\n                    <p><b>Action: <em>avoid</em></b></p>\n                    <p>This is the bee that you just saw.</p>\n                    <img src=\"bees-with-color/bee-A2DF.svg\" width=\"200\">\n                    <p><br>Your bonus pay is unchanged, and remains at $0.96.</p>\n            ","response":0,"trial_type":"html-button-response","trial_index":114,"time_elapsed":355072,"internal_node_id":"0.0-4.0-1.53","subject_id":"6154b3a7e4bc93e1ce93c6bc","study_id":"60edd13110225f80f9f3709b","session_id":"6196bf63bf4197ccaabe2f16","condition":"contingent","relevant_dimensions":["wings","legs"],"bee_group":{"antennae":"X","wings":"2","pattern":"X","legs":"M"},"bonus":1.4000000000000008},{"rt":1326.2999999999302,"stimulus":"bees-with-color/bee-B1DF.svg","response":0,"trial_type":"image-button-response","trial_index":115,"time_elapsed":356400,"internal_node_id":"0.0-4.0-0.54","subject_id":"6154b3a7e4bc93e1ce93c6bc","study_id":"60edd13110225f80f9f3709b","session_id":"6196bf63bf4197ccaabe2f16","condition":"contingent","relevant_dimensions":["wings","legs"],"bee_group":{"antennae":"X","wings":"2","pattern":"X","legs":"M"},"action":"harvest","summary":"good-harvest","bonus":1.4000000000000008},{"rt":504.5999999999767,"stimulus":"\n                    <p><b>Action: <em>harvest</em></b></p>\n                    <p>This is the bee that you just saw.</p>\n                    <img src=\"bees-with-color/bee-B1DF.svg\" width=\"200\">\n                    <p><span class=\"greenText\"><b>Successful harvest!</b></span><br>Your pay has increased by $0.02. Your bonus pay is now $0.98.</p>\n            ","response":0,"trial_type":"html-button-response","trial_index":116,"time_elapsed":356906,"internal_node_id":"0.0-4.0-1.54","subject_id":"6154b3a7e4bc93e1ce93c6bc","study_id":"60edd13110225f80f9f3709b","session_id":"6196bf63bf4197ccaabe2f16","condition":"contingent","relevant_dimensions":["wings","legs"],"bee_group":{"antennae":"X","wings":"2","pattern":"X","legs":"M"},"bonus":1.4000000000000008},{"rt":1932.1000000000931,"stimulus":"bees-with-color/bee-A1DM.svg","response":0,"trial_type":"image-button-response","trial_index":117,"time_elapsed":358839,"internal_node_id":"0.0-4.0-0.55","subject_id":"6154b3a7e4bc93e1ce93c6bc","study_id":"60edd13110225f80f9f3709b","session_id":"6196bf63bf4197ccaabe2f16","condition":"contingent","relevant_dimensions":["wings","legs"],"bee_group":{"antennae":"X","wings":"2","pattern":"X","legs":"M"},"action":"harvest","summary":"good-harvest","bonus":1.4000000000000008},{"rt":664.7000000000698,"stimulus":"\n                    <p><b>Action: <em>harvest</em></b></p>\n                    <p>This is the bee that you just saw.</p>\n                    <img src=\"bees-with-color/bee-A1DM.svg\" width=\"200\">\n                    <p><span class=\"greenText\"><b>Successful harvest!</b></span><br>Your pay has increased by $0.02. Your bonus pay is now $1.00.</p>\n            ","response":0,"trial_type":"html-button-response","trial_index":118,"time_elapsed":359505,"internal_node_id":"0.0-4.0-1.55","subject_id":"6154b3a7e4bc93e1ce93c6bc","study_id":"60edd13110225f80f9f3709b","session_id":"6196bf63bf4197ccaabe2f16","condition":"contingent","relevant_dimensions":["wings","legs"],"bee_group":{"antennae":"X","wings":"2","pattern":"X","legs":"M"},"bonus":1.4000000000000008},{"rt":1852.5999999999767,"stimulus":"bees-with-color/bee-B2SM.svg","response":1,"trial_type":"image-button-response","trial_index":119,"time_elapsed":361359,"internal_node_id":"0.0-4.0-0.56","subject_id":"6154b3a7e4bc93e1ce93c6bc","study_id":"60edd13110225f80f9f3709b","session_id":"6196bf63bf4197ccaabe2f16","condition":"contingent","relevant_dimensions":["wings","legs"],"bee_group":{"antennae":"X","wings":"2","pattern":"X","legs":"M"},"action":"avoid","summary":"good-avoid","bonus":1.4000000000000008},{"rt":4376.400000000023,"stimulus":"\n                    <p><b>Action: <em>avoid</em></b></p>\n                    <p>This is the bee that you just saw.</p>\n                    <img src=\"bees-with-color/bee-B2SM.svg\" width=\"200\">\n                    <p><br>Your bonus pay is unchanged, and remains at $1.00.</p>\n            ","response":0,"trial_type":"html-button-response","trial_index":120,"time_elapsed":365738,"internal_node_id":"0.0-4.0-1.56","subject_id":"6154b3a7e4bc93e1ce93c6bc","study_id":"60edd13110225f80f9f3709b","session_id":"6196bf63bf4197ccaabe2f16","condition":"contingent","relevant_dimensions":["wings","legs"],"bee_group":{"antennae":"X","wings":"2","pattern":"X","legs":"M"},"bonus":1.4000000000000008},{"rt":891.9000000000233,"stimulus":"bees-with-color/bee-B2SF.svg","response":1,"trial_type":"image-button-response","trial_index":121,"time_elapsed":366632,"internal_node_id":"0.0-4.0-0.57","subject_id":"6154b3a7e4bc93e1ce93c6bc","study_id":"60edd13110225f80f9f3709b","session_id":"6196bf63bf4197ccaabe2f16","condition":"contingent","relevant_dimensions":["wings","legs"],"bee_group":{"antennae":"X","wings":"2","pattern":"X","legs":"M"},"action":"avoid","summary":"bad-avoid","bonus":1.4000000000000008},{"rt":514.0999999999767,"stimulus":"\n                    <p><b>Action: <em>avoid</em></b></p>\n                    <p>This is the bee that you just saw.</p>\n                    <img src=\"bees-with-color/bee-B2SF.svg\" width=\"200\">\n                    <p><br>Your bonus pay is unchanged, and remains at $1.00.</p>\n            ","response":0,"trial_type":"html-button-response","trial_index":122,"time_elapsed":367148,"internal_node_id":"0.0-4.0-1.57","subject_id":"6154b3a7e4bc93e1ce93c6bc","study_id":"60edd13110225f80f9f3709b","session_id":"6196bf63bf4197ccaabe2f16","condition":"contingent","relevant_dimensions":["wings","legs"],"bee_group":{"antennae":"X","wings":"2","pattern":"X","legs":"M"},"bonus":1.4000000000000008},{"rt":1448,"stimulus":"bees-with-color/bee-A1DF.svg","response":0,"trial_type":"image-button-response","trial_index":123,"time_elapsed":368597,"internal_node_id":"0.0-4.0-0.58","subject_id":"6154b3a7e4bc93e1ce93c6bc","study_id":"60edd13110225f80f9f3709b","session_id":"6196bf63bf4197ccaabe2f16","condition":"contingent","relevant_dimensions":["wings","legs"],"bee_group":{"antennae":"X","wings":"2","pattern":"X","legs":"M"},"action":"harvest","summary":"good-harvest","bonus":1.4000000000000008},{"rt":1260.5,"stimulus":"\n                    <p><b>Action: <em>harvest</em></b></p>\n                    <p>This is the bee that you just saw.</p>\n                    <img src=\"bees-with-color/bee-A1DF.svg\" width=\"200\">\n                    <p><span class=\"greenText\"><b>Successful harvest!</b></span><br>Your pay has increased by $0.02. Your bonus pay is now $1.02.</p>\n            ","response":0,"trial_type":"html-button-response","trial_index":124,"time_elapsed":369859,"internal_node_id":"0.0-4.0-1.58","subject_id":"6154b3a7e4bc93e1ce93c6bc","study_id":"60edd13110225f80f9f3709b","session_id":"6196bf63bf4197ccaabe2f16","condition":"contingent","relevant_dimensions":["wings","legs"],"bee_group":{"antennae":"X","wings":"2","pattern":"X","legs":"M"},"bonus":1.4000000000000008},{"rt":886.7000000000698,"stimulus":"bees-with-color/bee-B2DM.svg","response":1,"trial_type":"image-button-response","trial_index":125,"time_elapsed":370747,"internal_node_id":"0.0-4.0-0.59","subject_id":"6154b3a7e4bc93e1ce93c6bc","study_id":"60edd13110225f80f9f3709b","session_id":"6196bf63bf4197ccaabe2f16","condition":"contingent","relevant_dimensions":["wings","legs"],"bee_group":{"antennae":"X","wings":"2","pattern":"X","legs":"M"},"action":"avoid","summary":"good-avoid","bonus":1.4000000000000008},{"rt":803.2999999999302,"stimulus":"\n                    <p><b>Action: <em>avoid</em></b></p>\n                    <p>This is the bee that you just saw.</p>\n                    <img src=\"bees-with-color/bee-B2DM.svg\" width=\"200\">\n                    <p><br>Your bonus pay is unchanged, and remains at $1.02.</p>\n            ","response":0,"trial_type":"html-button-response","trial_index":126,"time_elapsed":371551,"internal_node_id":"0.0-4.0-1.59","subject_id":"6154b3a7e4bc93e1ce93c6bc","study_id":"60edd13110225f80f9f3709b","session_id":"6196bf63bf4197ccaabe2f16","condition":"contingent","relevant_dimensions":["wings","legs"],"bee_group":{"antennae":"X","wings":"2","pattern":"X","legs":"M"},"bonus":1.4000000000000008},{"rt":3214.4000000000233,"stimulus":"bees-with-color/bee-A1SM.svg","response":0,"trial_type":"image-button-response","trial_index":127,"time_elapsed":374767,"internal_node_id":"0.0-4.0-0.60","subject_id":"6154b3a7e4bc93e1ce93c6bc","study_id":"60edd13110225f80f9f3709b","session_id":"6196bf63bf4197ccaabe2f16","condition":"contingent","relevant_dimensions":["wings","legs"],"bee_group":{"antennae":"X","wings":"2","pattern":"X","legs":"M"},"action":"harvest","summary":"good-harvest","bonus":1.4000000000000008},{"rt":725.7000000000698,"stimulus":"\n                    <p><b>Action: <em>harvest</em></b></p>\n                    <p>This is the bee that you just saw.</p>\n                    <img src=\"bees-with-color/bee-A1SM.svg\" width=\"200\">\n                    <p><span class=\"greenText\"><b>Successful harvest!</b></span><br>Your pay has increased by $0.02. Your bonus pay is now $1.04.</p>\n            ","response":0,"trial_type":"html-button-response","trial_index":128,"time_elapsed":375494,"internal_node_id":"0.0-4.0-1.60","subject_id":"6154b3a7e4bc93e1ce93c6bc","study_id":"60edd13110225f80f9f3709b","session_id":"6196bf63bf4197ccaabe2f16","condition":"contingent","relevant_dimensions":["wings","legs"],"bee_group":{"antennae":"X","wings":"2","pattern":"X","legs":"M"},"bonus":1.4000000000000008},{"rt":1312,"stimulus":"bees-with-color/bee-B2DF.svg","response":1,"trial_type":"image-button-response","trial_index":129,"time_elapsed":376807,"internal_node_id":"0.0-4.0-0.61","subject_id":"6154b3a7e4bc93e1ce93c6bc","study_id":"60edd13110225f80f9f3709b","session_id":"6196bf63bf4197ccaabe2f16","condition":"contingent","relevant_dimensions":["wings","legs"],"bee_group":{"antennae":"X","wings":"2","pattern":"X","legs":"M"},"action":"avoid","summary":"bad-avoid","bonus":1.4000000000000008},{"rt":716.3999999999069,"stimulus":"\n                    <p><b>Action: <em>avoid</em></b></p>\n                    <p>This is the bee that you just saw.</p>\n                    <img src=\"bees-with-color/bee-B2DF.svg\" width=\"200\">\n                    <p><br>Your bonus pay is unchanged, and remains at $1.04.</p>\n            ","response":0,"trial_type":"html-button-response","trial_index":130,"time_elapsed":377525,"internal_node_id":"0.0-4.0-1.61","subject_id":"6154b3a7e4bc93e1ce93c6bc","study_id":"60edd13110225f80f9f3709b","session_id":"6196bf63bf4197ccaabe2f16","condition":"contingent","relevant_dimensions":["wings","legs"],"bee_group":{"antennae":"X","wings":"2","pattern":"X","legs":"M"},"bonus":1.4000000000000008},{"rt":711.7999999999302,"stimulus":"bees-with-color/bee-A1SF.svg","response":0,"trial_type":"image-button-response","trial_index":131,"time_elapsed":378238,"internal_node_id":"0.0-4.0-0.62","subject_id":"6154b3a7e4bc93e1ce93c6bc","study_id":"60edd13110225f80f9f3709b","session_id":"6196bf63bf4197ccaabe2f16","condition":"contingent","relevant_dimensions":["wings","legs"],"bee_group":{"antennae":"X","wings":"2","pattern":"X","legs":"M"},"action":"harvest","summary":"good-harvest","bonus":1.4000000000000008},{"rt":458.69999999995343,"stimulus":"\n                    <p><b>Action: <em>harvest</em></b></p>\n                    <p>This is the bee that you just saw.</p>\n                    <img src=\"bees-with-color/bee-A1SF.svg\" width=\"200\">\n                    <p><span class=\"greenText\"><b>Successful harvest!</b></span><br>Your pay has increased by $0.02. Your bonus pay is now $1.06.</p>\n            ","response":0,"trial_type":"html-button-response","trial_index":132,"time_elapsed":378699,"internal_node_id":"0.0-4.0-1.62","subject_id":"6154b3a7e4bc93e1ce93c6bc","study_id":"60edd13110225f80f9f3709b","session_id":"6196bf63bf4197ccaabe2f16","condition":"contingent","relevant_dimensions":["wings","legs"],"bee_group":{"antennae":"X","wings":"2","pattern":"X","legs":"M"},"bonus":1.4000000000000008},{"rt":1890.8000000000466,"stimulus":"bees-with-color/bee-B1DM.svg","response":0,"trial_type":"image-button-response","trial_index":133,"time_elapsed":380591,"internal_node_id":"0.0-4.0-0.63","subject_id":"6154b3a7e4bc93e1ce93c6bc","study_id":"60edd13110225f80f9f3709b","session_id":"6196bf63bf4197ccaabe2f16","condition":"contingent","relevant_dimensions":["wings","legs"],"bee_group":{"antennae":"X","wings":"2","pattern":"X","legs":"M"},"action":"harvest","summary":"good-harvest","bonus":1.4000000000000008},{"rt":1018.8000000000466,"stimulus":"\n                    <p><b>Action: <em>harvest</em></b></p>\n                    <p>This is the bee that you just saw.</p>\n                    <img src=\"bees-with-color/bee-B1DM.svg\" width=\"200\">\n                    <p><span class=\"greenText\"><b>Successful harvest!</b></span><br>Your pay has increased by $0.02. Your bonus pay is now $1.08.</p>\n            ","response":0,"trial_type":"html-button-response","trial_index":134,"time_elapsed":381611,"internal_node_id":"0.0-4.0-1.63","subject_id":"6154b3a7e4bc93e1ce93c6bc","study_id":"60edd13110225f80f9f3709b","session_id":"6196bf63bf4197ccaabe2f16","condition":"contingent","relevant_dimensions":["wings","legs"],"bee_group":{"antennae":"X","wings":"2","pattern":"X","legs":"M"},"bonus":1.4000000000000008},{"rt":10510.900000000023,"stimulus":"You have completed the first part of this experiment.<br><br>You will now begin a shorter second part, in which you will receive no feedback.<br>The same rules regarding bonus pay apply.<br><br>Press any key to begin.","response":" ","trial_type":"html-keyboard-response","trial_index":135,"time_elapsed":392123,"internal_node_id":"0.0-5.0","subject_id":"6154b3a7e4bc93e1ce93c6bc","study_id":"60edd13110225f80f9f3709b","session_id":"6196bf63bf4197ccaabe2f16","condition":"contingent","relevant_dimensions":["wings","legs"],"bee_group":{"antennae":"X","wings":"2","pattern":"X","legs":"M"},"bonus":1.4000000000000008},{"rt":1832,"stimulus":"bees-with-color/bee-A2SF.svg","response":1,"trial_type":"image-button-response","trial_index":136,"time_elapsed":393961,"internal_node_id":"0.0-6.0-0.0","subject_id":"6154b3a7e4bc93e1ce93c6bc","study_id":"60edd13110225f80f9f3709b","session_id":"6196bf63bf4197ccaabe2f16","condition":"contingent","relevant_dimensions":["wings","legs"],"bee_group":{"antennae":"X","wings":"2","pattern":"X","legs":"M"},"bonus":1.4000000000000008},{"rt":2787.0999999999767,"stimulus":"bees-with-color/bee-A1DM.svg","response":0,"trial_type":"image-button-response","trial_index":137,"time_elapsed":396750,"internal_node_id":"0.0-6.0-0.1","subject_id":"6154b3a7e4bc93e1ce93c6bc","study_id":"60edd13110225f80f9f3709b","session_id":"6196bf63bf4197ccaabe2f16","condition":"contingent","relevant_dimensions":["wings","legs"],"bee_group":{"antennae":"X","wings":"2","pattern":"X","legs":"M"},"bonus":1.4000000000000008},{"rt":1116.4000000000233,"stimulus":"bees-with-color/bee-B1SF.svg","response":0,"trial_type":"image-button-response","trial_index":138,"time_elapsed":397869,"internal_node_id":"0.0-6.0-0.2","subject_id":"6154b3a7e4bc93e1ce93c6bc","study_id":"60edd13110225f80f9f3709b","session_id":"6196bf63bf4197ccaabe2f16","condition":"contingent","relevant_dimensions":["wings","legs"],"bee_group":{"antennae":"X","wings":"2","pattern":"X","legs":"M"},"bonus":1.4000000000000008},{"rt":721.0999999999767,"stimulus":"bees-with-color/bee-A1SF.svg","response":0,"trial_type":"image-button-response","trial_index":139,"time_elapsed":398592,"internal_node_id":"0.0-6.0-0.3","subject_id":"6154b3a7e4bc93e1ce93c6bc","study_id":"60edd13110225f80f9f3709b","session_id":"6196bf63bf4197ccaabe2f16","condition":"contingent","relevant_dimensions":["wings","legs"],"bee_group":{"antennae":"X","wings":"2","pattern":"X","legs":"M"},"bonus":1.4000000000000008},{"rt":916.3000000000466,"stimulus":"bees-with-color/bee-B2DF.svg","response":1,"trial_type":"image-button-response","trial_index":140,"time_elapsed":399510,"internal_node_id":"0.0-6.0-0.4","subject_id":"6154b3a7e4bc93e1ce93c6bc","study_id":"60edd13110225f80f9f3709b","session_id":"6196bf63bf4197ccaabe2f16","condition":"contingent","relevant_dimensions":["wings","legs"],"bee_group":{"antennae":"X","wings":"2","pattern":"X","legs":"M"},"bonus":1.4000000000000008},{"rt":742.2999999999302,"stimulus":"bees-with-color/bee-B2SF.svg","response":1,"trial_type":"image-button-response","trial_index":141,"time_elapsed":400254,"internal_node_id":"0.0-6.0-0.5","subject_id":"6154b3a7e4bc93e1ce93c6bc","study_id":"60edd13110225f80f9f3709b","session_id":"6196bf63bf4197ccaabe2f16","condition":"contingent","relevant_dimensions":["wings","legs"],"bee_group":{"antennae":"X","wings":"2","pattern":"X","legs":"M"},"bonus":1.4000000000000008},{"rt":619.6999999999534,"stimulus":"bees-with-color/bee-B2DM.svg","response":1,"trial_type":"image-button-response","trial_index":142,"time_elapsed":400875,"internal_node_id":"0.0-6.0-0.6","subject_id":"6154b3a7e4bc93e1ce93c6bc","study_id":"60edd13110225f80f9f3709b","session_id":"6196bf63bf4197ccaabe2f16","condition":"contingent","relevant_dimensions":["wings","legs"],"bee_group":{"antennae":"X","wings":"2","pattern":"X","legs":"M"},"bonus":1.4000000000000008},{"rt":567.1000000000931,"stimulus":"bees-with-color/bee-B2SM.svg","response":1,"trial_type":"image-button-response","trial_index":143,"time_elapsed":401444,"internal_node_id":"0.0-6.0-0.7","subject_id":"6154b3a7e4bc93e1ce93c6bc","study_id":"60edd13110225f80f9f3709b","session_id":"6196bf63bf4197ccaabe2f16","condition":"contingent","relevant_dimensions":["wings","legs"],"bee_group":{"antennae":"X","wings":"2","pattern":"X","legs":"M"},"bonus":1.4000000000000008},{"rt":601.6000000000931,"stimulus":"bees-with-color/bee-A2DF.svg","response":1,"trial_type":"image-button-response","trial_index":144,"time_elapsed":402048,"internal_node_id":"0.0-6.0-0.8","subject_id":"6154b3a7e4bc93e1ce93c6bc","study_id":"60edd13110225f80f9f3709b","session_id":"6196bf63bf4197ccaabe2f16","condition":"contingent","relevant_dimensions":["wings","legs"],"bee_group":{"antennae":"X","wings":"2","pattern":"X","legs":"M"},"bonus":1.4000000000000008},{"rt":1174.9000000000233,"stimulus":"bees-with-color/bee-B1DM.svg","response":0,"trial_type":"image-button-response","trial_index":145,"time_elapsed":403224,"internal_node_id":"0.0-6.0-0.9","subject_id":"6154b3a7e4bc93e1ce93c6bc","study_id":"60edd13110225f80f9f3709b","session_id":"6196bf63bf4197ccaabe2f16","condition":"contingent","relevant_dimensions":["wings","legs"],"bee_group":{"antennae":"X","wings":"2","pattern":"X","legs":"M"},"bonus":1.4000000000000008},{"rt":1008.9000000000233,"stimulus":"bees-with-color/bee-A2DM.svg","response":1,"trial_type":"image-button-response","trial_index":146,"time_elapsed":404235,"internal_node_id":"0.0-6.0-0.10","subject_id":"6154b3a7e4bc93e1ce93c6bc","study_id":"60edd13110225f80f9f3709b","session_id":"6196bf63bf4197ccaabe2f16","condition":"contingent","relevant_dimensions":["wings","legs"],"bee_group":{"antennae":"X","wings":"2","pattern":"X","legs":"M"},"bonus":1.4000000000000008},{"rt":1277.0999999999767,"stimulus":"bees-with-color/bee-A1DF.svg","response":0,"trial_type":"image-button-response","trial_index":147,"time_elapsed":405514,"internal_node_id":"0.0-6.0-0.11","subject_id":"6154b3a7e4bc93e1ce93c6bc","study_id":"60edd13110225f80f9f3709b","session_id":"6196bf63bf4197ccaabe2f16","condition":"contingent","relevant_dimensions":["wings","legs"],"bee_group":{"antennae":"X","wings":"2","pattern":"X","legs":"M"},"bonus":1.4000000000000008},{"rt":859.0999999999767,"stimulus":"bees-with-color/bee-A1SM.svg","response":0,"trial_type":"image-button-response","trial_index":148,"time_elapsed":406374,"internal_node_id":"0.0-6.0-0.12","subject_id":"6154b3a7e4bc93e1ce93c6bc","study_id":"60edd13110225f80f9f3709b","session_id":"6196bf63bf4197ccaabe2f16","condition":"contingent","relevant_dimensions":["wings","legs"],"bee_group":{"antennae":"X","wings":"2","pattern":"X","legs":"M"},"bonus":1.4000000000000008},{"rt":841.9000000000233,"stimulus":"bees-with-color/bee-A2SM.svg","response":1,"trial_type":"image-button-response","trial_index":149,"time_elapsed":407218,"internal_node_id":"0.0-6.0-0.13","subject_id":"6154b3a7e4bc93e1ce93c6bc","study_id":"60edd13110225f80f9f3709b","session_id":"6196bf63bf4197ccaabe2f16","condition":"contingent","relevant_dimensions":["wings","legs"],"bee_group":{"antennae":"X","wings":"2","pattern":"X","legs":"M"},"bonus":1.4000000000000008},{"rt":988,"stimulus":"bees-with-color/bee-B1SM.svg","response":0,"trial_type":"image-button-response","trial_index":150,"time_elapsed":408208,"internal_node_id":"0.0-6.0-0.14","subject_id":"6154b3a7e4bc93e1ce93c6bc","study_id":"60edd13110225f80f9f3709b","session_id":"6196bf63bf4197ccaabe2f16","condition":"contingent","relevant_dimensions":["wings","legs"],"bee_group":{"antennae":"X","wings":"2","pattern":"X","legs":"M"},"bonus":1.4000000000000008},{"rt":865.5,"stimulus":"bees-with-color/bee-B1DF.svg","response":0,"trial_type":"image-button-response","trial_index":151,"time_elapsed":409075,"internal_node_id":"0.0-6.0-0.15","subject_id":"6154b3a7e4bc93e1ce93c6bc","study_id":"60edd13110225f80f9f3709b","session_id":"6196bf63bf4197ccaabe2f16","condition":"contingent","relevant_dimensions":["wings","legs"],"bee_group":{"antennae":"X","wings":"2","pattern":"X","legs":"M"},"bonus":1.4000000000000008},{"rt":1469.5,"stimulus":"bees-with-color/bee-B2DF.svg","response":1,"trial_type":"image-button-response","trial_index":152,"time_elapsed":410546,"internal_node_id":"0.0-6.0-0.16","subject_id":"6154b3a7e4bc93e1ce93c6bc","study_id":"60edd13110225f80f9f3709b","session_id":"6196bf63bf4197ccaabe2f16","condition":"contingent","relevant_dimensions":["wings","legs"],"bee_group":{"antennae":"X","wings":"2","pattern":"X","legs":"M"},"bonus":1.4000000000000008},{"rt":802.5,"stimulus":"bees-with-color/bee-B1DM.svg","response":0,"trial_type":"image-button-response","trial_index":153,"time_elapsed":411350,"internal_node_id":"0.0-6.0-0.17","subject_id":"6154b3a7e4bc93e1ce93c6bc","study_id":"60edd13110225f80f9f3709b","session_id":"6196bf63bf4197ccaabe2f16","condition":"contingent","relevant_dimensions":["wings","legs"],"bee_group":{"antennae":"X","wings":"2","pattern":"X","legs":"M"},"bonus":1.4000000000000008},{"rt":1159.1999999999534,"stimulus":"bees-with-color/bee-A2DF.svg","response":1,"trial_type":"image-button-response","trial_index":154,"time_elapsed":412510,"internal_node_id":"0.0-6.0-0.18","subject_id":"6154b3a7e4bc93e1ce93c6bc","study_id":"60edd13110225f80f9f3709b","session_id":"6196bf63bf4197ccaabe2f16","condition":"contingent","relevant_dimensions":["wings","legs"],"bee_group":{"antennae":"X","wings":"2","pattern":"X","legs":"M"},"bonus":1.4000000000000008},{"rt":813.6999999999534,"stimulus":"bees-with-color/bee-A1SF.svg","response":0,"trial_type":"image-button-response","trial_index":155,"time_elapsed":413325,"internal_node_id":"0.0-6.0-0.19","subject_id":"6154b3a7e4bc93e1ce93c6bc","study_id":"60edd13110225f80f9f3709b","session_id":"6196bf63bf4197ccaabe2f16","condition":"contingent","relevant_dimensions":["wings","legs"],"bee_group":{"antennae":"X","wings":"2","pattern":"X","legs":"M"},"bonus":1.4000000000000008},{"rt":742.2000000000698,"stimulus":"bees-with-color/bee-B2SM.svg","response":1,"trial_type":"image-button-response","trial_index":156,"time_elapsed":414069,"internal_node_id":"0.0-6.0-0.20","subject_id":"6154b3a7e4bc93e1ce93c6bc","study_id":"60edd13110225f80f9f3709b","session_id":"6196bf63bf4197ccaabe2f16","condition":"contingent","relevant_dimensions":["wings","legs"],"bee_group":{"antennae":"X","wings":"2","pattern":"X","legs":"M"},"bonus":1.4000000000000008},{"rt":791.3000000000466,"stimulus":"bees-with-color/bee-B2SF.svg","response":1,"trial_type":"image-button-response","trial_index":157,"time_elapsed":414862,"internal_node_id":"0.0-6.0-0.21","subject_id":"6154b3a7e4bc93e1ce93c6bc","study_id":"60edd13110225f80f9f3709b","session_id":"6196bf63bf4197ccaabe2f16","condition":"contingent","relevant_dimensions":["wings","legs"],"bee_group":{"antennae":"X","wings":"2","pattern":"X","legs":"M"},"bonus":1.4000000000000008},{"rt":756.6999999999534,"stimulus":"bees-with-color/bee-B1SF.svg","response":0,"trial_type":"image-button-response","trial_index":158,"time_elapsed":415620,"internal_node_id":"0.0-6.0-0.22","subject_id":"6154b3a7e4bc93e1ce93c6bc","study_id":"60edd13110225f80f9f3709b","session_id":"6196bf63bf4197ccaabe2f16","condition":"contingent","relevant_dimensions":["wings","legs"],"bee_group":{"antennae":"X","wings":"2","pattern":"X","legs":"M"},"bonus":1.4000000000000008},{"rt":3624.29999999993,"stimulus":"bees-with-color/bee-A2SM.svg","response":1,"trial_type":"image-button-response","trial_index":159,"time_elapsed":419245,"internal_node_id":"0.0-6.0-0.23","subject_id":"6154b3a7e4bc93e1ce93c6bc","study_id":"60edd13110225f80f9f3709b","session_id":"6196bf63bf4197ccaabe2f16","condition":"contingent","relevant_dimensions":["wings","legs"],"bee_group":{"antennae":"X","wings":"2","pattern":"X","legs":"M"},"bonus":1.4000000000000008},{"rt":1027.7000000000698,"stimulus":"bees-with-color/bee-B1SM.svg","response":0,"trial_type":"image-button-response","trial_index":160,"time_elapsed":420275,"internal_node_id":"0.0-6.0-0.24","subject_id":"6154b3a7e4bc93e1ce93c6bc","study_id":"60edd13110225f80f9f3709b","session_id":"6196bf63bf4197ccaabe2f16","condition":"contingent","relevant_dimensions":["wings","legs"],"bee_group":{"antennae":"X","wings":"2","pattern":"X","legs":"M"},"bonus":1.4000000000000008},{"rt":983.8000000000466,"stimulus":"bees-with-color/bee-B2DM.svg","response":1,"trial_type":"image-button-response","trial_index":161,"time_elapsed":421260,"internal_node_id":"0.0-6.0-0.25","subject_id":"6154b3a7e4bc93e1ce93c6bc","study_id":"60edd13110225f80f9f3709b","session_id":"6196bf63bf4197ccaabe2f16","condition":"contingent","relevant_dimensions":["wings","legs"],"bee_group":{"antennae":"X","wings":"2","pattern":"X","legs":"M"},"bonus":1.4000000000000008},{"rt":688.5999999999767,"stimulus":"bees-with-color/bee-A2SF.svg","response":1,"trial_type":"image-button-response","trial_index":162,"time_elapsed":421950,"internal_node_id":"0.0-6.0-0.26","subject_id":"6154b3a7e4bc93e1ce93c6bc","study_id":"60edd13110225f80f9f3709b","session_id":"6196bf63bf4197ccaabe2f16","condition":"contingent","relevant_dimensions":["wings","legs"],"bee_group":{"antennae":"X","wings":"2","pattern":"X","legs":"M"},"bonus":1.4000000000000008},{"rt":914.1000000000931,"stimulus":"bees-with-color/bee-A1SM.svg","response":0,"trial_type":"image-button-response","trial_index":163,"time_elapsed":422866,"internal_node_id":"0.0-6.0-0.27","subject_id":"6154b3a7e4bc93e1ce93c6bc","study_id":"60edd13110225f80f9f3709b","session_id":"6196bf63bf4197ccaabe2f16","condition":"contingent","relevant_dimensions":["wings","legs"],"bee_group":{"antennae":"X","wings":"2","pattern":"X","legs":"M"},"bonus":1.4000000000000008},{"rt":690.1999999999534,"stimulus":"bees-with-color/bee-A1DM.svg","response":0,"trial_type":"image-button-response","trial_index":164,"time_elapsed":423557,"internal_node_id":"0.0-6.0-0.28","subject_id":"6154b3a7e4bc93e1ce93c6bc","study_id":"60edd13110225f80f9f3709b","session_id":"6196bf63bf4197ccaabe2f16","condition":"contingent","relevant_dimensions":["wings","legs"],"bee_group":{"antennae":"X","wings":"2","pattern":"X","legs":"M"},"bonus":1.4000000000000008},{"rt":598.0999999999767,"stimulus":"bees-with-color/bee-B1DF.svg","response":0,"trial_type":"image-button-response","trial_index":165,"time_elapsed":424157,"internal_node_id":"0.0-6.0-0.29","subject_id":"6154b3a7e4bc93e1ce93c6bc","stud