[{"success":true,"trial_type":"fullscreen","trial_index":0,"time_elapsed":7852,"internal_node_id":"0.0-0.0","subject_id":"6050ae98866a427695e22254","study_id":"6197b3f67c2b5cd3b6d9596a","session_id":"6197b58766306b3157204d27","condition":"full-information","relevant_dimensions":["wings","pattern"],"bee_group":{"antennae":"X","wings":"1","pattern":"D","legs":"X"},"bonus":1.9200000000000013},{"success":true,"timeout":false,"failed_images":[],"failed_audio":[],"failed_video":[],"trial_type":"preload","trial_index":1,"time_elapsed":10363,"internal_node_id":"0.0-1.0","subject_id":"6050ae98866a427695e22254","study_id":"6197b3f67c2b5cd3b6d9596a","session_id":"6197b58766306b3157204d27","condition":"full-information","relevant_dimensions":["wings","pattern"],"bee_group":{"antennae":"X","wings":"1","pattern":"D","legs":"X"},"bonus":1.9200000000000013},{"rt":3983.600000023842,"stimulus":"Welcome! Press any key to begin.","response":" ","trial_type":"html-keyboard-response","trial_index":2,"time_elapsed":14349,"internal_node_id":"0.0-2.0","subject_id":"6050ae98866a427695e22254","study_id":"6197b3f67c2b5cd3b6d9596a","session_id":"6197b58766306b3157204d27","condition":"full-information","relevant_dimensions":["wings","pattern"],"bee_group":{"antennae":"X","wings":"1","pattern":"D","legs":"X"},"bonus":1.9200000000000013},{"view_history":[{"page_index":0,"viewing_time":17040.799999952316},{"page_index":1,"viewing_time":48863.40000009537},{"page_index":2,"viewing_time":25025.799999952316},{"page_index":3,"viewing_time":41809.10000002384},{"page_index":4,"viewing_time":21380.199999928474},{"page_index":5,"viewing_time":11885.800000071526},{"page_index":6,"viewing_time":15869},{"page_index":7,"viewing_time":7316.899999976158},{"page_index":8,"viewing_time":10480.399999976158},{"page_index":9,"viewing_time":6530.100000023842},{"page_index":10,"viewing_time":4464.399999976158},{"page_index":11,"viewing_time":63599.89999997616},{"page_index":12,"viewing_time":14212.700000047684},{"page_index":13,"viewing_time":1255.6000000238419},{"page_index":14,"viewing_time":5430.199999928474}],"rt":295164.7000000477,"trial_type":"instructions","trial_index":3,"time_elapsed":309514,"internal_node_id":"0.0-3.0-0.0","subject_id":"6050ae98866a427695e22254","study_id":"6197b3f67c2b5cd3b6d9596a","session_id":"6197b58766306b3157204d27","condition":"full-information","relevant_dimensions":["wings","pattern"],"bee_group":{"antennae":"X","wings":"1","pattern":"D","legs":"X"},"bonus":1.9200000000000013},{"rt":17619.100000023842,"response":{"Q0":["Two or six legs","Stripes or spots on body","Single or double wings","Antennae or no antennae"]},"question_order":[0],"trial_type":"survey-multi-select","trial_index":4,"time_elapsed":327161,"internal_node_id":"0.0-3.0-1.0","subject_id":"6050ae98866a427695e22254","study_id":"6197b3f67c2b5cd3b6d9596a","session_id":"6197b58766306b3157204d27","condition":"full-information","relevant_dimensions":["wings","pattern"],"bee_group":{"antennae":"X","wings":"1","pattern":"D","legs":"X"},"correct":true,"bonus":1.9200000000000013},{"rt":31735.5,"response":{"Q1":"No.","Q2":"Based on the four features of the bee.","Q3":"You do not learn if it was friendly or dangerous, and do not alter your bonus."},"question_order":[0,1,2],"trial_type":"survey-multi-choice","trial_index":5,"time_elapsed":358926,"internal_node_id":"0.0-3.0-2.0","subject_id":"6050ae98866a427695e22254","study_id":"6197b3f67c2b5cd3b6d9596a","session_id":"6197b58766306b3157204d27","condition":"full-information","relevant_dimensions":["wings","pattern"],"bee_group":{"antennae":"X","wings":"1","pattern":"D","legs":"X"},"correct":false,"bonus":1.9200000000000013},{"rt":7941.700000047684,"stimulus":"<p>You did not answer all comprehension questions correctly.<br>Press <b>continue</b> to review the instructions again.</p>","response":0,"trial_type":"html-button-response","trial_index":6,"time_elapsed":366912,"internal_node_id":"0.0-3.0-3.0","subject_id":"6050ae98866a427695e22254","study_id":"6197b3f67c2b5cd3b6d9596a","session_id":"6197b58766306b3157204d27","condition":"full-information","relevant_dimensions":["wings","pattern"],"bee_group":{"antennae":"X","wings":"1","pattern":"D","legs":"X"},"bonus":1.9200000000000013},{"view_history":[{"page_index":0,"viewing_time":3037.3000000715256},{"page_index":1,"viewing_time":4203.299999952316},{"page_index":2,"viewing_time":10166},{"page_index":3,"viewing_time":6947.399999976158},{"page_index":4,"viewing_time":5569.700000047684},{"page_index":5,"viewing_time":2490.5},{"page_index":6,"viewing_time":2389.600000023842},{"page_index":7,"viewing_time":2015.5},{"page_index":8,"viewing_time":668},{"page_index":9,"viewing_time":749.1999999284744},{"page_index":10,"viewing_time":967.3000000715256},{"page_index":11,"viewing_time":4363.399999976158},{"page_index":12,"viewing_time":3405.899999976158},{"page_index":13,"viewing_time":1776.1000000238419},{"page_index":14,"viewing_time":1234.5}],"rt":49984.300000071526,"trial_type":"instructions","trial_index":7,"time_elapsed":416898,"internal_node_id":"0.0-3.0-4.0-0.0","subject_id":"6050ae98866a427695e22254","study_id":"6197b3f67c2b5cd3b6d9596a","session_id":"6197b58766306b3157204d27","condition":"full-information","relevant_dimensions":["wings","pattern"],"bee_group":{"antennae":"X","wings":"1","pattern":"D","legs":"X"},"bonus":1.9200000000000013},{"rt":9356,"response":{"Q0":["Two or six legs","Stripes or spots on body","Single or double wings","Antennae or no antennae"]},"question_order":[0],"trial_type":"survey-multi-select","trial_index":8,"time_elapsed":426260,"internal_node_id":"0.0-3.0-4.0-1.0","subject_id":"6050ae98866a427695e22254","study_id":"6197b3f67c2b5cd3b6d9596a","session_id":"6197b58766306b3157204d27","condition":"full-information","relevant_dimensions":["wings","pattern"],"bee_group":{"antennae":"X","wings":"1","pattern":"D","legs":"X"},"correct":true,"bonus":1.9200000000000013},{"rt":12722,"response":{"Q1":"No.","Q2":"Based on the four features of the bee.","Q3":"You learn if it was friendly or dangerous, but do not alter your bonus."},"question_order":[0,1,2],"trial_type":"survey-multi-choice","trial_index":9,"time_elapsed":438986,"internal_node_id":"0.0-3.0-4.0-2.0","subject_id":"6050ae98866a427695e22254","study_id":"6197b3f67c2b5cd3b6d9596a","session_id":"6197b58766306b3157204d27","condition":"full-information","relevant_dimensions":["wings","pattern"],"bee_group":{"antennae":"X","wings":"1","pattern":"D","legs":"X"},"correct":true,"bonus":1.9200000000000013},{"rt":4282.400000095367,"stimulus":"<p>Congrats, you got everything right<br>When you're ready, click the button below to continue to the experiment.</p>","response":0,"trial_type":"html-button-response","trial_index":10,"time_elapsed":443271,"internal_node_id":"0.0-3.0-4.0-3.0","subject_id":"6050ae98866a427695e22254","study_id":"6197b3f67c2b5cd3b6d9596a","session_id":"6197b58766306b3157204d27","condition":"full-information","relevant_dimensions":["wings","pattern"],"bee_group":{"antennae":"X","wings":"1","pattern":"D","legs":"X"},"bonus":1.9200000000000013},{"rt":15615.799999952316,"stimulus":"bees-with-color/bee-B2SM.svg","response":1,"trial_type":"image-button-response","trial_index":11,"time_elapsed":458893,"internal_node_id":"0.0-4.0-0.0","subject_id":"6050ae98866a427695e22254","study_id":"6197b3f67c2b5cd3b6d9596a","session_id":"6197b58766306b3157204d27","condition":"full-information","relevant_dimensions":["wings","pattern"],"bee_group":{"antennae":"X","wings":"1","pattern":"D","legs":"X"},"action":"avoid","summary":"bad-avoid","bonus":1.9200000000000013},{"rt":28848.200000047684,"stimulus":"\n                    <p><b>Action: <em>avoid</em></b></p>\n                    <p>This is the bee that you just saw.</p>\n                    <img src=\"bees-with-color/bee-B2SM.svg\" width=\"200\">\n                    <p><span class=\"redText\">Bad choice,</span> the bee was friendly.<br>Your bonus pay is unchanged, and remains at $0.54.</p>\n            ","response":0,"trial_type":"html-button-response","trial_index":12,"time_elapsed":487817,"internal_node_id":"0.0-4.0-1.0","subject_id":"6050ae98866a427695e22254","study_id":"6197b3f67c2b5cd3b6d9596a","session_id":"6197b58766306b3157204d27","condition":"full-information","relevant_dimensions":["wings","pattern"],"bee_group":{"antennae":"X","wings":"1","pattern":"D","legs":"X"},"bonus":1.9200000000000013},{"rt":5044.599999904633,"stimulus":"bees-with-color/bee-A2SF.svg","response":0,"trial_type":"image-button-response","trial_index":13,"time_elapsed":492867,"internal_node_id":"0.0-4.0-0.1","subject_id":"6050ae98866a427695e22254","study_id":"6197b3f67c2b5cd3b6d9596a","session_id":"6197b58766306b3157204d27","condition":"full-information","relevant_dimensions":["wings","pattern"],"bee_group":{"antennae":"X","wings":"1","pattern":"D","legs":"X"},"action":"harvest","summary":"good-harvest","bonus":1.9200000000000013},{"rt":28093.199999928474,"stimulus":"\n                    <p><b>Action: <em>harvest</em></b></p>\n                    <p>This is the bee that you just saw.</p>\n                    <img src=\"bees-with-color/bee-A2SF.svg\" width=\"200\">\n                    <p><span class=\"greenText\"><b>Successful harvest!</b></span><br>Your pay has increased by $0.02. Your bonus pay is now $0.56.</p>\n            ","response":0,"trial_type":"html-button-response","trial_index":14,"time_elapsed":520965,"internal_node_id":"0.0-4.0-1.1","subject_id":"6050ae98866a427695e22254","study_id":"6197b3f67c2b5cd3b6d9596a","session_id":"6197b58766306b3157204d27","condition":"full-information","relevant_dimensions":["wings","pattern"],"bee_group":{"antennae":"X","wings":"1","pattern":"D","legs":"X"},"bonus":1.9200000000000013},{"rt":7216.899999976158,"stimulus":"bees-with-color/bee-B1SF.svg","response":0,"trial_type":"image-button-response","trial_index":15,"time_elapsed":528188,"internal_node_id":"0.0-4.0-0.2","subject_id":"6050ae98866a427695e22254","study_id":"6197b3f67c2b5cd3b6d9596a","session_id":"6197b58766306b3157204d27","condition":"full-information","relevant_dimensions":["wings","pattern"],"bee_group":{"antennae":"X","wings":"1","pattern":"D","legs":"X"},"action":"harvest","summary":"good-harvest","bonus":1.9200000000000013},{"rt":17805.100000023842,"stimulus":"\n                    <p><b>Action: <em>harvest</em></b></p>\n                    <p>This is the bee that you just saw.</p>\n                    <img src=\"bees-with-color/bee-B1SF.svg\" width=\"200\">\n                    <p><span class=\"greenText\"><b>Successful harvest!</b></span><br>Your pay has increased by $0.02. Your bonus pay is now $0.58.</p>\n            ","response":0,"trial_type":"html-button-response","trial_index":16,"time_elapsed":545997,"internal_node_id":"0.0-4.0-1.2","subject_id":"6050ae98866a427695e22254","study_id":"6197b3f67c2b5cd3b6d9596a","session_id":"6197b58766306b3157204d27","condition":"full-information","relevant_dimensions":["wings","pattern"],"bee_group":{"antennae":"X","wings":"1","pattern":"D","legs":"X"},"bonus":1.9200000000000013},{"rt":12503.199999928474,"stimulus":"bees-with-color/bee-A2SM.svg","response":0,"trial_type":"image-button-response","trial_index":17,"time_elapsed":558504,"internal_node_id":"0.0-4.0-0.3","subject_id":"6050ae98866a427695e22254","study_id":"6197b3f67c2b5cd3b6d9596a","session_id":"6197b58766306b3157204d27","condition":"full-information","relevant_dimensions":["wings","pattern"],"bee_group":{"antennae":"X","wings":"1","pattern":"D","legs":"X"},"action":"harvest","summary":"good-harvest","bonus":1.9200000000000013},{"rt":2234.6999999284744,"stimulus":"\n                    <p><b>Action: <em>harvest</em></b></p>\n                    <p>This is the bee that you just saw.</p>\n                    <img src=\"bees-with-color/bee-A2SM.svg\" width=\"200\">\n                    <p><span class=\"greenText\"><b>Successful harvest!</b></span><br>Your pay has increased by $0.02. Your bonus pay is now $0.60.</p>\n            ","response":0,"trial_type":"html-button-response","trial_index":18,"time_elapsed":560743,"internal_node_id":"0.0-4.0-1.3","subject_id":"6050ae98866a427695e22254","study_id":"6197b3f67c2b5cd3b6d9596a","session_id":"6197b58766306b3157204d27","condition":"full-information","relevant_dimensions":["wings","pattern"],"bee_group":{"antennae":"X","wings":"1","pattern":"D","legs":"X"},"bonus":1.9200000000000013},{"rt":6389.600000023842,"stimulus":"bees-with-color/bee-A1SF.svg","response":0,"trial_type":"image-button-response","trial_index":19,"time_elapsed":567137,"internal_node_id":"0.0-4.0-0.4","subject_id":"6050ae98866a427695e22254","study_id":"6197b3f67c2b5cd3b6d9596a","session_id":"6197b58766306b3157204d27","condition":"full-information","relevant_dimensions":["wings","pattern"],"bee_group":{"antennae":"X","wings":"1","pattern":"D","legs":"X"},"action":"harvest","summary":"good-harvest","bonus":1.9200000000000013},{"rt":10348.599999904633,"stimulus":"\n                    <p><b>Action: <em>harvest</em></b></p>\n                    <p>This is the bee that you just saw.</p>\n                    <img src=\"bees-with-color/bee-A1SF.svg\" width=\"200\">\n                    <p><span class=\"greenText\"><b>Successful harvest!</b></span><br>Your pay has increased by $0.02. Your bonus pay is now $0.62.</p>\n            ","response":0,"trial_type":"html-button-response","trial_index":20,"time_elapsed":577489,"internal_node_id":"0.0-4.0-1.4","subject_id":"6050ae98866a427695e22254","study_id":"6197b3f67c2b5cd3b6d9596a","session_id":"6197b58766306b3157204d27","condition":"full-information","relevant_dimensions":["wings","pattern"],"bee_group":{"antennae":"X","wings":"1","pattern":"D","legs":"X"},"bonus":1.9200000000000013},{"rt":8215.199999928474,"stimulus":"bees-with-color/bee-A1DF.svg","response":1,"trial_type":"image-button-response","trial_index":21,"time_elapsed":585709,"internal_node_id":"0.0-4.0-0.5","subject_id":"6050ae98866a427695e22254","study_id":"6197b3f67c2b5cd3b6d9596a","session_id":"6197b58766306b3157204d27","condition":"full-information","relevant_dimensions":["wings","pattern"],"bee_group":{"antennae":"X","wings":"1","pattern":"D","legs":"X"},"action":"avoid","summary":"good-avoid","bonus":1.9200000000000013},{"rt":24456.5,"stimulus":"\n                    <p><b>Action: <em>avoid</em></b></p>\n                    <p>This is the bee that you just saw.</p>\n                    <img src=\"bees-with-color/bee-A1DF.svg\" width=\"200\">\n                    <p><span class=\"greenText\">Good choice!</span>  This bee would have stung you.<br>Your bonus pay is unchanged, and remains at $0.62.</p>\n            ","response":0,"trial_type":"html-button-response","trial_index":22,"time_elapsed":610169,"internal_node_id":"0.0-4.0-1.5","subject_id":"6050ae98866a427695e22254","study_id":"6197b3f67c2b5cd3b6d9596a","session_id":"6197b58766306b3157204d27","condition":"full-information","relevant_dimensions":["wings","pattern"],"bee_group":{"antennae":"X","wings":"1","pattern":"D","legs":"X"},"bonus":1.9200000000000013},{"rt":5053.700000047684,"stimulus":"bees-with-color/bee-A1DM.svg","response":1,"trial_type":"image-button-response","trial_index":23,"time_elapsed":615229,"internal_node_id":"0.0-4.0-0.6","subject_id":"6050ae98866a427695e22254","study_id":"6197b3f67c2b5cd3b6d9596a","session_id":"6197b58766306b3157204d27","condition":"full-information","relevant_dimensions":["wings","pattern"],"bee_group":{"antennae":"X","wings":"1","pattern":"D","legs":"X"},"action":"avoid","summary":"good-avoid","bonus":1.9200000000000013},{"rt":13579.199999928474,"stimulus":"\n                    <p><b>Action: <em>avoid</em></b></p>\n                    <p>This is the bee that you just saw.</p>\n                    <img src=\"bees-with-color/bee-A1DM.svg\" width=\"200\">\n                    <p><span class=\"greenText\">Good choice!</span>  This bee would have stung you.<br>Your bonus pay is unchanged, and remains at $0.62.</p>\n            ","response":0,"trial_type":"html-button-response","trial_index":24,"time_elapsed":628812,"internal_node_id":"0.0-4.0-1.6","subject_id":"6050ae98866a427695e22254","study_id":"6197b3f67c2b5cd3b6d9596a","session_id":"6197b58766306b3157204d27","condition":"full-information","relevant_dimensions":["wings","pattern"],"bee_group":{"antennae":"X","wings":"1","pattern":"D","legs":"X"},"bonus":1.9200000000000013},{"rt":3566.399999976158,"stimulus":"bees-with-color/bee-B2SF.svg","response":0,"trial_type":"image-button-response","trial_index":25,"time_elapsed":632384,"internal_node_id":"0.0-4.0-0.7","subject_id":"6050ae98866a427695e22254","study_id":"6197b3f67c2b5cd3b6d9596a","session_id":"6197b58766306b3157204d27","condition":"full-information","relevant_dimensions":["wings","pattern"],"bee_group":{"antennae":"X","wings":"1","pattern":"D","legs":"X"},"action":"harvest","summary":"good-harvest","bonus":1.9200000000000013},{"rt":13059.900000095367,"stimulus":"\n                    <p><b>Action: <em>harvest</em></b></p>\n                    <p>This is the bee that you just saw.</p>\n                    <img src=\"bees-with-color/bee-B2SF.svg\" width=\"200\">\n                    <p><span class=\"greenText\"><b>Successful harvest!</b></span><br>Your pay has increased by $0.02. Your bonus pay is now $0.64.</p>\n            ","response":0,"trial_type":"html-button-response","trial_index":26,"time_elapsed":645447,"internal_node_id":"0.0-4.0-1.7","subject_id":"6050ae98866a427695e22254","study_id":"6197b3f67c2b5cd3b6d9596a","session_id":"6197b58766306b3157204d27","condition":"full-information","relevant_dimensions":["wings","pattern"],"bee_group":{"antennae":"X","wings":"1","pattern":"D","legs":"X"},"bonus":1.9200000000000013},{"rt":12934.399999976158,"stimulus":"bees-with-color/bee-B1SM.svg","response":0,"trial_type":"image-button-response","trial_index":27,"time_elapsed":658387,"internal_node_id":"0.0-4.0-0.8","subject_id":"6050ae98866a427695e22254","study_id":"6197b3f67c2b5cd3b6d9596a","session_id":"6197b58766306b3157204d27","condition":"full-information","relevant_dimensions":["wings","pattern"],"bee_group":{"antennae":"X","wings":"1","pattern":"D","legs":"X"},"action":"harvest","summary":"good-harvest","bonus":1.9200000000000013},{"rt":12744.5,"stimulus":"\n                    <p><b>Action: <em>harvest</em></b></p>\n                    <p>This is the bee that you just saw.</p>\n                    <img src=\"bees-with-color/bee-B1SM.svg\" width=\"200\">\n                    <p><span class=\"greenText\"><b>Successful harvest!</b></span><br>Your pay has increased by $0.02. Your bonus pay is now $0.66.</p>\n            ","response":0,"trial_type":"html-button-response","trial_index":28,"time_elapsed":671136,"internal_node_id":"0.0-4.0-1.8","subject_id":"6050ae98866a427695e22254","study_id":"6197b3f67c2b5cd3b6d9596a","session_id":"6197b58766306b3157204d27","condition":"full-information","relevant_dimensions":["wings","pattern"],"bee_group":{"antennae":"X","wings":"1","pattern":"D","legs":"X"},"bonus":1.9200000000000013},{"rt":10521.800000071526,"stimulus":"bees-with-color/bee-A1SM.svg","response":0,"trial_type":"image-button-response","trial_index":29,"time_elapsed":681664,"internal_node_id":"0.0-4.0-0.9","subject_id":"6050ae98866a427695e22254","study_id":"6197b3f67c2b5cd3b6d9596a","session_id":"6197b58766306b3157204d27","condition":"full-information","relevant_dimensions":["wings","pattern"],"bee_group":{"antennae":"X","wings":"1","pattern":"D","legs":"X"},"action":"harvest","summary":"good-harvest","bonus":1.9200000000000013},{"rt":12387.899999976158,"stimulus":"\n                    <p><b>Action: <em>harvest</em></b></p>\n                    <p>This is the bee that you just saw.</p>\n                    <img src=\"bees-with-color/bee-A1SM.svg\" width=\"200\">\n                    <p><span class=\"greenText\"><b>Successful harvest!</b></span><br>Your pay has increased by $0.02. Your bonus pay is now $0.68.</p>\n            ","response":0,"trial_type":"html-button-response","trial_index":30,"time_elapsed":694059,"internal_node_id":"0.0-4.0-1.9","subject_id":"6050ae98866a427695e22254","study_id":"6197b3f67c2b5cd3b6d9596a","session_id":"6197b58766306b3157204d27","condition":"full-information","relevant_dimensions":["wings","pattern"],"bee_group":{"antennae":"X","wings":"1","pattern":"D","legs":"X"},"bonus":1.9200000000000013},{"rt":2666.5999999046326,"stimulus":"bees-with-color/bee-B1DF.svg","response":1,"trial_type":"image-button-response","trial_index":31,"time_elapsed":696731,"internal_node_id":"0.0-4.0-0.10","subject_id":"6050ae98866a427695e22254","study_id":"6197b3f67c2b5cd3b6d9596a","session_id":"6197b58766306b3157204d27","condition":"full-information","relevant_dimensions":["wings","pattern"],"bee_group":{"antennae":"X","wings":"1","pattern":"D","legs":"X"},"action":"avoid","summary":"good-avoid","bonus":1.9200000000000013},{"rt":11390.600000023842,"stimulus":"\n                    <p><b>Action: <em>avoid</em></b></p>\n                    <p>This is the bee that you just saw.</p>\n                    <img src=\"bees-with-color/bee-B1DF.svg\" width=\"200\">\n                    <p><span class=\"greenText\">Good choice!</span>  This bee would have stung you.<br>Your bonus pay is unchanged, and remains at $0.68.</p>\n            ","response":0,"trial_type":"html-button-response","trial_index":32,"time_elapsed":708126,"internal_node_id":"0.0-4.0-1.10","subject_id":"6050ae98866a427695e22254","study_id":"6197b3f67c2b5cd3b6d9596a","session_id":"6197b58766306b3157204d27","condition":"full-information","relevant_dimensions":["wings","pattern"],"bee_group":{"antennae":"X","wings":"1","pattern":"D","legs":"X"},"bonus":1.9200000000000013},{"rt":6469.5,"stimulus":"bees-with-color/bee-B1DM.svg","response":1,"trial_type":"image-button-response","trial_index":33,"time_elapsed":714600,"internal_node_id":"0.0-4.0-0.11","subject_id":"6050ae98866a427695e22254","study_id":"6197b3f67c2b5cd3b6d9596a","session_id":"6197b58766306b3157204d27","condition":"full-information","relevant_dimensions":["wings","pattern"],"bee_group":{"antennae":"X","wings":"1","pattern":"D","legs":"X"},"action":"avoid","summary":"good-avoid","bonus":1.9200000000000013},{"rt":10305.100000023842,"stimulus":"\n                    <p><b>Action: <em>avoid</em></b></p>\n                    <p>This is the bee that you just saw.</p>\n                    <img src=\"bees-with-color/bee-B1DM.svg\" width=\"200\">\n                    <p><span class=\"greenText\">Good choice!</span>  This bee would have stung you.<br>Your bonus pay is unchanged, and remains at $0.68.</p>\n            ","response":0,"trial_type":"html-button-response","trial_index":34,"time_elapsed":724908,"internal_node_id":"0.0-4.0-1.11","subject_id":"6050ae98866a427695e22254","study_id":"6197b3f67c2b5cd3b6d9596a","session_id":"6197b58766306b3157204d27","condition":"full-information","relevant_dimensions":["wings","pattern"],"bee_group":{"antennae":"X","wings":"1","pattern":"D","legs":"X"},"bonus":1.9200000000000013},{"rt":2739.2000000476837,"stimulus":"bees-with-color/bee-B2DM.svg","response":1,"trial_type":"image-button-response","trial_index":35,"time_elapsed":727651,"internal_node_id":"0.0-4.0-0.12","subject_id":"6050ae98866a427695e22254","study_id":"6197b3f67c2b5cd3b6d9596a","session_id":"6197b58766306b3157204d27","condition":"full-information","relevant_dimensions":["wings","pattern"],"bee_group":{"antennae":"X","wings":"1","pattern":"D","legs":"X"},"action":"avoid","summary":"bad-avoid","bonus":1.9200000000000013},{"rt":27154,"stimulus":"\n                    <p><b>Action: <em>avoid</em></b></p>\n                    <p>This is the bee that you just saw.</p>\n                    <img src=\"bees-with-color/bee-B2DM.svg\" width=\"200\">\n                    <p><span class=\"redText\">Bad choice,</span> the bee was friendly.<br>Your bonus pay is unchanged, and remains at $0.68.</p>\n            ","response":0,"trial_type":"html-button-response","trial_index":36,"time_elapsed":754808,"internal_node_id":"0.0-4.0-1.12","subject_id":"6050ae98866a427695e22254","study_id":"6197b3f67c2b5cd3b6d9596a","session_id":"6197b58766306b3157204d27","condition":"full-information","relevant_dimensions":["wings","pattern"],"bee_group":{"antennae":"X","wings":"1","pattern":"D","legs":"X"},"bonus":1.9200000000000013},{"rt":10820.5,"stimulus":"bees-with-color/bee-B2DF.svg","response":0,"trial_type":"image-button-response","trial_index":37,"time_elapsed":765633,"internal_node_id":"0.0-4.0-0.13","subject_id":"6050ae98866a427695e22254","study_id":"6197b3f67c2b5cd3b6d9596a","session_id":"6197b58766306b3157204d27","condition":"full-information","relevant_dimensions":["wings","pattern"],"bee_group":{"antennae":"X","wings":"1","pattern":"D","legs":"X"},"action":"harvest","summary":"good-harvest","bonus":1.9200000000000013},{"rt":11576.199999928474,"stimulus":"\n                    <p><b>Action: <em>harvest</em></b></p>\n                    <p>This is the bee that you just saw.</p>\n                    <img src=\"bees-with-color/bee-B2DF.svg\" width=\"200\">\n                    <p><span class=\"greenText\"><b>Successful harvest!</b></span><br>Your pay has increased by $0.02. Your bonus pay is now $0.70.</p>\n            ","response":0,"trial_type":"html-button-response","trial_index":38,"time_elapsed":777213,"internal_node_id":"0.0-4.0-1.13","subject_id":"6050ae98866a427695e22254","study_id":"6197b3f67c2b5cd3b6d9596a","session_id":"6197b58766306b3157204d27","condition":"full-information","relevant_dimensions":["wings","pattern"],"bee_group":{"antennae":"X","wings":"1","pattern":"D","legs":"X"},"bonus":1.9200000000000013},{"rt":7286.800000071526,"stimulus":"bees-with-color/bee-A2DM.svg","response":0,"trial_type":"image-button-response","trial_index":39,"time_elapsed":784505,"internal_node_id":"0.0-4.0-0.14","subject_id":"6050ae98866a427695e22254","study_id":"6197b3f67c2b5cd3b6d9596a","session_id":"6197b58766306b3157204d27","condition":"full-information","relevant_dimensions":["wings","pattern"],"bee_group":{"antennae":"X","wings":"1","pattern":"D","legs":"X"},"action":"harvest","summary":"good-harvest","bonus":1.9200000000000013},{"rt":16612,"stimulus":"\n                    <p><b>Action: <em>harvest</em></b></p>\n                    <p>This is the bee that you just saw.</p>\n                    <img src=\"bees-with-color/bee-A2DM.svg\" width=\"200\">\n                    <p><span class=\"greenText\"><b>Successful harvest!</b></span><br>Your pay has increased by $0.02. Your bonus pay is now $0.72.</p>\n            ","response":0,"trial_type":"html-button-response","trial_index":40,"time_elapsed":801120,"internal_node_id":"0.0-4.0-1.14","subject_id":"6050ae98866a427695e22254","study_id":"6197b3f67c2b5cd3b6d9596a","session_id":"6197b58766306b3157204d27","condition":"full-information","relevant_dimensions":["wings","pattern"],"bee_group":{"antennae":"X","wings":"1","pattern":"D","legs":"X"},"bonus":1.9200000000000013},{"rt":8176.899999976158,"stimulus":"bees-with-color/bee-A2DF.svg","response":0,"trial_type":"image-button-response","trial_index":41,"time_elapsed":809300,"internal_node_id":"0.0-4.0-0.15","subject_id":"6050ae98866a427695e22254","study_id":"6197b3f67c2b5cd3b6d9596a","session_id":"6197b58766306b3157204d27","condition":"full-information","relevant_dimensions":["wings","pattern"],"bee_group":{"antennae":"X","wings":"1","pattern":"D","legs":"X"},"action":"harvest","summary":"good-harvest","bonus":1.9200000000000013},{"rt":11227.100000023842,"stimulus":"\n                    <p><b>Action: <em>harvest</em></b></p>\n                    <p>This is the bee that you just saw.</p>\n                    <img src=\"bees-with-color/bee-A2DF.svg\" width=\"200\">\n                    <p><span class=\"greenText\"><b>Successful harvest!</b></span><br>Your pay has increased by $0.02. Your bonus pay is now $0.74.</p>\n            ","response":0,"trial_type":"html-button-response","trial_index":42,"time_elapsed":820530,"internal_node_id":"0.0-4.0-1.15","subject_id":"6050ae98866a427695e22254","study_id":"6197b3f67c2b5cd3b6d9596a","session_id":"6197b58766306b3157204d27","condition":"full-information","relevant_dimensions":["wings","pattern"],"bee_group":{"antennae":"X","wings":"1","pattern":"D","legs":"X"},"bonus":1.9200000000000013},{"rt":7299.699999928474,"stimulus":"bees-with-color/bee-A2DM.svg","response":0,"trial_type":"image-button-response","trial_index":43,"time_elapsed":827835,"internal_node_id":"0.0-4.0-0.16","subject_id":"6050ae98866a427695e22254","study_id":"6197b3f67c2b5cd3b6d9596a","session_id":"6197b58766306b3157204d27","condition":"full-information","relevant_dimensions":["wings","pattern"],"bee_group":{"antennae":"X","wings":"1","pattern":"D","legs":"X"},"action":"harvest","summary":"good-harvest","bonus":1.9200000000000013},{"rt":1541.3000000715256,"stimulus":"\n                    <p><b>Action: <em>harvest</em></b></p>\n                    <p>This is the bee that you just saw.</p>\n                    <img src=\"bees-with-color/bee-A2DM.svg\" width=\"200\">\n                    <p><span class=\"greenText\"><b>Successful harvest!</b></span><br>Your pay has increased by $0.02. Your bonus pay is now $0.76.</p>\n            ","response":0,"trial_type":"html-button-response","trial_index":44,"time_elapsed":829379,"internal_node_id":"0.0-4.0-1.16","subject_id":"6050ae98866a427695e22254","study_id":"6197b3f67c2b5cd3b6d9596a","session_id":"6197b58766306b3157204d27","condition":"full-information","relevant_dimensions":["wings","pattern"],"bee_group":{"antennae":"X","wings":"1","pattern":"D","legs":"X"},"bonus":1.9200000000000013},{"rt":9014.399999976158,"stimulus":"bees-with-color/bee-A1DM.svg","response":1,"trial_type":"image-button-response","trial_index":45,"time_elapsed":838399,"internal_node_id":"0.0-4.0-0.17","subject_id":"6050ae98866a427695e22254","study_id":"6197b3f67c2b5cd3b6d9596a","session_id":"6197b58766306b3157204d27","condition":"full-information","relevant_dimensions":["wings","pattern"],"bee_group":{"antennae":"X","wings":"1","pattern":"D","legs":"X"},"action":"avoid","summary":"good-avoid","bonus":1.9200000000000013},{"rt":2102.5,"stimulus":"\n                    <p><b>Action: <em>avoid</em></b></p>\n                    <p>This is the bee that you just saw.</p>\n                    <img src=\"bees-with-color/bee-A1DM.svg\" width=\"200\">\n                    <p><span class=\"greenText\">Good choice!</span>  This bee would have stung you.<br>Your bonus pay is unchanged, and remains at $0.76.</p>\n            ","response":0,"trial_type":"html-button-response","trial_index":46,"time_elapsed":840504,"internal_node_id":"0.0-4.0-1.17","subject_id":"6050ae98866a427695e22254","study_id":"6197b3f67c2b5cd3b6d9596a","session_id":"6197b58766306b3157204d27","condition":"full-information","relevant_dimensions":["wings","pattern"],"bee_group":{"antennae":"X","wings":"1","pattern":"D","legs":"X"},"bonus":1.9200000000000013},{"rt":20670.399999976158,"stimulus":"bees-with-color/bee-B2SF.svg","response":0,"trial_type":"image-button-response","trial_index":47,"time_elapsed":861178,"internal_node_id":"0.0-4.0-0.18","subject_id":"6050ae98866a427695e22254","study_id":"6197b3f67c2b5cd3b6d9596a","session_id":"6197b58766306b3157204d27","condition":"full-information","relevant_dimensions":["wings","pattern"],"bee_group":{"antennae":"X","wings":"1","pattern":"D","legs":"X"},"action":"harvest","summary":"good-harvest","bonus":1.9200000000000013},{"rt":1615,"stimulus":"\n                    <p><b>Action: <em>harvest</em></b></p>\n                    <p>This is the bee that you just saw.</p>\n                    <img src=\"bees-with-color/bee-B2SF.svg\" width=\"200\">\n                    <p><span class=\"greenText\"><b>Successful harvest!</b></span><br>Your pay has increased by $0.02. Your bonus pay is now $0.78.</p>\n            ","response":0,"trial_type":"html-button-response","trial_index":48,"time_elapsed":862796,"internal_node_id":"0.0-4.0-1.18","subject_id":"6050ae98866a427695e22254","study_id":"6197b3f67c2b5cd3b6d9596a","session_id":"6197b58766306b3157204d27","condition":"full-information","relevant_dimensions":["wings","pattern"],"bee_group":{"antennae":"X","wings":"1","pattern":"D","legs":"X"},"bonus":1.9200000000000013},{"rt":9774.100000023842,"stimulus":"bees-with-color/bee-B1SF.svg","response":0,"trial_type":"image-button-response","trial_index":49,"time_elapsed":872574,"internal_node_id":"0.0-4.0-0.19","subject_id":"6050ae98866a427695e22254","study_id":"6197b3f67c2b5cd3b6d9596a","session_id":"6197b58766306b3157204d27","condition":"full-information","relevant_dimensions":["wings","pattern"],"bee_group":{"antennae":"X","wings":"1","pattern":"D","legs":"X"},"action":"harvest","summary":"good-harvest","bonus":1.9200000000000013},{"rt":1650.4000000953674,"stimulus":"\n                    <p><b>Action: <em>harvest</em></b></p>\n                    <p>This is the bee that you just saw.</p>\n                    <img src=\"bees-with-color/bee-B1SF.svg\" width=\"200\">\n                    <p><span class=\"greenText\"><b>Successful harvest!</b></span><br>Your pay has increased by $0.02. Your bonus pay is now $0.80.</p>\n            ","response":0,"trial_type":"html-button-response","trial_index":50,"time_elapsed":874227,"internal_node_id":"0.0-4.0-1.19","subject_id":"6050ae98866a427695e22254","study_id":"6197b3f67c2b5cd3b6d9596a","session_id":"6197b58766306b3157204d27","condition":"full-information","relevant_dimensions":["wings","pattern"],"bee_group":{"antennae":"X","wings":"1","pattern":"D","legs":"X"},"bonus":1.9200000000000013},{"rt":8658.400000095367,"stimulus":"bees-with-color/bee-B2DF.svg","response":0,"trial_type":"image-button-response","trial_index":51,"time_elapsed":882889,"internal_node_id":"0.0-4.0-0.20","subject_id":"6050ae98866a427695e22254","study_id":"6197b3f67c2b5cd3b6d9596a","session_id":"6197b58766306b3157204d27","condition":"full-information","relevant_dimensions":["wings","pattern"],"bee_group":{"antennae":"X","wings":"1","pattern":"D","legs":"X"},"action":"harvest","summary":"good-harvest","bonus":1.9200000000000013},{"rt":1903,"stimulus":"\n                    <p><b>Action: <em>harvest</em></b></p>\n                    <p>This is the bee that you just saw.</p>\n                    <img src=\"bees-with-color/bee-B2DF.svg\" width=\"200\">\n                    <p><span class=\"greenText\"><b>Successful harvest!</b></span><br>Your pay has increased by $0.02. Your bonus pay is now $0.82.</p>\n            ","response":0,"trial_type":"html-button-response","trial_index":52,"time_elapsed":884795,"internal_node_id":"0.0-4.0-1.20","subject_id":"6050ae98866a427695e22254","study_id":"6197b3f67c2b5cd3b6d9596a","session_id":"6197b58766306b3157204d27","condition":"full-information","relevant_dimensions":["wings","pattern"],"bee_group":{"antennae":"X","wings":"1","pattern":"D","legs":"X"},"bonus":1.9200000000000013},{"rt":9705.5,"stimulus":"bees-with-color/bee-B1SM.svg","response":1,"trial_type":"image-button-response","trial_index":53,"time_elapsed":894504,"internal_node_id":"0.0-4.0-0.21","subject_id":"6050ae98866a427695e22254","study_id":"6197b3f67c2b5cd3b6d9596a","session_id":"6197b58766306b3157204d27","condition":"full-information","relevant_dimensions":["wings","pattern"],"bee_group":{"antennae":"X","wings":"1","pattern":"D","legs":"X"},"action":"avoid","summary":"bad-avoid","bonus":1.9200000000000013},{"rt":12455.899999976158,"stimulus":"\n                    <p><b>Action: <em>avoid</em></b></p>\n                    <p>This is the bee that you just saw.</p>\n                    <img src=\"bees-with-color/bee-B1SM.svg\" width=\"200\">\n                    <p><span class=\"redText\">Bad choice,</span> the bee was friendly.<br>Your bonus pay is unchanged, and remains at $0.82.</p>\n            ","response":0,"trial_type":"html-button-response","trial_index":54,"time_elapsed":906963,"internal_node_id":"0.0-4.0-1.21","subject_id":"6050ae98866a427695e22254","study_id":"6197b3f67c2b5cd3b6d9596a","session_id":"6197b58766306b3157204d27","condition":"full-information","relevant_dimensions":["wings","pattern"],"bee_group":{"antennae":"X","wings":"1","pattern":"D","legs":"X"},"bonus":1.9200000000000013},{"rt":3924.1999999284744,"stimulus":"bees-with-color/bee-B1DF.svg","response":1,"trial_type":"image-button-response","trial_index":55,"time_elapsed":910891,"internal_node_id":"0.0-4.0-0.22","subject_id":"6050ae98866a427695e22254","study_id":"6197b3f67c2b5cd3b6d9596a","session_id":"6197b58766306b3157204d27","condition":"full-information","relevant_dimensions":["wings","pattern"],"bee_group":{"antennae":"X","wings":"1","pattern":"D","legs":"X"},"action":"avoid","summary":"good-avoid","bonus":1.9200000000000013},{"rt":1698,"stimulus":"\n                    <p><b>Action: <em>avoid</em></b></p>\n                    <p>This is the bee that you just saw.</p>\n                    <img src=\"bees-with-color/bee-B1DF.svg\" width=\"200\">\n                    <p><span class=\"greenText\">Good choice!</span>  This bee would have stung you.<br>Your bonus pay is unchanged, and remains at $0.82.</p>\n            ","response":0,"trial_type":"html-button-response","trial_index":56,"time_elapsed":912592,"internal_node_id":"0.0-4.0-1.22","subject_id":"6050ae98866a427695e22254","study_id":"6197b3f67c2b5cd3b6d9596a","session_id":"6197b58766306b3157204d27","condition":"full-information","relevant_dimensions":["wings","pattern"],"bee_group":{"antennae":"X","wings":"1","pattern":"D","legs":"X"},"bonus":1.9200000000000013},{"rt":2580.899999976158,"stimulus":"bees-with-color/bee-A1SM.svg","response":0,"trial_type":"image-button-response","trial_index":57,"time_elapsed":915177,"internal_node_id":"0.0-4.0-0.23","subject_id":"6050ae98866a427695e22254","study_id":"6197b3f67c2b5cd3b6d9596a","session_id":"6197b58766306b3157204d27","condition":"full-information","relevant_dimensions":["wings","pattern"],"bee_group":{"antennae":"X","wings":"1","pattern":"D","legs":"X"},"action":"harvest","summary":"good-harvest","bonus":1.9200000000000013},{"rt":1510.8000000715256,"stimulus":"\n                    <p><b>Action: <em>harvest</em></b></p>\n                    <p>This is the bee that you just saw.</p>\n                    <img src=\"bees-with-color/bee-A1SM.svg\" width=\"200\">\n                    <p><span class=\"greenText\"><b>Successful harvest!</b></span><br>Your pay has increased by $0.02. Your bonus pay is now $0.84.</p>\n            ","response":0,"trial_type":"html-button-response","trial_index":58,"time_elapsed":916691,"internal_node_id":"0.0-4.0-1.23","subject_id":"6050ae98866a427695e22254","study_id":"6197b3f67c2b5cd3b6d9596a","session_id":"6197b58766306b3157204d27","condition":"full-information","relevant_dimensions":["wings","pattern"],"bee_group":{"antennae":"X","wings":"1","pattern":"D","legs":"X"},"bonus":1.9200000000000013},{"rt":16913.699999928474,"stimulus":"bees-with-color/bee-A2DF.svg","response":0,"trial_type":"image-button-response","trial_index":59,"time_elapsed":933608,"internal_node_id":"0.0-4.0-0.24","subject_id":"6050ae98866a427695e22254","study_id":"6197b3f67c2b5cd3b6d9596a","session_id":"6197b58766306b3157204d27","condition":"full-information","relevant_dimensions":["wings","pattern"],"bee_group":{"antennae":"X","wings":"1","pattern":"D","legs":"X"},"action":"harvest","summary":"good-harvest","bonus":1.9200000000000013},{"rt":1574.7000000476837,"stimulus":"\n                    <p><b>Action: <em>harvest</em></b></p>\n                    <p>This is the bee that you just saw.</p>\n                    <img src=\"bees-with-color/bee-A2DF.svg\" width=\"200\">\n                    <p><span class=\"greenText\"><b>Successful harvest!</b></span><br>Your pay has increased by $0.02. Your bonus pay is now $0.86.</p>\n            ","response":0,"trial_type":"html-button-response","trial_index":60,"time_elapsed":935189,"internal_node_id":"0.0-4.0-1.24","subject_id":"6050ae98866a427695e22254","study_id":"6197b3f67c2b5cd3b6d9596a","session_id":"6197b58766306b3157204d27","condition":"full-information","relevant_dimensions":["wings","pattern"],"bee_group":{"antennae":"X","wings":"1","pattern":"D","legs":"X"},"bonus":1.9200000000000013},{"rt":15365.099999904633,"stimulus":"bees-with-color/bee-B2SM.svg","response":0,"trial_type":"image-button-response","trial_index":61,"time_elapsed":950559,"internal_node_id":"0.0-4.0-0.25","subject_id":"6050ae98866a427695e22254","study_id":"6197b3f67c2b5cd3b6d9596a","session_id":"6197b58766306b3157204d27","condition":"full-information","relevant_dimensions":["wings","pattern"],"bee_group":{"antennae":"X","wings":"1","pattern":"D","legs":"X"},"action":"harvest","summary":"good-harvest","bonus":1.9200000000000013},{"rt":12607.199999928474,"stimulus":"\n                    <p><b>Action: <em>harvest</em></b></p>\n                    <p>This is the bee that you just saw.</p>\n                    <img src=\"bees-with-color/bee-B2SM.svg\" width=\"200\">\n                    <p><span class=\"greenText\"><b>Successful harvest!</b></span><br>Your pay has increased by $0.02. Your bonus pay is now $0.88.</p>\n            ","response":0,"trial_type":"html-button-response","trial_index":62,"time_elapsed":963169,"internal_node_id":"0.0-4.0-1.25","subject_id":"6050ae98866a427695e22254","study_id":"6197b3f67c2b5cd3b6d9596a","session_id":"6197b58766306b3157204d27","condition":"full-information","relevant_dimensions":["wings","pattern"],"bee_group":{"antennae":"X","wings":"1","pattern":"D","legs":"X"},"bonus":1.9200000000000013},{"rt":7158.900000095367,"stimulus":"bees-with-color/bee-A1SF.svg","response":0,"trial_type":"image-button-response","trial_index":63,"time_elapsed":970333,"internal_node_id":"0.0-4.0-0.26","subject_id":"6050ae98866a427695e22254","study_id":"6197b3f67c2b5cd3b6d9596a","session_id":"6197b58766306b3157204d27","condition":"full-information","relevant_dimensions":["wings","pattern"],"bee_group":{"antennae":"X","wings":"1","pattern":"D","legs":"X"},"action":"harvest","summary":"good-harvest","bonus":1.9200000000000013},{"rt":1884,"stimulus":"\n                    <p><b>Action: <em>harvest</em></b></p>\n                    <p>This is the bee that you just saw.</p>\n                    <img src=\"bees-with-color/bee-A1SF.svg\" width=\"200\">\n                    <p><span class=\"greenText\"><b>Successful harvest!</b></span><br>Your pay has increased by $0.02. Your bonus pay is now $0.90.</p>\n            ","response":0,"trial_type":"html-button-response","trial_index":64,"time_elapsed":972219,"internal_node_id":"0.0-4.0-1.26","subject_id":"6050ae98866a427695e22254","study_id":"6197b3f67c2b5cd3b6d9596a","session_id":"6197b58766306b3157204d27","condition":"full-information","relevant_dimensions":["wings","pattern"],"bee_group":{"antennae":"X","wings":"1","pattern":"D","legs":"X"},"bonus":1.9200000000000013},{"rt":2568.8000000715256,"stimulus":"bees-with-color/bee-A2SM.svg","response":0,"trial_type":"image-button-response","trial_index":65,"time_elapsed":974794,"internal_node_id":"0.0-4.0-0.27","subject_id":"6050ae98866a427695e22254","study_id":"6197b3f67c2b5cd3b6d9596a","session_id":"6197b58766306b3157204d27","condition":"full-information","relevant_dimensions":["wings","pattern"],"bee_group":{"antennae":"X","wings":"1","pattern":"D","legs":"X"},"action":"harvest","summary":"good-harvest","bonus":1.9200000000000013},{"rt":1292.1000000238419,"stimulus":"\n                    <p><b>Action: <em>harvest</em></b></p>\n                    <p>This is the bee that you just saw.</p>\n                    <img src=\"bees-with-color/bee-A2SM.svg\" width=\"200\">\n                    <p><span class=\"greenText\"><b>Successful harvest!</b></span><br>Your pay has increased by $0.02. Your bonus pay is now $0.92.</p>\n            ","response":0,"trial_type":"html-button-response","trial_index":66,"time_elapsed":976091,"internal_node_id":"0.0-4.0-1.27","subject_id":"6050ae98866a427695e22254","study_id":"6197b3f67c2b5cd3b6d9596a","session_id":"6197b58766306b3157204d27","condition":"full-information","relevant_dimensions":["wings","pattern"],"bee_group":{"antennae":"X","wings":"1","pattern":"D","legs":"X"},"bonus":1.9200000000000013},{"rt":2725.3000000715256,"stimulus":"bees-with-color/bee-A2SF.svg","response":0,"trial_type":"image-button-response","trial_index":67,"time_elapsed":978820,"internal_node_id":"0.0-4.0-0.28","subject_id":"6050ae98866a427695e22254","study_id":"6197b3f67c2b5cd3b6d9596a","session_id":"6197b58766306b3157204d27","condition":"full-information","relevant_dimensions":["wings","pattern"],"bee_group":{"antennae":"X","wings":"1","pattern":"D","legs":"X"},"action":"harvest","summary":"good-harvest","bonus":1.9200000000000013},{"rt":1747.3999999761581,"stimulus":"\n                    <p><b>Action: <em>harvest</em></b></p>\n                    <p>This is the bee that you just saw.</p>\n                    <img src=\"bees-with-color/bee-A2SF.svg\" width=\"200\">\n                    <p><span class=\"greenText\"><b>Successful harvest!</b></span><br>Your pay has increased by $0.02. Your bonus pay is now $0.94.</p>\n            ","response":0,"trial_type":"html-button-response","trial_index":68,"time_elapsed":980573,"internal_node_id":"0.0-4.0-1.28","subject_id":"6050ae98866a427695e22254","study_id":"6197b3f67c2b5cd3b6d9596a","session_id":"6197b58766306b3157204d27","condition":"full-information","relevant_dimensions":["wings","pattern"],"bee_group":{"antennae":"X","wings":"1","pattern":"D","legs":"X"},"bonus":1.9200000000000013},{"rt":21416.700000047684,"stimulus":"bees-with-color/bee-B1DM.svg","response":1,"trial_type":"image-button-response","trial_index":69,"time_elapsed":1001994,"internal_node_id":"0.0-4.0-0.29","subject_id":"6050ae98866a427695e22254","study_id":"6197b3f67c2b5cd3b6d9596a","session_id":"6197b58766306b3157204d27","condition":"full-information","relevant_dimensions":["wings","pattern"],"bee_group":{"antennae":"X","wings":"1","pattern":"D","legs":"X"},"action":"avoid","summary":"good-avoid","bonus":1.9200000000000013},{"rt":1502.3000000715256,"stimulus":"\n                    <p><b>Action: <em>avoid</em></b></p>\n                    <p>This is the bee that you just saw.</p>\n                    <img src=\"bees-with-color/bee-B1DM.svg\" width=\"200\">\n                    <p><span class=\"greenText\">Good choice!</span>  This bee would have stung you.<br>Your bonus pay is unchanged, and remains at $0.94.</p>\n            ","response":0,"trial_type":"html-button-response","trial_index":70,"time_elapsed":1003504,"internal_node_id":"0.0-4.0-1.29","subject_id":"6050ae98866a427695e22254","study_id":"6197b3f67c2b5cd3b6d9596a","session_id":"6197b58766306b3157204d27","condition":"full-information","relevant_dimensions":["wings","pattern"],"bee_group":{"antennae":"X","wings":"1","pattern":"D","legs":"X"},"bonus":1.9200000000000013},{"rt":9145.400000095367,"stimulus":"bees-with-color/bee-B2DM.svg","response":0,"trial_type":"image-button-response","trial_index":71,"time_elapsed":1012655,"internal_node_id":"0.0-4.0-0.30","subject_id":"6050ae98866a427695e22254","study_id":"6197b3f67c2b5cd3b6d9596a","session_id":"6197b58766306b3157204d27","condition":"full-information","relevant_dimensions":["wings","pattern"],"bee_group":{"antennae":"X","wings":"1","pattern":"D","legs":"X"},"action":"harvest","summary":"good-harvest","bonus":1.9200000000000013},{"rt":1583.5,"stimulus":"\n                    <p><b>Action: <em>harvest</em></b></p>\n                    <p>This is the bee that you just saw.</p>\n                    <img src=\"bees-with-color/bee-B2DM.svg\" width=\"200\">\n                    <p><span class=\"greenText\"><b>Successful harvest!</b></span><br>Your pay has increased by $0.02. Your bonus pay is now $0.96.</p>\n            ","response":0,"trial_type":"html-button-response","trial_index":72,"time_elapsed":1014243,"internal_node_id":"0.0-4.0-1.30","subject_id":"6050ae98866a427695e22254","study_id":"6197b3f67c2b5cd3b6d9596a","session_id":"6197b58766306b3157204d27","condition":"full-information","relevant_dimensions":["wings","pattern"],"bee_group":{"antennae":"X","wings":"1","pattern":"D","legs":"X"},"bonus":1.9200000000000013},{"rt":8738.600000023842,"stimulus":"bees-with-color/bee-A1DF.svg","response":1,"trial_type":"image-button-response","trial_index":73,"time_elapsed":1022986,"internal_node_id":"0.0-4.0-0.31","subject_id":"6050ae98866a427695e22254","study_id":"6197b3f67c2b5cd3b6d9596a","session_id":"6197b58766306b3157204d27","condition":"full-information","relevant_dimensions":["wings","pattern"],"bee_group":{"antennae":"X","wings":"1","pattern":"D","legs":"X"},"action":"avoid","summary":"good-avoid","bonus":1.9200000000000013},{"rt":1714.2999999523163,"stimulus":"\n                    <p><b>Action: <em>avoid</em></b></p>\n                    <p>This is the bee that you just saw.</p>\n                    <img src=\"bees-with-color/bee-A1DF.svg\" width=\"200\">\n                    <p><span class=\"greenText\">Good choice!</span>  This bee would have stung you.<br>Your bonus pay is unchanged, and remains at $0.96.</p>\n            ","response":0,"trial_type":"html-button-response","trial_index":74,"time_elapsed":1024704,"internal_node_id":"0.0-4.0-1.31","subject_id":"6050ae98866a427695e22254","study_id":"6197b3f67c2b5cd3b6d9596a","session_id":"6197b58766306b3157204d27","condition":"full-information","relevant_dimensions":["wings","pattern"],"bee_group":{"antennae":"X","wings":"1","pattern":"D","legs":"X"},"bonus":1.9200000000000013},{"rt":3155.600000023842,"stimulus":"bees-with-color/bee-A1SM.svg","response":0,"trial_type":"image-button-response","trial_index":75,"time_elapsed":1027864,"internal_node_id":"0.0-4.0-0.32","subject_id":"6050ae98866a427695e22254","study_id":"6197b3f67c2b5cd3b6d9596a","session_id":"6197b58766306b3157204d27","condition":"full-information","relevant_dimensions":["wings","pattern"],"bee_group":{"antennae":"X","wings":"1","pattern":"D","legs":"X"},"action":"harvest","summary":"good-harvest","bonus":1.9200000000000013},{"rt":1445.5,"stimulus":"\n                    <p><b>Action: <em>harvest</em></b></p>\n                    <p>This is the bee that you just saw.</p>\n                    <img src=\"bees-with-color/bee-A1SM.svg\" width=\"200\">\n                    <p><span class=\"greenText\"><b>Successful harvest!</b></span><br>Your pay has increased by $0.02. Your bonus pay is now $0.98.</p>\n            ","response":0,"trial_type":"html-button-response","trial_index":76,"time_elapsed":1029314,"internal_node_id":"0.0-4.0-1.32","subject_id":"6050ae98866a427695e22254","study_id":"6197b3f67c2b5cd3b6d9596a","session_id":"6197b58766306b3157204d27","condition":"full-information","relevant_dimensions":["wings","pattern"],"bee_group":{"antennae":"X","wings":"1","pattern":"D","legs":"X"},"bonus":1.9200000000000013},{"rt":13544,"stimulus":"bees-with-color/bee-A1DM.svg","response":1,"trial_type":"image-button-response","trial_index":77,"time_elapsed":1042863,"internal_node_id":"0.0-4.0-0.33","subject_id":"6050ae98866a427695e22254","study_id":"6197b3f67c2b5cd3b6d9596a","session_id":"6197b58766306b3157204d27","condition":"full-information","relevant_dimensions":["wings","pattern"],"bee_group":{"antennae":"X","wings":"1","pattern":"D","legs":"X"},"action":"avoid","summary":"good-avoid","bonus":1.9200000000000013},{"rt":1691.9000000953674,"stimulus":"\n                    <p><b>Action: <em>avoid</em></b></p>\n                    <p>This is the bee that you just saw.</p>\n                    <img src=\"bees-with-color/bee-A1DM.svg\" width=\"200\">\n                    <p><span class=\"greenText\">Good choice!</span>  This bee would have stung you.<br>Your bonus pay is unchanged, and remains at $0.98.</p>\n            ","response":0,"trial_type":"html-button-response","trial_index":78,"time_elapsed":1044558,"internal_node_id":"0.0-4.0-1.33","subject_id":"6050ae98866a427695e22254","study_id":"6197b3f67c2b5cd3b6d9596a","session_id":"6197b58766306b3157204d27","condition":"full-information","relevant_dimensions":["wings","pattern"],"bee_group":{"antennae":"X","wings":"1","pattern":"D","legs":"X"},"bonus":1.9200000000000013},{"rt":3741,"stimulus":"bees-with-color/bee-B2SM.svg","response":0,"trial_type":"image-button-response","trial_index":79,"time_elapsed":1048304,"internal_node_id":"0.0-4.0-0.34","subject_id":"6050ae98866a427695e22254","study_id":"6197b3f67c2b5cd3b6d9596a","session_id":"6197b58766306b3157204d27","condition":"full-information","relevant_dimensions":["wings","pattern"],"bee_group":{"antennae":"X","wings":"1","pattern":"D","legs":"X"},"action":"harvest","summary":"good-harvest","bonus":1.9200000000000013},{"rt":1728.3999999761581,"stimulus":"\n                    <p><b>Action: <em>harvest</em></b></p>\n                    <p>This is the bee that you just saw.</p>\n                    <img src=\"bees-with-color/bee-B2SM.svg\" width=\"200\">\n                    <p><span class=\"greenText\"><b>Successful harvest!</b></span><br>Your pay has increased by $0.02. Your bonus pay is now $1.00.</p>\n            ","response":0,"trial_type":"html-button-response","trial_index":80,"time_elapsed":1050052,"internal_node_id":"0.0-4.0-1.34","subject_id":"6050ae98866a427695e22254","study_id":"6197b3f67c2b5cd3b6d9596a","session_id":"6197b58766306b3157204d27","condition":"full-information","relevant_dimensions":["wings","pattern"],"bee_group":{"antennae":"X","wings":"1","pattern":"D","legs":"X"},"bonus":1.9200000000000013},{"rt":2505.5,"stimulus":"bees-with-color/bee-A1SF.svg","response":0,"trial_type":"image-button-response","trial_index":81,"time_elapsed":1052562,"internal_node_id":"0.0-4.0-0.35","subject_id":"6050ae98866a427695e22254","study_id":"6197b3f67c2b5cd3b6d9596a","session_id":"6197b58766306b3157204d27","condition":"full-information","relevant_dimensions":["wings","pattern"],"bee_group":{"antennae":"X","wings":"1","pattern":"D","legs":"X"},"action":"harvest","summary":"good-harvest","bonus":1.9200000000000013},{"rt":1282.8999999761581,"stimulus":"\n                    <p><b>Action: <em>harvest</em></b></p>\n                    <p>This is the bee that you just saw.</p>\n                    <img src=\"bees-with-color/bee-A1SF.svg\" width=\"200\">\n                    <p><span class=\"greenText\"><b>Successful harvest!</b></span><br>Your pay has increased by $0.02. Your bonus pay is now $1.02.</p>\n            ","response":0,"trial_type":"html-button-response","trial_index":82,"time_elapsed":1053848,"internal_node_id":"0.0-4.0-1.35","subject_id":"6050ae98866a427695e22254","study_id":"6197b3f67c2b5cd3b6d9596a","session_id":"6197b58766306b3157204d27","condition":"full-information","relevant_dimensions":["wings","pattern"],"bee_group":{"antennae":"X","wings":"1","pattern":"D","legs":"X"},"bonus":1.9200000000000013},{"rt":3105.9000000953674,"stimulus":"bees-with-color/bee-B1SM.svg","response":0,"trial_type":"image-button-response","trial_index":83,"time_elapsed":1056958,"internal_node_id":"0.0-4.0-0.36","subject_id":"6050ae98866a427695e22254","study_id":"6197b3f67c2b5cd3b6d9596a","session_id":"6197b58766306b3157204d27","condition":"full-information","relevant_dimensions":["wings","pattern"],"bee_group":{"antennae":"X","wings":"1","pattern":"D","legs":"X"},"action":"harvest","summary":"good-harvest","bonus":1.9200000000000013},{"rt":1114.5,"stimulus":"\n                    <p><b>Action: <em>harvest</em></b></p>\n                    <p>This is the bee that you just saw.</p>\n                    <img src=\"bees-with-color/bee-B1SM.svg\" width=\"200\">\n                    <p><span class=\"greenText\"><b>Successful harvest!</b></span><br>Your pay has increased by $0.02. Your bonus pay is now $1.04.</p>\n            ","response":0,"trial_type":"html-button-response","trial_index":84,"time_elapsed":1058078,"internal_node_id":"0.0-4.0-1.36","subject_id":"6050ae98866a427695e22254","study_id":"6197b3f67c2b5cd3b6d9596a","session_id":"6197b58766306b3157204d27","condition":"full-information","relevant_dimensions":["wings","pattern"],"bee_group":{"antennae":"X","wings":"1","pattern":"D","legs":"X"},"bonus":1.9200000000000013},{"rt":1693.6999999284744,"stimulus":"bees-with-color/bee-B2SF.svg","response":0,"trial_type":"image-button-response","trial_index":85,"time_elapsed":1059776,"internal_node_id":"0.0-4.0-0.37","subject_id":"6050ae98866a427695e22254","study_id":"6197b3f67c2b5cd3b6d9596a","session_id":"6197b58766306b3157204d27","condition":"full-information","relevant_dimensions":["wings","pattern"],"bee_group":{"antennae":"X","wings":"1","pattern":"D","legs":"X"},"action":"harvest","summary":"good-harvest","bonus":1.9200000000000013},{"rt":1113.8999999761581,"stimulus":"\n                    <p><b>Action: <em>harvest</em></b></p>\n                    <p>This is the bee that you just saw.</p>\n                    <img src=\"bees-with-color/bee-B2SF.svg\" width=\"200\">\n                    <p><span class=\"greenText\"><b>Successful harvest!</b></span><br>Your pay has increased by $0.02. Your bonus pay is now $1.06.</p>\n            ","response":0,"trial_type":"html-button-response","trial_index":86,"time_elapsed":1060894,"internal_node_id":"0.0-4.0-1.37","subject_id":"6050ae98866a427695e22254","study_id":"6197b3f67c2b5cd3b6d9596a","session_id":"6197b58766306b3157204d27","condition":"full-information","relevant_dimensions":["wings","pattern"],"bee_group":{"antennae":"X","wings":"1","pattern":"D","legs":"X"},"bonus":1.9200000000000013},{"rt":6790.100000023842,"stimulus":"bees-with-color/bee-B1DF.svg","response":1,"trial_type":"image-button-response","trial_index":87,"time_elapsed":1067687,"internal_node_id":"0.0-4.0-0.38","subject_id":"6050ae98866a427695e22254","study_id":"6197b3f67c2b5cd3b6d9596a","session_id":"6197b58766306b3157204d27","condition":"full-information","relevant_dimensions":["wings","pattern"],"bee_group":{"antennae":"X","wings":"1","pattern":"D","legs":"X"},"action":"avoid","summary":"good-avoid","bonus":1.9200000000000013},{"rt":2187.3000000715256,"stimulus":"\n                    <p><b>Action: <em>avoid</em></b></p>\n                    <p>This is the bee that you just saw.</p>\n                    <img src=\"bees-with-color/bee-B1DF.svg\" width=\"200\">\n                    <p><span class=\"greenText\">Good choice!</span>  This bee would have stung you.<br>Your bonus pay is unchanged, and remains at $1.06.</p>\n            ","response":0,"trial_type":"html-button-response","trial_index":88,"time_elapsed":1069877,"internal_node_id":"0.0-4.0-1.38","subject_id":"6050ae98866a427695e22254","study_id":"6197b3f67c2b5cd3b6d9596a","session_id":"6197b58766306b3157204d27","condition":"full-information","relevant_dimensions":["wings","pattern"],"bee_group":{"antennae":"X","wings":"1","pattern":"D","legs":"X"},"bonus":1.9200000000000013},{"rt":9983.300000071526,"stimulus":"bees-with-color/bee-B2DM.svg","response":0,"trial_type":"image-button-response","trial_index":89,"time_elapsed":1079864,"internal_node_id":"0.0-4.0-0.39","subject_id":"6050ae98866a427695e22254","study_id":"6197b3f67c2b5cd3b6d9596a","session_id":"6197b58766306b3157204d27","condition":"full-information","relevant_dimensions":["wings","pattern"],"bee_group":{"antennae":"X","wings":"1","pattern":"D","legs":"X"},"action":"harvest","summary":"good-harvest","bonus":1.9200000000000013},{"rt":1277.1000000238419,"stimulus":"\n                    <p><b>Action: <em>harvest</em></b></p>\n                    <p>This is the bee that you just saw.</p>\n                    <img src=\"bees-with-color/bee-B2DM.svg\" width=\"200\">\n                    <p><span class=\"greenText\"><b>Successful harvest!</b></span><br>Your pay has increased by $0.02. Your bonus pay is now $1.08.</p>\n            ","response":0,"trial_type":"html-button-response","trial_index":90,"time_elapsed":1081145,"internal_node_id":"0.0-4.0-1.39","subject_id":"6050ae98866a427695e22254","study_id":"6197b3f67c2b5cd3b6d9596a","session_id":"6197b58766306b3157204d27","condition":"full-information","relevant_dimensions":["wings","pattern"],"bee_group":{"antennae":"X","wings":"1","pattern":"D","legs":"X"},"bonus":1.9200000000000013},{"rt":9763.399999976158,"stimulus":"bees-with-color/bee-A1DF.svg","response":1,"trial_type":"image-button-response","trial_index":91,"time_elapsed":1090912,"internal_node_id":"0.0-4.0-0.40","subject_id":"6050ae98866a427695e22254","study_id":"6197b3f67c2b5cd3b6d9596a","session_id":"6197b58766306b3157204d27","condition":"full-information","relevant_dimensions":["wings","pattern"],"bee_group":{"antennae":"X","wings":"1","pattern":"D","legs":"X"},"action":"avoid","summary":"good-avoid","bonus":1.9200000000000013},{"rt":1409.7999999523163,"stimulus":"\n                    <p><b>Action: <em>avoid</em></b></p>\n                    <p>This is the bee that you just saw.</p>\n                    <img src=\"bees-with-color/bee-A1DF.svg\" width=\"200\">\n                    <p><span class=\"greenText\">Good choice!</span>  This bee would have stung you.<br>Your bonus pay is unchanged, and remains at $1.08.</p>\n            ","response":0,"trial_type":"html-button-response","trial_index":92,"time_elapsed":1092324,"internal_node_id":"0.0-4.0-1.40","subject_id":"6050ae98866a427695e22254","study_id":"6197b3f67c2b5cd3b6d9596a","session_id":"6197b58766306b3157204d27","condition":"full-information","relevant_dimensions":["wings","pattern"],"bee_group":{"antennae":"X","wings":"1","pattern":"D","legs":"X"},"bonus":1.9200000000000013},{"rt":4931.200000047684,"stimulus":"bees-with-color/bee-B2DF.svg","response":0,"trial_type":"image-button-response","trial_index":93,"time_elapsed":1097258,"internal_node_id":"0.0-4.0-0.41","subject_id":"6050ae98866a427695e22254","study_id":"6197b3f67c2b5cd3b6d9596a","session_id":"6197b58766306b3157204d27","condition":"full-information","relevant_dimensions":["wings","pattern"],"bee_group":{"antennae":"X","wings":"1","pattern":"D","legs":"X"},"action":"harvest","summary":"good-harvest","bonus":1.9200000000000013},{"rt":1975.5,"stimulus":"\n                    <p><b>Action: <em>harvest</em></b></p>\n                    <p>This is the bee that you just saw.</p>\n                    <img src=\"bees-with-color/bee-B2DF.svg\" width=\"200\">\n                    <p><span class=\"greenText\"><b>Successful harvest!</b></span><br>Your pay has increased by $0.02. Your bonus pay is now $1.10.</p>\n            ","response":0,"trial_type":"html-button-response","trial_index":94,"time_elapsed":1099237,"internal_node_id":"0.0-4.0-1.41","subject_id":"6050ae98866a427695e22254","study_id":"6197b3f67c2b5cd3b6d9596a","session_id":"6197b58766306b3157204d27","condition":"full-information","relevant_dimensions":["wings","pattern"],"bee_group":{"antennae":"X","wings":"1","pattern":"D","legs":"X"},"bonus":1.9200000000000013},{"rt":2649.0999999046326,"stimulus":"bees-with-color/bee-A2DF.svg","response":0,"trial_type":"image-button-response","trial_index":95,"time_elapsed":1101889,"internal_node_id":"0.0-4.0-0.42","subject_id":"6050ae98866a427695e22254","study_id":"6197b3f67c2b5cd3b6d9596a","session_id":"6197b58766306b3157204d27","condition":"full-information","relevant_dimensions":["wings","pattern"],"bee_group":{"antennae":"X","wings":"1","pattern":"D","legs":"X"},"action":"harvest","summary":"good-harvest","bonus":1.9200000000000013},{"rt":1308.6000000238419,"stimulus":"\n                    <p><b>Action: <em>harvest</em></b></p>\n                    <p>This is the bee that you just saw.</p>\n                    <img src=\"bees-with-color/bee-A2DF.svg\" width=\"200\">\n                    <p><span class=\"greenText\"><b>Successful harvest!</b></span><br>Your pay has increased by $0.02. Your bonus pay is now $1.12.</p>\n            ","response":0,"trial_type":"html-button-response","trial_index":96,"time_elapsed":1103200,"internal_node_id":"0.0-4.0-1.42","subject_id":"6050ae98866a427695e22254","study_id":"6197b3f67c2b5cd3b6d9596a","session_id":"6197b58766306b3157204d27","condition":"full-information","relevant_dimensions":["wings","pattern"],"bee_group":{"antennae":"X","wings":"1","pattern":"D","legs":"X"},"bonus":1.9200000000000013},{"rt":5398.199999928474,"stimulus":"bees-with-color/bee-A2SF.svg","response":0,"trial_type":"image-button-response","trial_index":97,"time_elapsed":1108601,"internal_node_id":"0.0-4.0-0.43","subject_id":"6050ae98866a427695e22254","study_id":"6197b3f67c2b5cd3b6d9596a","session_id":"6197b58766306b3157204d27","condition":"full-information","relevant_dimensions":["wings","pattern"],"bee_group":{"antennae":"X","wings":"1","pattern":"D","legs":"X"},"action":"harvest","summary":"good-harvest","bonus":1.9200000000000013},{"rt":1796.8000000715256,"stimulus":"\n                    <p><b>Action: <em>harvest</em></b></p>\n                    <p>This is the bee that you just saw.</p>\n                    <img src=\"bees-with-color/bee-A2SF.svg\" width=\"200\">\n                    <p><span class=\"greenText\"><b>Successful harvest!</b></span><br>Your pay has increased by $0.02. Your bonus pay is now $1.14.</p>\n            ","response":0,"trial_type":"html-button-response","trial_index":98,"time_elapsed":1110401,"internal_node_id":"0.0-4.0-1.43","subject_id":"6050ae98866a427695e22254","study_id":"6197b3f67c2b5cd3b6d9596a","session_id":"6197b58766306b3157204d27","condition":"full-information","relevant_dimensions":["wings","pattern"],"bee_group":{"antennae":"X","wings":"1","pattern":"D","legs":"X"},"bonus":1.9200000000000013},{"rt":1645.5,"stimulus":"bees-with-color/bee-A2SM.svg","response":0,"trial_type":"image-button-response","trial_index":99,"time_elapsed":1112050,"internal_node_id":"0.0-4.0-0.44","subject_id":"6050ae98866a427695e22254","study_id":"6197b3f67c2b5cd3b6d9596a","session_id":"6197b58766306b3157204d27","condition":"full-information","relevant_dimensions":["wings","pattern"],"bee_group":{"antennae":"X","wings":"1","pattern":"D","legs":"X"},"action":"harvest","summary":"good-harvest","bonus":1.9200000000000013},{"rt":1354,"stimulus":"\n                    <p><b>Action: <em>harvest</em></b></p>\n                    <p>This is the bee that you just saw.</p>\n                    <img src=\"bees-with-color/bee-A2SM.svg\" width=\"200\">\n                    <p><span class=\"greenText\"><b>Successful harvest!</b></span><br>Your pay has increased by $0.02. Your bonus pay is now $1.16.</p>\n            ","response":0,"trial_type":"html-button-response","trial_index":100,"time_elapsed":1113406,"internal_node_id":"0.0-4.0-1.44","subject_id":"6050ae98866a427695e22254","study_id":"6197b3f67c2b5cd3b6d9596a","session_id":"6197b58766306b3157204d27","condition":"full-information","relevant_dimensions":["wings","pattern"],"bee_group":{"antennae":"X","wings":"1","pattern":"D","legs":"X"},"bonus":1.9200000000000013},{"rt":4318.900000095367,"stimulus":"bees-with-color/bee-B1DM.svg","response":1,"trial_type":"image-button-response","trial_index":101,"time_elapsed":1117728,"internal_node_id":"0.0-4.0-0.45","subject_id":"6050ae98866a427695e22254","study_id":"6197b3f67c2b5cd3b6d9596a","session_id":"6197b58766306b3157204d27","condition":"full-information","relevant_dimensions":["wings","pattern"],"bee_group":{"antennae":"X","wings":"1","pattern":"D","legs":"X"},"action":"avoid","summary":"good-avoid","bonus":1.9200000000000013},{"rt":1482.7999999523163,"stimulus":"\n                    <p><b>Action: <em>avoid</em></b></p>\n                    <p>This is the bee that you just saw.</p>\n                    <img src=\"bees-with-color/bee-B1DM.svg\" width=\"200\">\n                    <p><span class=\"greenText\">Good choice!</span>  This bee would have stung you.<br>Your bonus pay is unchanged, and remains at $1.16.</p>\n            ","response":0,"trial_type":"html-button-response","trial_index":102,"time_elapsed":1119214,"internal_node_id":"0.0-4.0-1.45","subject_id":"6050ae98866a427695e22254","study_id":"6197b3f67c2b5cd3b6d9596a","session_id":"6197b58766306b3157204d27","condition":"full-information","relevant_dimensions":["wings","pattern"],"bee_group":{"antennae":"X","wings":"1","pattern":"D","legs":"X"},"bonus":1.9200000000000013},{"rt":4951.199999928474,"stimulus":"bees-with-color/bee-A2DM.svg","response":0,"trial_type":"image-button-response","trial_index":103,"time_elapsed":1124169,"internal_node_id":"0.0-4.0-0.46","subject_id":"6050ae98866a427695e22254","study_id":"6197b3f67c2b5cd3b6d9596a","session_id":"6197b58766306b3157204d27","condition":"full-information","relevant_dimensions":["wings","pattern"],"bee_group":{"antennae":"X","wings":"1","pattern":"D","legs":"X"},"action":"harvest","summary":"good-harvest","bonus":1.9200000000000013},{"rt":10756.399999976158,"stimulus":"\n                    <p><b>Action: <em>harvest</em></b></p>\n                    <p>This is the bee that you just saw.</p>\n                    <img src=\"bees-with-color/bee-A2DM.svg\" width=\"200\">\n                    <p><span class=\"greenText\"><b>Successful harvest!</b></span><br>Your pay has increased by $0.02. Your bonus pay is now $1.18.</p>\n            ","response":0,"trial_type":"html-button-response","trial_index":104,"time_elapsed":1134928,"internal_node_id":"0.0-4.0-1.46","subject_id":"6050ae98866a427695e22254","study_id":"6197b3f67c2b5cd3b6d9596a","session_id":"6197b58766306b3157204d27","condition":"full-information","relevant_dimensions":["wings","pattern"],"bee_group":{"antennae":"X","wings":"1","pattern":"D","legs":"X"},"bonus":1.9200000000000013},{"rt":2515.899999976158,"stimulus":"bees-with-color/bee-B1SF.svg","response":0,"trial_type":"image-button-response","trial_index":105,"time_elapsed":1137449,"internal_node_id":"0.0-4.0-0.47","subject_id":"6050ae98866a427695e22254","study_id":"6197b3f67c2b5cd3b6d9596a","session_id":"6197b58766306b3157204d27","condition":"full-information","relevant_dimensions":["wings","pattern"],"bee_group":{"antennae":"X","wings":"1","pattern":"D","legs":"X"},"action":"harvest","summary":"good-harvest","bonus":1.9200000000000013},{"rt":1480,"stimulus":"\n                    <p><b>Action: <em>harvest</em></b></p>\n                    <p>This is the bee that you just saw.</p>\n                    <img src=\"bees-with-color/bee-B1SF.svg\" width=\"200\">\n                    <p><span class=\"greenText\"><b>Successful harvest!</b></span><br>Your pay has increased by $0.02. Your bonus pay is now $1.20.</p>\n            ","response":0,"trial_type":"html-button-response","trial_index":106,"time_elapsed":1138932,"internal_node_id":"0.0-4.0-1.47","subject_id":"6050ae98866a427695e22254","study_id":"6197b3f67c2b5cd3b6d9596a","session_id":"6197b58766306b3157204d27","condition":"full-information","relevant_dimensions":["wings","pattern"],"bee_group":{"antennae":"X","wings":"1","pattern":"D","legs":"X"},"bonus":1.9200000000000013},{"rt":1445.5,"stimulus":"bees-with-color/bee-A2SF.svg","response":0,"trial_type":"image-button-response","trial_index":107,"time_elapsed":1140381,"internal_node_id":"0.0-4.0-0.48","subject_id":"6050ae98866a427695e22254","study_id":"6197b3f67c2b5cd3b6d9596a","session_id":"6197b58766306b3157204d27","condition":"full-information","relevant_dimensions":["wings","pattern"],"bee_group":{"antennae":"X","wings":"1","pattern":"D","legs":"X"},"action":"harvest","summary":"good-harvest","bonus":1.9200000000000013},{"rt":1163.8999999761581,"stimulus":"\n                    <p><b>Action: <em>harvest</em></b></p>\n                    <p>This is the bee that you just saw.</p>\n                    <img src=\"bees-with-color/bee-A2SF.svg\" width=\"200\">\n                    <p><span class=\"greenText\"><b>Successful harvest!</b></span><br>Your pay has increased by $0.02. Your bonus pay is now $1.22.</p>\n            ","response":0,"trial_type":"html-button-response","trial_index":108,"time_elapsed":1141548,"internal_node_id":"0.0-4.0-1.48","subject_id":"6050ae98866a427695e22254","study_id":"6197b3f67c2b5cd3b6d9596a","session_id":"6197b58766306b3157204d27","condition":"full-information","relevant_dimensions":["wings","pattern"],"bee_group":{"antennae":"X","wings":"1","pattern":"D","legs":"X"},"bonus":1.9200000000000013},{"rt":1433.3999999761581,"stimulus":"bees-with-color/bee-A2SM.svg","response":0,"trial_type":"image-button-response","trial_index":109,"time_elapsed":1142985,"internal_node_id":"0.0-4.0-0.49","subject_id":"6050ae98866a427695e22254","study_id":"6197b3f67c2b5cd3b6d9596a","session_id":"6197b58766306b3157204d27","condition":"full-information","relevant_dimensions":["wings","pattern"],"bee_group":{"antennae":"X","wings":"1","pattern":"D","legs":"X"},"action":"harvest","summary":"good-harvest","bonus":1.9200000000000013},{"rt":1000.3999999761581,"stimulus":"\n                    <p><b>Action: <em>harvest</em></b></p>\n                    <p>This is the bee that you just saw.</p>\n                    <img src=\"bees-with-color/bee-A2SM.svg\" width=\"200\">\n                    <p><span class=\"greenText\"><b>Successful harvest!</b></span><br>Your pay has increased by $0.02. Your bonus pay is now $1.24.</p>\n            ","response":0,"trial_type":"html-button-response","trial_index":110,"time_elapsed":1143988,"internal_node_id":"0.0-4.0-1.49","subject_id":"6050ae98866a427695e22254","study_id":"6197b3f67c2b5cd3b6d9596a","session_id":"6197b58766306b3157204d27","condition":"full-information","relevant_dimensions":["wings","pattern"],"bee_group":{"antennae":"X","wings":"1","pattern":"D","legs":"X"},"bonus":1.9200000000000013},{"rt":4665.200000047684,"stimulus":"bees-with-color/bee-A2DM.svg","response":0,"trial_type":"image-button-response","trial_index":111,"time_elapsed":1148657,"internal_node_id":"0.0-4.0-0.50","subject_id":"6050ae98866a427695e22254","study_id":"6197b3f67c2b5cd3b6d9596a","session_id":"6197b58766306b3157204d27","condition":"full-information","relevant_dimensions":["wings","pattern"],"bee_group":{"antennae":"X","wings":"1","pattern":"D","legs":"X"},"action":"harvest","summary":"good-harvest","bonus":1.9200000000000013},{"rt":4386.399999976158,"stimulus":"\n                    <p><b>Action: <em>harvest</em></b></p>\n                    <p>This is the bee that you just saw.</p>\n                    <img src=\"bees-with-color/bee-A2DM.svg\" width=\"200\">\n                    <p><span class=\"greenText\"><b>Successful harvest!</b></span><br>Your pay has increased by $0.02. Your bonus pay is now $1.26.</p>\n            ","response":0,"trial_type":"html-button-response","trial_index":112,"time_elapsed":1153047,"internal_node_id":"0.0-4.0-1.50","subject_id":"6050ae98866a427695e22254","study_id":"6197b3f67c2b5cd3b6d9596a","session_id":"6197b58766306b3157204d27","condition":"full-information","relevant_dimensions":["wings","pattern"],"bee_group":{"antennae":"X","wings":"1","pattern":"D","legs":"X"},"bonus":1.9200000000000013},{"rt":2184.100000023842,"stimulus":"bees-with-color/bee-B1SF.svg","response":0,"trial_type":"image-button-response","trial_index":113,"time_elapsed":1155235,"internal_node_id":"0.0-4.0-0.51","subject_id":"6050ae98866a427695e22254","study_id":"6197b3f67c2b5cd3b6d9596a","session_id":"6197b58766306b3157204d27","condition":"full-information","relevant_dimensions":["wings","pattern"],"bee_group":{"antennae":"X","wings":"1","pattern":"D","legs":"X"},"action":"harvest","summary":"good-harvest","bonus":1.9200000000000013},{"rt":1382,"stimulus":"\n                    <p><b>Action: <em>harvest</em></b></p>\n                    <p>This is the bee that you just saw.</p>\n                    <img src=\"bees-with-color/bee-B1SF.svg\" width=\"200\">\n                    <p><span class=\"greenText\"><b>Successful harvest!</b></span><br>Your pay has increased by $0.02. Your bonus pay is now $1.28.</p>\n            ","response":0,"trial_type":"html-button-response","trial_index":114,"time_elapsed":1156621,"internal_node_id":"0.0-4.0-1.51","subject_id":"6050ae98866a427695e22254","study_id":"6197b3f67c2b5cd3b6d9596a","session_id":"6197b58766306b3157204d27","condition":"full-information","relevant_dimensions":["wings","pattern"],"bee_group":{"antennae":"X","wings":"1","pattern":"D","legs":"X"},"bonus":1.9200000000000013},{"rt":3525.7000000476837,"stimulus":"bees-with-color/bee-A1DM.svg","response":1,"trial_type":"image-button-response","trial_index":115,"time_elapsed":1160150,"internal_node_id":"0.0-4.0-0.52","subject_id":"6050ae98866a427695e22254","study_id":"6197b3f67c2b5cd3b6d9596a","session_id":"6197b58766306b3157204d27","condition":"full-information","relevant_dimensions":["wings","pattern"],"bee_group":{"antennae":"X","wings":"1","pattern":"D","legs":"X"},"action":"avoid","summary":"good-avoid","bonus":1.9200000000000013},{"rt":1421.1999999284744,"stimulus":"\n                    <p><b>Action: <em>avoid</em></b></p>\n                    <p>This is the bee that you just saw.</p>\n                    <img src=\"bees-with-color/bee-A1DM.svg\" width=\"200\">\n                    <p><span class=\"greenText\">Good choice!</span>  This bee would have stung you.<br>Your bonus pay is unchanged, and remains at $1.28.</p>\n            ","response":0,"trial_type":"html-button-response","trial_index":116,"time_elapsed":1161575,"internal_node_id":"0.0-4.0-1.52","subject_id":"6050ae98866a427695e22254","study_id":"6197b3f67c2b5cd3b6d9596a","session_id":"6197b58766306b3157204d27","condition":"full-information","relevant_dimensions":["wings","pattern"],"bee_group":{"antennae":"X","wings":"1","pattern":"D","legs":"X"},"bonus":1.9200000000000013},{"rt":2230.399999976158,"stimulus":"bees-with-color/bee-B2DM.svg","response":0,"trial_type":"image-button-response","trial_index":117,"time_elapsed":1163810,"internal_node_id":"0.0-4.0-0.53","subject_id":"6050ae98866a427695e22254","study_id":"6197b3f67c2b5cd3b6d9596a","session_id":"6197b58766306b3157204d27","condition":"full-information","relevant_dimensions":["wings","pattern"],"bee_group":{"antennae":"X","wings":"1","pattern":"D","legs":"X"},"action":"harvest","summary":"good-harvest","bonus":1.9200000000000013},{"rt":1630.6000000238419,"stimulus":"\n                    <p><b>Action: <em>harvest</em></b></p>\n                    <p>This is the bee that you just saw.</p>\n                    <img src=\"bees-with-color/bee-B2DM.svg\" width=\"200\">\n                    <p><span class=\"greenText\"><b>Successful harvest!</b></span><br>Your pay has increased by $0.02. Your bonus pay is now $1.30.</p>\n            ","response":0,"trial_type":"html-button-response","trial_index":118,"time_elapsed":1165444,"internal_node_id":"0.0-4.0-1.53","subject_id":"6050ae98866a427695e22254","study_id":"6197b3f67c2b5cd3b6d9596a","session_id":"6197b58766306b3157204d27","condition":"full-information","relevant_dimensions":["wings","pattern"],"bee_group":{"antennae":"X","wings":"1","pattern":"D","legs":"X"},"bonus":1.9200000000000013},{"rt":2602.600000023842,"stimulus":"bees-with-color/bee-B1DF.svg","response":1,"trial_type":"image-button-response","trial_index":119,"time_elapsed":1168051,"internal_node_id":"0.0-4.0-0.54","subject_id":"6050ae98866a427695e22254","study_id":"6197b3f67c2b5cd3b6d9596a","session_id":"6197b58766306b3157204d27","condition":"full-information","relevant_dimensions":["wings","pattern"],"bee_group":{"antennae":"X","wings":"1","pattern":"D","legs":"X"},"action":"avoid","summary":"good-avoid","bonus":1.9200000000000013},{"rt":1512.3999999761581,"stimulus":"\n                    <p><b>Action: <em>avoid</em></b></p>\n                    <p>This is the bee that you just saw.</p>\n                    <img src=\"bees-with-color/bee-B1DF.svg\" width=\"200\">\n                    <p><span class=\"greenText\">Good choice!</span>  This bee would have stung you.<br>Your bonus pay is unchanged, and remains at $1.30.</p>\n            ","response":0,"trial_type":"html-button-response","trial_index":120,"time_elapsed":1169566,"internal_node_id":"0.0-4.0-1.54","subject_id":"6050ae98866a427695e22254","study_id":"6197b3f67c2b5cd3b6d9596a","session_id":"6197b58766306b3157204d27","condition":"full-information","relevant_dimensions":["wings","pattern"],"bee_group":{"antennae":"X","wings":"1","pattern":"D","legs":"X"},"bonus":1.9200000000000013},{"rt":1464.7000000476837,"stimulus":"bees-with-color/bee-A1SM.svg","response":0,"trial_type":"image-button-response","trial_index":121,"time_elapsed":1171035,"internal_node_id":"0.0-4.0-0.55","subject_id":"6050ae98866a427695e22254","study_id":"6197b3f67c2b5cd3b6d9596a","session_id":"6197b58766306b3157204d27","condition":"full-information","relevant_dimensions":["wings","pattern"],"bee_group":{"antennae":"X","wings":"1","pattern":"D","legs":"X"},"action":"harvest","summary":"good-harvest","bonus":1.9200000000000013},{"rt":1511.3000000715256,"stimulus":"\n                    <p><b>Action: <em>harvest</em></b></p>\n                    <p>This is the bee that you just saw.</p>\n                    <img src=\"bees-with-color/bee-A1SM.svg\" width=\"200\">\n                    <p><span class=\"greenText\"><b>Successful harvest!</b></span><br>Your pay has increased by $0.02. Your bonus pay is now $1.32.</p>\n            ","response":0,"trial_type":"html-button-response","trial_index":122,"time_elapsed":1172550,"internal_node_id":"0.0-4.0-1.55","subject_id":"6050ae98866a427695e22254","study_id":"6197b3f67c2b5cd3b6d9596a","session_id":"6197b58766306b3157204d27","condition":"full-information","relevant_dimensions":["wings","pattern"],"bee_group":{"antennae":"X","wings":"1","pattern":"D","legs":"X"},"bonus":1.9200000000000013},{"rt":1482.7999999523163,"stimulus":"bees-with-color/bee-B2SF.svg","response":0,"trial_type":"image-button-response","trial_index":123,"time_elapsed":1174036,"internal_node_id":"0.0-4.0-0.56","subject_id":"6050ae98866a427695e22254","study_id":"6197b3f67c2b5cd3b6d9596a","session_id":"6197b58766306b3157204d27","condition":"full-information","relevant_dimensions":["wings","pattern"],"bee_group":{"antennae":"X","wings":"1","pattern":"D","legs":"X"},"action":"harvest","summary":"good-harvest","bonus":1.9200000000000013},{"rt":1105.8000000715256,"stimulus":"\n                    <p><b>Action: <em>harvest</em></b></p>\n                    <p>This is the bee that you just saw.</p>\n                    <img src=\"bees-with-color/bee-B2SF.svg\" width=\"200\">\n                    <p><span class=\"greenText\"><b>Successful harvest!</b></span><br>Your pay has increased by $0.02. Your bonus pay is now $1.34.</p>\n            ","response":0,"trial_type":"html-button-response","trial_index":124,"time_elapsed":1175145,"internal_node_id":"0.0-4.0-1.56","subject_id":"6050ae98866a427695e22254","study_id":"6197b3f67c2b5cd3b6d9596a","session_id":"6197b58766306b3157204d27","condition":"full-information","relevant_dimensions":["wings","pattern"],"bee_group":{"antennae":"X","wings":"1","pattern":"D","legs":"X"},"bonus":1.9200000000000013},{"rt":4329.399999976158,"stimulus":"bees-with-color/bee-B2DF.svg","response":0,"trial_type":"image-button-response","trial_index":125,"time_elapsed":1179480,"internal_node_id":"0.0-4.0-0.57","subject_id":"6050ae98866a427695e22254","study_id":"6197b3f67c2b5cd3b6d9596a","session_id":"6197b58766306b3157204d27","condition":"full-information","relevant_dimensions":["wings","pattern"],"bee_group":{"antennae":"X","wings":"1","pattern":"D","legs":"X"},"action":"harvest","summary":"good-harvest","bonus":1.9200000000000013},{"rt":1166.7000000476837,"stimulus":"\n                    <p><b>Action: <em>harvest</em></b></p>\n                    <p>This is the bee that you just saw.</p>\n                    <img src=\"bees-with-color/bee-B2DF.svg\" width=\"200\">\n                    <p><span class=\"greenText\"><b>Successful harvest!</b></span><br>Your pay has increased by $0.02. Your bonus pay is now $1.36.</p>\n            ","response":0,"trial_type":"html-button-response","trial_index":126,"time_elapsed":1180651,"internal_node_id":"0.0-4.0-1.57","subject_id":"6050ae98866a427695e22254","study_id":"6197b3f67c2b5cd3b6d9596a","session_id":"6197b58766306b3157204d27","condition":"full-information","relevant_dimensions":["wings","pattern"],"bee_group":{"antennae":"X","wings":"1","pattern":"D","legs":"X"},"bonus":1.9200000000000013},{"rt":2395.7999999523163,"stimulus":"bees-with-color/bee-A2DF.svg","response":0,"trial_type":"image-button-response","trial_index":127,"time_elapsed":1183050,"internal_node_id":"0.0-4.0-0.58","subject_id":"6050ae98866a427695e22254","study_id":"6197b3f67c2b5cd3b6d9596a","session_id":"6197b58766306b3157204d27","condition":"full-information","relevant_dimensions":["wings","pattern"],"bee_group":{"antennae":"X","wings":"1","pattern":"D","legs":"X"},"action":"harvest","summary":"good-harvest","bonus":1.9200000000000013},{"rt":1161.1999999284744,"stimulus":"\n                    <p><b>Action: <em>harvest</em></b></p>\n                    <p>This is the bee that you just saw.</p>\n                    <img src=\"bees-with-color/bee-A2DF.svg\" width=\"200\">\n                    <p><span class=\"greenText\"><b>Successful harvest!</b></span><br>Your pay has increased by $0.02. Your bonus pay is now $1.38.</p>\n            ","response":0,"trial_type":"html-button-response","trial_index":128,"time_elapsed":1184216,"internal_node_id":"0.0-4.0-1.58","subject_id":"6050ae98866a427695e22254","study_id":"6197b3f67c2b5cd3b6d9596a","session_id":"6197b58766306b3157204d27","condition":"full-information","relevant_dimensions":["wings","pattern"],"bee_group":{"antennae":"X","wings":"1","pattern":"D","legs":"X"},"bonus":1.9200000000000013},{"rt":1961.2999999523163,"stimulus":"bees-with-color/bee-A1SF.svg","response":0,"trial_type":"image-button-response","trial_index":129,"time_elapsed":1186182,"internal_node_id":"0.0-4.0-0.59","subject_id":"6050ae98866a427695e22254","study_id":"6197b3f67c2b5cd3b6d9596a","session_id":"6197b58766306b3157204d27","condition":"full-information","relevant_dimensions":["wings","pattern"],"bee_group":{"antennae":"X","wings":"1","pattern":"D","legs":"X"},"action":"harvest","summary":"good-harvest","bonus":1.9200000000000013},{"rt":1423,"stimulus":"\n                    <p><b>Action: <em>harvest</em></b></p>\n                    <p>This is the bee that you just saw.</p>\n                    <img src=\"bees-with-color/bee-A1SF.svg\" width=\"200\">\n                    <p><span class=\"greenText\"><b>Successful harvest!</b></span><br>Your pay has increased by $0.02. Your bonus pay is now $1.40.</p>\n            ","response":0,"trial_type":"html-button-response","trial_index":130,"time_elapsed":1187610,"internal_node_id":"0.0-4.0-1.59","subject_id":"6050ae98866a427695e22254","study_id":"6197b3f67c2b5cd3b6d9596a","session_id":"6197b58766306b3157204d27","condition":"full-information","relevant_dimensions":["wings","pattern"],"bee_group":{"antennae":"X","wings":"1","pattern":"D","legs":"X"},"bonus":1.9200000000000013},{"rt":1586.1999999284744,"stimulus":"bees-with-color/bee-B2SM.svg","response":0,"trial_type":"image-button-response","trial_index":131,"time_elapsed":1189200,"internal_node_id":"0.0-4.0-0.60","subject_id":"6050ae98866a427695e22254","study_id":"6197b3f67c2b5cd3b6d9596a","session_id":"6197b58766306b3157204d27","condition":"full-information","relevant_dimensions":["wings","pattern"],"bee_group":{"antennae":"X","wings":"1","pattern":"D","legs":"X"},"action":"harvest","summary":"good-harvest","bonus":1.9200000000000013},{"rt":934.5,"stimulus":"\n                    <p><b>Action: <em>harvest</em></b></p>\n                    <p>This is the bee that you just saw.</p>\n                    <img src=\"bees-with-color/bee-B2SM.svg\" width=\"200\">\n                    <p><span class=\"greenText\"><b>Successful harvest!</b></span><br>Your pay has increased by $0.02. Your bonus pay is now $1.42.</p>\n            ","response":0,"trial_type":"html-button-response","trial_index":132,"time_elapsed":1190139,"internal_node_id":"0.0-4.0-1.60","subject_id":"6050ae98866a427695e22254","study_id":"6197b3f67c2b5cd3b6d9596a","session_id":"6197b58766306b3157204d27","condition":"full-information","relevant_dimensions":["wings","pattern"],"bee_group":{"antennae":"X","wings":"1","pattern":"D","legs":"X"},"bonus":1.9200000000000013},{"rt":4109,"stimulus":"bees-with-color/bee-A1DF.svg","response":1,"trial_type":"image-button-response","trial_index":133,"time_elapsed":1194251,"internal_node_id":"0.0-4.0-0.61","subject_id":"6050ae98866a427695e22254","study_id":"6197b3f67c2b5cd3b6d9596a","session_id":"6197b58766306b3157204d27","condition":"full-information","relevant_dimensions":["wings","pattern"],"bee_group":{"antennae":"X","wings":"1","pattern":"D","legs":"X"},"action":"avoid","summary":"good-avoid","bonus":1.9200000000000013},{"rt":1243.6999999284744,"stimulus":"\n                    <p><b>Action: <em>avoid</em></b></p>\n                    <p>This is the bee that you just saw.</p>\n                    <img src=\"bees-with-color/bee-A1DF.svg\" width=\"200\">\n                    <p><span class=\"greenText\">Good choice!</span>  This bee would have stung you.<br>Your bonus pay is unchanged, and remains at $1.42.</p>\n            ","response":0,"trial_type":"html-button-response","trial_index":134,"time_elapsed":1195499,"internal_node_id":"0.0-4.0-1.61","subject_id":"6050ae98866a427695e22254","study_id":"6197b3f67c2b5cd3b6d9596a","session_id":"6197b58766306b3157204d27","condition":"full-information","relevant_dimensions":["wings","pattern"],"bee_group":{"antennae":"X","wings":"1","pattern":"D","legs":"X"},"bonus":1.9200000000000013},{"rt":2021.5,"stimulus":"bees-with-color/bee-B1DM.svg","response":1,"trial_type":"image-button-response","trial_index":135,"time_elapsed":1197525,"internal_node_id":"0.0-4.0-0.62","subject_id":"6050ae98866a427695e22254","study_id":"6197b3f67c2b5cd3b6d9596a","session_id":"6197b58766306b3157204d27","condition":"full-information","relevant_dimensions":["wings","pattern"],"bee_group":{"antennae":"X","wings":"1","pattern":"D","legs":"X"},"action":"avoid","summary":"good-avoid","bonus":1.9200000000000013},{"rt":1226.2999999523163,"stimulus":"\n                    <p><b>Action: <em>avoid</em></b></p>\n                    <p>This is the bee that you just saw.</p>\n                    <img src=\"bees-with-color/bee-B1DM.svg\" width=\"200\">\n                    <p><span class=\"greenText\">Good choice!</span>  This bee would have stung you.<br>Your bonus pay is unchanged, and remains at $1.42.</p>\n            ","response":0,"trial_type":"html-button-response","trial_index":136,"time_elapsed":1198753,"internal_node_id":"0.0-4.0-1.62","subject_id":"6050ae98866a427695e22254","study_id":"6197b3f67c2b5cd3b6d9596a","session_id":"6197b58766306b3157204d27","condition":"full-information","relevant_dimensions":["wings","pattern"],"bee_group":{"antennae":"X","wings":"1","pattern":"D","legs":"X"},"bonus":1.9200000000000013},{"rt":2425.5,"stimulus":"bees-with-color/bee-B1SM.svg","response":0,"trial_type":"image-button-response","trial_index":137,"time_elapsed":1201181,"internal_node_id":"0.0-4.0-0.63","subject_id":"6050ae98866a427695e22254","study_id":"6197b3f67c2b5cd3b6d9596a","session_id":"6197b58766306b3157204d27","condition":"full-information","relevant_dimensions":["wings","pattern"],"bee_group":{"antennae":"X","wings":"1","pattern":"D","legs":"X"},"action":"harvest","summary":"good-harvest","bonus":1.9200000000000013},{"rt":1395.7000000476837,"stimulus":"\n                    <p><b>Action: <em>harvest</em></b></p>\n                    <p>This is the bee that you just saw.</p>\n                    <img src=\"bees-with-color/bee-B1SM.svg\" width=\"200\">\n                    <p><span class=\"greenText\"><b>Successful harvest!</b></span><br>Your pay has increased by $0.02. Your bonus pay is now $1.44.</p>\n            ","response":0,"trial_type":"html-button-response","trial_index":138,"time_elapsed":1202581,"internal_node_id":"0.0-4.0-1.63","subject_id":"6050ae98866a427695e22254","study_id":"6197b3f67c2b5cd3b6d9596a","session_id":"6197b58766306b3157204d27","condition":"full-information","relevant_dimensions":["wings","pattern"],"bee_group":{"antennae":"X","wings":"1","pattern":"D","legs":"X"},"bonus":1.9200000000000013},{"rt":20751.700000047684,"stimulus":"You have completed the first part of this experiment.<br><br>You will now begin a shorter second part, in which you will receive no feedback.<br>The same rules regarding bonus pay apply.<br><br>Press any key to begin.","response":" ","trial_type":"html-keyboard-response","trial_index":139,"time_elapsed":1223335,"internal_node_id":"0.0-5.0","subject_id":"6050ae98866a427695e22254","study_id":"6197b3f67c2b5cd3b6d9596a","session_id":"6197b58766306b3157204d27","condition":"full-information","relevant_dimensions":["wings","pattern"],"bee_group":{"antennae":"X","wings":"1","pattern":"D","legs":"X"},"bonus":1.9200000000000013},{"rt":8700.600000023842,"stimulus":"bees-with-color/bee-B2SM.svg","response":0,"trial_type":"image-button-response","trial_index":140,"time_elapsed":1232118,"internal_node_id":"0.0-6.0-0.0","subject_id":"6050ae98866a427695e22254","study_id":"6197b3f67c2b5cd3b6d9596a","session_id":"6197b58766306b3157204d27","condition":"full-information","relevant_dimensions":["wings","pattern"],"bee_group":{"antennae":"X","wings":"1","pattern":"D","legs":"X"},"bonus":1.9200000000000013},{"rt":1534.6000000238419,"stimulus":"bees-with-color/bee-B2SF.svg","response":0,"trial_type":"image-button-response","trial_index":141,"time_elapsed":1233658,"internal_node_id":"0.0-6.0-0.1","subject_id":"6050ae98866a427695e22254","study_id":"6197b3f67c2b5cd3b6d9596a","session_id":"6197b58766306b3157204d27","condition":"full-information","relevant_dimensions":["wings","pattern"],"bee_group":{"antennae":"X","wings":"1","pattern":"D","legs":"X"},"bonus":1.9200000000000013},{"rt":2257.4000000953674,"stimulus":"bees-with-color/bee-B2DM.svg","response":0,"trial_type":"image-button-response","trial_index":142,"time_elapsed":1235919,"internal_node_id":"0.0-6.0-0.2","subject_id":"6050ae98866a427695e22254","study_id":"6197b3f67c2b5cd3b6d9596a","session_id":"6197b58766306b3157204d27","condition":"full-information","relevant_dimensions":["wings","pattern"],"bee_group":{"antennae":"X","wings":"1","pattern":"D","legs":"X"},"bonus":1.9200000000000013},{"rt":2196.1999999284744,"stimulus":"bees-with-color/bee-B1DM.svg","response":1,"trial_type":"image-button-response","trial_index":143,"time_elapsed":1238120,"internal_node_id":"0.0-6.0-0.3","subject_id":"6050ae98866a427695e22254","study_id":"6197b3f67c2b5cd3b6d9596a","session_id":"6197b58766306b3157204d27","condition":"full-information","relevant_dimensions":["wings","pattern"],"bee_group":{"antennae":"X","wings":"1","pattern":"D","legs":"X"},"bonus":1.9200000000000013},{"rt":2095.7000000476837,"stimulus":"bees-with-color/bee-B1SM.svg","response":0,"trial_type":"image-button-response","trial_index":144,"time_elapsed":1240219,"internal_node_id":"0.0-6.0-0.4","subject_id":"6050ae98866a427695e22254","study_id":"6197b3f67c2b5cd3b6d9596a","session_id":"6197b58766306b3157204d27","condition":"full-information","relevant_dimensions":["wings","pattern"],"bee_group":{"antennae":"X","wings":"1","pattern":"D","legs":"X"},"bonus":1.9200000000000013},{"rt":1743.8999999761581,"stimulus":"bees-with-color/bee-B1DF.svg","response":1,"trial_type":"image-button-response","trial_index":145,"time_elapsed":1241969,"internal_node_id":"0.0-6.0-0.5","subject_id":"6050ae98866a427695e22254","study_id":"6197b3f67c2b5cd3b6d9596a","session_id":"6197b58766306b3157204d27","condition":"full-information","relevant_dimensions":["wings","pattern"],"bee_group":{"antennae":"X","wings":"1","pattern":"D","legs":"X"},"bonus":1.9200000000000013},{"rt":2275.7000000476837,"stimulus":"bees-with-color/bee-A2DF.svg","response":0,"trial_type":"image-button-response","trial_index":146,"time_elapsed":1244249,"internal_node_id":"0.0-6.0-0.6","subject_id":"6050ae98866a427695e22254","study_id":"6197b3f67c2b5cd3b6d9596a","session_id":"6197b58766306b3157204d27","condition":"full-information","relevant_dimensions":["wings","pattern"],"bee_group":{"antennae":"X","wings":"1","pattern":"D","legs":"X"},"bonus":1.9200000000000013},{"rt":1474.2000000476837,"stimulus":"bees-with-color/bee-A2DM.svg","response":0,"trial_type":"image-button-response","trial_index":147,"time_elapsed":1245729,"internal_node_id":"0.0-6.0-0.7","subject_id":"6050ae98866a427695e22254","study_id":"6197b3f67c2b5cd3b6d9596a","session_id":"6197b58766306b3157204d27","condition":"full-information","relevant_dimensions":["wings","pattern"],"bee_group":{"antennae":"X","wings":"1","pattern":"D","legs":"X"},"bonus":1.9200000000000013},{"rt":1576.1000000238419,"stimulus":"bees-with-color/bee-A1DF.svg","response":1,"trial_type":"image-button-response","trial_index":148,"time_elapsed":1247309,"internal_node_id":"0.0-6.0-0.8","subject_id":"6050ae98866a427695e22254","study_id":"6197b3f67c2b5cd3b6d9596a","session_id":"6197b58766306b3157204d27","condition":"full-information","relevant_dimensions":["wings","pattern"],"bee_group":{"antennae":"X","wings":"1","pattern":"D","legs":"X"},"bonus":1.9200000000000013},{"rt":1612.8999999761581,"stimulus":"bees-with-color/bee-A1SF.svg","response":0,"trial_type":"image-button-response","trial_index":149,"time_elapsed":1248926,"internal_node_id":"0.0-6.0-0.9","subject_id":"6050ae98866a427695e22254","study_id":"6197b3f67c2b5cd3b6d9596a","session_id":"6197b58766306b3157204d27","condition":"full-information","relevant_dimensions":["wings","pattern"],"bee_group":{"antennae":"X","wings":"1","pattern":"D","legs":"X"},"bonus":1.9200000000000013},{"rt":2808.7000000476837,"stimulus":"bees-with-color/bee-B2DF.svg","response":0,"trial_type":"image-button-response","trial_index":150,"time_elapsed":1251740,"internal_node_id":"0.0-6.0-0.10","subject_id":"6050ae98866a427695e22254","study_id":"6197b3f67c2b5cd3b6d9596a","session_id":"6197b58766306b3157204d27","condition":"full-information","relevant_dimensions":["wings","pattern"],"bee_group":{"antennae":"X","wings":"1","pattern":"D","legs":"X"},"bonus":1.9200000000000013},{"rt":4069.2000000476837,"stimulus":"bees-with-color/bee-A1DM.svg","response":1,"trial_type":"image-button-response","trial_index":151,"time_elapsed":1255813,"internal_node_id":"0.0-6.0-0.11","subject_id":"6050ae98866a427695e22254","study_id":"6197b3f67c2b5cd3b6d9596a","session_id":"6197b58766306b3157204d27","condition":"full-information","relevant_dimensions":["wings","pattern"],"bee_group":{"antennae":"X","wings":"1","pattern":"D","legs":"X"},"bonus":1.9200000000000013},{"rt":1497.4000000953674,"stimulus":"bees-with-color/bee-A2SM.svg","response":0,"trial_type":"image-button-response","trial_index":152,"time_elapsed":1257317,"internal_node_id":"0.0-6.0-0.12","subject_id":"6050ae98866a427695e22254","study_id":"6197b3f67c2b5cd3b6d9596a","session_id":"6197b58766306b3157204d27","condition":"full-information","relevant_dimensions":["wings","pattern"],"bee_group":{"antennae":"X","wings":"1","pattern":"D","legs":"X"},"bonus":1.9200000000000013},{"rt":1247.3999999761581,"stimulus":"bees-with-color/bee-A1SM.svg","response":0,"trial_type":"image-button-response","trial_index":153,"time_elapsed":1258570,"internal_node_id":"0.0-6.0-0.13","subject_id":"6050ae98866a427695e22254","study_id":"6197b3f67c2b5cd3b6d9596a","session_id":"6197b58766306b3157204d27","condition":"full-information","relevant_dimensions":["wings","pattern"],"bee_group":{"antennae":"X","wings":"1","pattern":"D","legs":"X"},"bonus":1.9200000000000013},{"rt":1177,"stimulus":"bees-with-color/bee-A2SF.svg","response":0,"trial_type":"image-button-response","trial_index":154,"time_elapsed":1259751,"internal_node_id":"0.0-6.0-0.14","subject_id":"6050ae98866a427695e22254","study_id":"6197b3f67c2b5cd3b6d9596a","session_id":"6197b58766306b3157204d27","condition":"full-information","relevant_dimensions":["wings","pattern"],"bee_group":{"antennae":"X","wings":"1","pattern":"D","legs":"X"},"bonus":1.9200000000000013},{"rt":1499.1999999284744,"stimulus":"bees-with-color/bee-B1SF.svg","response":0,"trial_type":"image-button-response","trial_index":155,"time_e