[{"success":true,"trial_type":"fullscreen","trial_index":0,"time_elapsed":13734,"internal_node_id":"0.0-0.0","subject_id":"6137252658a821dab0cf73a9","study_id":"6197b3f67c2b5cd3b6d9596a","session_id":"619beeeca59a5a266350b604","condition":"contingent","relevant_dimensions":["antennae","pattern"],"bee_group":{"antennae":"B","wings":"X","pattern":"D","legs":"X"},"bonus":0.8000000000000008},{"success":true,"timeout":false,"failed_images":[],"failed_audio":[],"failed_video":[],"trial_type":"preload","trial_index":1,"time_elapsed":15978,"internal_node_id":"0.0-1.0","subject_id":"6137252658a821dab0cf73a9","study_id":"6197b3f67c2b5cd3b6d9596a","session_id":"619beeeca59a5a266350b604","condition":"contingent","relevant_dimensions":["antennae","pattern"],"bee_group":{"antennae":"B","wings":"X","pattern":"D","legs":"X"},"bonus":0.8000000000000008},{"rt":4704,"stimulus":"Welcome! Press any key to begin.","response":"enter","trial_type":"html-keyboard-response","trial_index":2,"time_elapsed":20682,"internal_node_id":"0.0-2.0","subject_id":"6137252658a821dab0cf73a9","study_id":"6197b3f67c2b5cd3b6d9596a","session_id":"619beeeca59a5a266350b604","condition":"contingent","relevant_dimensions":["antennae","pattern"],"bee_group":{"antennae":"B","wings":"X","pattern":"D","legs":"X"},"bonus":0.8000000000000008},{"view_history":[{"page_index":0,"viewing_time":3595},{"page_index":1,"viewing_time":10477},{"page_index":2,"viewing_time":7953},{"page_index":3,"viewing_time":14112},{"page_index":4,"viewing_time":6524},{"page_index":5,"viewing_time":6532},{"page_index":6,"viewing_time":9328},{"page_index":7,"viewing_time":5086},{"page_index":8,"viewing_time":10485},{"page_index":9,"viewing_time":13329},{"page_index":10,"viewing_time":22234},{"page_index":11,"viewing_time":8148},{"page_index":12,"viewing_time":5909},{"page_index":13,"viewing_time":1197},{"page_index":14,"viewing_time":1506}],"rt":126416,"trial_type":"instructions","trial_index":3,"time_elapsed":147098,"internal_node_id":"0.0-3.0-0.0","subject_id":"6137252658a821dab0cf73a9","study_id":"6197b3f67c2b5cd3b6d9596a","session_id":"619beeeca59a5a266350b604","condition":"contingent","relevant_dimensions":["antennae","pattern"],"bee_group":{"antennae":"B","wings":"X","pattern":"D","legs":"X"},"bonus":0.8000000000000008},{"rt":9457,"response":{"Q0":["Two or six legs","Single or double wings","Antennae or no antennae"]},"question_order":[0],"trial_type":"survey-multi-select","trial_index":4,"time_elapsed":156558,"internal_node_id":"0.0-3.0-1.0","subject_id":"6137252658a821dab0cf73a9","study_id":"6197b3f67c2b5cd3b6d9596a","session_id":"619beeeca59a5a266350b604","condition":"contingent","relevant_dimensions":["antennae","pattern"],"bee_group":{"antennae":"B","wings":"X","pattern":"D","legs":"X"},"correct":false,"bonus":0.8000000000000008},{"rt":19044,"response":{"Q1":"No.","Q2":"Based on the four features of the bee.","Q3":"You do not learn if it was friendly or dangerous, and do not alter your bonus."},"question_order":[0,1,2],"trial_type":"survey-multi-choice","trial_index":5,"time_elapsed":175603,"internal_node_id":"0.0-3.0-2.0","subject_id":"6137252658a821dab0cf73a9","study_id":"6197b3f67c2b5cd3b6d9596a","session_id":"619beeeca59a5a266350b604","condition":"contingent","relevant_dimensions":["antennae","pattern"],"bee_group":{"antennae":"B","wings":"X","pattern":"D","legs":"X"},"correct":true,"bonus":0.8000000000000008},{"rt":2195,"stimulus":"<p>You did not answer all comprehension questions correctly.<br>Press <b>continue</b> to review the instructions again.</p>","response":0,"trial_type":"html-button-response","trial_index":6,"time_elapsed":177801,"internal_node_id":"0.0-3.0-3.0","subject_id":"6137252658a821dab0cf73a9","study_id":"6197b3f67c2b5cd3b6d9596a","session_id":"619beeeca59a5a266350b604","condition":"contingent","relevant_dimensions":["antennae","pattern"],"bee_group":{"antennae":"B","wings":"X","pattern":"D","legs":"X"},"bonus":0.8000000000000008},{"view_history":[{"page_index":0,"viewing_time":2414},{"page_index":1,"viewing_time":3230},{"page_index":2,"viewing_time":1398},{"page_index":3,"viewing_time":1398},{"page_index":4,"viewing_time":1296},{"page_index":5,"viewing_time":1307},{"page_index":6,"viewing_time":1009},{"page_index":7,"viewing_time":3634},{"page_index":8,"viewing_time":964},{"page_index":9,"viewing_time":949},{"page_index":10,"viewing_time":1537},{"page_index":11,"viewing_time":15574},{"page_index":12,"viewing_time":1498},{"page_index":13,"viewing_time":2144},{"page_index":14,"viewing_time":1646}],"rt":39998,"trial_type":"instructions","trial_index":7,"time_elapsed":217801,"internal_node_id":"0.0-3.0-4.0-0.0","subject_id":"6137252658a821dab0cf73a9","study_id":"6197b3f67c2b5cd3b6d9596a","session_id":"619beeeca59a5a266350b604","condition":"contingent","relevant_dimensions":["antennae","pattern"],"bee_group":{"antennae":"B","wings":"X","pattern":"D","legs":"X"},"bonus":0.8000000000000008},{"rt":7223,"response":{"Q0":["Two or six legs","Stripes or spots on body","Single or double wings","Antennae or no antennae"]},"question_order":[0],"trial_type":"survey-multi-select","trial_index":8,"time_elapsed":225025,"internal_node_id":"0.0-3.0-4.0-1.0","subject_id":"6137252658a821dab0cf73a9","study_id":"6197b3f67c2b5cd3b6d9596a","session_id":"619beeeca59a5a266350b604","condition":"contingent","relevant_dimensions":["antennae","pattern"],"bee_group":{"antennae":"B","wings":"X","pattern":"D","legs":"X"},"correct":true,"bonus":0.8000000000000008},{"rt":7562,"response":{"Q1":"No.","Q2":"Based on the four features of the bee.","Q3":"You do not learn if it was friendly or dangerous, and do not alter your bonus."},"question_order":[0,1,2],"trial_type":"survey-multi-choice","trial_index":9,"time_elapsed":232590,"internal_node_id":"0.0-3.0-4.0-2.0","subject_id":"6137252658a821dab0cf73a9","study_id":"6197b3f67c2b5cd3b6d9596a","session_id":"619beeeca59a5a266350b604","condition":"contingent","relevant_dimensions":["antennae","pattern"],"bee_group":{"antennae":"B","wings":"X","pattern":"D","legs":"X"},"correct":true,"bonus":0.8000000000000008},{"rt":3145,"stimulus":"<p>Congrats, you got everything right<br>When you're ready, click the button below to continue to the experiment.</p>","response":0,"trial_type":"html-button-response","trial_index":10,"time_elapsed":235736,"internal_node_id":"0.0-3.0-4.0-3.0","subject_id":"6137252658a821dab0cf73a9","study_id":"6197b3f67c2b5cd3b6d9596a","session_id":"619beeeca59a5a266350b604","condition":"contingent","relevant_dimensions":["antennae","pattern"],"bee_group":{"antennae":"B","wings":"X","pattern":"D","legs":"X"},"bonus":0.8000000000000008},{"rt":10029,"stimulus":"bees-with-color/bee-A1SF.svg","response":0,"trial_type":"image-button-response","trial_index":11,"time_elapsed":245767,"internal_node_id":"0.0-4.0-0.0","subject_id":"6137252658a821dab0cf73a9","study_id":"6197b3f67c2b5cd3b6d9596a","session_id":"619beeeca59a5a266350b604","condition":"contingent","relevant_dimensions":["antennae","pattern"],"bee_group":{"antennae":"B","wings":"X","pattern":"D","legs":"X"},"action":"harvest","summary":"good-harvest","bonus":0.8000000000000008},{"rt":7276,"stimulus":"\n                    <p><b>Action: <em>harvest</em></b></p>\n                    <p>This is the bee that you just saw.</p>\n                    <img src=\"bees-with-color/bee-A1SF.svg\" width=\"200\">\n                    <p><span class=\"greenText\"><b>Successful harvest!</b></span><br>Your pay has increased by $0.02. Your bonus pay is now $0.56.</p>\n            ","response":0,"trial_type":"html-button-response","trial_index":12,"time_elapsed":253058,"internal_node_id":"0.0-4.0-1.0","subject_id":"6137252658a821dab0cf73a9","study_id":"6197b3f67c2b5cd3b6d9596a","session_id":"619beeeca59a5a266350b604","condition":"contingent","relevant_dimensions":["antennae","pattern"],"bee_group":{"antennae":"B","wings":"X","pattern":"D","legs":"X"},"bonus":0.8000000000000008},{"rt":3674,"stimulus":"bees-with-color/bee-B1SF.svg","response":0,"trial_type":"image-button-response","trial_index":13,"time_elapsed":256732,"internal_node_id":"0.0-4.0-0.1","subject_id":"6137252658a821dab0cf73a9","study_id":"6197b3f67c2b5cd3b6d9596a","session_id":"619beeeca59a5a266350b604","condition":"contingent","relevant_dimensions":["antennae","pattern"],"bee_group":{"antennae":"B","wings":"X","pattern":"D","legs":"X"},"action":"harvest","summary":"good-harvest","bonus":0.8000000000000008},{"rt":3904,"stimulus":"\n                    <p><b>Action: <em>harvest</em></b></p>\n                    <p>This is the bee that you just saw.</p>\n                    <img src=\"bees-with-color/bee-B1SF.svg\" width=\"200\">\n                    <p><span class=\"greenText\"><b>Successful harvest!</b></span><br>Your pay has increased by $0.02. Your bonus pay is now $0.58.</p>\n            ","response":0,"trial_type":"html-button-response","trial_index":14,"time_elapsed":260638,"internal_node_id":"0.0-4.0-1.1","subject_id":"6137252658a821dab0cf73a9","study_id":"6197b3f67c2b5cd3b6d9596a","session_id":"619beeeca59a5a266350b604","condition":"contingent","relevant_dimensions":["antennae","pattern"],"bee_group":{"antennae":"B","wings":"X","pattern":"D","legs":"X"},"bonus":0.8000000000000008},{"rt":8421,"stimulus":"bees-with-color/bee-B1SM.svg","response":0,"trial_type":"image-button-response","trial_index":15,"time_elapsed":269060,"internal_node_id":"0.0-4.0-0.2","subject_id":"6137252658a821dab0cf73a9","study_id":"6197b3f67c2b5cd3b6d9596a","session_id":"619beeeca59a5a266350b604","condition":"contingent","relevant_dimensions":["antennae","pattern"],"bee_group":{"antennae":"B","wings":"X","pattern":"D","legs":"X"},"action":"harvest","summary":"good-harvest","bonus":0.8000000000000008},{"rt":2758,"stimulus":"\n                    <p><b>Action: <em>harvest</em></b></p>\n                    <p>This is the bee that you just saw.</p>\n                    <img src=\"bees-with-color/bee-B1SM.svg\" width=\"200\">\n                    <p><span class=\"greenText\"><b>Successful harvest!</b></span><br>Your pay has increased by $0.02. Your bonus pay is now $0.60.</p>\n            ","response":0,"trial_type":"html-button-response","trial_index":16,"time_elapsed":271818,"internal_node_id":"0.0-4.0-1.2","subject_id":"6137252658a821dab0cf73a9","study_id":"6197b3f67c2b5cd3b6d9596a","session_id":"619beeeca59a5a266350b604","condition":"contingent","relevant_dimensions":["antennae","pattern"],"bee_group":{"antennae":"B","wings":"X","pattern":"D","legs":"X"},"bonus":0.8000000000000008},{"rt":7611,"stimulus":"bees-with-color/bee-B1DF.svg","response":0,"trial_type":"image-button-response","trial_index":17,"time_elapsed":279430,"internal_node_id":"0.0-4.0-0.3","subject_id":"6137252658a821dab0cf73a9","study_id":"6197b3f67c2b5cd3b6d9596a","session_id":"619beeeca59a5a266350b604","condition":"contingent","relevant_dimensions":["antennae","pattern"],"bee_group":{"antennae":"B","wings":"X","pattern":"D","legs":"X"},"action":"harvest","summary":"bad-harvest","bonus":0.8000000000000008},{"rt":11730,"stimulus":"\n                    <p><b>Action: <em>harvest</em></b></p>\n                    <p>This is the bee that you just saw.</p>\n                    <img src=\"bees-with-color/bee-B1DF.svg\" width=\"200\">\n                    <p><span class=\"redText\">Bad choice, the bee was angry.</span><br><b>You have been stung!</b><br>Your pay has been decreased by $0.10. Your bonus pay is now $0.50.</p>\n            ","response":0,"trial_type":"html-button-response","trial_index":18,"time_elapsed":291160,"internal_node_id":"0.0-4.0-1.3","subject_id":"6137252658a821dab0cf73a9","study_id":"6197b3f67c2b5cd3b6d9596a","session_id":"619beeeca59a5a266350b604","condition":"contingent","relevant_dimensions":["antennae","pattern"],"bee_group":{"antennae":"B","wings":"X","pattern":"D","legs":"X"},"bonus":0.8000000000000008},{"rt":4807,"stimulus":"bees-with-color/bee-A2SM.svg","response":0,"trial_type":"image-button-response","trial_index":19,"time_elapsed":295968,"internal_node_id":"0.0-4.0-0.4","subject_id":"6137252658a821dab0cf73a9","study_id":"6197b3f67c2b5cd3b6d9596a","session_id":"619beeeca59a5a266350b604","condition":"contingent","relevant_dimensions":["antennae","pattern"],"bee_group":{"antennae":"B","wings":"X","pattern":"D","legs":"X"},"action":"harvest","summary":"good-harvest","bonus":0.8000000000000008},{"rt":2756,"stimulus":"\n                    <p><b>Action: <em>harvest</em></b></p>\n                    <p>This is the bee that you just saw.</p>\n                    <img src=\"bees-with-color/bee-A2SM.svg\" width=\"200\">\n                    <p><span class=\"greenText\"><b>Successful harvest!</b></span><br>Your pay has increased by $0.02. Your bonus pay is now $0.52.</p>\n            ","response":0,"trial_type":"html-button-response","trial_index":20,"time_elapsed":298726,"internal_node_id":"0.0-4.0-1.4","subject_id":"6137252658a821dab0cf73a9","study_id":"6197b3f67c2b5cd3b6d9596a","session_id":"619beeeca59a5a266350b604","condition":"contingent","relevant_dimensions":["antennae","pattern"],"bee_group":{"antennae":"B","wings":"X","pattern":"D","legs":"X"},"bonus":0.8000000000000008},{"rt":4256,"stimulus":"bees-with-color/bee-A1DF.svg","response":1,"trial_type":"image-button-response","trial_index":21,"time_elapsed":302982,"internal_node_id":"0.0-4.0-0.5","subject_id":"6137252658a821dab0cf73a9","study_id":"6197b3f67c2b5cd3b6d9596a","session_id":"619beeeca59a5a266350b604","condition":"contingent","relevant_dimensions":["antennae","pattern"],"bee_group":{"antennae":"B","wings":"X","pattern":"D","legs":"X"},"action":"avoid","summary":"bad-avoid","bonus":0.8000000000000008},{"rt":2864,"stimulus":"\n                    <p><b>Action: <em>avoid</em></b></p>\n                    <p>This is the bee that you just saw.</p>\n                    <img src=\"bees-with-color/bee-A1DF.svg\" width=\"200\">\n                    <p><br>Your bonus pay is unchanged, and remains at $0.52.</p>\n            ","response":0,"trial_type":"html-button-response","trial_index":22,"time_elapsed":305848,"internal_node_id":"0.0-4.0-1.5","subject_id":"6137252658a821dab0cf73a9","study_id":"6197b3f67c2b5cd3b6d9596a","session_id":"619beeeca59a5a266350b604","condition":"contingent","relevant_dimensions":["antennae","pattern"],"bee_group":{"antennae":"B","wings":"X","pattern":"D","legs":"X"},"bonus":0.8000000000000008},{"rt":1841,"stimulus":"bees-with-color/bee-B2SM.svg","response":0,"trial_type":"image-button-response","trial_index":23,"time_elapsed":307690,"internal_node_id":"0.0-4.0-0.6","subject_id":"6137252658a821dab0cf73a9","study_id":"6197b3f67c2b5cd3b6d9596a","session_id":"619beeeca59a5a266350b604","condition":"contingent","relevant_dimensions":["antennae","pattern"],"bee_group":{"antennae":"B","wings":"X","pattern":"D","legs":"X"},"action":"harvest","summary":"good-harvest","bonus":0.8000000000000008},{"rt":1570,"stimulus":"\n                    <p><b>Action: <em>harvest</em></b></p>\n                    <p>This is the bee that you just saw.</p>\n                    <img src=\"bees-with-color/bee-B2SM.svg\" width=\"200\">\n                    <p><span class=\"greenText\"><b>Successful harvest!</b></span><br>Your pay has increased by $0.02. Your bonus pay is now $0.54.</p>\n            ","response":0,"trial_type":"html-button-response","trial_index":24,"time_elapsed":309260,"internal_node_id":"0.0-4.0-1.6","subject_id":"6137252658a821dab0cf73a9","study_id":"6197b3f67c2b5cd3b6d9596a","session_id":"619beeeca59a5a266350b604","condition":"contingent","relevant_dimensions":["antennae","pattern"],"bee_group":{"antennae":"B","wings":"X","pattern":"D","legs":"X"},"bonus":0.8000000000000008},{"rt":3517,"stimulus":"bees-with-color/bee-B1DM.svg","response":0,"trial_type":"image-button-response","trial_index":25,"time_elapsed":312777,"internal_node_id":"0.0-4.0-0.7","subject_id":"6137252658a821dab0cf73a9","study_id":"6197b3f67c2b5cd3b6d9596a","session_id":"619beeeca59a5a266350b604","condition":"contingent","relevant_dimensions":["antennae","pattern"],"bee_group":{"antennae":"B","wings":"X","pattern":"D","legs":"X"},"action":"harvest","summary":"bad-harvest","bonus":0.8000000000000008},{"rt":2190,"stimulus":"\n                    <p><b>Action: <em>harvest</em></b></p>\n                    <p>This is the bee that you just saw.</p>\n                    <img src=\"bees-with-color/bee-B1DM.svg\" width=\"200\">\n                    <p><span class=\"redText\">Bad choice, the bee was angry.</span><br><b>You have been stung!</b><br>Your pay has been decreased by $0.10. Your bonus pay is now $0.44.</p>\n            ","response":0,"trial_type":"html-button-response","trial_index":26,"time_elapsed":314969,"internal_node_id":"0.0-4.0-1.7","subject_id":"6137252658a821dab0cf73a9","study_id":"6197b3f67c2b5cd3b6d9596a","session_id":"619beeeca59a5a266350b604","condition":"contingent","relevant_dimensions":["antennae","pattern"],"bee_group":{"antennae":"B","wings":"X","pattern":"D","legs":"X"},"bonus":0.8000000000000008},{"rt":2400,"stimulus":"bees-with-color/bee-B2DM.svg","response":1,"trial_type":"image-button-response","trial_index":27,"time_elapsed":317370,"internal_node_id":"0.0-4.0-0.8","subject_id":"6137252658a821dab0cf73a9","study_id":"6197b3f67c2b5cd3b6d9596a","session_id":"619beeeca59a5a266350b604","condition":"contingent","relevant_dimensions":["antennae","pattern"],"bee_group":{"antennae":"B","wings":"X","pattern":"D","legs":"X"},"action":"avoid","summary":"good-avoid","bonus":0.8000000000000008},{"rt":1817,"stimulus":"\n                    <p><b>Action: <em>avoid</em></b></p>\n                    <p>This is the bee that you just saw.</p>\n                    <img src=\"bees-with-color/bee-B2DM.svg\" width=\"200\">\n                    <p><br>Your bonus pay is unchanged, and remains at $0.44.</p>\n            ","response":0,"trial_type":"html-button-response","trial_index":28,"time_elapsed":319188,"internal_node_id":"0.0-4.0-1.8","subject_id":"6137252658a821dab0cf73a9","study_id":"6197b3f67c2b5cd3b6d9596a","session_id":"619beeeca59a5a266350b604","condition":"contingent","relevant_dimensions":["antennae","pattern"],"bee_group":{"antennae":"B","wings":"X","pattern":"D","legs":"X"},"bonus":0.8000000000000008},{"rt":1716,"stimulus":"bees-with-color/bee-A2DM.svg","response":1,"trial_type":"image-button-response","trial_index":29,"time_elapsed":320904,"internal_node_id":"0.0-4.0-0.9","subject_id":"6137252658a821dab0cf73a9","study_id":"6197b3f67c2b5cd3b6d9596a","session_id":"619beeeca59a5a266350b604","condition":"contingent","relevant_dimensions":["antennae","pattern"],"bee_group":{"antennae":"B","wings":"X","pattern":"D","legs":"X"},"action":"avoid","summary":"bad-avoid","bonus":0.8000000000000008},{"rt":4203,"stimulus":"\n                    <p><b>Action: <em>avoid</em></b></p>\n                    <p>This is the bee that you just saw.</p>\n                    <img src=\"bees-with-color/bee-A2DM.svg\" width=\"200\">\n                    <p><br>Your bonus pay is unchanged, and remains at $0.44.</p>\n            ","response":0,"trial_type":"html-button-response","trial_index":30,"time_elapsed":325107,"internal_node_id":"0.0-4.0-1.9","subject_id":"6137252658a821dab0cf73a9","study_id":"6197b3f67c2b5cd3b6d9596a","session_id":"619beeeca59a5a266350b604","condition":"contingent","relevant_dimensions":["antennae","pattern"],"bee_group":{"antennae":"B","wings":"X","pattern":"D","legs":"X"},"bonus":0.8000000000000008},{"rt":3078,"stimulus":"bees-with-color/bee-A2DF.svg","response":1,"trial_type":"image-button-response","trial_index":31,"time_elapsed":328186,"internal_node_id":"0.0-4.0-0.10","subject_id":"6137252658a821dab0cf73a9","study_id":"6197b3f67c2b5cd3b6d9596a","session_id":"619beeeca59a5a266350b604","condition":"contingent","relevant_dimensions":["antennae","pattern"],"bee_group":{"antennae":"B","wings":"X","pattern":"D","legs":"X"},"action":"avoid","summary":"bad-avoid","bonus":0.8000000000000008},{"rt":2337,"stimulus":"\n                    <p><b>Action: <em>avoid</em></b></p>\n                    <p>This is the bee that you just saw.</p>\n                    <img src=\"bees-with-color/bee-A2DF.svg\" width=\"200\">\n                    <p><br>Your bonus pay is unchanged, and remains at $0.44.</p>\n            ","response":0,"trial_type":"html-button-response","trial_index":32,"time_elapsed":330525,"internal_node_id":"0.0-4.0-1.10","subject_id":"6137252658a821dab0cf73a9","study_id":"6197b3f67c2b5cd3b6d9596a","session_id":"619beeeca59a5a266350b604","condition":"contingent","relevant_dimensions":["antennae","pattern"],"bee_group":{"antennae":"B","wings":"X","pattern":"D","legs":"X"},"bonus":0.8000000000000008},{"rt":1989,"stimulus":"bees-with-color/bee-B2DF.svg","response":1,"trial_type":"image-button-response","trial_index":33,"time_elapsed":332514,"internal_node_id":"0.0-4.0-0.11","subject_id":"6137252658a821dab0cf73a9","study_id":"6197b3f67c2b5cd3b6d9596a","session_id":"619beeeca59a5a266350b604","condition":"contingent","relevant_dimensions":["antennae","pattern"],"bee_group":{"antennae":"B","wings":"X","pattern":"D","legs":"X"},"action":"avoid","summary":"good-avoid","bonus":0.8000000000000008},{"rt":1392,"stimulus":"\n                    <p><b>Action: <em>avoid</em></b></p>\n                    <p>This is the bee that you just saw.</p>\n                    <img src=\"bees-with-color/bee-B2DF.svg\" width=\"200\">\n                    <p><br>Your bonus pay is unchanged, and remains at $0.44.</p>\n            ","response":0,"trial_type":"html-button-response","trial_index":34,"time_elapsed":333907,"internal_node_id":"0.0-4.0-1.11","subject_id":"6137252658a821dab0cf73a9","study_id":"6197b3f67c2b5cd3b6d9596a","session_id":"619beeeca59a5a266350b604","condition":"contingent","relevant_dimensions":["antennae","pattern"],"bee_group":{"antennae":"B","wings":"X","pattern":"D","legs":"X"},"bonus":0.8000000000000008},{"rt":1537,"stimulus":"bees-with-color/bee-A2SF.svg","response":0,"trial_type":"image-button-response","trial_index":35,"time_elapsed":335445,"internal_node_id":"0.0-4.0-0.12","subject_id":"6137252658a821dab0cf73a9","study_id":"6197b3f67c2b5cd3b6d9596a","session_id":"619beeeca59a5a266350b604","condition":"contingent","relevant_dimensions":["antennae","pattern"],"bee_group":{"antennae":"B","wings":"X","pattern":"D","legs":"X"},"action":"harvest","summary":"good-harvest","bonus":0.8000000000000008},{"rt":1853,"stimulus":"\n                    <p><b>Action: <em>harvest</em></b></p>\n                    <p>This is the bee that you just saw.</p>\n                    <img src=\"bees-with-color/bee-A2SF.svg\" width=\"200\">\n                    <p><span class=\"greenText\"><b>Successful harvest!</b></span><br>Your pay has increased by $0.02. Your bonus pay is now $0.46.</p>\n            ","response":0,"trial_type":"html-button-response","trial_index":36,"time_elapsed":337299,"internal_node_id":"0.0-4.0-1.12","subject_id":"6137252658a821dab0cf73a9","study_id":"6197b3f67c2b5cd3b6d9596a","session_id":"619beeeca59a5a266350b604","condition":"contingent","relevant_dimensions":["antennae","pattern"],"bee_group":{"antennae":"B","wings":"X","pattern":"D","legs":"X"},"bonus":0.8000000000000008},{"rt":5865,"stimulus":"bees-with-color/bee-B2SF.svg","response":0,"trial_type":"image-button-response","trial_index":37,"time_elapsed":343164,"internal_node_id":"0.0-4.0-0.13","subject_id":"6137252658a821dab0cf73a9","study_id":"6197b3f67c2b5cd3b6d9596a","session_id":"619beeeca59a5a266350b604","condition":"contingent","relevant_dimensions":["antennae","pattern"],"bee_group":{"antennae":"B","wings":"X","pattern":"D","legs":"X"},"action":"harvest","summary":"good-harvest","bonus":0.8000000000000008},{"rt":1111,"stimulus":"\n                    <p><b>Action: <em>harvest</em></b></p>\n                    <p>This is the bee that you just saw.</p>\n                    <img src=\"bees-with-color/bee-B2SF.svg\" width=\"200\">\n                    <p><span class=\"greenText\"><b>Successful harvest!</b></span><br>Your pay has increased by $0.02. Your bonus pay is now $0.48.</p>\n            ","response":0,"trial_type":"html-button-response","trial_index":38,"time_elapsed":344275,"internal_node_id":"0.0-4.0-1.13","subject_id":"6137252658a821dab0cf73a9","study_id":"6197b3f67c2b5cd3b6d9596a","session_id":"619beeeca59a5a266350b604","condition":"contingent","relevant_dimensions":["antennae","pattern"],"bee_group":{"antennae":"B","wings":"X","pattern":"D","legs":"X"},"bonus":0.8000000000000008},{"rt":2804,"stimulus":"bees-with-color/bee-A1SM.svg","response":0,"trial_type":"image-button-response","trial_index":39,"time_elapsed":347080,"internal_node_id":"0.0-4.0-0.14","subject_id":"6137252658a821dab0cf73a9","study_id":"6197b3f67c2b5cd3b6d9596a","session_id":"619beeeca59a5a266350b604","condition":"contingent","relevant_dimensions":["antennae","pattern"],"bee_group":{"antennae":"B","wings":"X","pattern":"D","legs":"X"},"action":"harvest","summary":"good-harvest","bonus":0.8000000000000008},{"rt":1166,"stimulus":"\n                    <p><b>Action: <em>harvest</em></b></p>\n                    <p>This is the bee that you just saw.</p>\n                    <img src=\"bees-with-color/bee-A1SM.svg\" width=\"200\">\n                    <p><span class=\"greenText\"><b>Successful harvest!</b></span><br>Your pay has increased by $0.02. Your bonus pay is now $0.50.</p>\n            ","response":0,"trial_type":"html-button-response","trial_index":40,"time_elapsed":348246,"internal_node_id":"0.0-4.0-1.14","subject_id":"6137252658a821dab0cf73a9","study_id":"6197b3f67c2b5cd3b6d9596a","session_id":"619beeeca59a5a266350b604","condition":"contingent","relevant_dimensions":["antennae","pattern"],"bee_group":{"antennae":"B","wings":"X","pattern":"D","legs":"X"},"bonus":0.8000000000000008},{"rt":2165,"stimulus":"bees-with-color/bee-A1DM.svg","response":1,"trial_type":"image-button-response","trial_index":41,"time_elapsed":350412,"internal_node_id":"0.0-4.0-0.15","subject_id":"6137252658a821dab0cf73a9","study_id":"6197b3f67c2b5cd3b6d9596a","session_id":"619beeeca59a5a266350b604","condition":"contingent","relevant_dimensions":["antennae","pattern"],"bee_group":{"antennae":"B","wings":"X","pattern":"D","legs":"X"},"action":"avoid","summary":"bad-avoid","bonus":0.8000000000000008},{"rt":941,"stimulus":"\n                    <p><b>Action: <em>avoid</em></b></p>\n                    <p>This is the bee that you just saw.</p>\n                    <img src=\"bees-with-color/bee-A1DM.svg\" width=\"200\">\n                    <p><br>Your bonus pay is unchanged, and remains at $0.50.</p>\n            ","response":0,"trial_type":"html-button-response","trial_index":42,"time_elapsed":351355,"internal_node_id":"0.0-4.0-1.15","subject_id":"6137252658a821dab0cf73a9","study_id":"6197b3f67c2b5cd3b6d9596a","session_id":"619beeeca59a5a266350b604","condition":"contingent","relevant_dimensions":["antennae","pattern"],"bee_group":{"antennae":"B","wings":"X","pattern":"D","legs":"X"},"bonus":0.8000000000000008},{"rt":1715,"stimulus":"bees-with-color/bee-B2DM.svg","response":1,"trial_type":"image-button-response","trial_index":43,"time_elapsed":353069,"internal_node_id":"0.0-4.0-0.16","subject_id":"6137252658a821dab0cf73a9","study_id":"6197b3f67c2b5cd3b6d9596a","session_id":"619beeeca59a5a266350b604","condition":"contingent","relevant_dimensions":["antennae","pattern"],"bee_group":{"antennae":"B","wings":"X","pattern":"D","legs":"X"},"action":"avoid","summary":"good-avoid","bonus":0.8000000000000008},{"rt":1002,"stimulus":"\n                    <p><b>Action: <em>avoid</em></b></p>\n                    <p>This is the bee that you just saw.</p>\n                    <img src=\"bees-with-color/bee-B2DM.svg\" width=\"200\">\n                    <p><br>Your bonus pay is unchanged, and remains at $0.50.</p>\n            ","response":0,"trial_type":"html-button-response","trial_index":44,"time_elapsed":354072,"internal_node_id":"0.0-4.0-1.16","subject_id":"6137252658a821dab0cf73a9","study_id":"6197b3f67c2b5cd3b6d9596a","session_id":"619beeeca59a5a266350b604","condition":"contingent","relevant_dimensions":["antennae","pattern"],"bee_group":{"antennae":"B","wings":"X","pattern":"D","legs":"X"},"bonus":0.8000000000000008},{"rt":1297,"stimulus":"bees-with-color/bee-A2DF.svg","response":1,"trial_type":"image-button-response","trial_index":45,"time_elapsed":355369,"internal_node_id":"0.0-4.0-0.17","subject_id":"6137252658a821dab0cf73a9","study_id":"6197b3f67c2b5cd3b6d9596a","session_id":"619beeeca59a5a266350b604","condition":"contingent","relevant_dimensions":["antennae","pattern"],"bee_group":{"antennae":"B","wings":"X","pattern":"D","legs":"X"},"action":"avoid","summary":"bad-avoid","bonus":0.8000000000000008},{"rt":628,"stimulus":"\n                    <p><b>Action: <em>avoid</em></b></p>\n                    <p>This is the bee that you just saw.</p>\n                    <img src=\"bees-with-color/bee-A2DF.svg\" width=\"200\">\n                    <p><br>Your bonus pay is unchanged, and remains at $0.50.</p>\n            ","response":0,"trial_type":"html-button-response","trial_index":46,"time_elapsed":355998,"internal_node_id":"0.0-4.0-1.17","subject_id":"6137252658a821dab0cf73a9","study_id":"6197b3f67c2b5cd3b6d9596a","session_id":"619beeeca59a5a266350b604","condition":"contingent","relevant_dimensions":["antennae","pattern"],"bee_group":{"antennae":"B","wings":"X","pattern":"D","legs":"X"},"bonus":0.8000000000000008},{"rt":1399,"stimulus":"bees-with-color/bee-A2SM.svg","response":0,"trial_type":"image-button-response","trial_index":47,"time_elapsed":357398,"internal_node_id":"0.0-4.0-0.18","subject_id":"6137252658a821dab0cf73a9","study_id":"6197b3f67c2b5cd3b6d9596a","session_id":"619beeeca59a5a266350b604","condition":"contingent","relevant_dimensions":["antennae","pattern"],"bee_group":{"antennae":"B","wings":"X","pattern":"D","legs":"X"},"action":"harvest","summary":"good-harvest","bonus":0.8000000000000008},{"rt":1124,"stimulus":"\n                    <p><b>Action: <em>harvest</em></b></p>\n                    <p>This is the bee that you just saw.</p>\n                    <img src=\"bees-with-color/bee-A2SM.svg\" width=\"200\">\n                    <p><span class=\"greenText\"><b>Successful harvest!</b></span><br>Your pay has increased by $0.02. Your bonus pay is now $0.52.</p>\n            ","response":0,"trial_type":"html-button-response","trial_index":48,"time_elapsed":358523,"internal_node_id":"0.0-4.0-1.18","subject_id":"6137252658a821dab0cf73a9","study_id":"6197b3f67c2b5cd3b6d9596a","session_id":"619beeeca59a5a266350b604","condition":"contingent","relevant_dimensions":["antennae","pattern"],"bee_group":{"antennae":"B","wings":"X","pattern":"D","legs":"X"},"bonus":0.8000000000000008},{"rt":2750,"stimulus":"bees-with-color/bee-B1DM.svg","response":0,"trial_type":"image-button-response","trial_index":49,"time_elapsed":361274,"internal_node_id":"0.0-4.0-0.19","subject_id":"6137252658a821dab0cf73a9","study_id":"6197b3f67c2b5cd3b6d9596a","session_id":"619beeeca59a5a266350b604","condition":"contingent","relevant_dimensions":["antennae","pattern"],"bee_group":{"antennae":"B","wings":"X","pattern":"D","legs":"X"},"action":"harvest","summary":"bad-harvest","bonus":0.8000000000000008},{"rt":1040,"stimulus":"\n                    <p><b>Action: <em>harvest</em></b></p>\n                    <p>This is the bee that you just saw.</p>\n                    <img src=\"bees-with-color/bee-B1DM.svg\" width=\"200\">\n                    <p><span class=\"redText\">Bad choice, the bee was angry.</span><br><b>You have been stung!</b><br>Your pay has been decreased by $0.10. Your bonus pay is now $0.42.</p>\n            ","response":0,"trial_type":"html-button-response","trial_index":50,"time_elapsed":362316,"internal_node_id":"0.0-4.0-1.19","subject_id":"6137252658a821dab0cf73a9","study_id":"6197b3f67c2b5cd3b6d9596a","session_id":"619beeeca59a5a266350b604","condition":"contingent","relevant_dimensions":["antennae","pattern"],"bee_group":{"antennae":"B","wings":"X","pattern":"D","legs":"X"},"bonus":0.8000000000000008},{"rt":1591,"stimulus":"bees-with-color/bee-B1SM.svg","response":0,"trial_type":"image-button-response","trial_index":51,"time_elapsed":363908,"internal_node_id":"0.0-4.0-0.20","subject_id":"6137252658a821dab0cf73a9","study_id":"6197b3f67c2b5cd3b6d9596a","session_id":"619beeeca59a5a266350b604","condition":"contingent","relevant_dimensions":["antennae","pattern"],"bee_group":{"antennae":"B","wings":"X","pattern":"D","legs":"X"},"action":"harvest","summary":"good-harvest","bonus":0.8000000000000008},{"rt":902,"stimulus":"\n                    <p><b>Action: <em>harvest</em></b></p>\n                    <p>This is the bee that you just saw.</p>\n                    <img src=\"bees-with-color/bee-B1SM.svg\" width=\"200\">\n                    <p><span class=\"greenText\"><b>Successful harvest!</b></span><br>Your pay has increased by $0.02. Your bonus pay is now $0.44.</p>\n            ","response":0,"trial_type":"html-button-response","trial_index":52,"time_elapsed":364810,"internal_node_id":"0.0-4.0-1.20","subject_id":"6137252658a821dab0cf73a9","study_id":"6197b3f67c2b5cd3b6d9596a","session_id":"619beeeca59a5a266350b604","condition":"contingent","relevant_dimensions":["antennae","pattern"],"bee_group":{"antennae":"B","wings":"X","pattern":"D","legs":"X"},"bonus":0.8000000000000008},{"rt":1520,"stimulus":"bees-with-color/bee-A1SF.svg","response":0,"trial_type":"image-button-response","trial_index":53,"time_elapsed":366332,"internal_node_id":"0.0-4.0-0.21","subject_id":"6137252658a821dab0cf73a9","study_id":"6197b3f67c2b5cd3b6d9596a","session_id":"619beeeca59a5a266350b604","condition":"contingent","relevant_dimensions":["antennae","pattern"],"bee_group":{"antennae":"B","wings":"X","pattern":"D","legs":"X"},"action":"harvest","summary":"good-harvest","bonus":0.8000000000000008},{"rt":865,"stimulus":"\n                    <p><b>Action: <em>harvest</em></b></p>\n                    <p>This is the bee that you just saw.</p>\n                    <img src=\"bees-with-color/bee-A1SF.svg\" width=\"200\">\n                    <p><span class=\"greenText\"><b>Successful harvest!</b></span><br>Your pay has increased by $0.02. Your bonus pay is now $0.46.</p>\n            ","response":0,"trial_type":"html-button-response","trial_index":54,"time_elapsed":367196,"internal_node_id":"0.0-4.0-1.21","subject_id":"6137252658a821dab0cf73a9","study_id":"6197b3f67c2b5cd3b6d9596a","session_id":"619beeeca59a5a266350b604","condition":"contingent","relevant_dimensions":["antennae","pattern"],"bee_group":{"antennae":"B","wings":"X","pattern":"D","legs":"X"},"bonus":0.8000000000000008},{"rt":2126,"stimulus":"bees-with-color/bee-B2SF.svg","response":0,"trial_type":"image-button-response","trial_index":55,"time_elapsed":369324,"internal_node_id":"0.0-4.0-0.22","subject_id":"6137252658a821dab0cf73a9","study_id":"6197b3f67c2b5cd3b6d9596a","session_id":"619beeeca59a5a266350b604","condition":"contingent","relevant_dimensions":["antennae","pattern"],"bee_group":{"antennae":"B","wings":"X","pattern":"D","legs":"X"},"action":"harvest","summary":"good-harvest","bonus":0.8000000000000008},{"rt":731,"stimulus":"\n                    <p><b>Action: <em>harvest</em></b></p>\n                    <p>This is the bee that you just saw.</p>\n                    <img src=\"bees-with-color/bee-B2SF.svg\" width=\"200\">\n                    <p><span class=\"greenText\"><b>Successful harvest!</b></span><br>Your pay has increased by $0.02. Your bonus pay is now $0.48.</p>\n            ","response":0,"trial_type":"html-button-response","trial_index":56,"time_elapsed":370054,"internal_node_id":"0.0-4.0-1.22","subject_id":"6137252658a821dab0cf73a9","study_id":"6197b3f67c2b5cd3b6d9596a","session_id":"619beeeca59a5a266350b604","condition":"contingent","relevant_dimensions":["antennae","pattern"],"bee_group":{"antennae":"B","wings":"X","pattern":"D","legs":"X"},"bonus":0.8000000000000008},{"rt":996,"stimulus":"bees-with-color/bee-A1DF.svg","response":1,"trial_type":"image-button-response","trial_index":57,"time_elapsed":371050,"internal_node_id":"0.0-4.0-0.23","subject_id":"6137252658a821dab0cf73a9","study_id":"6197b3f67c2b5cd3b6d9596a","session_id":"619beeeca59a5a266350b604","condition":"contingent","relevant_dimensions":["antennae","pattern"],"bee_group":{"antennae":"B","wings":"X","pattern":"D","legs":"X"},"action":"avoid","summary":"bad-avoid","bonus":0.8000000000000008},{"rt":853,"stimulus":"\n                    <p><b>Action: <em>avoid</em></b></p>\n                    <p>This is the bee that you just saw.</p>\n                    <img src=\"bees-with-color/bee-A1DF.svg\" width=\"200\">\n                    <p><br>Your bonus pay is unchanged, and remains at $0.48.</p>\n            ","response":0,"trial_type":"html-button-response","trial_index":58,"time_elapsed":371904,"internal_node_id":"0.0-4.0-1.23","subject_id":"6137252658a821dab0cf73a9","study_id":"6197b3f67c2b5cd3b6d9596a","session_id":"619beeeca59a5a266350b604","condition":"contingent","relevant_dimensions":["antennae","pattern"],"bee_group":{"antennae":"B","wings":"X","pattern":"D","legs":"X"},"bonus":0.8000000000000008},{"rt":1120,"stimulus":"bees-with-color/bee-A1SM.svg","response":0,"trial_type":"image-button-response","trial_index":59,"time_elapsed":373025,"internal_node_id":"0.0-4.0-0.24","subject_id":"6137252658a821dab0cf73a9","study_id":"6197b3f67c2b5cd3b6d9596a","session_id":"619beeeca59a5a266350b604","condition":"contingent","relevant_dimensions":["antennae","pattern"],"bee_group":{"antennae":"B","wings":"X","pattern":"D","legs":"X"},"action":"harvest","summary":"good-harvest","bonus":0.8000000000000008},{"rt":852,"stimulus":"\n                    <p><b>Action: <em>harvest</em></b></p>\n                    <p>This is the bee that you just saw.</p>\n                    <img src=\"bees-with-color/bee-A1SM.svg\" width=\"200\">\n                    <p><span class=\"greenText\"><b>Successful harvest!</b></span><br>Your pay has increased by $0.02. Your bonus pay is now $0.50.</p>\n            ","response":0,"trial_type":"html-button-response","trial_index":60,"time_elapsed":373878,"internal_node_id":"0.0-4.0-1.24","subject_id":"6137252658a821dab0cf73a9","study_id":"6197b3f67c2b5cd3b6d9596a","session_id":"619beeeca59a5a266350b604","condition":"contingent","relevant_dimensions":["antennae","pattern"],"bee_group":{"antennae":"B","wings":"X","pattern":"D","legs":"X"},"bonus":0.8000000000000008},{"rt":1080,"stimulus":"bees-with-color/bee-B1SF.svg","response":0,"trial_type":"image-button-response","trial_index":61,"time_elapsed":374958,"internal_node_id":"0.0-4.0-0.25","subject_id":"6137252658a821dab0cf73a9","study_id":"6197b3f67c2b5cd3b6d9596a","session_id":"619beeeca59a5a266350b604","condition":"contingent","relevant_dimensions":["antennae","pattern"],"bee_group":{"antennae":"B","wings":"X","pattern":"D","legs":"X"},"action":"harvest","summary":"good-harvest","bonus":0.8000000000000008},{"rt":869,"stimulus":"\n                    <p><b>Action: <em>harvest</em></b></p>\n                    <p>This is the bee that you just saw.</p>\n                    <img src=\"bees-with-color/bee-B1SF.svg\" width=\"200\">\n                    <p><span class=\"greenText\"><b>Successful harvest!</b></span><br>Your pay has increased by $0.02. Your bonus pay is now $0.52.</p>\n            ","response":0,"trial_type":"html-button-response","trial_index":62,"time_elapsed":375828,"internal_node_id":"0.0-4.0-1.25","subject_id":"6137252658a821dab0cf73a9","study_id":"6197b3f67c2b5cd3b6d9596a","session_id":"619beeeca59a5a266350b604","condition":"contingent","relevant_dimensions":["antennae","pattern"],"bee_group":{"antennae":"B","wings":"X","pattern":"D","legs":"X"},"bonus":0.8000000000000008},{"rt":2324,"stimulus":"bees-with-color/bee-B2SM.svg","response":0,"trial_type":"image-button-response","trial_index":63,"time_elapsed":378154,"internal_node_id":"0.0-4.0-0.26","subject_id":"6137252658a821dab0cf73a9","study_id":"6197b3f67c2b5cd3b6d9596a","session_id":"619beeeca59a5a266350b604","condition":"contingent","relevant_dimensions":["antennae","pattern"],"bee_group":{"antennae":"B","wings":"X","pattern":"D","legs":"X"},"action":"harvest","summary":"good-harvest","bonus":0.8000000000000008},{"rt":968,"stimulus":"\n                    <p><b>Action: <em>harvest</em></b></p>\n                    <p>This is the bee that you just saw.</p>\n                    <img src=\"bees-with-color/bee-B2SM.svg\" width=\"200\">\n                    <p><span class=\"greenText\"><b>Successful harvest!</b></span><br>Your pay has increased by $0.02. Your bonus pay is now $0.54.</p>\n            ","response":0,"trial_type":"html-button-response","trial_index":64,"time_elapsed":379122,"internal_node_id":"0.0-4.0-1.26","subject_id":"6137252658a821dab0cf73a9","study_id":"6197b3f67c2b5cd3b6d9596a","session_id":"619beeeca59a5a266350b604","condition":"contingent","relevant_dimensions":["antennae","pattern"],"bee_group":{"antennae":"B","wings":"X","pattern":"D","legs":"X"},"bonus":0.8000000000000008},{"rt":1079,"stimulus":"bees-with-color/bee-B1DF.svg","response":1,"trial_type":"image-button-response","trial_index":65,"time_elapsed":380202,"internal_node_id":"0.0-4.0-0.27","subject_id":"6137252658a821dab0cf73a9","study_id":"6197b3f67c2b5cd3b6d9596a","session_id":"619beeeca59a5a266350b604","condition":"contingent","relevant_dimensions":["antennae","pattern"],"bee_group":{"antennae":"B","wings":"X","pattern":"D","legs":"X"},"action":"avoid","summary":"good-avoid","bonus":0.8000000000000008},{"rt":630,"stimulus":"\n                    <p><b>Action: <em>avoid</em></b></p>\n                    <p>This is the bee that you just saw.</p>\n                    <img src=\"bees-with-color/bee-B1DF.svg\" width=\"200\">\n                    <p><br>Your bonus pay is unchanged, and remains at $0.54.</p>\n            ","response":0,"trial_type":"html-button-response","trial_index":66,"time_elapsed":380833,"internal_node_id":"0.0-4.0-1.27","subject_id":"6137252658a821dab0cf73a9","study_id":"6197b3f67c2b5cd3b6d9596a","session_id":"619beeeca59a5a266350b604","condition":"contingent","relevant_dimensions":["antennae","pattern"],"bee_group":{"antennae":"B","wings":"X","pattern":"D","legs":"X"},"bonus":0.8000000000000008},{"rt":816,"stimulus":"bees-with-color/bee-A1DM.svg","response":1,"trial_type":"image-button-response","trial_index":67,"time_elapsed":381648,"internal_node_id":"0.0-4.0-0.28","subject_id":"6137252658a821dab0cf73a9","study_id":"6197b3f67c2b5cd3b6d9596a","session_id":"619beeeca59a5a266350b604","condition":"contingent","relevant_dimensions":["antennae","pattern"],"bee_group":{"antennae":"B","wings":"X","pattern":"D","legs":"X"},"action":"avoid","summary":"bad-avoid","bonus":0.8000000000000008},{"rt":597,"stimulus":"\n                    <p><b>Action: <em>avoid</em></b></p>\n                    <p>This is the bee that you just saw.</p>\n                    <img src=\"bees-with-color/bee-A1DM.svg\" width=\"200\">\n                    <p><br>Your bonus pay is unchanged, and remains at $0.54.</p>\n            ","response":0,"trial_type":"html-button-response","trial_index":68,"time_elapsed":382246,"internal_node_id":"0.0-4.0-1.28","subject_id":"6137252658a821dab0cf73a9","study_id":"6197b3f67c2b5cd3b6d9596a","session_id":"619beeeca59a5a266350b604","condition":"contingent","relevant_dimensions":["antennae","pattern"],"bee_group":{"antennae":"B","wings":"X","pattern":"D","legs":"X"},"bonus":0.8000000000000008},{"rt":745,"stimulus":"bees-with-color/bee-A2DM.svg","response":1,"trial_type":"image-button-response","trial_index":69,"time_elapsed":382992,"internal_node_id":"0.0-4.0-0.29","subject_id":"6137252658a821dab0cf73a9","study_id":"6197b3f67c2b5cd3b6d9596a","session_id":"619beeeca59a5a266350b604","condition":"contingent","relevant_dimensions":["antennae","pattern"],"bee_group":{"antennae":"B","wings":"X","pattern":"D","legs":"X"},"action":"avoid","summary":"bad-avoid","bonus":0.8000000000000008},{"rt":459,"stimulus":"\n                    <p><b>Action: <em>avoid</em></b></p>\n                    <p>This is the bee that you just saw.</p>\n                    <img src=\"bees-with-color/bee-A2DM.svg\" width=\"200\">\n                    <p><br>Your bonus pay is unchanged, and remains at $0.54.</p>\n            ","response":0,"trial_type":"html-button-response","trial_index":70,"time_elapsed":383451,"internal_node_id":"0.0-4.0-1.29","subject_id":"6137252658a821dab0cf73a9","study_id":"6197b3f67c2b5cd3b6d9596a","session_id":"619beeeca59a5a266350b604","condition":"contingent","relevant_dimensions":["antennae","pattern"],"bee_group":{"antennae":"B","wings":"X","pattern":"D","legs":"X"},"bonus":0.8000000000000008},{"rt":830,"stimulus":"bees-with-color/bee-A2SF.svg","response":0,"trial_type":"image-button-response","trial_index":71,"time_elapsed":384282,"internal_node_id":"0.0-4.0-0.30","subject_id":"6137252658a821dab0cf73a9","study_id":"6197b3f67c2b5cd3b6d9596a","session_id":"619beeeca59a5a266350b604","condition":"contingent","relevant_dimensions":["antennae","pattern"],"bee_group":{"antennae":"B","wings":"X","pattern":"D","legs":"X"},"action":"harvest","summary":"good-harvest","bonus":0.8000000000000008},{"rt":721,"stimulus":"\n                    <p><b>Action: <em>harvest</em></b></p>\n                    <p>This is the bee that you just saw.</p>\n                    <img src=\"bees-with-color/bee-A2SF.svg\" width=\"200\">\n                    <p><span class=\"greenText\"><b>Successful harvest!</b></span><br>Your pay has increased by $0.02. Your bonus pay is now $0.56.</p>\n            ","response":0,"trial_type":"html-button-response","trial_index":72,"time_elapsed":385004,"internal_node_id":"0.0-4.0-1.30","subject_id":"6137252658a821dab0cf73a9","study_id":"6197b3f67c2b5cd3b6d9596a","session_id":"619beeeca59a5a266350b604","condition":"contingent","relevant_dimensions":["antennae","pattern"],"bee_group":{"antennae":"B","wings":"X","pattern":"D","legs":"X"},"bonus":0.8000000000000008},{"rt":854,"stimulus":"bees-with-color/bee-B2DF.svg","response":1,"trial_type":"image-button-response","trial_index":73,"time_elapsed":385859,"internal_node_id":"0.0-4.0-0.31","subject_id":"6137252658a821dab0cf73a9","study_id":"6197b3f67c2b5cd3b6d9596a","session_id":"619beeeca59a5a266350b604","condition":"contingent","relevant_dimensions":["antennae","pattern"],"bee_group":{"antennae":"B","wings":"X","pattern":"D","legs":"X"},"action":"avoid","summary":"good-avoid","bonus":0.8000000000000008},{"rt":583,"stimulus":"\n                    <p><b>Action: <em>avoid</em></b></p>\n                    <p>This is the bee that you just saw.</p>\n                    <img src=\"bees-with-color/bee-B2DF.svg\" width=\"200\">\n                    <p><br>Your bonus pay is unchanged, and remains at $0.56.</p>\n            ","response":0,"trial_type":"html-button-response","trial_index":74,"time_elapsed":386443,"internal_node_id":"0.0-4.0-1.31","subject_id":"6137252658a821dab0cf73a9","study_id":"6197b3f67c2b5cd3b6d9596a","session_id":"619beeeca59a5a266350b604","condition":"contingent","relevant_dimensions":["antennae","pattern"],"bee_group":{"antennae":"B","wings":"X","pattern":"D","legs":"X"},"bonus":0.8000000000000008},{"rt":820,"stimulus":"bees-with-color/bee-B2DF.svg","response":1,"trial_type":"image-button-response","trial_index":75,"time_elapsed":387264,"internal_node_id":"0.0-4.0-0.32","subject_id":"6137252658a821dab0cf73a9","study_id":"6197b3f67c2b5cd3b6d9596a","session_id":"619beeeca59a5a266350b604","condition":"contingent","relevant_dimensions":["antennae","pattern"],"bee_group":{"antennae":"B","wings":"X","pattern":"D","legs":"X"},"action":"avoid","summary":"good-avoid","bonus":0.8000000000000008},{"rt":567,"stimulus":"\n                    <p><b>Action: <em>avoid</em></b></p>\n                    <p>This is the bee that you just saw.</p>\n                    <img src=\"bees-with-color/bee-B2DF.svg\" width=\"200\">\n                    <p><br>Your bonus pay is unchanged, and remains at $0.56.</p>\n            ","response":0,"trial_type":"html-button-response","trial_index":76,"time_elapsed":387832,"internal_node_id":"0.0-4.0-1.32","subject_id":"6137252658a821dab0cf73a9","study_id":"6197b3f67c2b5cd3b6d9596a","session_id":"619beeeca59a5a266350b604","condition":"contingent","relevant_dimensions":["antennae","pattern"],"bee_group":{"antennae":"B","wings":"X","pattern":"D","legs":"X"},"bonus":0.8000000000000008},{"rt":947,"stimulus":"bees-with-color/bee-B2SM.svg","response":0,"trial_type":"image-button-response","trial_index":77,"time_elapsed":388780,"internal_node_id":"0.0-4.0-0.33","subject_id":"6137252658a821dab0cf73a9","study_id":"6197b3f67c2b5cd3b6d9596a","session_id":"619beeeca59a5a266350b604","condition":"contingent","relevant_dimensions":["antennae","pattern"],"bee_group":{"antennae":"B","wings":"X","pattern":"D","legs":"X"},"action":"harvest","summary":"good-harvest","bonus":0.8000000000000008},{"rt":707,"stimulus":"\n                    <p><b>Action: <em>harvest</em></b></p>\n                    <p>This is the bee that you just saw.</p>\n                    <img src=\"bees-with-color/bee-B2SM.svg\" width=\"200\">\n                    <p><span class=\"greenText\"><b>Successful harvest!</b></span><br>Your pay has increased by $0.02. Your bonus pay is now $0.58.</p>\n            ","response":0,"trial_type":"html-button-response","trial_index":78,"time_elapsed":389488,"internal_node_id":"0.0-4.0-1.33","subject_id":"6137252658a821dab0cf73a9","study_id":"6197b3f67c2b5cd3b6d9596a","session_id":"619beeeca59a5a266350b604","condition":"contingent","relevant_dimensions":["antennae","pattern"],"bee_group":{"antennae":"B","wings":"X","pattern":"D","legs":"X"},"bonus":0.8000000000000008},{"rt":1964,"stimulus":"bees-with-color/bee-A2DF.svg","response":1,"trial_type":"image-button-response","trial_index":79,"time_elapsed":391452,"internal_node_id":"0.0-4.0-0.34","subject_id":"6137252658a821dab0cf73a9","study_id":"6197b3f67c2b5cd3b6d9596a","session_id":"619beeeca59a5a266350b604","condition":"contingent","relevant_dimensions":["antennae","pattern"],"bee_group":{"antennae":"B","wings":"X","pattern":"D","legs":"X"},"action":"avoid","summary":"bad-avoid","bonus":0.8000000000000008},{"rt":978,"stimulus":"\n                    <p><b>Action: <em>avoid</em></b></p>\n                    <p>This is the bee that you just saw.</p>\n                    <img src=\"bees-with-color/bee-A2DF.svg\" width=\"200\">\n                    <p><br>Your bonus pay is unchanged, and remains at $0.58.</p>\n            ","response":0,"trial_type":"html-button-response","trial_index":80,"time_elapsed":392432,"internal_node_id":"0.0-4.0-1.34","subject_id":"6137252658a821dab0cf73a9","study_id":"6197b3f67c2b5cd3b6d9596a","session_id":"619beeeca59a5a266350b604","condition":"contingent","relevant_dimensions":["antennae","pattern"],"bee_group":{"antennae":"B","wings":"X","pattern":"D","legs":"X"},"bonus":0.8000000000000008},{"rt":1988,"stimulus":"bees-with-color/bee-B1SM.svg","response":0,"trial_type":"image-button-response","trial_index":81,"time_elapsed":394420,"internal_node_id":"0.0-4.0-0.35","subject_id":"6137252658a821dab0cf73a9","study_id":"6197b3f67c2b5cd3b6d9596a","session_id":"619beeeca59a5a266350b604","condition":"contingent","relevant_dimensions":["antennae","pattern"],"bee_group":{"antennae":"B","wings":"X","pattern":"D","legs":"X"},"action":"harvest","summary":"good-harvest","bonus":0.8000000000000008},{"rt":868,"stimulus":"\n                    <p><b>Action: <em>harvest</em></b></p>\n                    <p>This is the bee that you just saw.</p>\n                    <img src=\"bees-with-color/bee-B1SM.svg\" width=\"200\">\n                    <p><span class=\"greenText\"><b>Successful harvest!</b></span><br>Your pay has increased by $0.02. Your bonus pay is now $0.60.</p>\n            ","response":0,"trial_type":"html-button-response","trial_index":82,"time_elapsed":395291,"internal_node_id":"0.0-4.0-1.35","subject_id":"6137252658a821dab0cf73a9","study_id":"6197b3f67c2b5cd3b6d9596a","session_id":"619beeeca59a5a266350b604","condition":"contingent","relevant_dimensions":["antennae","pattern"],"bee_group":{"antennae":"B","wings":"X","pattern":"D","legs":"X"},"bonus":0.8000000000000008},{"rt":1366,"stimulus":"bees-with-color/bee-B2DM.svg","response":1,"trial_type":"image-button-response","trial_index":83,"time_elapsed":396658,"internal_node_id":"0.0-4.0-0.36","subject_id":"6137252658a821dab0cf73a9","study_id":"6197b3f67c2b5cd3b6d9596a","session_id":"619beeeca59a5a266350b604","condition":"contingent","relevant_dimensions":["antennae","pattern"],"bee_group":{"antennae":"B","wings":"X","pattern":"D","legs":"X"},"action":"avoid","summary":"good-avoid","bonus":0.8000000000000008},{"rt":861,"stimulus":"\n                    <p><b>Action: <em>avoid</em></b></p>\n                    <p>This is the bee that you just saw.</p>\n                    <img src=\"bees-with-color/bee-B2DM.svg\" width=\"200\">\n                    <p><br>Your bonus pay is unchanged, and remains at $0.60.</p>\n            ","response":0,"trial_type":"html-button-response","trial_index":84,"time_elapsed":397521,"internal_node_id":"0.0-4.0-1.36","subject_id":"6137252658a821dab0cf73a9","study_id":"6197b3f67c2b5cd3b6d9596a","session_id":"619beeeca59a5a266350b604","condition":"contingent","relevant_dimensions":["antennae","pattern"],"bee_group":{"antennae":"B","wings":"X","pattern":"D","legs":"X"},"bonus":0.8000000000000008},{"rt":806,"stimulus":"bees-with-color/bee-A1DM.svg","response":1,"trial_type":"image-button-response","trial_index":85,"time_elapsed":398328,"internal_node_id":"0.0-4.0-0.37","subject_id":"6137252658a821dab0cf73a9","study_id":"6197b3f67c2b5cd3b6d9596a","session_id":"619beeeca59a5a266350b604","condition":"contingent","relevant_dimensions":["antennae","pattern"],"bee_group":{"antennae":"B","wings":"X","pattern":"D","legs":"X"},"action":"avoid","summary":"bad-avoid","bonus":0.8000000000000008},{"rt":575,"stimulus":"\n                    <p><b>Action: <em>avoid</em></b></p>\n                    <p>This is the bee that you just saw.</p>\n                    <img src=\"bees-with-color/bee-A1DM.svg\" width=\"200\">\n                    <p><br>Your bonus pay is unchanged, and remains at $0.60.</p>\n            ","response":0,"trial_type":"html-button-response","trial_index":86,"time_elapsed":398904,"internal_node_id":"0.0-4.0-1.37","subject_id":"6137252658a821dab0cf73a9","study_id":"6197b3f67c2b5cd3b6d9596a","session_id":"619beeeca59a5a266350b604","condition":"contingent","relevant_dimensions":["antennae","pattern"],"bee_group":{"antennae":"B","wings":"X","pattern":"D","legs":"X"},"bonus":0.8000000000000008},{"rt":767,"stimulus":"bees-with-color/bee-A1SM.svg","response":0,"trial_type":"image-button-response","trial_index":87,"time_elapsed":399671,"internal_node_id":"0.0-4.0-0.38","subject_id":"6137252658a821dab0cf73a9","study_id":"6197b3f67c2b5cd3b6d9596a","session_id":"619beeeca59a5a266350b604","condition":"contingent","relevant_dimensions":["antennae","pattern"],"bee_group":{"antennae":"B","wings":"X","pattern":"D","legs":"X"},"action":"harvest","summary":"good-harvest","bonus":0.8000000000000008},{"rt":762,"stimulus":"\n                    <p><b>Action: <em>harvest</em></b></p>\n                    <p>This is the bee that you just saw.</p>\n                    <img src=\"bees-with-color/bee-A1SM.svg\" width=\"200\">\n                    <p><span class=\"greenText\"><b>Successful harvest!</b></span><br>Your pay has increased by $0.02. Your bonus pay is now $0.62.</p>\n            ","response":0,"trial_type":"html-button-response","trial_index":88,"time_elapsed":400434,"internal_node_id":"0.0-4.0-1.38","subject_id":"6137252658a821dab0cf73a9","study_id":"6197b3f67c2b5cd3b6d9596a","session_id":"619beeeca59a5a266350b604","condition":"contingent","relevant_dimensions":["antennae","pattern"],"bee_group":{"antennae":"B","wings":"X","pattern":"D","legs":"X"},"bonus":0.8000000000000008},{"rt":1119,"stimulus":"bees-with-color/bee-A2SM.svg","response":0,"trial_type":"image-button-response","trial_index":89,"time_elapsed":401553,"internal_node_id":"0.0-4.0-0.39","subject_id":"6137252658a821dab0cf73a9","study_id":"6197b3f67c2b5cd3b6d9596a","session_id":"619beeeca59a5a266350b604","condition":"contingent","relevant_dimensions":["antennae","pattern"],"bee_group":{"antennae":"B","wings":"X","pattern":"D","legs":"X"},"action":"harvest","summary":"good-harvest","bonus":0.8000000000000008},{"rt":689,"stimulus":"\n                    <p><b>Action: <em>harvest</em></b></p>\n                    <p>This is the bee that you just saw.</p>\n                    <img src=\"bees-with-color/bee-A2SM.svg\" width=\"200\">\n                    <p><span class=\"greenText\"><b>Successful harvest!</b></span><br>Your pay has increased by $0.02. Your bonus pay is now $0.64.</p>\n            ","response":0,"trial_type":"html-button-response","trial_index":90,"time_elapsed":402245,"internal_node_id":"0.0-4.0-1.39","subject_id":"6137252658a821dab0cf73a9","study_id":"6197b3f67c2b5cd3b6d9596a","session_id":"619beeeca59a5a266350b604","condition":"contingent","relevant_dimensions":["antennae","pattern"],"bee_group":{"antennae":"B","wings":"X","pattern":"D","legs":"X"},"bonus":0.8000000000000008},{"rt":1319,"stimulus":"bees-with-color/bee-A1SF.svg","response":0,"trial_type":"image-button-response","trial_index":91,"time_elapsed":403564,"internal_node_id":"0.0-4.0-0.40","subject_id":"6137252658a821dab0cf73a9","study_id":"6197b3f67c2b5cd3b6d9596a","session_id":"619beeeca59a5a266350b604","condition":"contingent","relevant_dimensions":["antennae","pattern"],"bee_group":{"antennae":"B","wings":"X","pattern":"D","legs":"X"},"action":"harvest","summary":"good-harvest","bonus":0.8000000000000008},{"rt":684,"stimulus":"\n                    <p><b>Action: <em>harvest</em></b></p>\n                    <p>This is the bee that you just saw.</p>\n                    <img src=\"bees-with-color/bee-A1SF.svg\" width=\"200\">\n                    <p><span class=\"greenText\"><b>Successful harvest!</b></span><br>Your pay has increased by $0.02. Your bonus pay is now $0.66.</p>\n            ","response":0,"trial_type":"html-button-response","trial_index":92,"time_elapsed":404249,"internal_node_id":"0.0-4.0-1.40","subject_id":"6137252658a821dab0cf73a9","study_id":"6197b3f67c2b5cd3b6d9596a","session_id":"619beeeca59a5a266350b604","condition":"contingent","relevant_dimensions":["antennae","pattern"],"bee_group":{"antennae":"B","wings":"X","pattern":"D","legs":"X"},"bonus":0.8000000000000008},{"rt":970,"stimulus":"bees-with-color/bee-B1DF.svg","response":1,"trial_type":"image-button-response","trial_index":93,"time_elapsed":405218,"internal_node_id":"0.0-4.0-0.41","subject_id":"6137252658a821dab0cf73a9","study_id":"6197b3f67c2b5cd3b6d9596a","session_id":"619beeeca59a5a266350b604","condition":"contingent","relevant_dimensions":["antennae","pattern"],"bee_group":{"antennae":"B","wings":"X","pattern":"D","legs":"X"},"action":"avoid","summary":"good-avoid","bonus":0.8000000000000008},{"rt":667,"stimulus":"\n                    <p><b>Action: <em>avoid</em></b></p>\n                    <p>This is the bee that you just saw.</p>\n                    <img src=\"bees-with-color/bee-B1DF.svg\" width=\"200\">\n                    <p><br>Your bonus pay is unchanged, and remains at $0.66.</p>\n            ","response":0,"trial_type":"html-button-response","trial_index":94,"time_elapsed":405886,"internal_node_id":"0.0-4.0-1.41","subject_id":"6137252658a821dab0cf73a9","study_id":"6197b3f67c2b5cd3b6d9596a","session_id":"619beeeca59a5a266350b604","condition":"contingent","relevant_dimensions":["antennae","pattern"],"bee_group":{"antennae":"B","wings":"X","pattern":"D","legs":"X"},"bonus":0.8000000000000008},{"rt":1237,"stimulus":"bees-with-color/bee-B2SF.svg","response":0,"trial_type":"image-button-response","trial_index":95,"time_elapsed":407122,"internal_node_id":"0.0-4.0-0.42","subject_id":"6137252658a821dab0cf73a9","study_id":"6197b3f67c2b5cd3b6d9596a","session_id":"619beeeca59a5a266350b604","condition":"contingent","relevant_dimensions":["antennae","pattern"],"bee_group":{"antennae":"B","wings":"X","pattern":"D","legs":"X"},"action":"harvest","summary":"good-harvest","bonus":0.8000000000000008},{"rt":667,"stimulus":"\n                    <p><b>Action: <em>harvest</em></b></p>\n                    <p>This is the bee that you just saw.</p>\n                    <img src=\"bees-with-color/bee-B2SF.svg\" width=\"200\">\n                    <p><span class=\"greenText\"><b>Successful harvest!</b></span><br>Your pay has increased by $0.02. Your bonus pay is now $0.68.</p>\n            ","response":0,"trial_type":"html-button-response","trial_index":96,"time_elapsed":407790,"internal_node_id":"0.0-4.0-1.42","subject_id":"6137252658a821dab0cf73a9","study_id":"6197b3f67c2b5cd3b6d9596a","session_id":"619beeeca59a5a266350b604","condition":"contingent","relevant_dimensions":["antennae","pattern"],"bee_group":{"antennae":"B","wings":"X","pattern":"D","legs":"X"},"bonus":0.8000000000000008},{"rt":782,"stimulus":"bees-with-color/bee-A2DM.svg","response":1,"trial_type":"image-button-response","trial_index":97,"time_elapsed":408574,"internal_node_id":"0.0-4.0-0.43","subject_id":"6137252658a821dab0cf73a9","study_id":"6197b3f67c2b5cd3b6d9596a","session_id":"619beeeca59a5a266350b604","condition":"contingent","relevant_dimensions":["antennae","pattern"],"bee_group":{"antennae":"B","wings":"X","pattern":"D","legs":"X"},"action":"avoid","summary":"bad-avoid","bonus":0.8000000000000008},{"rt":638,"stimulus":"\n                    <p><b>Action: <em>avoid</em></b></p>\n                    <p>This is the bee that you just saw.</p>\n                    <img src=\"bees-with-color/bee-A2DM.svg\" width=\"200\">\n                    <p><br>Your bonus pay is unchanged, and remains at $0.68.</p>\n            ","response":0,"trial_type":"html-button-response","trial_index":98,"time_elapsed":409212,"internal_node_id":"0.0-4.0-1.43","subject_id":"6137252658a821dab0cf73a9","study_id":"6197b3f67c2b5cd3b6d9596a","session_id":"619beeeca59a5a266350b604","condition":"contingent","relevant_dimensions":["antennae","pattern"],"bee_group":{"antennae":"B","wings":"X","pattern":"D","legs":"X"},"bonus":0.8000000000000008},{"rt":1062,"stimulus":"bees-with-color/bee-A2SF.svg","response":0,"trial_type":"image-button-response","trial_index":99,"time_elapsed":410275,"internal_node_id":"0.0-4.0-0.44","subject_id":"6137252658a821dab0cf73a9","study_id":"6197b3f67c2b5cd3b6d9596a","session_id":"619beeeca59a5a266350b604","condition":"contingent","relevant_dimensions":["antennae","pattern"],"bee_group":{"antennae":"B","wings":"X","pattern":"D","legs":"X"},"action":"harvest","summary":"good-harvest","bonus":0.8000000000000008},{"rt":692,"stimulus":"\n                    <p><b>Action: <em>harvest</em></b></p>\n                    <p>This is the bee that you just saw.</p>\n                    <img src=\"bees-with-color/bee-A2SF.svg\" width=\"200\">\n                    <p><span class=\"greenText\"><b>Successful harvest!</b></span><br>Your pay has increased by $0.02. Your bonus pay is now $0.70.</p>\n            ","response":0,"trial_type":"html-button-response","trial_index":100,"time_elapsed":410968,"internal_node_id":"0.0-4.0-1.44","subject_id":"6137252658a821dab0cf73a9","study_id":"6197b3f67c2b5cd3b6d9596a","session_id":"619beeeca59a5a266350b604","condition":"contingent","relevant_dimensions":["antennae","pattern"],"bee_group":{"antennae":"B","wings":"X","pattern":"D","legs":"X"},"bonus":0.8000000000000008},{"rt":917,"stimulus":"bees-with-color/bee-A1DF.svg","response":1,"trial_type":"image-button-response","trial_index":101,"time_elapsed":411884,"internal_node_id":"0.0-4.0-0.45","subject_id":"6137252658a821dab0cf73a9","study_id":"6197b3f67c2b5cd3b6d9596a","session_id":"619beeeca59a5a266350b604","condition":"contingent","relevant_dimensions":["antennae","pattern"],"bee_group":{"antennae":"B","wings":"X","pattern":"D","legs":"X"},"action":"avoid","summary":"bad-avoid","bonus":0.8000000000000008},{"rt":568,"stimulus":"\n                    <p><b>Action: <em>avoid</em></b></p>\n                    <p>This is the bee that you just saw.</p>\n                    <img src=\"bees-with-color/bee-A1DF.svg\" width=\"200\">\n                    <p><br>Your bonus pay is unchanged, and remains at $0.70.</p>\n            ","response":0,"trial_type":"html-button-response","trial_index":102,"time_elapsed":412453,"internal_node_id":"0.0-4.0-1.45","subject_id":"6137252658a821dab0cf73a9","study_id":"6197b3f67c2b5cd3b6d9596a","session_id":"619beeeca59a5a266350b604","condition":"contingent","relevant_dimensions":["antennae","pattern"],"bee_group":{"antennae":"B","wings":"X","pattern":"D","legs":"X"},"bonus":0.8000000000000008},{"rt":906,"stimulus":"bees-with-color/bee-B1DM.svg","response":1,"trial_type":"image-button-response","trial_index":103,"time_elapsed":413360,"internal_node_id":"0.0-4.0-0.46","subject_id":"6137252658a821dab0cf73a9","study_id":"6197b3f67c2b5cd3b6d9596a","session_id":"619beeeca59a5a266350b604","condition":"contingent","relevant_dimensions":["antennae","pattern"],"bee_group":{"antennae":"B","wings":"X","pattern":"D","legs":"X"},"action":"avoid","summary":"good-avoid","bonus":0.8000000000000008},{"rt":652,"stimulus":"\n                    <p><b>Action: <em>avoid</em></b></p>\n                    <p>This is the bee that you just saw.</p>\n                    <img src=\"bees-with-color/bee-B1DM.svg\" width=\"200\">\n                    <p><br>Your bonus pay is unchanged, and remains at $0.70.</p>\n            ","response":0,"trial_type":"html-button-response","trial_index":104,"time_elapsed":414012,"internal_node_id":"0.0-4.0-1.46","subject_id":"6137252658a821dab0cf73a9","study_id":"6197b3f67c2b5cd3b6d9596a","session_id":"619beeeca59a5a266350b604","condition":"contingent","relevant_dimensions":["antennae","pattern"],"bee_group":{"antennae":"B","wings":"X","pattern":"D","legs":"X"},"bonus":0.8000000000000008},{"rt":754,"stimulus":"bees-with-color/bee-B1SF.svg","response":0,"trial_type":"image-button-response","trial_index":105,"time_elapsed":414766,"internal_node_id":"0.0-4.0-0.47","subject_id":"6137252658a821dab0cf73a9","study_id":"6197b3f67c2b5cd3b6d9596a","session_id":"619beeeca59a5a266350b604","condition":"contingent","relevant_dimensions":["antennae","pattern"],"bee_group":{"antennae":"B","wings":"X","pattern":"D","legs":"X"},"action":"harvest","summary":"good-harvest","bonus":0.8000000000000008},{"rt":798,"stimulus":"\n                    <p><b>Action: <em>harvest</em></b></p>\n                    <p>This is the bee that you just saw.</p>\n                    <img src=\"bees-with-color/bee-B1SF.svg\" width=\"200\">\n                    <p><span class=\"greenText\"><b>Successful harvest!</b></span><br>Your pay has increased by $0.02. Your bonus pay is now $0.72.</p>\n            ","response":0,"trial_type":"html-button-response","trial_index":106,"time_elapsed":415566,"internal_node_id":"0.0-4.0-1.47","subject_id":"6137252658a821dab0cf73a9","study_id":"6197b3f67c2b5cd3b6d9596a","session_id":"619beeeca59a5a266350b604","condition":"contingent","relevant_dimensions":["antennae","pattern"],"bee_group":{"antennae":"B","wings":"X","pattern":"D","legs":"X"},"bonus":0.8000000000000008},{"rt":1406,"stimulus":"bees-with-color/bee-A2SM.svg","response":0,"trial_type":"image-button-response","trial_index":107,"time_elapsed":416972,"internal_node_id":"0.0-4.0-0.48","subject_id":"6137252658a821dab0cf73a9","study_id":"6197b3f67c2b5cd3b6d9596a","session_id":"619beeeca59a5a266350b604","condition":"contingent","relevant_dimensions":["antennae","pattern"],"bee_group":{"antennae":"B","wings":"X","pattern":"D","legs":"X"},"action":"harvest","summary":"good-harvest","bonus":0.8000000000000008},{"rt":715,"stimulus":"\n                    <p><b>Action: <em>harvest</em></b></p>\n                    <p>This is the bee that you just saw.</p>\n                    <img src=\"bees-with-color/bee-A2SM.svg\" width=\"200\">\n                    <p><span class=\"greenText\"><b>Successful harvest!</b></span><br>Your pay has increased by $0.02. Your bonus pay is now $0.74.</p>\n            ","response":0,"trial_type":"html-button-response","trial_index":108,"time_elapsed":417688,"internal_node_id":"0.0-4.0-1.48","subject_id":"6137252658a821dab0cf73a9","study_id":"6197b3f67c2b5cd3b6d9596a","session_id":"619beeeca59a5a266350b604","condition":"contingent","relevant_dimensions":["antennae","pattern"],"bee_group":{"antennae":"B","wings":"X","pattern":"D","legs":"X"},"bonus":0.8000000000000008},{"rt":792,"stimulus":"bees-with-color/bee-B1SF.svg","response":0,"trial_type":"image-button-response","trial_index":109,"time_elapsed":418481,"internal_node_id":"0.0-4.0-0.49","subject_id":"6137252658a821dab0cf73a9","study_id":"6197b3f67c2b5cd3b6d9596a","session_id":"619beeeca59a5a266350b604","condition":"contingent","relevant_dimensions":["antennae","pattern"],"bee_group":{"antennae":"B","wings":"X","pattern":"D","legs":"X"},"action":"harvest","summary":"good-harvest","bonus":0.8000000000000008},{"rt":634,"stimulus":"\n                    <p><b>Action: <em>harvest</em></b></p>\n                    <p>This is the bee that you just saw.</p>\n                    <img src=\"bees-with-color/bee-B1SF.svg\" width=\"200\">\n                    <p><span class=\"greenText\"><b>Successful harvest!</b></span><br>Your pay has increased by $0.02. Your bonus pay is now $0.76.</p>\n            ","response":0,"trial_type":"html-button-response","trial_index":110,"time_elapsed":419116,"internal_node_id":"0.0-4.0-1.49","subject_id":"6137252658a821dab0cf73a9","study_id":"6197b3f67c2b5cd3b6d9596a","session_id":"619beeeca59a5a266350b604","condition":"contingent","relevant_dimensions":["antennae","pattern"],"bee_group":{"antennae":"B","wings":"X","pattern":"D","legs":"X"},"bonus":0.8000000000000008},{"rt":1383,"stimulus":"bees-with-color/bee-A1DF.svg","response":1,"trial_type":"image-button-response","trial_index":111,"time_elapsed":420500,"internal_node_id":"0.0-4.0-0.50","subject_id":"6137252658a821dab0cf73a9","study_id":"6197b3f67c2b5cd3b6d9596a","session_id":"619beeeca59a5a266350b604","condition":"contingent","relevant_dimensions":["antennae","pattern"],"bee_group":{"antennae":"B","wings":"X","pattern":"D","legs":"X"},"action":"avoid","summary":"bad-avoid","bonus":0.8000000000000008},{"rt":552,"stimulus":"\n                    <p><b>Action: <em>avoid</em></b></p>\n                    <p>This is the bee that you just saw.</p>\n                    <img src=\"bees-with-color/bee-A1DF.svg\" width=\"200\">\n                    <p><br>Your bonus pay is unchanged, and remains at $0.76.</p>\n            ","response":0,"trial_type":"html-button-response","trial_index":112,"time_elapsed":421053,"internal_node_id":"0.0-4.0-1.50","subject_id":"6137252658a821dab0cf73a9","study_id":"6197b3f67c2b5cd3b6d9596a","session_id":"619beeeca59a5a266350b604","condition":"contingent","relevant_dimensions":["antennae","pattern"],"bee_group":{"antennae":"B","wings":"X","pattern":"D","legs":"X"},"bonus":0.8000000000000008},{"rt":790,"stimulus":"bees-with-color/bee-B1SM.svg","response":0,"trial_type":"image-button-response","trial_index":113,"time_elapsed":421844,"internal_node_id":"0.0-4.0-0.51","subject_id":"6137252658a821dab0cf73a9","study_id":"6197b3f67c2b5cd3b6d9596a","session_id":"619beeeca59a5a266350b604","condition":"contingent","relevant_dimensions":["antennae","pattern"],"bee_group":{"antennae":"B","wings":"X","pattern":"D","legs":"X"},"action":"harvest","summary":"good-harvest","bonus":0.8000000000000008},{"rt":606,"stimulus":"\n                    <p><b>Action: <em>harvest</em></b></p>\n                    <p>This is the bee that you just saw.</p>\n                    <img src=\"bees-with-color/bee-B1SM.svg\" width=\"200\">\n                    <p><span class=\"greenText\"><b>Successful harvest!</b></span><br>Your pay has increased by $0.02. Your bonus pay is now $0.78.</p>\n            ","response":0,"trial_type":"html-button-response","trial_index":114,"time_elapsed":422450,"internal_node_id":"0.0-4.0-1.51","subject_id":"6137252658a821dab0cf73a9","study_id":"6197b3f67c2b5cd3b6d9596a","session_id":"619beeeca59a5a266350b604","condition":"contingent","relevant_dimensions":["antennae","pattern"],"bee_group":{"antennae":"B","wings":"X","pattern":"D","legs":"X"},"bonus":0.8000000000000008},{"rt":1125,"stimulus":"bees-with-color/bee-B1DM.svg","response":1,"trial_type":"image-button-response","trial_index":115,"time_elapsed":423576,"internal_node_id":"0.0-4.0-0.52","subject_id":"6137252658a821dab0cf73a9","study_id":"6197b3f67c2b5cd3b6d9596a","session_id":"619beeeca59a5a266350b604","condition":"contingent","relevant_dimensions":["antennae","pattern"],"bee_group":{"antennae":"B","wings":"X","pattern":"D","legs":"X"},"action":"avoid","summary":"good-avoid","bonus":0.8000000000000008},{"rt":497,"stimulus":"\n                    <p><b>Action: <em>avoid</em></b></p>\n                    <p>This is the bee that you just saw.</p>\n                    <img src=\"bees-with-color/bee-B1DM.svg\" width=\"200\">\n                    <p><br>Your bonus pay is unchanged, and remains at $0.78.</p>\n            ","response":0,"trial_type":"html-button-response","trial_index":116,"time_elapsed":424074,"internal_node_id":"0.0-4.0-1.52","subject_id":"6137252658a821dab0cf73a9","study_id":"6197b3f67c2b5cd3b6d9596a","session_id":"619beeeca59a5a266350b604","condition":"contingent","relevant_dimensions":["antennae","pattern"],"bee_group":{"antennae":"B","wings":"X","pattern":"D","legs":"X"},"bonus":0.8000000000000008},{"rt":1101,"stimulus":"bees-with-color/bee-B2DM.svg","response":1,"trial_type":"image-button-response","trial_index":117,"time_elapsed":425177,"internal_node_id":"0.0-4.0-0.53","subject_id":"6137252658a821dab0cf73a9","study_id":"6197b3f67c2b5cd3b6d9596a","session_id":"619beeeca59a5a266350b604","condition":"contingent","relevant_dimensions":["antennae","pattern"],"bee_group":{"antennae":"B","wings":"X","pattern":"D","legs":"X"},"action":"avoid","summary":"good-avoid","bonus":0.8000000000000008},{"rt":512,"stimulus":"\n                    <p><b>Action: <em>avoid</em></b></p>\n                    <p>This is the bee that you just saw.</p>\n                    <img src=\"bees-with-color/bee-B2DM.svg\" width=\"200\">\n                    <p><br>Your bonus pay is unchanged, and remains at $0.78.</p>\n            ","response":0,"trial_type":"html-button-response","trial_index":118,"time_elapsed":425688,"internal_node_id":"0.0-4.0-1.53","subject_id":"6137252658a821dab0cf73a9","study_id":"6197b3f67c2b5cd3b6d9596a","session_id":"619beeeca59a5a266350b604","condition":"contingent","relevant_dimensions":["antennae","pattern"],"bee_group":{"antennae":"B","wings":"X","pattern":"D","legs":"X"},"bonus":0.8000000000000008},{"rt":954,"stimulus":"bees-with-color/bee-A1SF.svg","response":0,"trial_type":"image-button-response","trial_index":119,"time_elapsed":426644,"internal_node_id":"0.0-4.0-0.54","subject_id":"6137252658a821dab0cf73a9","study_id":"6197b3f67c2b5cd3b6d9596a","session_id":"619beeeca59a5a266350b604","condition":"contingent","relevant_dimensions":["antennae","pattern"],"bee_group":{"antennae":"B","wings":"X","pattern":"D","legs":"X"},"action":"harvest","summary":"good-harvest","bonus":0.8000000000000008},{"rt":714,"stimulus":"\n                    <p><b>Action: <em>harvest</em></b></p>\n                    <p>This is the bee that you just saw.</p>\n                    <img src=\"bees-with-color/bee-A1SF.svg\" width=\"200\">\n                    <p><span class=\"greenText\"><b>Successful harvest!</b></span><br>Your pay has increased by $0.02. Your bonus pay is now $0.80.</p>\n            ","response":0,"trial_type":"html-button-response","trial_index":120,"time_elapsed":427358,"internal_node_id":"0.0-4.0-1.54","subject_id":"6137252658a821dab0cf73a9","study_id":"6197b3f67c2b5cd3b6d9596a","session_id":"619beeeca59a5a266350b604","condition":"contingent","relevant_dimensions":["antennae","pattern"],"bee_group":{"antennae":"B","wings":"X","pattern":"D","legs":"X"},"bonus":0.8000000000000008},{"rt":731,"stimulus":"bees-with-color/bee-A2SF.svg","response":0,"trial_type":"image-button-response","trial_index":121,"time_elapsed":428090,"internal_node_id":"0.0-4.0-0.55","subject_id":"6137252658a821dab0cf73a9","study_id":"6197b3f67c2b5cd3b6d9596a","session_id":"619beeeca59a5a266350b604","condition":"contingent","relevant_dimensions":["antennae","pattern"],"bee_group":{"antennae":"B","wings":"X","pattern":"D","legs":"X"},"action":"harvest","summary":"good-harvest","bonus":0.8000000000000008},{"rt":714,"stimulus":"\n                    <p><b>Action: <em>harvest</em></b></p>\n                    <p>This is the bee that you just saw.</p>\n                    <img src=\"bees-with-color/bee-A2SF.svg\" width=\"200\">\n                    <p><span class=\"greenText\"><b>Successful harvest!</b></span><br>Your pay has increased by $0.02. Your bonus pay is now $0.82.</p>\n            ","response":0,"trial_type":"html-button-response","trial_index":122,"time_elapsed":428804,"internal_node_id":"0.0-4.0-1.55","subject_id":"6137252658a821dab0cf73a9","study_id":"6197b3f67c2b5cd3b6d9596a","session_id":"619beeeca59a5a266350b604","condition":"contingent","relevant_dimensions":["antennae","pattern"],"bee_group":{"antennae":"B","wings":"X","pattern":"D","legs":"X"},"bonus":0.8000000000000008},{"rt":907,"stimulus":"bees-with-color/bee-A1SM.svg","response":0,"trial_type":"image-button-response","trial_index":123,"time_elapsed":429713,"internal_node_id":"0.0-4.0-0.56","subject_id":"6137252658a821dab0cf73a9","study_id":"6197b3f67c2b5cd3b6d9596a","session_id":"619beeeca59a5a266350b604","condition":"contingent","relevant_dimensions":["antennae","pattern"],"bee_group":{"antennae":"B","wings":"X","pattern":"D","legs":"X"},"action":"harvest","summary":"good-harvest","bonus":0.8000000000000008},{"rt":551,"stimulus":"\n                    <p><b>Action: <em>harvest</em></b></p>\n                    <p>This is the bee that you just saw.</p>\n                    <img src=\"bees-with-color/bee-A1SM.svg\" width=\"200\">\n                    <p><span class=\"greenText\"><b>Successful harvest!</b></span><br>Your pay has increased by $0.02. Your bonus pay is now $0.84.</p>\n            ","response":0,"trial_type":"html-button-response","trial_index":124,"time_elapsed":430264,"internal_node_id":"0.0-4.0-1.56","subject_id":"6137252658a821dab0cf73a9","study_id":"6197b3f67c2b5cd3b6d9596a","session_id":"619beeeca59a5a266350b604","condition":"contingent","relevant_dimensions":["antennae","pattern"],"bee_group":{"antennae":"B","wings":"X","pattern":"D","legs":"X"},"bonus":0.8000000000000008},{"rt":1063,"stimulus":"bees-with-color/bee-A2DM.svg","response":1,"trial_type":"image-button-response","trial_index":125,"time_elapsed":431328,"internal_node_id":"0.0-4.0-0.57","subject_id":"6137252658a821dab0cf73a9","study_id":"6197b3f67c2b5cd3b6d9596a","session_id":"619beeeca59a5a266350b604","condition":"contingent","relevant_dimensions":["antennae","pattern"],"bee_group":{"antennae":"B","wings":"X","pattern":"D","legs":"X"},"action":"avoid","summary":"bad-avoid","bonus":0.8000000000000008},{"rt":514,"stimulus":"\n                    <p><b>Action: <em>avoid</em></b></p>\n                    <p>This is the bee that you just saw.</p>\n                    <img src=\"bees-with-color/bee-A2DM.svg\" width=\"200\">\n                    <p><br>Your bonus pay is unchanged, and remains at $0.84.</p>\n            ","response":0,"trial_type":"html-button-response","trial_index":126,"time_elapsed":431841,"internal_node_id":"0.0-4.0-1.57","subject_id":"6137252658a821dab0cf73a9","study_id":"6197b3f67c2b5cd3b6d9596a","session_id":"619beeeca59a5a266350b604","condition":"contingent","relevant_dimensions":["antennae","pattern"],"bee_group":{"antennae":"B","wings":"X","pattern":"D","legs":"X"},"bonus":0.8000000000000008},{"rt":614,"stimulus":"bees-with-color/bee-B1DF.svg","response":1,"trial_type":"image-button-response","trial_index":127,"time_elapsed":432456,"internal_node_id":"0.0-4.0-0.58","subject_id":"6137252658a821dab0cf73a9","study_id":"6197b3f67c2b5cd3b6d9596a","session_id":"619beeeca59a5a266350b604","condition":"contingent","relevant_dimensions":["antennae","pattern"],"bee_group":{"antennae":"B","wings":"X","pattern":"D","legs":"X"},"action":"avoid","summary":"good-avoid","bonus":0.8000000000000008},{"rt":494,"stimulus":"\n                    <p><b>Action: <em>avoid</em></b></p>\n                    <p>This is the bee that you just saw.</p>\n                    <img src=\"bees-with-color/bee-B1DF.svg\" width=\"200\">\n                    <p><br>Your bonus pay is unchanged, and remains at $0.84.</p>\n            ","response":0,"trial_type":"html-button-response","trial_index":128,"time_elapsed":432952,"internal_node_id":"0.0-4.0-1.58","subject_id":"6137252658a821dab0cf73a9","study_id":"6197b3f67c2b5cd3b6d9596a","session_id":"619beeeca59a5a266350b604","condition":"contingent","relevant_dimensions":["antennae","pattern"],"bee_group":{"antennae":"B","wings":"X","pattern":"D","legs":"X"},"bonus":0.8000000000000008},{"rt":700,"stimulus":"bees-with-color/bee-B2SF.svg","response":0,"trial_type":"image-button-response","trial_index":129,"time_elapsed":433652,"internal_node_id":"0.0-4.0-0.59","subject_id":"6137252658a821dab0cf73a9","study_id":"6197b3f67c2b5cd3b6d9596a","session_id":"619beeeca59a5a266350b604","condition":"contingent","relevant_dimensions":["antennae","pattern"],"bee_group":{"antennae":"B","wings":"X","pattern":"D","legs":"X"},"action":"harvest","summary":"good-harvest","bonus":0.8000000000000008},{"rt":473,"stimulus":"\n                    <p><b>Action: <em>harvest</em></b></p>\n                    <p>This is the bee that you just saw.</p>\n                    <img src=\"bees-with-color/bee-B2SF.svg\" width=\"200\">\n                    <p><span class=\"greenText\"><b>Successful harvest!</b></span><br>Your pay has increased by $0.02. Your bonus pay is now $0.86.</p>\n            ","response":0,"trial_type":"html-button-response","trial_index":130,"time_elapsed":434126,"internal_node_id":"0.0-4.0-1.59","subject_id":"6137252658a821dab0cf73a9","study_id":"6197b3f67c2b5cd3b6d9596a","session_id":"619beeeca59a5a266350b604","condition":"contingent","relevant_dimensions":["antennae","pattern"],"bee_group":{"antennae":"B","wings":"X","pattern":"D","legs":"X"},"bonus":0.8000000000000008},{"rt":705,"stimulus":"bees-with-color/bee-B2DF.svg","response":1,"trial_type":"image-button-response","trial_index":131,"time_elapsed":434832,"internal_node_id":"0.0-4.0-0.60","subject_id":"6137252658a821dab0cf73a9","study_id":"6197b3f67c2b5cd3b6d9596a","session_id":"619beeeca59a5a266350b604","condition":"contingent","relevant_dimensions":["antennae","pattern"],"bee_group":{"antennae":"B","wings":"X","pattern":"D","legs":"X"},"action":"avoid","summary":"good-avoid","bonus":0.8000000000000008},{"rt":510,"stimulus":"\n                    <p><b>Action: <em>avoid</em></b></p>\n                    <p>This is the bee that you just saw.</p>\n                    <img src=\"bees-with-color/bee-B2DF.svg\" width=\"200\">\n                    <p><br>Your bonus pay is unchanged, and remains at $0.86.</p>\n            ","response":0,"trial_type":"html-button-response","trial_index":132,"time_elapsed":435344,"internal_node_id":"0.0-4.0-1.60","subject_id":"6137252658a821dab0cf73a9","study_id":"6197b3f67c2b5cd3b6d9596a","session_id":"619beeeca59a5a266350b604","condition":"contingent","relevant_dimensions":["antennae","pattern"],"bee_group":{"antennae":"B","wings":"X","pattern":"D","legs":"X"},"bonus":0.8000000000000008},{"rt":700,"stimulus":"bees-with-color/bee-B2SM.svg","response":0,"trial_type":"image-button-response","trial_index":133,"time_elapsed":436044,"internal_node_id":"0.0-4.0-0.61","subject_id":"6137252658a821dab0cf73a9","study_id":"6197b3f67c2b5cd3b6d9596a","session_id":"619beeeca59a5a266350b604","condition":"contingent","relevant_dimensions":["antennae","pattern"],"bee_group":{"antennae":"B","wings":"X","pattern":"D","legs":"X"},"action":"harvest","summary":"good-harvest","bonus":0.8000000000000008},{"rt":1072,"stimulus":"\n                    <p><b>Action: <em>harvest</em></b></p>\n                    <p>This is the bee that you just saw.</p>\n                    <img src=\"bees-with-color/bee-B2SM.svg\" width=\"200\">\n                    <p><span class=\"greenText\"><b>Successful harvest!</b></span><br>Your pay has increased by $0.02. Your bonus pay is now $0.88.</p>\n            ","response":0,"trial_type":"html-button-response","trial_index":134,"time_elapsed":437116,"internal_node_id":"0.0-4.0-1.61","subject_id":"6137252658a821dab0cf73a9","study_id":"6197b3f67c2b5cd3b6d9596a","session_id":"619beeeca59a5a266350b604","condition":"contingent","relevant_dimensions":["antennae","pattern"],"bee_group":{"antennae":"B","wings":"X","pattern":"D","legs":"X"},"bonus":0.8000000000000008},{"rt":815,"stimulus":"bees-with-color/bee-A1DM.svg","response":1,"trial_type":"image-button-response","trial_index":135,"time_elapsed":437932,"internal_node_id":"0.0-4.0-0.62","subject_id":"6137252658a821dab0cf73a9","study_id":"6197b3f67c2b5cd3b6d9596a","session_id":"619beeeca59a5a266350b604","condition":"contingent","relevant_dimensions":["antennae","pattern"],"bee_group":{"antennae":"B","wings":"X","pattern":"D","legs":"X"},"action":"avoid","summary":"bad-avoid","bonus":0.8000000000000008},{"rt":551,"stimulus":"\n                    <p><b>Action: <em>avoid</em></b></p>\n                    <p>This is the bee that you just saw.</p>\n                    <img src=\"bees-with-color/bee-A1DM.svg\" width=\"200\">\n                    <p><br>Your bonus pay is unchanged, and remains at $0.88.</p>\n            ","response":0,"trial_type":"html-button-response","trial_index":136,"time_elapsed":438483,"internal_node_id":"0.0-4.0-1.62","subject_id":"6137252658a821dab0cf73a9","study_id":"6197b3f67c2b5cd3b6d9596a","session_id":"619beeeca59a5a266350b604","condition":"contingent","relevant_dimensions":["antennae","pattern"],"bee_group":{"antennae":"B","wings":"X","pattern":"D","legs":"X"},"bonus":0.8000000000000008},{"rt":769,"stimulus":"bees-with-color/bee-A2DF.svg","response":1,"trial_type":"image-button-response","trial_index":137,"time_elapsed":439254,"internal_node_id":"0.0-4.0-0.63","subject_id":"6137252658a821dab0cf73a9","study_id":"6197b3f67c2b5cd3b6d9596a","session_id":"619beeeca59a5a266350b604","condition":"contingent","relevant_dimensions":["antennae","pattern"],"bee_group":{"antennae":"B","wings":"X","pattern":"D","legs":"X"},"action":"avoid","summary":"bad-avoid","bonus":0.8000000000000008},{"rt":442,"stimulus":"\n                    <p><b>Action: <em>avoid</em></b></p>\n                    <p>This is the bee that you just saw.</p>\n                    <img src=\"bees-with-color/bee-A2DF.svg\" width=\"200\">\n                    <p><br>Your bonus pay is unchanged, and remains at $0.88.</p>\n            ","response":0,"trial_type":"html-button-response","trial_index":138,"time_elapsed":439696,"internal_node_id":"0.0-4.0-1.63","subject_id":"6137252658a821dab0cf73a9","study_id":"6197b3f67c2b5cd3b6d9596a","session_id":"619beeeca59a5a266350b604","condition":"contingent","relevant_dimensions":["antennae","pattern"],"bee_group":{"antennae":"B","wings":"X","pattern":"D","legs":"X"},"bonus":0.8000000000000008},{"rt":6657,"stimulus":"You have completed the first part of this experiment.<br><br>You will now begin a shorter second part, in which you will receive no feedback.<br>The same rules regarding bonus pay apply.<br><br>Press any key to begin.","response":"enter","trial_type":"html-keyboard-response","trial_index":139,"time_elapsed":446355,"internal_node_id":"0.0-5.0","subject_id":"6137252658a821dab0cf73a9","study_id":"6197b3f67c2b5cd3b6d9596a","session_id":"619beeeca59a5a266350b604","condition":"contingent","relevant_dimensions":["antennae","pattern"],"bee_group":{"antennae":"B","wings":"X","pattern":"D","legs":"X"},"bonus":0.8000000000000008},{"rt":5166,"stimulus":"bees-with-color/bee-B2DF.svg","response":0,"trial_type":"image-button-response","trial_index":140,"time_elapsed":451522,"internal_node_id":"0.0-6.0-0.0","subject_id":"6137252658a821dab0cf73a9","study_id":"6197b3f67c2b5cd3b6d9596a","session_id":"619beeeca59a5a266350b604","condition":"contingent","relevant_dimensions":["antennae","pattern"],"bee_group":{"antennae":"B","wings":"X","pattern":"D","legs":"X"},"bonus":0.8000000000000008},{"rt":7987,"stimulus":"bees-with-color/bee-B2SM.svg","response":0,"trial_type":"image-button-response","trial_index":141,"time_elapsed":459510,"internal_node_id":"0.0-6.0-0.1","subject_id":"6137252658a821dab0cf73a9","study_id":"6197b3f67c2b5cd3b6d9596a","session_id":"619beeeca59a5a266350b604","condition":"contingent","relevant_dimensions":["antennae","pattern"],"bee_group":{"antennae":"B","wings":"X","pattern":"D","legs":"X"},"bonus":0.8000000000000008},{"rt":2524,"stimulus":"bees-with-color/bee-A1SM.svg","response":0,"trial_type":"image-button-response","trial_index":142,"time_elapsed":462034,"internal_node_id":"0.0-6.0-0.2","subject_id":"6137252658a821dab0cf73a9","study_id":"6197b3f67c2b5cd3b6d9596a","session_id":"619beeeca59a5a266350b604","condition":"contingent","relevant_dimensions":["antennae","pattern"],"bee_group":{"antennae":"B","wings":"X","pattern":"D","legs":"X"},"bonus":0.8000000000000008},{"rt":947,"stimulus":"bees-with-color/bee-A1DF.svg","response":1,"trial_type":"image-button-response","trial_index":143,"time_elapsed":462982,"internal_node_id":"0.0-6.0-0.3","subject_id":"6137252658a821dab0cf73a9","study_id":"6197b3f67c2b5cd3b6d9596a","session_id":"619beeeca59a5a266350b604","condition":"contingent","relevant_dimensions":["antennae","pattern"],"bee_group":{"antennae":"B","wings":"X","pattern":"D","legs":"X"},"bonus":0.8000000000000008},{"rt":644,"stimulus":"bees-with-color/bee-A1SF.svg","response":0,"trial_type":"image-button-response","trial_index":144,"time_elapsed":463628,"internal_node_id":"0.0-6.0-0.4","subject_id":"6137252658a821dab0cf73a9","study_id":"6197b3f67c2b5cd3b6d9596a","session_id":"619beeeca59a5a266350b604","condition":"contingent","relevant_dimensions":["antennae","pattern"],"bee_group":{"antennae":"B","wings":"X","pattern":"D","legs":"X"},"bonus":0.8000000000000008},{"rt":503,"stimulus":"bees-with-color/bee-A2SM.svg","response":0,"trial_type":"image-button-response","trial_index":145,"time_elapsed":464132,"internal_node_id":"0.0-6.0-0.5","subject_id":"6137252658a821dab0cf73a9","study_id":"6197b3f67c2b5cd3b6d9596a","session_id":"619beeeca59a5a266350b604","condition":"contingent","relevant_dimensions":["antennae","pattern"],"bee_group":{"antennae":"B","wings":"X","pattern":"D","legs":"X"},"bonus":0.8000000000000008},{"rt":326,"stimulus":"bees-with-color/bee-B1DM.svg","response":0,"trial_type":"image-button-response","trial_index":146,"time_elapsed":464459,"internal_node_id":"0.0-6.0-0.6","subject_id":"6137252658a821dab0cf73a9","study_id":"6197b3f67c2b5cd3b6d9596a","session_id":"619beeeca59a5a266350b604","condition":"contingent","relevant_dimensions":["antennae","pattern"],"bee_group":{"antennae":"B","wings":"X","pattern":"D","legs":"X"},"bonus":0.8000000000000008},{"rt":877,"stimulus":"bees-with-color/bee-B1SF.svg","response":1,"trial_type":"image-button-response","trial_index":147,"time_elapsed":465337,"internal_node_id":"0.0-6.0-0.7","subject_id":"6137252658a821dab0cf73a9","study_id":"6197b3f67c2b5cd3b6d9596a","session_id":"619beeeca59a5a266350b604","condition":"contingent","relevant_dimensions":["antennae","pattern"],"bee_group":{"antennae":"B","wings":"X","pattern":"D","legs":"X"},"bonus":0.8000000000000008},{"rt":674,"stimulus":"bees-with-color/bee-A2DM.svg","response":0,"trial_type":"image-button-response","trial_index":148,"time_elapsed":466012,"internal_node_id":"0.0-6.0-0.8","subject_id":"6137252658a821dab0cf73a9","study_id":"6197b3f67c2b5cd3b6d9596a","session_id":"619beeeca59a5a266350b604","condition":"contingent","relevant_dimensions":["antennae","pattern"],"bee_group":{"antennae":"B","wings":"X","pattern":"D","legs":"X"},"bonus":0.8000000000000008},{"rt":1452,"stimulus":"bees-with-color/bee-B2SF.svg","response":0,"trial_type":"image-button-response","trial_index":149,"time_elapsed":467466,"internal_node_id":"0.0-6.0-0.9","subject_id":"6137252658a821dab0cf73a9","study_id":"6197b3f67c2b5cd3b6d9596a","session_id":"619beeeca59a5a266350b604","condition":"contingent","relevant_dimensions":["antennae","pattern"],"bee_group":{"antennae":"B","wings":"X","pattern":"D","legs":"X"},"bonus":0.8000000000000008},{"rt":620,"stimulus":"bees-with-color/bee-B1SM.svg","response":1,"trial_type":"image-button-response","trial_index":150,"time_elapsed":468087,"internal_node_id":"0.0-6.0-0.10","subject_id":"6137252658a821dab0cf73a9","study_id":"6197b3f67c2b5cd3b6d9596a","session_id":"619beeeca59a5a266350b604","condition":"contingent","relevant_dimensions":["antennae","pattern"],"bee_group":{"antennae":"B","wings":"X","pattern":"D","legs":"X"},"bonus":0.8000000000000008},{"rt":147,"stimulus":"bees-with-color/bee-A2SF.svg","response":1,"trial_type":"image-button-response","trial_index":151,"time_elapsed":468235,"internal_node_id":"0.0-6.0-0.11","subject_id":"6137252658a821dab0cf73a9","study_id":"6197b3f67c2b5cd3b6d9596a","session_id":"619beeeca59a5a266350b604","condition":"contingent","relevant_dimensions":["antennae","pattern"],"bee_group":{"antennae":"B","wings":"X","pattern":"D","legs":"X"},"bonus":0.8000000000000008},{"rt":164,"stimulus":"bees-with-color/bee-B1DF.svg","response":1,"trial_type":"image-button-response","trial_index":152,"time_elapsed":468399,"internal_node_id":"0.0-6.0-0.12","subject_id":"6137252658a821dab0cf73a9","study_id":"6197b3f67c2b5cd3b6d9596a","session_id":"619beeeca59a5a266350b604","condition":"contingent","relevant_dimensions":["antennae","pattern"],"bee_group":{"antennae":"B","wings":"X","pattern":"D","legs":"X"},"bonus":0.8000000000000008},{"rt":184,"stimulus":"bees-with-color/bee-A1DM.svg","response":1,"trial_type":"image-button-response","trial_index":153,"time_elapsed":468584,"internal_node_id":"0.0-6.0-0.13","subject_id":"6137252658a821dab0cf73a9","study_id":"6197b3f67c2b5cd3b6d9596a","session_id":"619beeeca59a5a266350b604","condition":"contingent","relevant_dimensions":["antennae","pattern"],"bee_group":{"antennae":"B","wings":"X","pattern":"D","legs":"X"},"bonus":0.8000000000000008},{"rt":163,"stimulus":"bees-with-color/bee-A2DF.svg","response":1,"trial_type":"image-button-response","trial_index":154,"time_elapsed":468748,"internal_node_id":"0.0-6.0-0.14","subject_id":"6137252658a821dab0cf73a9","study_id":"6197b3f67c2b5cd3b6d9596a","session_id":"619beeeca59a5a266350b604","condition":"contingent","relevant_dimensions":["antennae","pattern"],"bee_group":{"antennae":"B","wings":"X","pattern":"D","legs":"X"},"bonus":0.8000000000000008},{"rt":140,"stimulus":"bees-with-color/bee-B2DM.svg","response":1,"trial_type":"image-button-response","trial_index":155,"time_elapsed":468888,"internal_node_id":"0.0-6.0-0.15","subject_id":"6137252658a821dab0cf73a9","study_id":"6197b3f67c2b5cd3b6d9596a","session_id":"619beeeca59a5a266350b604","condition":"contingent","relevant_dimensions":["antennae","pattern"],"bee_group":{"antennae":"B","wings":"X","pattern":"D","legs":"X"},"bonus":0.8000000000000008},{"rt":161,"stimulus":"bees-with-color/bee-B1DM.svg","response":1,"trial_type":"image-button-response","trial_index":156,"time_elapsed":469050,"internal_node_id":"0.0-6.0-0.16","subject_id":"6137252658a821dab0cf73a9","study_id":"6197b3f67c2b5cd3b6d9596a","session_id":"619beeeca59a5a266350b604","condition":"contingent","relevant_dimensions":["antennae","pattern"],"bee_group":{"antennae":"B","wings":"X","pattern":"D","legs":"X"},"bonus":0.8000000000000008},{"rt":154,"stimulus":"bees-with-color/bee-A1SF.svg","response":1,"trial_type":"image-button-response","trial_index":157,"time_elapsed":469206,"internal_node_id":"0.0-6.0-0.17","subject_id":"6137252658a821dab0cf73a9","study_id":"6197b3f67c2b5cd3b6d9596a","session_id":"619beeeca59a5a266350b604","condition":"contingent","relevant_dimensions":["antennae","pattern"],"bee_group":{"antennae":"B","wings":"X","pattern":"D","legs":"X"},"bonus":0.8000000000000008},{"rt":146,"stimulus":"bees-with-color/bee-A2SF.svg","response":1,"trial_type":"image-button-response","trial_index":158,"time_elapsed":469354,"internal_node_id":"0.0-6.0-0.18","subject_id":"6137252658a821dab0cf73a9","study_id":"6197b3f67c2b5cd3b6d9596a","session_id":"619beeeca59a5a266350b604","condition":"contingent","relevant_dimensions":["antennae","pattern"],"bee_group":{"antennae":"B","wings":"X","pattern":"D","legs":"X"},"bonus":0.8000000000000008},{"rt":139,"stimulus":"bees-with-color/bee-A2DM.svg","response":1,"trial_type":"image-button-response","trial_index":159,"time_elapsed":469494,"internal_node_id":"0.0-6.0-0.19","subject_id":"6137252658a821dab0cf73a9","study_id":"6197b3f67c2b5cd3b6d9596a","session_id":"619beeeca59a5a266350b604","condition":"contingent","relevant_dimensions":["antennae","pattern"],"bee_group":{"antennae":"B","wings":"X","pattern":"D","legs":"X"},"bonus":0.8000000000000008},{"rt":162,"stimulus":"bees-with-color/bee-B2DF.svg","response":1,"trial_type":"image-button-response","trial_index":160,"time_elapsed":469656,"internal_node_id":"0.0-6.0-0.20","subject_id":"6137252658a821dab0cf73a9","study_id":"6197b3f67c2b5cd3b6d9596a","session_id":"619beeeca59a5a266350b604","condition":"contingent","relevant_dimensions":["antennae","pattern"],"bee_group":{"antennae":"B","wings":"X","pattern":"D","legs":"X"},"bonus":0.8000000000000008},{"rt":155,"stimulus":"bees-with-color/bee-B1SM.svg","response":1,"trial_type":"image-button-response","trial_index":161,"time_elapsed":469812,"internal_node_id":"0.0-6.0-0.21","subject_id":"6137252658a821dab0cf73a9","study_id":"6197b3f67c2b5cd3b6d9596a","session_id":"619beeeca59a5a266350b604","condition":"contingent","relevant_dimensions":["antennae","pattern"],"bee_group":{"antennae":"B","wings":"X","pattern":"D","legs":"X"},"bonus":0.8000000000000008},{"rt":155,"stimulus":"bees-with-color/bee-A1DF.svg","response":1,"trial_type":"image-button-response","trial_index":162,"time_elapsed":469968,"internal_node_id":"0.0-6.0-0.22","subject_id":"6137252658a821dab0cf73a9","study_id":"6197b3f67c2b5cd3b6d9596a","session_id":"619beeeca59a5a266350b604","condition":"contingent","relevant_dimensions":["antennae","pattern"],"bee_group":{"antennae":"B","wings":"X","pattern":"D","legs":"X"},"bonus":0.8000000000000008},{"rt":161,"stimulus":"bees-with-color/bee-B2SM.svg","response":1,"trial_type":"image-button-response","trial_index":163,"time_elapsed":470131,"internal_node_id":"0.0-6.0-0.23","subject_id":"6137252658a821dab0cf73a9","study_id":"6197b3f67c2b5cd3b6d9596a","session_id":"619beeeca59a5a266350b604","condition":"contingent","relevant_dimensions":["antennae","pattern"],"bee_group":{"antennae":"B","wings":"X","pattern":"D","legs":"X"},"bonus":0.8000000000000008},{"rt":140,"stimulus":"bees-with-color/bee-A2SM.svg","response":1,"trial_type":"image-button-response","trial_index":164,"time_elapsed":470270,"internal_node_id":"0.0-6.0-0.24","subject_id":"6137252658a821dab0cf73a9","study_id":"6197b3f67c2b5cd3b6d9596a","session_id":"619beeeca59a5a266350b604","condition":"contingent","relevant_dimensions":["antennae","pattern"],"bee_group":{"antennae":"B","wings":"X","pattern":"D","legs":"X"},"bonus":0.8000000000000008},{"rt":163,"stimulus":"bees-with-color/bee-B1SF.svg","response":1,"trial_type":"image-button-response","trial_index":165,"time_elapsed":470435,"internal_node_id":"0.0-6.0-0.25","subject_id":"6137252658a821dab0cf73a9","study_id":"6197b3f67c2b5cd3b6d9596a","session_id":"619beeeca59a5a266350b604",