[{"success":true,"trial_type":"fullscreen","trial_index":0,"time_elapsed":2620,"internal_node_id":"0.0-0.0","subject_id":"613a3f32a52f4d656d45bff7","study_id":"60edd13110225f80f9f3709b","session_id":"6196bf60f631c763f11dcebd","condition":"contingent","relevant_dimensions":["antennae","wings"],"bee_group":{"antennae":"A","wings":"2","pattern":"X","legs":"X"},"bonus":0.1},{"success":true,"timeout":false,"failed_images":[],"failed_audio":[],"failed_video":[],"trial_type":"preload","trial_index":1,"time_elapsed":4164,"internal_node_id":"0.0-1.0","subject_id":"613a3f32a52f4d656d45bff7","study_id":"60edd13110225f80f9f3709b","session_id":"6196bf60f631c763f11dcebd","condition":"contingent","relevant_dimensions":["antennae","wings"],"bee_group":{"antennae":"A","wings":"2","pattern":"X","legs":"X"},"bonus":0.1},{"rt":3278.899999999907,"stimulus":"Welcome! Press any key to begin.","response":" ","trial_type":"html-keyboard-response","trial_index":2,"time_elapsed":7444,"internal_node_id":"0.0-2.0","subject_id":"613a3f32a52f4d656d45bff7","study_id":"60edd13110225f80f9f3709b","session_id":"6196bf60f631c763f11dcebd","condition":"contingent","relevant_dimensions":["antennae","wings"],"bee_group":{"antennae":"A","wings":"2","pattern":"X","legs":"X"},"bonus":0.1},{"view_history":[{"page_index":0,"viewing_time":4257.399999999907},{"page_index":1,"viewing_time":12825.5},{"page_index":2,"viewing_time":9123.600000000093},{"page_index":3,"viewing_time":9862.100000000093},{"page_index":4,"viewing_time":11156.5},{"page_index":5,"viewing_time":7913.100000000093},{"page_index":6,"viewing_time":7430.699999999721},{"page_index":7,"viewing_time":7521.100000000093},{"page_index":8,"viewing_time":3816.100000000093},{"page_index":9,"viewing_time":4809.600000000093},{"page_index":10,"viewing_time":3243.5},{"page_index":11,"viewing_time":30075.799999999814},{"page_index":12,"viewing_time":13749.899999999907},{"page_index":13,"viewing_time":7723.200000000186},{"page_index":14,"viewing_time":2601.2000000001863}],"rt":136109.5,"trial_type":"instructions","trial_index":3,"time_elapsed":143554,"internal_node_id":"0.0-3.0-0.0","subject_id":"613a3f32a52f4d656d45bff7","study_id":"60edd13110225f80f9f3709b","session_id":"6196bf60f631c763f11dcebd","condition":"contingent","relevant_dimensions":["antennae","wings"],"bee_group":{"antennae":"A","wings":"2","pattern":"X","legs":"X"},"bonus":0.1},{"rt":15141.19999999972,"response":{"Q0":["Two or six legs","Stripes or spots on body","Single or double wings","Antennae or no antennae"]},"question_order":[0],"trial_type":"survey-multi-select","trial_index":4,"time_elapsed":158699,"internal_node_id":"0.0-3.0-1.0","subject_id":"613a3f32a52f4d656d45bff7","study_id":"60edd13110225f80f9f3709b","session_id":"6196bf60f631c763f11dcebd","condition":"contingent","relevant_dimensions":["antennae","wings"],"bee_group":{"antennae":"A","wings":"2","pattern":"X","legs":"X"},"correct":true,"bonus":0.1},{"rt":23063.299999999814,"response":{"Q1":"Yes.","Q2":"Based on the four features of the bee.","Q3":"You do not learn if it was friendly or dangerous, and do not alter your bonus."},"question_order":[0,1,2],"trial_type":"survey-multi-choice","trial_index":5,"time_elapsed":181764,"internal_node_id":"0.0-3.0-2.0","subject_id":"613a3f32a52f4d656d45bff7","study_id":"60edd13110225f80f9f3709b","session_id":"6196bf60f631c763f11dcebd","condition":"contingent","relevant_dimensions":["antennae","wings"],"bee_group":{"antennae":"A","wings":"2","pattern":"X","legs":"X"},"correct":false,"bonus":0.1},{"rt":3120.600000000093,"stimulus":"<p>You did not answer all comprehension questions correctly.<br>Press <b>continue</b> to review the instructions again.</p>","response":0,"trial_type":"html-button-response","trial_index":6,"time_elapsed":184886,"internal_node_id":"0.0-3.0-3.0","subject_id":"613a3f32a52f4d656d45bff7","study_id":"60edd13110225f80f9f3709b","session_id":"6196bf60f631c763f11dcebd","condition":"contingent","relevant_dimensions":["antennae","wings"],"bee_group":{"antennae":"A","wings":"2","pattern":"X","legs":"X"},"bonus":0.1},{"view_history":[{"page_index":0,"viewing_time":2388.899999999907},{"page_index":1,"viewing_time":2409.899999999907},{"page_index":2,"viewing_time":7299.899999999907},{"page_index":3,"viewing_time":15393},{"page_index":4,"viewing_time":8053},{"page_index":5,"viewing_time":2751.3000000002794},{"page_index":6,"viewing_time":2741.6999999997206},{"page_index":7,"viewing_time":9449.600000000093},{"page_index":8,"viewing_time":3766.100000000093},{"page_index":7,"viewing_time":2379.7000000001863},{"page_index":8,"viewing_time":1416.0999999996275},{"page_index":9,"viewing_time":3835.9000000003725},{"page_index":10,"viewing_time":2701.399999999907},{"page_index":11,"viewing_time":7070.299999999814},{"page_index":12,"viewing_time":8494.80000000028},{"page_index":13,"viewing_time":1265.0999999996275},{"page_index":14,"viewing_time":994.2000000001863}],"rt":82411.19999999972,"trial_type":"instructions","trial_index":7,"time_elapsed":267297,"internal_node_id":"0.0-3.0-4.0-0.0","subject_id":"613a3f32a52f4d656d45bff7","study_id":"60edd13110225f80f9f3709b","session_id":"6196bf60f631c763f11dcebd","condition":"contingent","relevant_dimensions":["antennae","wings"],"bee_group":{"antennae":"A","wings":"2","pattern":"X","legs":"X"},"bonus":0.1},{"rt":7296.899999999907,"response":{"Q0":["Two or six legs","Stripes or spots on body","Single or double wings","Antennae or no antennae"]},"question_order":[0],"trial_type":"survey-multi-select","trial_index":8,"time_elapsed":274598,"internal_node_id":"0.0-3.0-4.0-1.0","subject_id":"613a3f32a52f4d656d45bff7","study_id":"60edd13110225f80f9f3709b","session_id":"6196bf60f631c763f11dcebd","condition":"contingent","relevant_dimensions":["antennae","wings"],"bee_group":{"antennae":"A","wings":"2","pattern":"X","legs":"X"},"correct":true,"bonus":0.1},{"rt":13003,"response":{"Q1":"No.","Q2":"Based on the four features of the bee.","Q3":"You do not learn if it was friendly or dangerous, and do not alter your bonus."},"question_order":[0,1,2],"trial_type":"survey-multi-choice","trial_index":9,"time_elapsed":287603,"internal_node_id":"0.0-3.0-4.0-2.0","subject_id":"613a3f32a52f4d656d45bff7","study_id":"60edd13110225f80f9f3709b","session_id":"6196bf60f631c763f11dcebd","condition":"contingent","relevant_dimensions":["antennae","wings"],"bee_group":{"antennae":"A","wings":"2","pattern":"X","legs":"X"},"correct":true,"bonus":0.1},{"rt":2709.8000000002794,"stimulus":"<p>Congrats, you got everything right<br>When you're ready, click the button below to continue to the experiment.</p>","response":0,"trial_type":"html-button-response","trial_index":10,"time_elapsed":290314,"internal_node_id":"0.0-3.0-4.0-3.0","subject_id":"613a3f32a52f4d656d45bff7","study_id":"60edd13110225f80f9f3709b","session_id":"6196bf60f631c763f11dcebd","condition":"contingent","relevant_dimensions":["antennae","wings"],"bee_group":{"antennae":"A","wings":"2","pattern":"X","legs":"X"},"bonus":0.1},{"rt":3964.2999999998137,"stimulus":"bees-with-color/bee-B1DF.svg","response":1,"trial_type":"image-button-response","trial_index":11,"time_elapsed":294280,"internal_node_id":"0.0-4.0-0.0","subject_id":"613a3f32a52f4d656d45bff7","study_id":"60edd13110225f80f9f3709b","session_id":"6196bf60f631c763f11dcebd","condition":"contingent","relevant_dimensions":["antennae","wings"],"bee_group":{"antennae":"A","wings":"2","pattern":"X","legs":"X"},"action":"avoid","summary":"bad-avoid","bonus":0.1},{"rt":7228.199999999721,"stimulus":"\n                    <p><b>Action: <em>avoid</em></b></p>\n                    <p>This is the bee that you just saw.</p>\n                    <img src=\"bees-with-color/bee-B1DF.svg\" width=\"200\">\n                    <p><br>Your bonus pay is unchanged, and remains at $0.54.</p>\n            ","response":0,"trial_type":"html-button-response","trial_index":12,"time_elapsed":301511,"internal_node_id":"0.0-4.0-1.0","subject_id":"613a3f32a52f4d656d45bff7","study_id":"60edd13110225f80f9f3709b","session_id":"6196bf60f631c763f11dcebd","condition":"contingent","relevant_dimensions":["antennae","wings"],"bee_group":{"antennae":"A","wings":"2","pattern":"X","legs":"X"},"bonus":0.1},{"rt":5400.800000000279,"stimulus":"bees-with-color/bee-B1DM.svg","response":0,"trial_type":"image-button-response","trial_index":13,"time_elapsed":306914,"internal_node_id":"0.0-4.0-0.1","subject_id":"613a3f32a52f4d656d45bff7","study_id":"60edd13110225f80f9f3709b","session_id":"6196bf60f631c763f11dcebd","condition":"contingent","relevant_dimensions":["antennae","wings"],"bee_group":{"antennae":"A","wings":"2","pattern":"X","legs":"X"},"action":"harvest","summary":"good-harvest","bonus":0.1},{"rt":8243.200000000186,"stimulus":"\n                    <p><b>Action: <em>harvest</em></b></p>\n                    <p>This is the bee that you just saw.</p>\n                    <img src=\"bees-with-color/bee-B1DM.svg\" width=\"200\">\n                    <p><span class=\"greenText\"><b>Successful harvest!</b></span><br>Your pay has increased by $0.02. Your bonus pay is now $0.56.</p>\n            ","response":0,"trial_type":"html-button-response","trial_index":14,"time_elapsed":315158,"internal_node_id":"0.0-4.0-1.1","subject_id":"613a3f32a52f4d656d45bff7","study_id":"60edd13110225f80f9f3709b","session_id":"6196bf60f631c763f11dcebd","condition":"contingent","relevant_dimensions":["antennae","wings"],"bee_group":{"antennae":"A","wings":"2","pattern":"X","legs":"X"},"bonus":0.1},{"rt":3764.100000000093,"stimulus":"bees-with-color/bee-B2SF.svg","response":1,"trial_type":"image-button-response","trial_index":15,"time_elapsed":318924,"internal_node_id":"0.0-4.0-0.2","subject_id":"613a3f32a52f4d656d45bff7","study_id":"60edd13110225f80f9f3709b","session_id":"6196bf60f631c763f11dcebd","condition":"contingent","relevant_dimensions":["antennae","wings"],"bee_group":{"antennae":"A","wings":"2","pattern":"X","legs":"X"},"action":"avoid","summary":"bad-avoid","bonus":0.1},{"rt":3764.600000000093,"stimulus":"\n                    <p><b>Action: <em>avoid</em></b></p>\n                    <p>This is the bee that you just saw.</p>\n                    <img src=\"bees-with-color/bee-B2SF.svg\" width=\"200\">\n                    <p><br>Your bonus pay is unchanged, and remains at $0.56.</p>\n            ","response":0,"trial_type":"html-button-response","trial_index":16,"time_elapsed":322690,"internal_node_id":"0.0-4.0-1.2","subject_id":"613a3f32a52f4d656d45bff7","study_id":"60edd13110225f80f9f3709b","session_id":"6196bf60f631c763f11dcebd","condition":"contingent","relevant_dimensions":["antennae","wings"],"bee_group":{"antennae":"A","wings":"2","pattern":"X","legs":"X"},"bonus":0.1},{"rt":3322.399999999907,"stimulus":"bees-with-color/bee-B2SM.svg","response":0,"trial_type":"image-button-response","trial_index":17,"time_elapsed":326014,"internal_node_id":"0.0-4.0-0.3","subject_id":"613a3f32a52f4d656d45bff7","study_id":"60edd13110225f80f9f3709b","session_id":"6196bf60f631c763f11dcebd","condition":"contingent","relevant_dimensions":["antennae","wings"],"bee_group":{"antennae":"A","wings":"2","pattern":"X","legs":"X"},"action":"harvest","summary":"good-harvest","bonus":0.1},{"rt":11532,"stimulus":"\n                    <p><b>Action: <em>harvest</em></b></p>\n                    <p>This is the bee that you just saw.</p>\n                    <img src=\"bees-with-color/bee-B2SM.svg\" width=\"200\">\n                    <p><span class=\"greenText\"><b>Successful harvest!</b></span><br>Your pay has increased by $0.02. Your bonus pay is now $0.58.</p>\n            ","response":0,"trial_type":"html-button-response","trial_index":18,"time_elapsed":337548,"internal_node_id":"0.0-4.0-1.3","subject_id":"613a3f32a52f4d656d45bff7","study_id":"60edd13110225f80f9f3709b","session_id":"6196bf60f631c763f11dcebd","condition":"contingent","relevant_dimensions":["antennae","wings"],"bee_group":{"antennae":"A","wings":"2","pattern":"X","legs":"X"},"bonus":0.1},{"rt":7248.5999999996275,"stimulus":"bees-with-color/bee-A2SF.svg","response":1,"trial_type":"image-button-response","trial_index":19,"time_elapsed":344799,"internal_node_id":"0.0-4.0-0.4","subject_id":"613a3f32a52f4d656d45bff7","study_id":"60edd13110225f80f9f3709b","session_id":"6196bf60f631c763f11dcebd","condition":"contingent","relevant_dimensions":["antennae","wings"],"bee_group":{"antennae":"A","wings":"2","pattern":"X","legs":"X"},"action":"avoid","summary":"good-avoid","bonus":0.1},{"rt":1012.6000000000931,"stimulus":"\n                    <p><b>Action: <em>avoid</em></b></p>\n                    <p>This is the bee that you just saw.</p>\n                    <img src=\"bees-with-color/bee-A2SF.svg\" width=\"200\">\n                    <p><br>Your bonus pay is unchanged, and remains at $0.58.</p>\n            ","response":0,"trial_type":"html-button-response","trial_index":20,"time_elapsed":345813,"internal_node_id":"0.0-4.0-1.4","subject_id":"613a3f32a52f4d656d45bff7","study_id":"60edd13110225f80f9f3709b","session_id":"6196bf60f631c763f11dcebd","condition":"contingent","relevant_dimensions":["antennae","wings"],"bee_group":{"antennae":"A","wings":"2","pattern":"X","legs":"X"},"bonus":0.1},{"rt":4688.399999999907,"stimulus":"bees-with-color/bee-A2DM.svg","response":0,"trial_type":"image-button-response","trial_index":21,"time_elapsed":350503,"internal_node_id":"0.0-4.0-0.5","subject_id":"613a3f32a52f4d656d45bff7","study_id":"60edd13110225f80f9f3709b","session_id":"6196bf60f631c763f11dcebd","condition":"contingent","relevant_dimensions":["antennae","wings"],"bee_group":{"antennae":"A","wings":"2","pattern":"X","legs":"X"},"action":"harvest","summary":"bad-harvest","bonus":0.1},{"rt":6606.5,"stimulus":"\n                    <p><b>Action: <em>harvest</em></b></p>\n                    <p>This is the bee that you just saw.</p>\n                    <img src=\"bees-with-color/bee-A2DM.svg\" width=\"200\">\n                    <p><span class=\"redText\">Bad choice, the bee was angry.</span><br><b>You have been stung!</b><br>Your pay has been decreased by $0.10. Your bonus pay is now $0.48.</p>\n            ","response":0,"trial_type":"html-button-response","trial_index":22,"time_elapsed":357110,"internal_node_id":"0.0-4.0-1.5","subject_id":"613a3f32a52f4d656d45bff7","study_id":"60edd13110225f80f9f3709b","session_id":"6196bf60f631c763f11dcebd","condition":"contingent","relevant_dimensions":["antennae","wings"],"bee_group":{"antennae":"A","wings":"2","pattern":"X","legs":"X"},"bonus":0.1},{"rt":3603.399999999907,"stimulus":"bees-with-color/bee-A1DM.svg","response":0,"trial_type":"image-button-response","trial_index":23,"time_elapsed":360716,"internal_node_id":"0.0-4.0-0.6","subject_id":"613a3f32a52f4d656d45bff7","study_id":"60edd13110225f80f9f3709b","session_id":"6196bf60f631c763f11dcebd","condition":"contingent","relevant_dimensions":["antennae","wings"],"bee_group":{"antennae":"A","wings":"2","pattern":"X","legs":"X"},"action":"harvest","summary":"good-harvest","bonus":0.1},{"rt":1856.6999999997206,"stimulus":"\n                    <p><b>Action: <em>harvest</em></b></p>\n                    <p>This is the bee that you just saw.</p>\n                    <img src=\"bees-with-color/bee-A1DM.svg\" width=\"200\">\n                    <p><span class=\"greenText\"><b>Successful harvest!</b></span><br>Your pay has increased by $0.02. Your bonus pay is now $0.50.</p>\n            ","response":0,"trial_type":"html-button-response","trial_index":24,"time_elapsed":362574,"internal_node_id":"0.0-4.0-1.6","subject_id":"613a3f32a52f4d656d45bff7","study_id":"60edd13110225f80f9f3709b","session_id":"6196bf60f631c763f11dcebd","condition":"contingent","relevant_dimensions":["antennae","wings"],"bee_group":{"antennae":"A","wings":"2","pattern":"X","legs":"X"},"bonus":0.1},{"rt":2729.8000000002794,"stimulus":"bees-with-color/bee-B1SF.svg","response":0,"trial_type":"image-button-response","trial_index":25,"time_elapsed":365305,"internal_node_id":"0.0-4.0-0.7","subject_id":"613a3f32a52f4d656d45bff7","study_id":"60edd13110225f80f9f3709b","session_id":"6196bf60f631c763f11dcebd","condition":"contingent","relevant_dimensions":["antennae","wings"],"bee_group":{"antennae":"A","wings":"2","pattern":"X","legs":"X"},"action":"harvest","summary":"good-harvest","bonus":0.1},{"rt":1595.1000000000931,"stimulus":"\n                    <p><b>Action: <em>harvest</em></b></p>\n                    <p>This is the bee that you just saw.</p>\n                    <img src=\"bees-with-color/bee-B1SF.svg\" width=\"200\">\n                    <p><span class=\"greenText\"><b>Successful harvest!</b></span><br>Your pay has increased by $0.02. Your bonus pay is now $0.52.</p>\n            ","response":0,"trial_type":"html-button-response","trial_index":26,"time_elapsed":366902,"internal_node_id":"0.0-4.0-1.7","subject_id":"613a3f32a52f4d656d45bff7","study_id":"60edd13110225f80f9f3709b","session_id":"6196bf60f631c763f11dcebd","condition":"contingent","relevant_dimensions":["antennae","wings"],"bee_group":{"antennae":"A","wings":"2","pattern":"X","legs":"X"},"bonus":0.1},{"rt":2569.399999999907,"stimulus":"bees-with-color/bee-B2DF.svg","response":1,"trial_type":"image-button-response","trial_index":27,"time_elapsed":369473,"internal_node_id":"0.0-4.0-0.8","subject_id":"613a3f32a52f4d656d45bff7","study_id":"60edd13110225f80f9f3709b","session_id":"6196bf60f631c763f11dcebd","condition":"contingent","relevant_dimensions":["antennae","wings"],"bee_group":{"antennae":"A","wings":"2","pattern":"X","legs":"X"},"action":"avoid","summary":"bad-avoid","bonus":0.1},{"rt":1032.8999999999069,"stimulus":"\n                    <p><b>Action: <em>avoid</em></b></p>\n                    <p>This is the bee that you just saw.</p>\n                    <img src=\"bees-with-color/bee-B2DF.svg\" width=\"200\">\n                    <p><br>Your bonus pay is unchanged, and remains at $0.52.</p>\n            ","response":0,"trial_type":"html-button-response","trial_index":28,"time_elapsed":370508,"internal_node_id":"0.0-4.0-1.8","subject_id":"613a3f32a52f4d656d45bff7","study_id":"60edd13110225f80f9f3709b","session_id":"6196bf60f631c763f11dcebd","condition":"contingent","relevant_dimensions":["antennae","wings"],"bee_group":{"antennae":"A","wings":"2","pattern":"X","legs":"X"},"bonus":0.1},{"rt":5019.399999999907,"stimulus":"bees-with-color/bee-A1SM.svg","response":1,"trial_type":"image-button-response","trial_index":29,"time_elapsed":375529,"internal_node_id":"0.0-4.0-0.9","subject_id":"613a3f32a52f4d656d45bff7","study_id":"60edd13110225f80f9f3709b","session_id":"6196bf60f631c763f11dcebd","condition":"contingent","relevant_dimensions":["antennae","wings"],"bee_group":{"antennae":"A","wings":"2","pattern":"X","legs":"X"},"action":"avoid","summary":"bad-avoid","bonus":0.1},{"rt":1113.3999999999069,"stimulus":"\n                    <p><b>Action: <em>avoid</em></b></p>\n                    <p>This is the bee that you just saw.</p>\n                    <img src=\"bees-with-color/bee-A1SM.svg\" width=\"200\">\n                    <p><br>Your bonus pay is unchanged, and remains at $0.52.</p>\n            ","response":0,"trial_type":"html-button-response","trial_index":30,"time_elapsed":376643,"internal_node_id":"0.0-4.0-1.9","subject_id":"613a3f32a52f4d656d45bff7","study_id":"60edd13110225f80f9f3709b","session_id":"6196bf60f631c763f11dcebd","condition":"contingent","relevant_dimensions":["antennae","wings"],"bee_group":{"antennae":"A","wings":"2","pattern":"X","legs":"X"},"bonus":0.1},{"rt":2358.399999999907,"stimulus":"bees-with-color/bee-A2SM.svg","response":0,"trial_type":"image-button-response","trial_index":31,"time_elapsed":379004,"internal_node_id":"0.0-4.0-0.10","subject_id":"613a3f32a52f4d656d45bff7","study_id":"60edd13110225f80f9f3709b","session_id":"6196bf60f631c763f11dcebd","condition":"contingent","relevant_dimensions":["antennae","wings"],"bee_group":{"antennae":"A","wings":"2","pattern":"X","legs":"X"},"action":"harvest","summary":"bad-harvest","bonus":0.1},{"rt":2268.2000000001863,"stimulus":"\n                    <p><b>Action: <em>harvest</em></b></p>\n                    <p>This is the bee that you just saw.</p>\n                    <img src=\"bees-with-color/bee-A2SM.svg\" width=\"200\">\n                    <p><span class=\"redText\">Bad choice, the bee was angry.</span><br><b>You have been stung!</b><br>Your pay has been decreased by $0.10. Your bonus pay is now $0.42.</p>\n            ","response":0,"trial_type":"html-button-response","trial_index":32,"time_elapsed":381273,"internal_node_id":"0.0-4.0-1.10","subject_id":"613a3f32a52f4d656d45bff7","study_id":"60edd13110225f80f9f3709b","session_id":"6196bf60f631c763f11dcebd","condition":"contingent","relevant_dimensions":["antennae","wings"],"bee_group":{"antennae":"A","wings":"2","pattern":"X","legs":"X"},"bonus":0.1},{"rt":1133.2999999998137,"stimulus":"bees-with-color/bee-B1SM.svg","response":0,"trial_type":"image-button-response","trial_index":33,"time_elapsed":382408,"internal_node_id":"0.0-4.0-0.11","subject_id":"613a3f32a52f4d656d45bff7","study_id":"60edd13110225f80f9f3709b","session_id":"6196bf60f631c763f11dcebd","condition":"contingent","relevant_dimensions":["antennae","wings"],"bee_group":{"antennae":"A","wings":"2","pattern":"X","legs":"X"},"action":"harvest","summary":"good-harvest","bonus":0.1},{"rt":1223.7000000001863,"stimulus":"\n                    <p><b>Action: <em>harvest</em></b></p>\n                    <p>This is the bee that you just saw.</p>\n                    <img src=\"bees-with-color/bee-B1SM.svg\" width=\"200\">\n                    <p><span class=\"greenText\"><b>Successful harvest!</b></span><br>Your pay has increased by $0.02. Your bonus pay is now $0.44.</p>\n            ","response":0,"trial_type":"html-button-response","trial_index":34,"time_elapsed":383633,"internal_node_id":"0.0-4.0-1.11","subject_id":"613a3f32a52f4d656d45bff7","study_id":"60edd13110225f80f9f3709b","session_id":"6196bf60f631c763f11dcebd","condition":"contingent","relevant_dimensions":["antennae","wings"],"bee_group":{"antennae":"A","wings":"2","pattern":"X","legs":"X"},"bonus":0.1},{"rt":2599.7999999998137,"stimulus":"bees-with-color/bee-A1SF.svg","response":0,"trial_type":"image-button-response","trial_index":35,"time_elapsed":386234,"internal_node_id":"0.0-4.0-0.12","subject_id":"613a3f32a52f4d656d45bff7","study_id":"60edd13110225f80f9f3709b","session_id":"6196bf60f631c763f11dcebd","condition":"contingent","relevant_dimensions":["antennae","wings"],"bee_group":{"antennae":"A","wings":"2","pattern":"X","legs":"X"},"action":"harvest","summary":"good-harvest","bonus":0.1},{"rt":1023.2000000001863,"stimulus":"\n                    <p><b>Action: <em>harvest</em></b></p>\n                    <p>This is the bee that you just saw.</p>\n                    <img src=\"bees-with-color/bee-A1SF.svg\" width=\"200\">\n                    <p><span class=\"greenText\"><b>Successful harvest!</b></span><br>Your pay has increased by $0.02. Your bonus pay is now $0.46.</p>\n            ","response":0,"trial_type":"html-button-response","trial_index":36,"time_elapsed":387258,"internal_node_id":"0.0-4.0-1.12","subject_id":"613a3f32a52f4d656d45bff7","study_id":"60edd13110225f80f9f3709b","session_id":"6196bf60f631c763f11dcebd","condition":"contingent","relevant_dimensions":["antennae","wings"],"bee_group":{"antennae":"A","wings":"2","pattern":"X","legs":"X"},"bonus":0.1},{"rt":3895.2000000001863,"stimulus":"bees-with-color/bee-B2DM.svg","response":1,"trial_type":"image-button-response","trial_index":37,"time_elapsed":391155,"internal_node_id":"0.0-4.0-0.13","subject_id":"613a3f32a52f4d656d45bff7","study_id":"60edd13110225f80f9f3709b","session_id":"6196bf60f631c763f11dcebd","condition":"contingent","relevant_dimensions":["antennae","wings"],"bee_group":{"antennae":"A","wings":"2","pattern":"X","legs":"X"},"action":"avoid","summary":"bad-avoid","bonus":0.1},{"rt":1183.7999999998137,"stimulus":"\n                    <p><b>Action: <em>avoid</em></b></p>\n                    <p>This is the bee that you just saw.</p>\n                    <img src=\"bees-with-color/bee-B2DM.svg\" width=\"200\">\n                    <p><br>Your bonus pay is unchanged, and remains at $0.46.</p>\n            ","response":0,"trial_type":"html-button-response","trial_index":38,"time_elapsed":392340,"internal_node_id":"0.0-4.0-1.13","subject_id":"613a3f32a52f4d656d45bff7","study_id":"60edd13110225f80f9f3709b","session_id":"6196bf60f631c763f11dcebd","condition":"contingent","relevant_dimensions":["antennae","wings"],"bee_group":{"antennae":"A","wings":"2","pattern":"X","legs":"X"},"bonus":0.1},{"rt":2700.3000000002794,"stimulus":"bees-with-color/bee-A1DF.svg","response":0,"trial_type":"image-button-response","trial_index":39,"time_elapsed":395042,"internal_node_id":"0.0-4.0-0.14","subject_id":"613a3f32a52f4d656d45bff7","study_id":"60edd13110225f80f9f3709b","session_id":"6196bf60f631c763f11dcebd","condition":"contingent","relevant_dimensions":["antennae","wings"],"bee_group":{"antennae":"A","wings":"2","pattern":"X","legs":"X"},"action":"harvest","summary":"good-harvest","bonus":0.1},{"rt":2047.5,"stimulus":"\n                    <p><b>Action: <em>harvest</em></b></p>\n                    <p>This is the bee that you just saw.</p>\n                    <img src=\"bees-with-color/bee-A1DF.svg\" width=\"200\">\n                    <p><span class=\"greenText\"><b>Successful harvest!</b></span><br>Your pay has increased by $0.02. Your bonus pay is now $0.48.</p>\n            ","response":0,"trial_type":"html-button-response","trial_index":40,"time_elapsed":397090,"internal_node_id":"0.0-4.0-1.14","subject_id":"613a3f32a52f4d656d45bff7","study_id":"60edd13110225f80f9f3709b","session_id":"6196bf60f631c763f11dcebd","condition":"contingent","relevant_dimensions":["antennae","wings"],"bee_group":{"antennae":"A","wings":"2","pattern":"X","legs":"X"},"bonus":0.1},{"rt":6917.899999999907,"stimulus":"bees-with-color/bee-A2DF.svg","response":1,"trial_type":"image-button-response","trial_index":41,"time_elapsed":404010,"internal_node_id":"0.0-4.0-0.15","subject_id":"613a3f32a52f4d656d45bff7","study_id":"60edd13110225f80f9f3709b","session_id":"6196bf60f631c763f11dcebd","condition":"contingent","relevant_dimensions":["antennae","wings"],"bee_group":{"antennae":"A","wings":"2","pattern":"X","legs":"X"},"action":"avoid","summary":"good-avoid","bonus":0.1},{"rt":772.3000000002794,"stimulus":"\n                    <p><b>Action: <em>avoid</em></b></p>\n                    <p>This is the bee that you just saw.</p>\n                    <img src=\"bees-with-color/bee-A2DF.svg\" width=\"200\">\n                    <p><br>Your bonus pay is unchanged, and remains at $0.48.</p>\n            ","response":0,"trial_type":"html-button-response","trial_index":42,"time_elapsed":404783,"internal_node_id":"0.0-4.0-1.15","subject_id":"613a3f32a52f4d656d45bff7","study_id":"60edd13110225f80f9f3709b","session_id":"6196bf60f631c763f11dcebd","condition":"contingent","relevant_dimensions":["antennae","wings"],"bee_group":{"antennae":"A","wings":"2","pattern":"X","legs":"X"},"bonus":0.1},{"rt":1765.8999999999069,"stimulus":"bees-with-color/bee-B2DF.svg","response":1,"trial_type":"image-button-response","trial_index":43,"time_elapsed":406550,"internal_node_id":"0.0-4.0-0.16","subject_id":"613a3f32a52f4d656d45bff7","study_id":"60edd13110225f80f9f3709b","session_id":"6196bf60f631c763f11dcebd","condition":"contingent","relevant_dimensions":["antennae","wings"],"bee_group":{"antennae":"A","wings":"2","pattern":"X","legs":"X"},"action":"avoid","summary":"bad-avoid","bonus":0.1},{"rt":882.5999999996275,"stimulus":"\n                    <p><b>Action: <em>avoid</em></b></p>\n                    <p>This is the bee that you just saw.</p>\n                    <img src=\"bees-with-color/bee-B2DF.svg\" width=\"200\">\n                    <p><br>Your bonus pay is unchanged, and remains at $0.48.</p>\n            ","response":0,"trial_type":"html-button-response","trial_index":44,"time_elapsed":407434,"internal_node_id":"0.0-4.0-1.16","subject_id":"613a3f32a52f4d656d45bff7","study_id":"60edd13110225f80f9f3709b","session_id":"6196bf60f631c763f11dcebd","condition":"contingent","relevant_dimensions":["antennae","wings"],"bee_group":{"antennae":"A","wings":"2","pattern":"X","legs":"X"},"bonus":0.1},{"rt":3202.2999999998137,"stimulus":"bees-with-color/bee-A1SF.svg","response":0,"trial_type":"image-button-response","trial_index":45,"time_elapsed":410638,"internal_node_id":"0.0-4.0-0.17","subject_id":"613a3f32a52f4d656d45bff7","study_id":"60edd13110225f80f9f3709b","session_id":"6196bf60f631c763f11dcebd","condition":"contingent","relevant_dimensions":["antennae","wings"],"bee_group":{"antennae":"A","wings":"2","pattern":"X","legs":"X"},"action":"harvest","summary":"good-harvest","bonus":0.1},{"rt":1906.5,"stimulus":"\n                    <p><b>Action: <em>harvest</em></b></p>\n                    <p>This is the bee that you just saw.</p>\n                    <img src=\"bees-with-color/bee-A1SF.svg\" width=\"200\">\n                    <p><span class=\"greenText\"><b>Successful harvest!</b></span><br>Your pay has increased by $0.02. Your bonus pay is now $0.50.</p>\n            ","response":0,"trial_type":"html-button-response","trial_index":46,"time_elapsed":412545,"internal_node_id":"0.0-4.0-1.17","subject_id":"613a3f32a52f4d656d45bff7","study_id":"60edd13110225f80f9f3709b","session_id":"6196bf60f631c763f11dcebd","condition":"contingent","relevant_dimensions":["antennae","wings"],"bee_group":{"antennae":"A","wings":"2","pattern":"X","legs":"X"},"bonus":0.1},{"rt":3815.399999999907,"stimulus":"bees-with-color/bee-B1DM.svg","response":1,"trial_type":"image-button-response","trial_index":47,"time_elapsed":416362,"internal_node_id":"0.0-4.0-0.18","subject_id":"613a3f32a52f4d656d45bff7","study_id":"60edd13110225f80f9f3709b","session_id":"6196bf60f631c763f11dcebd","condition":"contingent","relevant_dimensions":["antennae","wings"],"bee_group":{"antennae":"A","wings":"2","pattern":"X","legs":"X"},"action":"avoid","summary":"bad-avoid","bonus":0.1},{"rt":762.2999999998137,"stimulus":"\n                    <p><b>Action: <em>avoid</em></b></p>\n                    <p>This is the bee that you just saw.</p>\n                    <img src=\"bees-with-color/bee-B1DM.svg\" width=\"200\">\n                    <p><br>Your bonus pay is unchanged, and remains at $0.50.</p>\n            ","response":0,"trial_type":"html-button-response","trial_index":48,"time_elapsed":417126,"internal_node_id":"0.0-4.0-1.18","subject_id":"613a3f32a52f4d656d45bff7","study_id":"60edd13110225f80f9f3709b","session_id":"6196bf60f631c763f11dcebd","condition":"contingent","relevant_dimensions":["antennae","wings"],"bee_group":{"antennae":"A","wings":"2","pattern":"X","legs":"X"},"bonus":0.1},{"rt":2549.2000000001863,"stimulus":"bees-with-color/bee-B2DM.svg","response":1,"trial_type":"image-button-response","trial_index":49,"time_elapsed":419677,"internal_node_id":"0.0-4.0-0.19","subject_id":"613a3f32a52f4d656d45bff7","study_id":"60edd13110225f80f9f3709b","session_id":"6196bf60f631c763f11dcebd","condition":"contingent","relevant_dimensions":["antennae","wings"],"bee_group":{"antennae":"A","wings":"2","pattern":"X","legs":"X"},"action":"avoid","summary":"bad-avoid","bonus":0.1},{"rt":1134,"stimulus":"\n                    <p><b>Action: <em>avoid</em></b></p>\n                    <p>This is the bee that you just saw.</p>\n                    <img src=\"bees-with-color/bee-B2DM.svg\" width=\"200\">\n                    <p><br>Your bonus pay is unchanged, and remains at $0.50.</p>\n            ","response":0,"trial_type":"html-button-response","trial_index":50,"time_elapsed":420812,"internal_node_id":"0.0-4.0-1.19","subject_id":"613a3f32a52f4d656d45bff7","study_id":"60edd13110225f80f9f3709b","session_id":"6196bf60f631c763f11dcebd","condition":"contingent","relevant_dimensions":["antennae","wings"],"bee_group":{"antennae":"A","wings":"2","pattern":"X","legs":"X"},"bonus":0.1},{"rt":2900.399999999907,"stimulus":"bees-with-color/bee-A2SM.svg","response":0,"trial_type":"image-button-response","trial_index":51,"time_elapsed":423713,"internal_node_id":"0.0-4.0-0.20","subject_id":"613a3f32a52f4d656d45bff7","study_id":"60edd13110225f80f9f3709b","session_id":"6196bf60f631c763f11dcebd","condition":"contingent","relevant_dimensions":["antennae","wings"],"bee_group":{"antennae":"A","wings":"2","pattern":"X","legs":"X"},"action":"harvest","summary":"bad-harvest","bonus":0.1},{"rt":2188.3000000002794,"stimulus":"\n                    <p><b>Action: <em>harvest</em></b></p>\n                    <p>This is the bee that you just saw.</p>\n                    <img src=\"bees-with-color/bee-A2SM.svg\" width=\"200\">\n                    <p><span class=\"redText\">Bad choice, the bee was angry.</span><br><b>You have been stung!</b><br>Your pay has been decreased by $0.10. Your bonus pay is now $0.40.</p>\n            ","response":0,"trial_type":"html-button-response","trial_index":52,"time_elapsed":425903,"internal_node_id":"0.0-4.0-1.20","subject_id":"613a3f32a52f4d656d45bff7","study_id":"60edd13110225f80f9f3709b","session_id":"6196bf60f631c763f11dcebd","condition":"contingent","relevant_dimensions":["antennae","wings"],"bee_group":{"antennae":"A","wings":"2","pattern":"X","legs":"X"},"bonus":0.1},{"rt":1002.8999999999069,"stimulus":"bees-with-color/bee-A2DF.svg","response":0,"trial_type":"image-button-response","trial_index":53,"time_elapsed":426907,"internal_node_id":"0.0-4.0-0.21","subject_id":"613a3f32a52f4d656d45bff7","study_id":"60edd13110225f80f9f3709b","session_id":"6196bf60f631c763f11dcebd","condition":"contingent","relevant_dimensions":["antennae","wings"],"bee_group":{"antennae":"A","wings":"2","pattern":"X","legs":"X"},"action":"harvest","summary":"bad-harvest","bonus":0.1},{"rt":1334.5,"stimulus":"\n                    <p><b>Action: <em>harvest</em></b></p>\n                    <p>This is the bee that you just saw.</p>\n                    <img src=\"bees-with-color/bee-A2DF.svg\" width=\"200\">\n                    <p><span class=\"redText\">Bad choice, the bee was angry.</span><br><b>You have been stung!</b><br>Your pay has been decreased by $0.10. Your bonus pay is now $0.30.</p>\n            ","response":0,"trial_type":"html-button-response","trial_index":54,"time_elapsed":428243,"internal_node_id":"0.0-4.0-1.21","subject_id":"613a3f32a52f4d656d45bff7","study_id":"60edd13110225f80f9f3709b","session_id":"6196bf60f631c763f11dcebd","condition":"contingent","relevant_dimensions":["antennae","wings"],"bee_group":{"antennae":"A","wings":"2","pattern":"X","legs":"X"},"bonus":0.1},{"rt":1133.3999999999069,"stimulus":"bees-with-color/bee-B2SF.svg","response":0,"trial_type":"image-button-response","trial_index":55,"time_elapsed":429378,"internal_node_id":"0.0-4.0-0.22","subject_id":"613a3f32a52f4d656d45bff7","study_id":"60edd13110225f80f9f3709b","session_id":"6196bf60f631c763f11dcebd","condition":"contingent","relevant_dimensions":["antennae","wings"],"bee_group":{"antennae":"A","wings":"2","pattern":"X","legs":"X"},"action":"harvest","summary":"good-harvest","bonus":0.1},{"rt":822,"stimulus":"\n                    <p><b>Action: <em>harvest</em></b></p>\n                    <p>This is the bee that you just saw.</p>\n                    <img src=\"bees-with-color/bee-B2SF.svg\" width=\"200\">\n                    <p><span class=\"greenText\"><b>Successful harvest!</b></span><br>Your pay has increased by $0.02. Your bonus pay is now $0.32.</p>\n            ","response":0,"trial_type":"html-button-response","trial_index":56,"time_elapsed":430201,"internal_node_id":"0.0-4.0-1.22","subject_id":"613a3f32a52f4d656d45bff7","study_id":"60edd13110225f80f9f3709b","session_id":"6196bf60f631c763f11dcebd","condition":"contingent","relevant_dimensions":["antennae","wings"],"bee_group":{"antennae":"A","wings":"2","pattern":"X","legs":"X"},"bonus":0.1},{"rt":962.3999999999069,"stimulus":"bees-with-color/bee-B1SF.svg","response":0,"trial_type":"image-button-response","trial_index":57,"time_elapsed":431165,"internal_node_id":"0.0-4.0-0.23","subject_id":"613a3f32a52f4d656d45bff7","study_id":"60edd13110225f80f9f3709b","session_id":"6196bf60f631c763f11dcebd","condition":"contingent","relevant_dimensions":["antennae","wings"],"bee_group":{"antennae":"A","wings":"2","pattern":"X","legs":"X"},"action":"harvest","summary":"good-harvest","bonus":0.1},{"rt":1234.4000000003725,"stimulus":"\n                    <p><b>Action: <em>harvest</em></b></p>\n                    <p>This is the bee that you just saw.</p>\n                    <img src=\"bees-with-color/bee-B1SF.svg\" width=\"200\">\n                    <p><span class=\"greenText\"><b>Successful harvest!</b></span><br>Your pay has increased by $0.02. Your bonus pay is now $0.34.</p>\n            ","response":0,"trial_type":"html-button-response","trial_index":58,"time_elapsed":432401,"internal_node_id":"0.0-4.0-1.23","subject_id":"613a3f32a52f4d656d45bff7","study_id":"60edd13110225f80f9f3709b","session_id":"6196bf60f631c763f11dcebd","condition":"contingent","relevant_dimensions":["antennae","wings"],"bee_group":{"antennae":"A","wings":"2","pattern":"X","legs":"X"},"bonus":0.1},{"rt":1816.5,"stimulus":"bees-with-color/bee-B1DF.svg","response":1,"trial_type":"image-button-response","trial_index":59,"time_elapsed":434218,"internal_node_id":"0.0-4.0-0.24","subject_id":"613a3f32a52f4d656d45bff7","study_id":"60edd13110225f80f9f3709b","session_id":"6196bf60f631c763f11dcebd","condition":"contingent","relevant_dimensions":["antennae","wings"],"bee_group":{"antennae":"A","wings":"2","pattern":"X","legs":"X"},"action":"avoid","summary":"bad-avoid","bonus":0.1},{"rt":822.7000000001863,"stimulus":"\n                    <p><b>Action: <em>avoid</em></b></p>\n                    <p>This is the bee that you just saw.</p>\n                    <img src=\"bees-with-color/bee-B1DF.svg\" width=\"200\">\n                    <p><br>Your bonus pay is unchanged, and remains at $0.34.</p>\n            ","response":0,"trial_type":"html-button-response","trial_index":60,"time_elapsed":435042,"internal_node_id":"0.0-4.0-1.24","subject_id":"613a3f32a52f4d656d45bff7","study_id":"60edd13110225f80f9f3709b","session_id":"6196bf60f631c763f11dcebd","condition":"contingent","relevant_dimensions":["antennae","wings"],"bee_group":{"antennae":"A","wings":"2","pattern":"X","legs":"X"},"bonus":0.1},{"rt":3342.5,"stimulus":"bees-with-color/bee-B2SM.svg","response":0,"trial_type":"image-button-response","trial_index":61,"time_elapsed":438386,"internal_node_id":"0.0-4.0-0.25","subject_id":"613a3f32a52f4d656d45bff7","study_id":"60edd13110225f80f9f3709b","session_id":"6196bf60f631c763f11dcebd","condition":"contingent","relevant_dimensions":["antennae","wings"],"bee_group":{"antennae":"A","wings":"2","pattern":"X","legs":"X"},"action":"harvest","summary":"good-harvest","bonus":0.1},{"rt":912.6000000000931,"stimulus":"\n                    <p><b>Action: <em>harvest</em></b></p>\n                    <p>This is the bee that you just saw.</p>\n                    <img src=\"bees-with-color/bee-B2SM.svg\" width=\"200\">\n                    <p><span class=\"greenText\"><b>Successful harvest!</b></span><br>Your pay has increased by $0.02. Your bonus pay is now $0.36.</p>\n            ","response":0,"trial_type":"html-button-response","trial_index":62,"time_elapsed":439300,"internal_node_id":"0.0-4.0-1.25","subject_id":"613a3f32a52f4d656d45bff7","study_id":"60edd13110225f80f9f3709b","session_id":"6196bf60f631c763f11dcebd","condition":"contingent","relevant_dimensions":["antennae","wings"],"bee_group":{"antennae":"A","wings":"2","pattern":"X","legs":"X"},"bonus":0.1},{"rt":2539.2000000001863,"stimulus":"bees-with-color/bee-A1SM.svg","response":0,"trial_type":"image-button-response","trial_index":63,"time_elapsed":441841,"internal_node_id":"0.0-4.0-0.26","subject_id":"613a3f32a52f4d656d45bff7","study_id":"60edd13110225f80f9f3709b","session_id":"6196bf60f631c763f11dcebd","condition":"contingent","relevant_dimensions":["antennae","wings"],"bee_group":{"antennae":"A","wings":"2","pattern":"X","legs":"X"},"action":"harvest","summary":"good-harvest","bonus":0.1},{"rt":1063,"stimulus":"\n                    <p><b>Action: <em>harvest</em></b></p>\n                    <p>This is the bee that you just saw.</p>\n                    <img src=\"bees-with-color/bee-A1SM.svg\" width=\"200\">\n                    <p><span class=\"greenText\"><b>Successful harvest!</b></span><br>Your pay has increased by $0.02. Your bonus pay is now $0.38.</p>\n            ","response":0,"trial_type":"html-button-response","trial_index":64,"time_elapsed":442905,"internal_node_id":"0.0-4.0-1.26","subject_id":"613a3f32a52f4d656d45bff7","study_id":"60edd13110225f80f9f3709b","session_id":"6196bf60f631c763f11dcebd","condition":"contingent","relevant_dimensions":["antennae","wings"],"bee_group":{"antennae":"A","wings":"2","pattern":"X","legs":"X"},"bonus":0.1},{"rt":2238,"stimulus":"bees-with-color/bee-A2SF.svg","response":0,"trial_type":"image-button-response","trial_index":65,"time_elapsed":445145,"internal_node_id":"0.0-4.0-0.27","subject_id":"613a3f32a52f4d656d45bff7","study_id":"60edd13110225f80f9f3709b","session_id":"6196bf60f631c763f11dcebd","condition":"contingent","relevant_dimensions":["antennae","wings"],"bee_group":{"antennae":"A","wings":"2","pattern":"X","legs":"X"},"action":"harvest","summary":"bad-harvest","bonus":0.1},{"rt":902.0999999996275,"stimulus":"\n                    <p><b>Action: <em>harvest</em></b></p>\n                    <p>This is the bee that you just saw.</p>\n                    <img src=\"bees-with-color/bee-A2SF.svg\" width=\"200\">\n                    <p><span class=\"redText\">Bad choice, the bee was angry.</span><br><b>You have been stung!</b><br>Your pay has been decreased by $0.10. Your bonus pay is now $0.28.</p>\n            ","response":0,"trial_type":"html-button-response","trial_index":66,"time_elapsed":446048,"internal_node_id":"0.0-4.0-1.27","subject_id":"613a3f32a52f4d656d45bff7","study_id":"60edd13110225f80f9f3709b","session_id":"6196bf60f631c763f11dcebd","condition":"contingent","relevant_dimensions":["antennae","wings"],"bee_group":{"antennae":"A","wings":"2","pattern":"X","legs":"X"},"bonus":0.1},{"rt":1043.1000000000931,"stimulus":"bees-with-color/bee-A1DM.svg","response":0,"trial_type":"image-button-response","trial_index":67,"time_elapsed":447093,"internal_node_id":"0.0-4.0-0.28","subject_id":"613a3f32a52f4d656d45bff7","study_id":"60edd13110225f80f9f3709b","session_id":"6196bf60f631c763f11dcebd","condition":"contingent","relevant_dimensions":["antennae","wings"],"bee_group":{"antennae":"A","wings":"2","pattern":"X","legs":"X"},"action":"harvest","summary":"good-harvest","bonus":0.1},{"rt":711.0999999996275,"stimulus":"\n                    <p><b>Action: <em>harvest</em></b></p>\n                    <p>This is the bee that you just saw.</p>\n                    <img src=\"bees-with-color/bee-A1DM.svg\" width=\"200\">\n                    <p><span class=\"greenText\"><b>Successful harvest!</b></span><br>Your pay has increased by $0.02. Your bonus pay is now $0.30.</p>\n            ","response":0,"trial_type":"html-button-response","trial_index":68,"time_elapsed":447806,"internal_node_id":"0.0-4.0-1.28","subject_id":"613a3f32a52f4d656d45bff7","study_id":"60edd13110225f80f9f3709b","session_id":"6196bf60f631c763f11dcebd","condition":"contingent","relevant_dimensions":["antennae","wings"],"bee_group":{"antennae":"A","wings":"2","pattern":"X","legs":"X"},"bonus":0.1},{"rt":791.8999999999069,"stimulus":"bees-with-color/bee-A2DM.svg","response":0,"trial_type":"image-button-response","trial_index":69,"time_elapsed":448599,"internal_node_id":"0.0-4.0-0.29","subject_id":"613a3f32a52f4d656d45bff7","study_id":"60edd13110225f80f9f3709b","session_id":"6196bf60f631c763f11dcebd","condition":"contingent","relevant_dimensions":["antennae","wings"],"bee_group":{"antennae":"A","wings":"2","pattern":"X","legs":"X"},"action":"harvest","summary":"bad-harvest","bonus":0.1},{"rt":1043.3999999999069,"stimulus":"\n                    <p><b>Action: <em>harvest</em></b></p>\n                    <p>This is the bee that you just saw.</p>\n                    <img src=\"bees-with-color/bee-A2DM.svg\" width=\"200\">\n                    <p><span class=\"redText\">Bad choice, the bee was angry.</span><br><b>You have been stung!</b><br>Your pay has been decreased by $0.10. Your bonus pay is now $0.20.</p>\n            ","response":0,"trial_type":"html-button-response","trial_index":70,"time_elapsed":449644,"internal_node_id":"0.0-4.0-1.29","subject_id":"613a3f32a52f4d656d45bff7","study_id":"60edd13110225f80f9f3709b","session_id":"6196bf60f631c763f11dcebd","condition":"contingent","relevant_dimensions":["antennae","wings"],"bee_group":{"antennae":"A","wings":"2","pattern":"X","legs":"X"},"bonus":0.1},{"rt":912.1999999997206,"stimulus":"bees-with-color/bee-B1SM.svg","response":0,"trial_type":"image-button-response","trial_index":71,"time_elapsed":450557,"internal_node_id":"0.0-4.0-0.30","subject_id":"613a3f32a52f4d656d45bff7","study_id":"60edd13110225f80f9f3709b","session_id":"6196bf60f631c763f11dcebd","condition":"contingent","relevant_dimensions":["antennae","wings"],"bee_group":{"antennae":"A","wings":"2","pattern":"X","legs":"X"},"action":"harvest","summary":"good-harvest","bonus":0.1},{"rt":1394.3000000002794,"stimulus":"\n                    <p><b>Action: <em>harvest</em></b></p>\n                    <p>This is the bee that you just saw.</p>\n                    <img src=\"bees-with-color/bee-B1SM.svg\" width=\"200\">\n                    <p><span class=\"greenText\"><b>Successful harvest!</b></span><br>Your pay has increased by $0.02. Your bonus pay is now $0.22.</p>\n            ","response":0,"trial_type":"html-button-response","trial_index":72,"time_elapsed":451953,"internal_node_id":"0.0-4.0-1.30","subject_id":"613a3f32a52f4d656d45bff7","study_id":"60edd13110225f80f9f3709b","session_id":"6196bf60f631c763f11dcebd","condition":"contingent","relevant_dimensions":["antennae","wings"],"bee_group":{"antennae":"A","wings":"2","pattern":"X","legs":"X"},"bonus":0.1},{"rt":1324.1000000000931,"stimulus":"bees-with-color/bee-A1DF.svg","response":1,"trial_type":"image-button-response","trial_index":73,"time_elapsed":453278,"internal_node_id":"0.0-4.0-0.31","subject_id":"613a3f32a52f4d656d45bff7","study_id":"60edd13110225f80f9f3709b","session_id":"6196bf60f631c763f11dcebd","condition":"contingent","relevant_dimensions":["antennae","wings"],"bee_group":{"antennae":"A","wings":"2","pattern":"X","legs":"X"},"action":"avoid","summary":"bad-avoid","bonus":0.1},{"rt":1816.6999999997206,"stimulus":"\n                    <p><b>Action: <em>avoid</em></b></p>\n                    <p>This is the bee that you just saw.</p>\n                    <img src=\"bees-with-color/bee-A1DF.svg\" width=\"200\">\n                    <p><br>Your bonus pay is unchanged, and remains at $0.22.</p>\n            ","response":0,"trial_type":"html-button-response","trial_index":74,"time_elapsed":455096,"internal_node_id":"0.0-4.0-1.31","subject_id":"613a3f32a52f4d656d45bff7","study_id":"60edd13110225f80f9f3709b","session_id":"6196bf60f631c763f11dcebd","condition":"contingent","relevant_dimensions":["antennae","wings"],"bee_group":{"antennae":"A","wings":"2","pattern":"X","legs":"X"},"bonus":0.1},{"rt":1585.5,"stimulus":"bees-with-color/bee-B2SM.svg","response":0,"trial_type":"image-button-response","trial_index":75,"time_elapsed":456683,"internal_node_id":"0.0-4.0-0.32","subject_id":"613a3f32a52f4d656d45bff7","study_id":"60edd13110225f80f9f3709b","session_id":"6196bf60f631c763f11dcebd","condition":"contingent","relevant_dimensions":["antennae","wings"],"bee_group":{"antennae":"A","wings":"2","pattern":"X","legs":"X"},"action":"harvest","summary":"good-harvest","bonus":0.1},{"rt":1013.1000000000931,"stimulus":"\n                    <p><b>Action: <em>harvest</em></b></p>\n                    <p>This is the bee that you just saw.</p>\n                    <img src=\"bees-with-color/bee-B2SM.svg\" width=\"200\">\n                    <p><span class=\"greenText\"><b>Successful harvest!</b></span><br>Your pay has increased by $0.02. Your bonus pay is now $0.24.</p>\n            ","response":0,"trial_type":"html-button-response","trial_index":76,"time_elapsed":457697,"internal_node_id":"0.0-4.0-1.32","subject_id":"613a3f32a52f4d656d45bff7","study_id":"60edd13110225f80f9f3709b","session_id":"6196bf60f631c763f11dcebd","condition":"contingent","relevant_dimensions":["antennae","wings"],"bee_group":{"antennae":"A","wings":"2","pattern":"X","legs":"X"},"bonus":0.1},{"rt":1103.2999999998137,"stimulus":"bees-with-color/bee-B1SM.svg","response":0,"trial_type":"image-button-response","trial_index":77,"time_elapsed":458802,"internal_node_id":"0.0-4.0-0.33","subject_id":"613a3f32a52f4d656d45bff7","study_id":"60edd13110225f80f9f3709b","session_id":"6196bf60f631c763f11dcebd","condition":"contingent","relevant_dimensions":["antennae","wings"],"bee_group":{"antennae":"A","wings":"2","pattern":"X","legs":"X"},"action":"harvest","summary":"good-harvest","bonus":0.1},{"rt":1224.2999999998137,"stimulus":"\n                    <p><b>Action: <em>harvest</em></b></p>\n                    <p>This is the bee that you just saw.</p>\n                    <img src=\"bees-with-color/bee-B1SM.svg\" width=\"200\">\n                    <p><span class=\"greenText\"><b>Successful harvest!</b></span><br>Your pay has increased by $0.02. Your bonus pay is now $0.26.</p>\n            ","response":0,"trial_type":"html-button-response","trial_index":78,"time_elapsed":460027,"internal_node_id":"0.0-4.0-1.33","subject_id":"613a3f32a52f4d656d45bff7","study_id":"60edd13110225f80f9f3709b","session_id":"6196bf60f631c763f11dcebd","condition":"contingent","relevant_dimensions":["antennae","wings"],"bee_group":{"antennae":"A","wings":"2","pattern":"X","legs":"X"},"bonus":0.1},{"rt":1163.8999999999069,"stimulus":"bees-with-color/bee-A1DM.svg","response":1,"trial_type":"image-button-response","trial_index":79,"time_elapsed":461192,"internal_node_id":"0.0-4.0-0.34","subject_id":"613a3f32a52f4d656d45bff7","study_id":"60edd13110225f80f9f3709b","session_id":"6196bf60f631c763f11dcebd","condition":"contingent","relevant_dimensions":["antennae","wings"],"bee_group":{"antennae":"A","wings":"2","pattern":"X","legs":"X"},"action":"avoid","summary":"bad-avoid","bonus":0.1},{"rt":1022.5,"stimulus":"\n                    <p><b>Action: <em>avoid</em></b></p>\n                    <p>This is the bee that you just saw.</p>\n                    <img src=\"bees-with-color/bee-A1DM.svg\" width=\"200\">\n                    <p><br>Your bonus pay is unchanged, and remains at $0.26.</p>\n            ","response":0,"trial_type":"html-button-response","trial_index":80,"time_elapsed":462216,"internal_node_id":"0.0-4.0-1.34","subject_id":"613a3f32a52f4d656d45bff7","study_id":"60edd13110225f80f9f3709b","session_id":"6196bf60f631c763f11dcebd","condition":"contingent","relevant_dimensions":["antennae","wings"],"bee_group":{"antennae":"A","wings":"2","pattern":"X","legs":"X"},"bonus":0.1},{"rt":862.8999999999069,"stimulus":"bees-with-color/bee-A1SF.svg","response":1,"trial_type":"image-button-response","trial_index":81,"time_elapsed":463080,"internal_node_id":"0.0-4.0-0.35","subject_id":"613a3f32a52f4d656d45bff7","study_id":"60edd13110225f80f9f3709b","session_id":"6196bf60f631c763f11dcebd","condition":"contingent","relevant_dimensions":["antennae","wings"],"bee_group":{"antennae":"A","wings":"2","pattern":"X","legs":"X"},"action":"avoid","summary":"bad-avoid","bonus":0.1},{"rt":1344.3999999999069,"stimulus":"\n                    <p><b>Action: <em>avoid</em></b></p>\n                    <p>This is the bee that you just saw.</p>\n                    <img src=\"bees-with-color/bee-A1SF.svg\" width=\"200\">\n                    <p><br>Your bonus pay is unchanged, and remains at $0.26.</p>\n            ","response":0,"trial_type":"html-button-response","trial_index":82,"time_elapsed":464425,"internal_node_id":"0.0-4.0-1.35","subject_id":"613a3f32a52f4d656d45bff7","study_id":"60edd13110225f80f9f3709b","session_id":"6196bf60f631c763f11dcebd","condition":"contingent","relevant_dimensions":["antennae","wings"],"bee_group":{"antennae":"A","wings":"2","pattern":"X","legs":"X"},"bonus":0.1},{"rt":2499.2999999998137,"stimulus":"bees-with-color/bee-A2SM.svg","response":0,"trial_type":"image-button-response","trial_index":83,"time_elapsed":466926,"internal_node_id":"0.0-4.0-0.36","subject_id":"613a3f32a52f4d656d45bff7","study_id":"60edd13110225f80f9f3709b","session_id":"6196bf60f631c763f11dcebd","condition":"contingent","relevant_dimensions":["antennae","wings"],"bee_group":{"antennae":"A","wings":"2","pattern":"X","legs":"X"},"action":"harvest","summary":"bad-harvest","bonus":0.1},{"rt":1886.6999999997206,"stimulus":"\n                    <p><b>Action: <em>harvest</em></b></p>\n                    <p>This is the bee that you just saw.</p>\n                    <img src=\"bees-with-color/bee-A2SM.svg\" width=\"200\">\n                    <p><span class=\"redText\">Bad choice, the bee was angry.</span><br><b>You have been stung!</b><br>Your pay has been decreased by $0.10. Your bonus pay is now $0.16.</p>\n            ","response":0,"trial_type":"html-button-response","trial_index":84,"time_elapsed":468814,"internal_node_id":"0.0-4.0-1.36","subject_id":"613a3f32a52f4d656d45bff7","study_id":"60edd13110225f80f9f3709b","session_id":"6196bf60f631c763f11dcebd","condition":"contingent","relevant_dimensions":["antennae","wings"],"bee_group":{"antennae":"A","wings":"2","pattern":"X","legs":"X"},"bonus":0.1},{"rt":1153.5999999996275,"stimulus":"bees-with-color/bee-A2SF.svg","response":0,"trial_type":"image-button-response","trial_index":85,"time_elapsed":469969,"internal_node_id":"0.0-4.0-0.37","subject_id":"613a3f32a52f4d656d45bff7","study_id":"60edd13110225f80f9f3709b","session_id":"6196bf60f631c763f11dcebd","condition":"contingent","relevant_dimensions":["antennae","wings"],"bee_group":{"antennae":"A","wings":"2","pattern":"X","legs":"X"},"action":"harvest","summary":"bad-harvest","bonus":0.1},{"rt":2097.5,"stimulus":"\n                    <p><b>Action: <em>harvest</em></b></p>\n                    <p>This is the bee that you just saw.</p>\n                    <img src=\"bees-with-color/bee-A2SF.svg\" width=\"200\">\n                    <p><span class=\"redText\">Bad choice, the bee was angry.</span><br><b>You have been stung!</b><br>Your pay has been decreased by $0.10. Your bonus pay is now $0.06.</p>\n            ","response":0,"trial_type":"html-button-response","trial_index":86,"time_elapsed":472067,"internal_node_id":"0.0-4.0-1.37","subject_id":"613a3f32a52f4d656d45bff7","study_id":"60edd13110225f80f9f3709b","session_id":"6196bf60f631c763f11dcebd","condition":"contingent","relevant_dimensions":["antennae","wings"],"bee_group":{"antennae":"A","wings":"2","pattern":"X","legs":"X"},"bonus":0.1},{"rt":4798.600000000093,"stimulus":"bees-with-color/bee-B2DM.svg","response":0,"trial_type":"image-button-response","trial_index":87,"time_elapsed":476867,"internal_node_id":"0.0-4.0-0.38","subject_id":"613a3f32a52f4d656d45bff7","study_id":"60edd13110225f80f9f3709b","session_id":"6196bf60f631c763f11dcebd","condition":"contingent","relevant_dimensions":["antennae","wings"],"bee_group":{"antennae":"A","wings":"2","pattern":"X","legs":"X"},"action":"harvest","summary":"good-harvest","bonus":0.1},{"rt":1214,"stimulus":"\n                    <p><b>Action: <em>harvest</em></b></p>\n                    <p>This is the bee that you just saw.</p>\n                    <img src=\"bees-with-color/bee-B2DM.svg\" width=\"200\">\n                    <p><span class=\"greenText\"><b>Successful harvest!</b></span><br>Your pay has increased by $0.02. Your bonus pay is now $0.08.</p>\n            ","response":0,"trial_type":"html-button-response","trial_index":88,"time_elapsed":478082,"internal_node_id":"0.0-4.0-1.38","subject_id":"613a3f32a52f4d656d45bff7","study_id":"60edd13110225f80f9f3709b","session_id":"6196bf60f631c763f11dcebd","condition":"contingent","relevant_dimensions":["antennae","wings"],"bee_group":{"antennae":"A","wings":"2","pattern":"X","legs":"X"},"bonus":0.1},{"rt":1494.8999999999069,"stimulus":"bees-with-color/bee-B2SF.svg","response":1,"trial_type":"image-button-response","trial_index":89,"time_elapsed":479579,"internal_node_id":"0.0-4.0-0.39","subject_id":"613a3f32a52f4d656d45bff7","study_id":"60edd13110225f80f9f3709b","session_id":"6196bf60f631c763f11dcebd","condition":"contingent","relevant_dimensions":["antennae","wings"],"bee_group":{"antennae":"A","wings":"2","pattern":"X","legs":"X"},"action":"avoid","summary":"bad-avoid","bonus":0.1},{"rt":1194.1000000000931,"stimulus":"\n                    <p><b>Action: <em>avoid</em></b></p>\n                    <p>This is the bee that you just saw.</p>\n                    <img src=\"bees-with-color/bee-B2SF.svg\" width=\"200\">\n                    <p><br>Your bonus pay is unchanged, and remains at $0.08.</p>\n            ","response":0,"trial_type":"html-button-response","trial_index":90,"time_elapsed":480774,"internal_node_id":"0.0-4.0-1.39","subject_id":"613a3f32a52f4d656d45bff7","study_id":"60edd13110225f80f9f3709b","session_id":"6196bf60f631c763f11dcebd","condition":"contingent","relevant_dimensions":["antennae","wings"],"bee_group":{"antennae":"A","wings":"2","pattern":"X","legs":"X"},"bonus":0.1},{"rt":982.8999999999069,"stimulus":"bees-with-color/bee-A1DF.svg","response":1,"trial_type":"image-button-response","trial_index":91,"time_elapsed":481758,"internal_node_id":"0.0-4.0-0.40","subject_id":"613a3f32a52f4d656d45bff7","study_id":"60edd13110225f80f9f3709b","session_id":"6196bf60f631c763f11dcebd","condition":"contingent","relevant_dimensions":["antennae","wings"],"bee_group":{"antennae":"A","wings":"2","pattern":"X","legs":"X"},"action":"avoid","summary":"bad-avoid","bonus":0.1},{"rt":1163.3999999999069,"stimulus":"\n                    <p><b>Action: <em>avoid</em></b></p>\n                    <p>This is the bee that you just saw.</p>\n                    <img src=\"bees-with-color/bee-A1DF.svg\" width=\"200\">\n                    <p><br>Your bonus pay is unchanged, and remains at $0.08.</p>\n            ","response":0,"trial_type":"html-button-response","trial_index":92,"time_elapsed":482923,"internal_node_id":"0.0-4.0-1.40","subject_id":"613a3f32a52f4d656d45bff7","study_id":"60edd13110225f80f9f3709b","session_id":"6196bf60f631c763f11dcebd","condition":"contingent","relevant_dimensions":["antennae","wings"],"bee_group":{"antennae":"A","wings":"2","pattern":"X","legs":"X"},"bonus":0.1},{"rt":2399.1999999997206,"stimulus":"bees-with-color/bee-B1DF.svg","response":1,"trial_type":"image-button-response","trial_index":93,"time_elapsed":485323,"internal_node_id":"0.0-4.0-0.41","subject_id":"613a3f32a52f4d656d45bff7","study_id":"60edd13110225f80f9f3709b","session_id":"6196bf60f631c763f11dcebd","condition":"contingent","relevant_dimensions":["antennae","wings"],"bee_group":{"antennae":"A","wings":"2","pattern":"X","legs":"X"},"action":"avoid","summary":"bad-avoid","bonus":0.1},{"rt":671.3000000002794,"stimulus":"\n                    <p><b>Action: <em>avoid</em></b></p>\n                    <p>This is the bee that you just saw.</p>\n                    <img src=\"bees-with-color/bee-B1DF.svg\" width=\"200\">\n                    <p><br>Your bonus pay is unchanged, and remains at $0.08.</p>\n            ","response":0,"trial_type":"html-button-response","trial_index":94,"time_elapsed":485996,"internal_node_id":"0.0-4.0-1.41","subject_id":"613a3f32a52f4d656d45bff7","study_id":"60edd13110225f80f9f3709b","session_id":"6196bf60f631c763f11dcebd","condition":"contingent","relevant_dimensions":["antennae","wings"],"bee_group":{"antennae":"A","wings":"2","pattern":"X","legs":"X"},"bonus":0.1},{"rt":1475.1000000000931,"stimulus":"bees-with-color/bee-A2DF.svg","response":0,"trial_type":"image-button-response","trial_index":95,"time_elapsed":487473,"internal_node_id":"0.0-4.0-0.42","subject_id":"613a3f32a52f4d656d45bff7","study_id":"60edd13110225f80f9f3709b","session_id":"6196bf60f631c763f11dcebd","condition":"contingent","relevant_dimensions":["antennae","wings"],"bee_group":{"antennae":"A","wings":"2","pattern":"X","legs":"X"},"action":"harvest","summary":"bad-harvest","bonus":0.1},{"rt":3784.399999999907,"stimulus":"\n                    <p><b>Action: <em>harvest</em></b></p>\n                    <p>This is the bee that you just saw.</p>\n                    <img src=\"bees-with-color/bee-A2DF.svg\" width=\"200\">\n                    <p><span class=\"redText\">Bad choice, the bee was angry.</span><br><b>You have been stung!</b><br>Your pay has been decreased by $0.10. Your bonus pay is now $0.00.</p>\n            ","response":0,"trial_type":"html-button-response","trial_index":96,"time_elapsed":491258,"internal_node_id":"0.0-4.0-1.42","subject_id":"613a3f32a52f4d656d45bff7","study_id":"60edd13110225f80f9f3709b","session_id":"6196bf60f631c763f11dcebd","condition":"contingent","relevant_dimensions":["antennae","wings"],"bee_group":{"antennae":"A","wings":"2","pattern":"X","legs":"X"},"bonus":0.1},{"rt":862.4000000003725,"stimulus":"bees-with-color/bee-B1SF.svg","response":0,"trial_type":"image-button-response","trial_index":97,"time_elapsed":492122,"internal_node_id":"0.0-4.0-0.43","subject_id":"613a3f32a52f4d656d45bff7","study_id":"60edd13110225f80f9f3709b","session_id":"6196bf60f631c763f11dcebd","condition":"contingent","relevant_dimensions":["antennae","wings"],"bee_group":{"antennae":"A","wings":"2","pattern":"X","legs":"X"},"action":"harvest","summary":"good-harvest","bonus":0.1},{"rt":1485.2999999998137,"stimulus":"\n                    <p><b>Action: <em>harvest</em></b></p>\n                    <p>This is the bee that you just saw.</p>\n                    <img src=\"bees-with-color/bee-B1SF.svg\" width=\"200\">\n                    <p><span class=\"greenText\"><b>Successful harvest!</b></span><br>Your pay has increased by $0.02. Your bonus pay is now $0.02.</p>\n            ","response":0,"trial_type":"html-button-response","trial_index":98,"time_elapsed":493609,"internal_node_id":"0.0-4.0-1.43","subject_id":"613a3f32a52f4d656d45bff7","study_id":"60edd13110225f80f9f3709b","session_id":"6196bf60f631c763f11dcebd","condition":"contingent","relevant_dimensions":["antennae","wings"],"bee_group":{"antennae":"A","wings":"2","pattern":"X","legs":"X"},"bonus":0.1},{"rt":1445,"stimulus":"bees-with-color/bee-B2DF.svg","response":0,"trial_type":"image-button-response","trial_index":99,"time_elapsed":495055,"internal_node_id":"0.0-4.0-0.44","subject_id":"613a3f32a52f4d656d45bff7","study_id":"60edd13110225f80f9f3709b","session_id":"6196bf60f631c763f11dcebd","condition":"contingent","relevant_dimensions":["antennae","wings"],"bee_group":{"antennae":"A","wings":"2","pattern":"X","legs":"X"},"action":"harvest","summary":"good-harvest","bonus":0.1},{"rt":1243.7999999998137,"stimulus":"\n                    <p><b>Action: <em>harvest</em></b></p>\n                    <p>This is the bee that you just saw.</p>\n                    <img src=\"bees-with-color/bee-B2DF.svg\" width=\"200\">\n                    <p><span class=\"greenText\"><b>Successful harvest!</b></span><br>Your pay has increased by $0.02. Your bonus pay is now $0.04.</p>\n            ","response":0,"trial_type":"html-button-response","trial_index":100,"time_elapsed":496300,"internal_node_id":"0.0-4.0-1.44","subject_id":"613a3f32a52f4d656d45bff7","study_id":"60edd13110225f80f9f3709b","session_id":"6196bf60f631c763f11dcebd","condition":"contingent","relevant_dimensions":["antennae","wings"],"bee_group":{"antennae":"A","wings":"2","pattern":"X","legs":"X"},"bonus":0.1},{"rt":1384.6000000000931,"stimulus":"bees-with-color/bee-A2DM.svg","response":1,"trial_type":"image-button-response","trial_index":101,"time_elapsed":497686,"internal_node_id":"0.0-4.0-0.45","subject_id":"613a3f32a52f4d656d45bff7","study_id":"60edd13110225f80f9f3709b","session_id":"6196bf60f631c763f11dcebd","condition":"contingent","relevant_dimensions":["antennae","wings"],"bee_group":{"antennae":"A","wings":"2","pattern":"X","legs":"X"},"action":"avoid","summary":"good-avoid","bonus":0.1},{"rt":872.5,"stimulus":"\n                    <p><b>Action: <em>avoid</em></b></p>\n                    <p>This is the bee that you just saw.</p>\n                    <img src=\"bees-with-color/bee-A2DM.svg\" width=\"200\">\n                    <p><br>Your bonus pay is unchanged, and remains at $0.04.</p>\n            ","response":0,"trial_type":"html-button-response","trial_index":102,"time_elapsed":498560,"internal_node_id":"0.0-4.0-1.45","subject_id":"613a3f32a52f4d656d45bff7","study_id":"60edd13110225f80f9f3709b","session_id":"6196bf60f631c763f11dcebd","condition":"contingent","relevant_dimensions":["antennae","wings"],"bee_group":{"antennae":"A","wings":"2","pattern":"X","legs":"X"},"bonus":0.1},{"rt":802.3999999999069,"stimulus":"bees-with-color/bee-B1DM.svg","response":1,"trial_type":"image-button-response","trial_index":103,"time_elapsed":499363,"internal_node_id":"0.0-4.0-0.46","subject_id":"613a3f32a52f4d656d45bff7","study_id":"60edd13110225f80f9f3709b","session_id":"6196bf60f631c763f11dcebd","condition":"contingent","relevant_dimensions":["antennae","wings"],"bee_group":{"antennae":"A","wings":"2","pattern":"X","legs":"X"},"action":"avoid","summary":"bad-avoid","bonus":0.1},{"rt":952.5,"stimulus":"\n                    <p><b>Action: <em>avoid</em></b></p>\n                    <p>This is the bee that you just saw.</p>\n                    <img src=\"bees-with-color/bee-B1DM.svg\" width=\"200\">\n                    <p><br>Your bonus pay is unchanged, and remains at $0.04.</p>\n            ","response":0,"trial_type":"html-button-response","trial_index":104,"time_elapsed":500317,"internal_node_id":"0.0-4.0-1.46","subject_id":"613a3f32a52f4d656d45bff7","study_id":"60edd13110225f80f9f3709b","session_id":"6196bf60f631c763f11dcebd","condition":"contingent","relevant_dimensions":["antennae","wings"],"bee_group":{"antennae":"A","wings":"2","pattern":"X","legs":"X"},"bonus":0.1},{"rt":1063.3999999999069,"stimulus":"bees-with-color/bee-A1SM.svg","response":0,"trial_type":"image-button-response","trial_index":105,"time_elapsed":501382,"internal_node_id":"0.0-4.0-0.47","subject_id":"613a3f32a52f4d656d45bff7","study_id":"60edd13110225f80f9f3709b","session_id":"6196bf60f631c763f11dcebd","condition":"contingent","relevant_dimensions":["antennae","wings"],"bee_group":{"antennae":"A","wings":"2","pattern":"X","legs":"X"},"action":"harvest","summary":"good-harvest","bonus":0.1},{"rt":1294.2000000001863,"stimulus":"\n                    <p><b>Action: <em>harvest</em></b></p>\n                    <p>This is the bee that you just saw.</p>\n                    <img src=\"bees-with-color/bee-A1SM.svg\" width=\"200\">\n                    <p><span class=\"greenText\"><b>Successful harvest!</b></span><br>Your pay has increased by $0.02. Your bonus pay is now $0.06.</p>\n            ","response":0,"trial_type":"html-button-response","trial_index":106,"time_elapsed":502677,"internal_node_id":"0.0-4.0-1.47","subject_id":"613a3f32a52f4d656d45bff7","study_id":"60edd13110225f80f9f3709b","session_id":"6196bf60f631c763f11dcebd","condition":"contingent","relevant_dimensions":["antennae","wings"],"bee_group":{"antennae":"A","wings":"2","pattern":"X","legs":"X"},"bonus":0.1},{"rt":3513.6999999997206,"stimulus":"bees-with-color/bee-A1SM.svg","response":0,"trial_type":"image-button-response","trial_index":107,"time_elapsed":506192,"internal_node_id":"0.0-4.0-0.48","subject_id":"613a3f32a52f4d656d45bff7","study_id":"60edd13110225f80f9f3709b","session_id":"6196bf60f631c763f11dcebd","condition":"contingent","relevant_dimensions":["antennae","wings"],"bee_group":{"antennae":"A","wings":"2","pattern":"X","legs":"X"},"action":"harvest","summary":"good-harvest","bonus":0.1},{"rt":1264.5,"stimulus":"\n                    <p><b>Action: <em>harvest</em></b></p>\n                    <p>This is the bee that you just saw.</p>\n                    <img src=\"bees-with-color/bee-A1SM.svg\" width=\"200\">\n                    <p><span class=\"greenText\"><b>Successful harvest!</b></span><br>Your pay has increased by $0.02. Your bonus pay is now $0.08.</p>\n            ","response":0,"trial_type":"html-button-response","trial_index":108,"time_elapsed":507458,"internal_node_id":"0.0-4.0-1.48","subject_id":"613a3f32a52f4d656d45bff7","study_id":"60edd13110225f80f9f3709b","session_id":"6196bf60f631c763f11dcebd","condition":"contingent","relevant_dimensions":["antennae","wings"],"bee_group":{"antennae":"A","wings":"2","pattern":"X","legs":"X"},"bonus":0.1},{"rt":3513.1999999997206,"stimulus":"bees-with-color/bee-B1SM.svg","response":1,"trial_type":"image-button-response","trial_index":109,"time_elapsed":510973,"internal_node_id":"0.0-4.0-0.49","subject_id":"613a3f32a52f4d656d45bff7","study_id":"60edd13110225f80f9f3709b","session_id":"6196bf60f631c763f11dcebd","condition":"contingent","relevant_dimensions":["antennae","wings"],"bee_group":{"antennae":"A","wings":"2","pattern":"X","legs":"X"},"action":"avoid","summary":"bad-avoid","bonus":0.1},{"rt":871.8999999999069,"stimulus":"\n                    <p><b>Action: <em>avoid</em></b></p>\n                    <p>This is the bee that you just saw.</p>\n                    <img src=\"bees-with-color/bee-B1SM.svg\" width=\"200\">\n                    <p><br>Your bonus pay is unchanged, and remains at $0.08.</p>\n            ","response":0,"trial_type":"html-button-response","trial_index":110,"time_elapsed":511846,"internal_node_id":"0.0-4.0-1.49","subject_id":"613a3f32a52f4d656d45bff7","study_id":"60edd13110225f80f9f3709b","session_id":"6196bf60f631c763f11dcebd","condition":"contingent","relevant_dimensions":["antennae","wings"],"bee_group":{"antennae":"A","wings":"2","pattern":"X","legs":"X"},"bonus":0.1},{"rt":1806.6000000005588,"stimulus":"bees-with-color/bee-B2SF.svg","response":1,"trial_type":"image-button-response","trial_index":111,"time_elapsed":513654,"internal_node_id":"0.0-4.0-0.50","subject_id":"613a3f32a52f4d656d45bff7","study_id":"60edd13110225f80f9f3709b","session_id":"6196bf60f631c763f11dcebd","condition":"contingent","relevant_dimensions":["antennae","wings"],"bee_group":{"antennae":"A","wings":"2","pattern":"X","legs":"X"},"action":"avoid","summary":"bad-avoid","bonus":0.1},{"rt":701.1000000005588,"stimulus":"\n                    <p><b>Action: <em>avoid</em></b></p>\n                    <p>This is the bee that you just saw.</p>\n                    <img src=\"bees-with-color/bee-B2SF.svg\" width=\"200\">\n                    <p><br>Your bonus pay is unchanged, and remains at $0.08.</p>\n            ","response":0,"trial_type":"html-button-response","trial_index":112,"time_elapsed":514357,"internal_node_id":"0.0-4.0-1.50","subject_id":"613a3f32a52f4d656d45bff7","study_id":"60edd13110225f80f9f3709b","session_id":"6196bf60f631c763f11dcebd","condition":"contingent","relevant_dimensions":["antennae","wings"],"bee_group":{"antennae":"A","wings":"2","pattern":"X","legs":"X"},"bonus":0.1},{"rt":1133.5999999996275,"stimulus":"bees-with-color/bee-B2DF.svg","response":1,"trial_type":"image-button-response","trial_index":113,"time_elapsed":515492,"internal_node_id":"0.0-4.0-0.51","subject_id":"613a3f32a52f4d656d45bff7","study_id":"60edd13110225f80f9f3709b","session_id":"6196bf60f631c763f11dcebd","condition":"contingent","relevant_dimensions":["antennae","wings"],"bee_group":{"antennae":"A","wings":"2","pattern":"X","legs":"X"},"action":"avoid","summary":"bad-avoid","bonus":0.1},{"rt":812.5,"stimulus":"\n                    <p><b>Action: <em>avoid</em></b></p>\n                    <p>This is the bee that you just saw.</p>\n                    <img src=\"bees-with-color/bee-B2DF.svg\" width=\"200\">\n                    <p><br>Your bonus pay is unchanged, and remains at $0.08.</p>\n            ","response":0,"trial_type":"html-button-response","trial_index":114,"time_elapsed":516306,"internal_node_id":"0.0-4.0-1.51","subject_id":"613a3f32a52f4d656d45bff7","study_id":"60edd13110225f80f9f3709b","session_id":"6196bf60f631c763f11dcebd","condition":"contingent","relevant_dimensions":["antennae","wings"],"bee_group":{"antennae":"A","wings":"2","pattern":"X","legs":"X"},"bonus":0.1},{"rt":812,"stimulus":"bees-with-color/bee-A1DF.svg","response":0,"trial_type":"image-button-response","trial_index":115,"time_elapsed":517119,"internal_node_id":"0.0-4.0-0.52","subject_id":"613a3f32a52f4d656d45bff7","study_id":"60edd13110225f80f9f3709b","session_id":"6196bf60f631c763f11dcebd","condition":"contingent","relevant_dimensions":["antennae","wings"],"bee_group":{"antennae":"A","wings":"2","pattern":"X","legs":"X"},"action":"harvest","summary":"good-harvest","bonus":0.1},{"rt":1294.5,"stimulus":"\n                    <p><b>Action: <em>harvest</em></b></p>\n                    <p>This is the bee that you just saw.</p>\n                    <img src=\"bees-with-color/bee-A1DF.svg\" width=\"200\">\n                    <p><span class=\"greenText\"><b>Successful harvest!</b></span><br>Your pay has increased by $0.02. Your bonus pay is now $0.10.</p>\n            ","response":0,"trial_type":"html-button-response","trial_index":116,"time_elapsed":518414,"internal_node_id":"0.0-4.0-1.52","subject_id":"613a3f32a52f4d656d45bff7","study_id":"60edd13110225f80f9f3709b","session_id":"6196bf60f631c763f11dcebd","condition":"contingent","relevant_dimensions":["antennae","wings"],"bee_group":{"antennae":"A","wings":"2","pattern":"X","legs":"X"},"bonus":0.1},{"rt":812.5,"stimulus":"bees-with-color/bee-A2SM.svg","response":0,"trial_type":"image-button-response","trial_index":117,"time_elapsed":519228,"internal_node_id":"0.0-4.0-0.53","subject_id":"613a3f32a52f4d656d45bff7","study_id":"60edd13110225f80f9f3709b","session_id":"6196bf60f631c763f11dcebd","condition":"contingent","relevant_dimensions":["antennae","wings"],"bee_group":{"antennae":"A","wings":"2","pattern":"X","legs":"X"},"action":"harvest","summary":"bad-harvest","bonus":0.1},{"rt":3001.4000000003725,"stimulus":"\n                    <p><b>Action: <em>harvest</em></b></p>\n                    <p>This is the bee that you just saw.</p>\n                    <img src=\"bees-with-color/bee-A2SM.svg\" width=\"200\">\n                    <p><span class=\"redText\">Bad choice, the bee was angry.</span><br><b>You have been stung!</b><br>Your pay has been decreased by $0.10. Your bonus pay is now $0.00.</p>\n            ","response":0,"trial_type":"html-button-response","trial_index":118,"time_elapsed":522230,"internal_node_id":"0.0-4.0-1.53","subject_id":"613a3f32a52f4d656d45bff7","study_id":"60edd13110225f80f9f3709b","session_id":"6196bf60f631c763f11dcebd","condition":"contingent","relevant_dimensions":["antennae","wings"],"bee_group":{"antennae":"A","wings":"2","pattern":"X","legs":"X"},"bonus":0.1},{"rt":1012.8999999994412,"stimulus":"bees-with-color/bee-A2DF.svg","response":0,"trial_type":"image-button-response","trial_index":119,"time_elapsed":523244,"internal_node_id":"0.0-4.0-0.54","subject_id":"613a3f32a52f4d656d45bff7","study_id":"60edd13110225f80f9f3709b","session_id":"6196bf60f631c763f11dcebd","condition":"contingent","relevant_dimensions":["antennae","wings"],"bee_group":{"antennae":"A","wings":"2","pattern":"X","legs":"X"},"action":"harvest","summary":"bad-harvest","bonus":0.1},{"rt":1183.7999999998137,"stimulus":"\n                    <p><b>Action: <em>harvest</em></b></p>\n                    <p>This is the bee that you just saw.</p>\n                    <img src=\"bees-with-color/bee-A2DF.svg\" width=\"200\">\n                    <p><span class=\"redText\">Bad choice, the bee was angry.</span><br><b>You have been stung!</b><br>Your pay has been decreased by $0.10. Your bonus pay is now $0.00.</p>\n            ","response":0,"trial_type":"html-button-response","trial_index":120,"time_elapsed":524429,"internal_node_id":"0.0-4.0-1.54","subject_id":"613a3f32a52f4d656d45bff7","study_id":"60edd13110225f80f9f3709b","session_id":"6196bf60f631c763f11dcebd","condition":"contingent","relevant_dimensions":["antennae","wings"],"bee_group":{"antennae":"A","wings":"2","pattern":"X","legs":"X"},"bonus":0.1},{"rt":1103.7999999998137,"stimulus":"bees-with-color/bee-B1SF.svg","response":0,"trial_type":"image-button-response","trial_index":121,"time_elapsed":525534,"internal_node_id":"0.0-4.0-0.55","subject_id":"613a3f32a52f4d656d45bff7","study_id":"60edd13110225f80f9f3709b","session_id":"6196bf60f631c763f11dcebd","condition":"contingent","relevant_dimensions":["antennae","wings"],"bee_group":{"antennae":"A","wings":"2","pattern":"X","legs":"X"},"action":"harvest","summary":"good-harvest","bonus":0.1},{"rt":751.7999999998137,"stimulus":"\n                    <p><b>Action: <em>harvest</em></b></p>\n                    <p>This is the bee that you just saw.</p>\n                    <img src=\"bees-with-color/bee-B1SF.svg\" width=\"200\">\n                    <p><span class=\"greenText\"><b>Successful harvest!</b></span><br>Your pay has increased by $0.02. Your bonus pay is now $0.02.</p>\n            ","response":0,"trial_type":"html-button-response","trial_index":122,"time_elapsed":526287,"internal_node_id":"0.0-4.0-1.55","subject_id":"613a3f32a52f4d656d45bff7","study_id":"60edd13110225f80f9f3709b","session_id":"6196bf60f631c763f11dcebd","condition":"contingent","relevant_dimensions":["antennae","wings"],"bee_group":{"antennae":"A","wings":"2","pattern":"X","legs":"X"},"bonus":0.1},{"rt":752.2000000001863,"stimulus":"bees-with-color/bee-A2SF.svg","response":0,"trial_type":"image-button-response","trial_index":123,"time_elapsed":527041,"internal_node_id":"0.0-4.0-0.56","subject_id":"613a3f32a52f4d656d45bff7","study_id":"60edd13110225f80f9f3709b","session_id":"6196bf60f631c763f11dcebd","condition":"contingent","relevant_dimensions":["antennae","wings"],"bee_group":{"antennae":"A","wings":"2","pattern":"X","legs":"X"},"action":"harvest","summary":"bad-harvest","bonus":0.1},{"rt":1023.0999999996275,"stimulus":"\n                    <p><b>Action: <em>harvest</em></b></p>\n                    <p>This is the bee that you just saw.</p>\n                    <img src=\"bees-with-color/bee-A2SF.svg\" width=\"200\">\n                    <p><span class=\"redText\">Bad choice, the bee was angry.</span><br><b>You have been stung!</b><br>Your pay has been decreased by $0.10. Your bonus pay is now $0.00.</p>\n            ","response":0,"trial_type":"html-button-response","trial_index":124,"time_elapsed":528065,"internal_node_id":"0.0-4.0-1.56","subject_id":"613a3f32a52f4d656d45bff7","study_id":"60edd13110225f80f9f3709b","session_id":"6196bf60f631c763f11dcebd","condition":"contingent","relevant_dimensions":["antennae","wings"],"bee_group":{"antennae":"A","wings":"2","pattern":"X","legs":"X"},"bonus":0.1},{"rt":752.2999999998137,"stimulus":"bees-with-color/bee-A1SF.svg","response":0,"trial_type":"image-button-response","trial_index":125,"time_elapsed":528818,"internal_node_id":"0.0-4.0-0.57","subject_id":"613a3f32a52f4d656d45bff7","study_id":"60edd13110225f80f9f3709b","session_id":"6196bf60f631c763f11dcebd","condition":"contingent","relevant_dimensions":["antennae","wings"],"bee_group":{"antennae":"A","wings":"2","pattern":"X","legs":"X"},"action":"harvest","summary":"good-harvest","bonus":0.1},{"rt":902.5999999996275,"stimulus":"\n                    <p><b>Action: <em>harvest</em></b></p>\n                    <p>This is the bee that you just saw.</p>\n                    <img src=\"bees-with-color/bee-A1SF.svg\" width=\"200\">\n                    <p><span class=\"greenText\"><b>Successful harvest!</b></span><br>Your pay has increased by $0.02. Your bonus pay is now $0.02.</p>\n            ","response":0,"trial_type":"html-button-response","trial_index":126,"time_elapsed":529722,"internal_node_id":"0.0-4.0-1.57","subject_id":"613a3f32a52f4d656d45bff7","study_id":"60edd13110225f80f9f3709b","session_id":"6196bf60f631c763f11dcebd","condition":"contingent","relevant_dimensions":["antennae","wings"],"bee_group":{"antennae":"A","wings":"2","pattern":"X","legs":"X"},"bonus":0.1},{"rt":1987.199999999255,"stimulus":"bees-with-color/bee-B2SM.svg","response":1,"trial_type":"image-button-response","trial_index":127,"time_elapsed":531710,"internal_node_id":"0.0-4.0-0.58","subject_id":"613a3f32a52f4d656d45bff7","study_id":"60edd13110225f80f9f3709b","session_id":"6196bf60f631c763f11dcebd","condition":"contingent","relevant_dimensions":["antennae","wings"],"bee_group":{"antennae":"A","wings":"2","pattern":"X","legs":"X"},"action":"avoid","summary":"bad-avoid","bonus":0.1},{"rt":1153.699999999255,"stimulus":"\n                    <p><b>Action: <em>avoid</em></b></p>\n                    <p>This is the bee that you just saw.</p>\n                    <img src=\"bees-with-color/bee-B2SM.svg\" width=\"200\">\n                    <p><br>Your bonus pay is unchanged, and remains at $0.02.</p>\n            ","response":0,"trial_type":"html-button-response","trial_index":128,"time_elapsed":532865,"internal_node_id":"0.0-4.0-1.58","subject_id":"613a3f32a52f4d656d45bff7","study_id":"60edd13110225f80f9f3709b","session_id":"6196bf60f631c763f11dcebd","condition":"contingent","relevant_dimensions":["antennae","wings"],"bee_group":{"antennae":"A","wings":"2","pattern":"X","legs":"X"},"bonus":0.1},{"rt":631.6000000005588,"stimulus":"bees-with-color/bee-A1DM.svg","response":0,"trial_type":"image-button-response","trial_index":129,"time_elapsed":533498,"internal_node_id":"0.0-4.0-0.59","subject_id":"613a3f32a52f4d656d45bff7","study_id":"60edd13110225f80f9f3709b","session_id":"6196bf60f631c763f11dcebd","condition":"contingent","relevant_dimensions":["antennae","wings"],"bee_group":{"antennae":"A","wings":"2","pattern":"X","legs":"X"},"action":"harvest","summary":"good-harvest","bonus":0.1},{"rt":1213.8999999994412,"stimulus":"\n                    <p><b>Action: <em>harvest</em></b></p>\n                    <p>This is the bee that you just saw.</p>\n                    <img src=\"bees-with-color/bee-A1DM.svg\" width=\"200\">\n                    <p><span class=\"greenText\"><b>Successful harvest!</b></span><br>Your pay has increased by $0.02. Your bonus pay is now $0.04.</p>\n            ","response":0,"trial_type":"html-button-response","trial_index":130,"time_elapsed":534713,"internal_node_id":"0.0-4.0-1.59","subject_id":"613a3f32a52f4d656d45bff7","study_id":"60edd13110225f80f9f3709b","session_id":"6196bf60f631c763f11dcebd","condition":"contingent","relevant_dimensions":["antennae","wings"],"bee_group":{"antennae":"A","wings":"2","pattern":"X","legs":"X"},"bonus":0.1},{"rt":2760.0999999996275,"stimulus":"bees-with-color/bee-B1DF.svg","response":0,"trial_type":"image-button-response","trial_index":131,"time_elapsed":537474,"internal_node_id":"0.0-4.0-0.60","subject_id":"613a3f32a52f4d656d45bff7","study_id":"60edd13110225f80f9f3709b","session_id":"6196bf60f631c763f11dcebd","condition":"contingent","relevant_dimensions":["antennae","wings"],"bee_group":{"antennae":"A","wings":"2","pattern":"X","legs":"X"},"action":"harvest","summary":"good-harvest","bonus":0.1},{"rt":1354.5,"stimulus":"\n                    <p><b>Action: <em>harvest</em></b></p>\n                    <p>This is the bee that you just saw.</p>\n                    <img src=\"bees-with-color/bee-B1DF.svg\" width=\"200\">\n                    <p><span class=\"greenText\"><b>Successful harvest!</b></span><br>Your pay has increased by $0.02. Your bonus pay is now $0.06.</p>\n            ","response":0,"trial_type":"html-button-response","trial_index":132,"time_elapsed":538830,"internal_node_id":"0.0-4.0-1.60","subject_id":"613a3f32a52f4d656d45bff7","study_id":"60edd13110225f80f9f3709b","session_id":"6196bf60f631c763f11dcebd","condition":"contingent","relevant_dimensions":["antennae","wings"],"bee_group":{"antennae":"A","wings":"2","pattern":"X","legs":"X"},"bonus":0.1},{"rt":1555.0999999996275,"stimulus":"bees-with-color/bee-B1DM.svg","response":1,"trial_type":"image-button-response","trial_index":133,"time_elapsed":540387,"internal_node_id":"0.0-4.0-0.61","subject_id":"613a3f32a52f4d656d45bff7","study_id":"60edd13110225f80f9f3709b","session_id":"6196bf60f631c763f11dcebd","condition":"contingent","relevant_dimensions":["antennae","wings"],"bee_group":{"antennae":"A","wings":"2","pattern":"X","legs":"X"},"action":"avoid","summary":"bad-avoid","bonus":0.1},{"rt":1093.2000000001863,"stimulus":"\n                    <p><b>Action: <em>avoid</em></b></p>\n                    <p>This is the bee that you just saw.</p>\n                    <img src=\"bees-with-color/bee-B1DM.svg\" width=\"200\">\n                    <p><br>Your bonus pay is unchanged, and remains at $0.06.</p>\n            ","response":0,"trial_type":"html-button-response","trial_index":134,"time_elapsed":541482,"internal_node_id":"0.0-4.0-1.61","subject_id":"613a3f32a52f4d656d45bff7","study_id":"60edd13110225f80f9f3709b","session_id":"6196bf60f631c763f11dcebd","condition":"contingent","relevant_dimensions":["antennae","wings"],"bee_group":{"antennae":"A","wings":"2","pattern":"X","legs":"X"},"bonus":0.1},{"rt":2268.9000000003725,"stimulus":"bees-with-color/bee-A2DM.svg","response":1,"trial_type":"image-button-response","trial_index":135,"time_elapsed":543752,"internal_node_id":"0.0-4.0-0.62","subject_id":"613a3f32a52f4d656d45bff7","study_id":"60edd13110225f80f9f3709b","session_id":"6196bf60f631c763f11dcebd","condition":"contingent","relevant_dimensions":["antennae","wings"],"bee_group":{"antennae":"A","wings":"2","pattern":"X","legs":"X"},"action":"avoid","summary":"good-avoid","bonus":0.1},{"rt":1936.3999999994412,"stimulus":"\n                    <p><b>Action: <em>avoid</em></b></p>\n                    <p>This is the bee that you just saw.</p>\n                    <img src=\"bees-with-color/bee-A2DM.svg\" width=\"200\">\n                    <p><br>Your bonus pay is unchanged, and remains at $0.06.</p>\n            ","response":0,"trial_type":"html-button-response","trial_index":136,"time_elapsed":545689,"internal_node_id":"0.0-4.0-1.62","subject_id":"613a3f32a52f4d656d45bff7","study_id":"60edd13110225f80f9f3709b","session_id":"6196bf60f631c763f11dcebd","condition":"contingent","relevant_dimensions":["antennae","wings"],"bee_group":{"antennae":"A","wings":"2","pattern":"X","legs":"X"},"bonus":0.1},{"rt":2379.2000000001863,"stimulus":"bees-with-color/bee-B2DM.svg","response":0,"trial_type":"image-button-response","trial_index":137,"time_elapsed":548070,"internal_node_id":"0.0-4.0-0.63","subject_id":"613a3f32a52f4d656d45bff7","study_id":"60edd13110225f80f9f3709b","session_id":"6196bf60f631c763f11dcebd","condition":"contingent","relevant_dimensions":["antennae","wings"],"bee_group":{"antennae":"A","wings":"2","pattern":"X","legs":"X"},"action":"harvest","summary":"good-harvest","bonus":0.1},{"rt":1203.5,"stimulus":"\n                    <p><b>Action: <em>harvest</em></b></p>\n                    <p>This is the bee that you just saw.</p>\n                    <img src=\"bees-with-color/bee-B2DM.svg\" width=\"200\">\n                    <p><span class=\"greenText\"><b>Successful harvest!</b></span><br>Your pay has increased by $0.02. Your bonus pay is now $0.08.</p>\n            ","response":0,"trial_type":"html-button-response","trial_index":138,"time_elapsed":549275,"internal_node_id":"0.0-4.0-1.63","subject_id":"613a3f32a52f4d656d45bff7","study_id":"60edd13110225f80f9f3709b","session_id":"6196bf60f631c763f11dcebd","condition":"contingent","relevant_dimensions":["antennae","wings"],"bee_group":{"antennae":"A","wings":"2","pattern":"X","legs":"X"},"bonus":0.1},{"rt":5078.0999999996275,"stimulus":"You have completed the first part of this experiment.<br><br>You will now begin a shorter second part, in which you will receive no feedback.<br>The same rules regarding bonus pay apply.<br><br>Press any key to begin.","response":"enter","trial_type":"html-keyboard-response","trial_index":139,"time_elapsed":554354,"internal_node_id":"0.0-5.0","subject_id":"613a3f32a52f4d656d45bff7","study_id":"60edd13110225f80f9f3709b","session_id":"6196bf60f631c763f11dcebd","condition":"contingent","relevant_dimensions":["antennae","wings"],"bee_group":{"antennae":"A","wings":"2","pattern":"X","legs":"X"},"bonus":0.1},{"rt":2362.2000000001863,"stimulus":"bees-with-color/bee-B2DF.svg","response":0,"trial_type":"image-button-response","trial_index":140,"time_elapsed":556726,"internal_node_id":"0.0-6.0-0.0","subject_id":"613a3f32a52f4d656d45bff7","study_id":"60edd13110225f80f9f3709b","session_id":"6196bf60f631c763f11dcebd","condition":"contingent","relevant_dimensions":["antennae","wings"],"bee_group":{"antennae":"A","wings":"2","pattern":"X","legs":"X"},"bonus":0.1},{"rt":993,"stimulus":"bees-with-color/bee-B2DM.svg","response":0,"trial_type":"image-button-response","trial_index":141,"time_elapsed":557721,"internal_node_id":"0.0-6.0-0.1","subject_id":"613a3f32a52f4d656d45bff7","study_id":"60edd13110225f80f9f3709b","session_id":"6196bf60f631c763f11dcebd","condition":"contingent","relevant_dimensions":["antennae","wings"],"bee_group":{"antennae":"A","wings":"2","pattern":"X","legs":"X"},"bonus":0.1},{"rt":1584.5999999996275,"stimulus":"bees-with-color/bee-B1SF.svg","response":0,"trial_type":"image-button-response","trial_index":142,"time_elapsed":559308,"internal_node_id":"0.0-6.0-0.2","subject_id":"613a3f32a52f4d656d45bff7","study_id":"60edd13110225f80f9f3709b","session_id":"6196bf60f631c763f11dcebd","condition":"contingent","relevant_dimensions":["antennae","wings"],"bee_group":{"antennae":"A","wings":"2","pattern":"X","legs":"X"},"bonus":0.1},{"rt":731.2999999998137,"stimulus":"bees-with-color/bee-A2DF.svg","response":1,"trial_type":"image-button-response","trial_index":143,"time_elapsed":560041,"internal_node_id":"0.0-6.0-0.3","subject_id":"613a3f32a52f4d656d45bff7","study_id":"60edd13110225f80f9f3709b","session_id":"6196bf60f631c763f11dcebd","condition":"contingent","relevant_dimensions":["antennae","wings"],"bee_group":{"antennae":"A","wings":"2","pattern":"X","legs":"X"},"bonus":0.1},{"rt":932.2999999998137,"stimulus":"bees-with-color/bee-A1DF.svg","response":1,"trial_type":"image-button-response","trial_index":144,"time_elapsed":560975,"internal_node_id":"0.0-6.0-0.4","subject_id":"613a3f32a52f4d656d45bff7","study_id":"60edd13110225f80f9f3709b","session_id":"6196bf60f631c763f11dcebd","condition":"contingent","relevant_dimensions":["antennae","wings"],"bee_group":{"antennae":"A","wings":"2","pattern":"X","legs":"X"},"bonus":0.1},{"rt":942.0999999996275,"stimulus":"bees-with-color/bee-B2SF.svg","response":0,"trial_type":"image-button-response","trial_index":145,"time_elapsed":561919,"internal_node_id":"0.0-6.0-0.5","subject_id":"613a3f32a52f4d656d45bff7","study_id":"60edd13110225f80f9f3709b","session_id":"6196bf60f631c763f11dcebd","condition":"contingent","relevant_dimensions":["antennae","wings"],"bee_group":{"antennae":"A","wings":"2","pattern":"X","legs":"X"},"bonus":0.1},{"rt":1916.0999999996275,"stimulus":"bees-with-color/bee-A2DM.svg","response":1,"trial_type":"image-button-response","trial_index":146,"time_elapsed":563837,"internal_node_id":"0.0-6.0-0.6","subject_id":"613a3f32a52f4d656d45bff7","study_id":"60edd13110225f80f9f3709b","session_id":"6196bf60f631c763f11dcebd","condition":"contingent","relevant_dimensions":["antennae","wings"],"bee_group":{"antennae":"A","wings":"2","pattern":"X","legs":"X"},"bonus":0.1},{"rt":1092.5,"stimulus":"bees-with-color/bee-B1DF.svg","response":1,"trial_type":"image-button-response","trial_index":147,"time_elapsed":564931,"internal_node_id":"0.0-6.0-0.7","subject_id":"613a3f32a52f4d656d45bff7","study_id":"60edd13110225f80f9f3709b","session_id":"6196bf60f631c763f11dcebd","condition":"contingent","relevant_dimensions":["antennae","wings"],"bee_group":{"antennae":"A","wings":"2","pattern":"X","legs":"X"},"bonus":0.1},{"rt":630.7000000001863,"stimulus":"bees-with-color/bee-A1SM.svg","response":0,"trial_type":"image-button-response","trial_index":148,"time_elapsed":565564,"internal_node_id":"0.0-6.0-0.8","subject_id":"613a3f32a52f4d656d45bff7","study_id":"60edd13110225f80f9f3709b","session_id":"6196bf60f631c763f11dcebd","condition":"contingent","relevant_dimensions":["antennae","wings"],"bee_group":{"antennae":"A","wings":"2","pattern":"X","legs":"X"},"bonus":0.1},{"rt":912.2999999998137,"stimulus":"bees-with-color/bee-A1SF.svg","response":0,"trial_type":"image-button-response","trial_index":149,"time_elapsed":566478,"internal_node_id":"0.0-6.0-0.9","subject_id":"613a3f32a52f4d656d45bff7","study_id":"60edd13110225f80f9f3709b","session_id":"6196bf60f631c763f11dcebd","condition":"contingent","relevant_dimensions":["antennae","wings"],"bee_group":{"antennae":"A","wings":"2","pattern":"X","legs":"X"},"bonus":0.1},{"rt":1655.4000000003725,"stimulus":"bees-with-color/bee-A2SM.svg","response":1,"trial_type":"image-button-response","trial_index":150,"time_elapsed":568135,"internal_node_id":"0.0-6.0-0.10","subject_id":"613a3f32a52f4d656d45bff7","study_id":"60edd13110225f80f9f3709b","session_id":"6196bf60f631c763f11dcebd","condition":"contingent","relevant_dimensions":["antennae","wings"],"bee_group":{"antennae":"A","wings":"2","pattern":"X","legs":"X"},"bonus":0.1},{"rt":1043,"stimulus":"bees-with-color/bee-A1DM.svg","response":0,"trial_type":"image-button-response","trial_index":151,"time_elapsed":569179,"internal_node_id":"0.0-6.0-0.11","subject_id":"613a3f32a52f4d656d45bff7","study_id":"60edd13110225f80f9f3709b","session_id":"6196bf60f631c763f11dcebd","condition":"contingent","relevant_dimensions":["antennae","wings"],"bee_group":{"antennae":"A","wings":"2","pattern":"X","legs":"X"},"bonus":0.1},{"rt":1454.5,"stimulus":"bees-with-color/bee-B1DM.svg","response":0,"trial_type":"image-button-response","trial_index":152,"time_elapsed":570636,"internal_node_id":"0.0-6.0-0.12","subject_id":"613a3f32a52f4d656d45bff7","study_id":"60edd13110225f80f9f3709b","session_id":"6196bf60f631c763f11dcebd","condition":"contingent","relevant_dimensions":["antennae","wings"],"bee_group":{"antennae":"A","wings":"2","pattern":"X","legs":"X"},"bonus":0.1},{"rt":771.3999999994412,"stimulus":"bees-with-color/bee-B2SM.svg","response":1,"trial_type":"image-button-response","trial_index":153,"time_elapsed":571409,"internal_node_id":"0.0-6.0-0.13","subject_id":"613a3f32a52f4d656d45bff7","study_id":"60edd13110225f80f9f3709b","session_id":"6196bf60f631c763f11dcebd","condition":"contingent","relevant_dimensions":["antennae","wings"],"bee_group":{"antennae":"A","wings":"2","pattern":"X","legs":"X"},"bonus":0.1},{"rt":1575.0999999996275,"stimulus":"bees-with-color/bee-A2SF.svg","response":0,"trial_type":"image-button-response","trial_index":154,"time_elapsed":572986,"internal_node_id":"0.0-6.0-0.14","subject_id":"613a3f32a52f4d656d45bff7","study_id":"60edd13110225f80f9f3709b","session_id":"6196bf60f631c763f11dcebd","condition":"contingent","relevant_dimensions":["antennae","wings"],"bee_group":{"antennae":"A","wings":"2","pattern":"X","legs":"X"},"bonus":0.1},{"rt":1032.6000000005588,"stimulus":"bees-with-color/bee-B1SM.svg","response":1,"trial_type":"image-button-response","trial_index":155,"time_elapsed":574020,"internal_node_id":"0.0-6.0-0.15","subject_id":"613a3f32a52f4d656d45bff7","study_id":"60edd13110225f80f9f3709b","session_id":"6196bf60f631c763f11dcebd","condition":"contingent","relevant_dimensions":["antennae","wings"],"bee_group":{"antennae":"A","wings":"2","pattern":"X","legs":"X"},"bonus":0.1},{"rt":751.5,"stimulus":"bees-with-color/bee-A2DM.svg","response":0,"trial_type":"image-button-response","trial_index":156,"time_elapsed":574773,"internal_node_id":"0.0-6.0-0.16","subject_id":"613a3f32a52f4d656d45bff7","study_id":"60edd13110225f80f9f3709b","session_id":"6196bf60f631c763f11dcebd","condition":"contingent","relevant_dimensions":["antennae","wings"],"bee_group":{"antennae":"A","wings":"2","pattern":"X","legs":"X"},"bonus":0.1},{"rt":1364.3999999994412,"stimulus":"bees-with-color/bee-B2SF.svg","response":1,"trial_type":"image-button-response","trial_index":157,"time_elapsed":576139,"internal_node_id":"0.0-6.0-0.17","subject_id":"613a3f32a52f4d656d45bff7","study_id":"60edd13110225f80f9f3709b","session_id":"6196bf60f631c763f11dcebd","condition":"contingent","relevant_dimensions":["antennae","wings"],"bee_group":{"antennae":"A","wings":"2","pattern":"X","legs":"X"},"bonus":0.1},{"rt":581.2000000001863,"stimulus":"bees-with-color/bee-B1SM.svg","response":0,"trial_type":"image-button-response","trial_index":158,"time_elapsed":576721,"internal_node_id":"0.0-6.0-0.18","subject_id":"613a3f32a52f4d656d45bff7","study_id":"60edd13110225f80f9f3709b","session_id":"6196bf60f631c763f11dcebd","condition":"contingent","relevant_dimensions":["antennae","wings"],"bee_group":{"antennae":"A","wings":"2","pattern":"X","legs":"X"},"bonus":0.1},{"rt":2067.2000000001863,"stimulus":"bees-with-color/bee-A1DF.svg","response":1,"trial_type":"image-button-response","trial_index":159,"time_elapsed":578790,"internal_node_id":"0.0-6.0-0.19","subject_id":"613a3f32a52f4d656d45bff7","study_id":"60edd13110225f80f9f3709b","session_id":"6196bf60f631c763f11dcebd","condition":"contingent","relevant_dimensions":["antennae","wings"],"bee_group":{"antennae":"A","wings":"2","pattern":"X","legs":"X"},"bonus":0.1},{"rt":591.2999999998137,"stimulus":"bees-with-color/bee-A2SF.svg","response":0,"trial_type":"image-button-response","trial_index":160,"time_elapsed":579383,"internal_node_id":"0.0-6.0-0.20","subject_id":"613a3f32a52f4d656d45bff7","study_id":"60edd13110225f80f9f3709b","session_id":"6196bf60f631c763f11dcebd","condition":"contingent","relevant_dimensions":["antennae","wings"],"bee_group":{"antennae":"A","wings":"2","pattern":"X","legs":"X"},"bonus":0.1},{"rt":1073,"stimulus":"bees-with-color/bee-A1SM.svg","response":0,"trial_type":"image-button-response","trial_index":161,"time_elapsed":580457,"internal_node_id":"0.0-6.0-0.21","subject_id":"613a3f32a52f4d656d45bff7","study_id":"60edd13110225f80f9f3709b","session_id":"6196bf60f631c763f11dcebd","condition":"contingent","relevant_dimensions":["antennae","wings"],"bee_group":{"antennae":"A","wings":"2","pattern":"X","legs":"X"},"bonus":0.1},{"rt":1163.4000000003725,"stimulus":"bees-with-color/bee-B2DM.svg","response":1,"trial_type":"image-button-response","trial_index":162,"time_elapsed":581622,"internal_node_id":"0.0-6.0-0.22","subject_id":"613a3f32a52f4d656d45bff7","study_id":"60edd13110225f80f9f3709b","session_id":"6196bf60f631c763f11dcebd","condition":"contingent","relevant_dimensions":["antennae","wings"],"bee_group":{"antennae":"A","wings":"2","pattern":"X","legs":"X"},"bonus":0.1},{"rt":1133.1000000005588,"stimulus":"bees-with-color/bee-A1DM.svg","response":0,"trial_type":"image-button-response","trial_index":163,"time_elapsed":582757,"internal_node_id":"0.0-6.0-0.23","subject_id":"613a3f32a52f4d656d45bff7","study_id":"60edd13110225f80f9f3709b","session_id":"6196bf60f631c763f11dcebd","condition":"contingent","relevant_dimensions":["antennae","wings"],"bee_group":{"antennae":"A","wings":"2","pattern":"X","legs":"X"},"bonus":0.1},{"rt":701.7000000001863,"stimulus":"bees-with-color/bee-A2SM.svg","response":1,"trial_type":"image-button-response","trial_index":164,"time_elapsed":583460,"internal_node_id":"0.0-6.0-0.24","subject_id":"613a3f32a52f4d656d45bff7","study_id":"60edd13110225f80f9f3709b","session_id":"6196bf60f631c763f11dcebd","condition":"contingent","relevant_dimensions":["antennae","wings"],"bee_group":{"antennae":"A","wings":"2","pattern":"X","legs":"X"},"bonus":0.1},{"rt":1042.9000000003725,"stimulus":"bees-with-color/bee-B1DF.svg","response":0,"trial_type":"image-button-response","t