[{"success":true,"trial_type":"fullscreen","trial_index":0,"time_elapsed":6101,"internal_node_id":"0.0-0.0","subject_id":"6017320a527c3897e958d393","study_id":"6197b3f67c2b5cd3b6d9596a","session_id":"619bfc039836327200ae593d","condition":"full-information","relevant_dimensions":["pattern","legs"],"bee_group":{"antennae":"X","wings":"X","pattern":"S","legs":"F"},"bonus":1.540000000000001},{"success":true,"timeout":false,"failed_images":[],"failed_audio":[],"failed_video":[],"trial_type":"preload","trial_index":1,"time_elapsed":7922,"internal_node_id":"0.0-1.0","subject_id":"6017320a527c3897e958d393","study_id":"6197b3f67c2b5cd3b6d9596a","session_id":"619bfc039836327200ae593d","condition":"full-information","relevant_dimensions":["pattern","legs"],"bee_group":{"antennae":"X","wings":"X","pattern":"S","legs":"F"},"bonus":1.540000000000001},{"rt":5741.099999964237,"stimulus":"Welcome! Press any key to begin.","response":" ","trial_type":"html-keyboard-response","trial_index":2,"time_elapsed":13665,"internal_node_id":"0.0-2.0","subject_id":"6017320a527c3897e958d393","study_id":"6197b3f67c2b5cd3b6d9596a","session_id":"619bfc039836327200ae593d","condition":"full-information","relevant_dimensions":["pattern","legs"],"bee_group":{"antennae":"X","wings":"X","pattern":"S","legs":"F"},"bonus":1.540000000000001},{"view_history":[{"page_index":0,"viewing_time":3603.2000000476837},{"page_index":1,"viewing_time":18776},{"page_index":2,"viewing_time":23591},{"page_index":3,"viewing_time":9260.099999964237},{"page_index":4,"viewing_time":9564.900000035763},{"page_index":5,"viewing_time":5139.899999976158},{"page_index":6,"viewing_time":1892.1000000238419},{"page_index":5,"viewing_time":3213.099999964237},{"page_index":6,"viewing_time":7114},{"page_index":7,"viewing_time":6992.300000011921},{"page_index":8,"viewing_time":4089.600000023842},{"page_index":9,"viewing_time":3520.899999976158},{"page_index":10,"viewing_time":4098.300000011921},{"page_index":11,"viewing_time":10347},{"page_index":12,"viewing_time":16931.80000001192},{"page_index":13,"viewing_time":1151},{"page_index":14,"viewing_time":1859}],"rt":131145,"trial_type":"instructions","trial_index":3,"time_elapsed":144811,"internal_node_id":"0.0-3.0-0.0","subject_id":"6017320a527c3897e958d393","study_id":"6197b3f67c2b5cd3b6d9596a","session_id":"619bfc039836327200ae593d","condition":"full-information","relevant_dimensions":["pattern","legs"],"bee_group":{"antennae":"X","wings":"X","pattern":"S","legs":"F"},"bonus":1.540000000000001},{"rt":9768.600000023842,"response":{"Q0":["Two or six legs","Stripes or spots on body","Single or double wings","Antennae or no antennae"]},"question_order":[0],"trial_type":"survey-multi-select","trial_index":4,"time_elapsed":154586,"internal_node_id":"0.0-3.0-1.0","subject_id":"6017320a527c3897e958d393","study_id":"6197b3f67c2b5cd3b6d9596a","session_id":"619bfc039836327200ae593d","condition":"full-information","relevant_dimensions":["pattern","legs"],"bee_group":{"antennae":"X","wings":"X","pattern":"S","legs":"F"},"correct":true,"bonus":1.540000000000001},{"rt":20903.399999976158,"response":{"Q1":"No.","Q2":"Based on the four features of the bee.","Q3":"You learn if it was friendly or dangerous, but do not alter your bonus."},"question_order":[0,1,2],"trial_type":"survey-multi-choice","trial_index":5,"time_elapsed":175492,"internal_node_id":"0.0-3.0-2.0","subject_id":"6017320a527c3897e958d393","study_id":"6197b3f67c2b5cd3b6d9596a","session_id":"619bfc039836327200ae593d","condition":"full-information","relevant_dimensions":["pattern","legs"],"bee_group":{"antennae":"X","wings":"X","pattern":"S","legs":"F"},"correct":true,"bonus":1.540000000000001},{"rt":2531.300000011921,"stimulus":"<p>Congrats, you got everything right<br>When you're ready, click the button below to continue to the experiment.</p>","response":0,"trial_type":"html-button-response","trial_index":6,"time_elapsed":178025,"internal_node_id":"0.0-3.0-3.0","subject_id":"6017320a527c3897e958d393","study_id":"6197b3f67c2b5cd3b6d9596a","session_id":"619bfc039836327200ae593d","condition":"full-information","relevant_dimensions":["pattern","legs"],"bee_group":{"antennae":"X","wings":"X","pattern":"S","legs":"F"},"bonus":1.540000000000001},{"rt":4052.300000011921,"stimulus":"bees-with-color/bee-A2DM.svg","response":1,"trial_type":"image-button-response","trial_index":7,"time_elapsed":182080,"internal_node_id":"0.0-4.0-0.0","subject_id":"6017320a527c3897e958d393","study_id":"6197b3f67c2b5cd3b6d9596a","session_id":"619bfc039836327200ae593d","condition":"full-information","relevant_dimensions":["pattern","legs"],"bee_group":{"antennae":"X","wings":"X","pattern":"S","legs":"F"},"action":"avoid","summary":"bad-avoid","bonus":1.540000000000001},{"rt":15602.5,"stimulus":"\n                    <p><b>Action: <em>avoid</em></b></p>\n                    <p>This is the bee that you just saw.</p>\n                    <img src=\"bees-with-color/bee-A2DM.svg\" width=\"200\">\n                    <p><span class=\"redText\">Bad choice,</span> the bee was friendly.<br>Your bonus pay is unchanged, and remains at $0.54.</p>\n            ","response":0,"trial_type":"html-button-response","trial_index":8,"time_elapsed":197685,"internal_node_id":"0.0-4.0-1.0","subject_id":"6017320a527c3897e958d393","study_id":"6197b3f67c2b5cd3b6d9596a","session_id":"619bfc039836327200ae593d","condition":"full-information","relevant_dimensions":["pattern","legs"],"bee_group":{"antennae":"X","wings":"X","pattern":"S","legs":"F"},"bonus":1.540000000000001},{"rt":5103.200000047684,"stimulus":"bees-with-color/bee-A1DM.svg","response":0,"trial_type":"image-button-response","trial_index":9,"time_elapsed":202791,"internal_node_id":"0.0-4.0-0.1","subject_id":"6017320a527c3897e958d393","study_id":"6197b3f67c2b5cd3b6d9596a","session_id":"619bfc039836327200ae593d","condition":"full-information","relevant_dimensions":["pattern","legs"],"bee_group":{"antennae":"X","wings":"X","pattern":"S","legs":"F"},"action":"harvest","summary":"good-harvest","bonus":1.540000000000001},{"rt":14160.899999976158,"stimulus":"\n                    <p><b>Action: <em>harvest</em></b></p>\n                    <p>This is the bee that you just saw.</p>\n                    <img src=\"bees-with-color/bee-A1DM.svg\" width=\"200\">\n                    <p><span class=\"greenText\"><b>Successful harvest!</b></span><br>Your pay has increased by $0.02. Your bonus pay is now $0.56.</p>\n            ","response":0,"trial_type":"html-button-response","trial_index":10,"time_elapsed":216954,"internal_node_id":"0.0-4.0-1.1","subject_id":"6017320a527c3897e958d393","study_id":"6197b3f67c2b5cd3b6d9596a","session_id":"619bfc039836327200ae593d","condition":"full-information","relevant_dimensions":["pattern","legs"],"bee_group":{"antennae":"X","wings":"X","pattern":"S","legs":"F"},"bonus":1.540000000000001},{"rt":1915.1000000238419,"stimulus":"bees-with-color/bee-B1SF.svg","response":1,"trial_type":"image-button-response","trial_index":11,"time_elapsed":218872,"internal_node_id":"0.0-4.0-0.2","subject_id":"6017320a527c3897e958d393","study_id":"6197b3f67c2b5cd3b6d9596a","session_id":"619bfc039836327200ae593d","condition":"full-information","relevant_dimensions":["pattern","legs"],"bee_group":{"antennae":"X","wings":"X","pattern":"S","legs":"F"},"action":"avoid","summary":"good-avoid","bonus":1.540000000000001},{"rt":4831,"stimulus":"\n                    <p><b>Action: <em>avoid</em></b></p>\n                    <p>This is the bee that you just saw.</p>\n                    <img src=\"bees-with-color/bee-B1SF.svg\" width=\"200\">\n                    <p><span class=\"greenText\">Good choice!</span>  This bee would have stung you.<br>Your bonus pay is unchanged, and remains at $0.56.</p>\n            ","response":0,"trial_type":"html-button-response","trial_index":12,"time_elapsed":223705,"internal_node_id":"0.0-4.0-1.2","subject_id":"6017320a527c3897e958d393","study_id":"6197b3f67c2b5cd3b6d9596a","session_id":"619bfc039836327200ae593d","condition":"full-information","relevant_dimensions":["pattern","legs"],"bee_group":{"antennae":"X","wings":"X","pattern":"S","legs":"F"},"bonus":1.540000000000001},{"rt":5413.300000011921,"stimulus":"bees-with-color/bee-A2SF.svg","response":1,"trial_type":"image-button-response","trial_index":13,"time_elapsed":229120,"internal_node_id":"0.0-4.0-0.3","subject_id":"6017320a527c3897e958d393","study_id":"6197b3f67c2b5cd3b6d9596a","session_id":"619bfc039836327200ae593d","condition":"full-information","relevant_dimensions":["pattern","legs"],"bee_group":{"antennae":"X","wings":"X","pattern":"S","legs":"F"},"action":"avoid","summary":"good-avoid","bonus":1.540000000000001},{"rt":3732.399999976158,"stimulus":"\n                    <p><b>Action: <em>avoid</em></b></p>\n                    <p>This is the bee that you just saw.</p>\n                    <img src=\"bees-with-color/bee-A2SF.svg\" width=\"200\">\n                    <p><span class=\"greenText\">Good choice!</span>  This bee would have stung you.<br>Your bonus pay is unchanged, and remains at $0.56.</p>\n            ","response":0,"trial_type":"html-button-response","trial_index":14,"time_elapsed":232854,"internal_node_id":"0.0-4.0-1.3","subject_id":"6017320a527c3897e958d393","study_id":"6197b3f67c2b5cd3b6d9596a","session_id":"619bfc039836327200ae593d","condition":"full-information","relevant_dimensions":["pattern","legs"],"bee_group":{"antennae":"X","wings":"X","pattern":"S","legs":"F"},"bonus":1.540000000000001},{"rt":3622.5,"stimulus":"bees-with-color/bee-A1SM.svg","response":0,"trial_type":"image-button-response","trial_index":15,"time_elapsed":236478,"internal_node_id":"0.0-4.0-0.4","subject_id":"6017320a527c3897e958d393","study_id":"6197b3f67c2b5cd3b6d9596a","session_id":"619bfc039836327200ae593d","condition":"full-information","relevant_dimensions":["pattern","legs"],"bee_group":{"antennae":"X","wings":"X","pattern":"S","legs":"F"},"action":"harvest","summary":"good-harvest","bonus":1.540000000000001},{"rt":10269.100000023842,"stimulus":"\n                    <p><b>Action: <em>harvest</em></b></p>\n                    <p>This is the bee that you just saw.</p>\n                    <img src=\"bees-with-color/bee-A1SM.svg\" width=\"200\">\n                    <p><span class=\"greenText\"><b>Successful harvest!</b></span><br>Your pay has increased by $0.02. Your bonus pay is now $0.58.</p>\n            ","response":0,"trial_type":"html-button-response","trial_index":16,"time_elapsed":246749,"internal_node_id":"0.0-4.0-1.4","subject_id":"6017320a527c3897e958d393","study_id":"6197b3f67c2b5cd3b6d9596a","session_id":"619bfc039836327200ae593d","condition":"full-information","relevant_dimensions":["pattern","legs"],"bee_group":{"antennae":"X","wings":"X","pattern":"S","legs":"F"},"bonus":1.540000000000001},{"rt":3512,"stimulus":"bees-with-color/bee-B2DM.svg","response":1,"trial_type":"image-button-response","trial_index":17,"time_elapsed":250262,"internal_node_id":"0.0-4.0-0.5","subject_id":"6017320a527c3897e958d393","study_id":"6197b3f67c2b5cd3b6d9596a","session_id":"619bfc039836327200ae593d","condition":"full-information","relevant_dimensions":["pattern","legs"],"bee_group":{"antennae":"X","wings":"X","pattern":"S","legs":"F"},"action":"avoid","summary":"bad-avoid","bonus":1.540000000000001},{"rt":3774.800000011921,"stimulus":"\n                    <p><b>Action: <em>avoid</em></b></p>\n                    <p>This is the bee that you just saw.</p>\n                    <img src=\"bees-with-color/bee-B2DM.svg\" width=\"200\">\n                    <p><span class=\"redText\">Bad choice,</span> the bee was friendly.<br>Your bonus pay is unchanged, and remains at $0.58.</p>\n            ","response":0,"trial_type":"html-button-response","trial_index":18,"time_elapsed":254039,"internal_node_id":"0.0-4.0-1.5","subject_id":"6017320a527c3897e958d393","study_id":"6197b3f67c2b5cd3b6d9596a","session_id":"619bfc039836327200ae593d","condition":"full-information","relevant_dimensions":["pattern","legs"],"bee_group":{"antennae":"X","wings":"X","pattern":"S","legs":"F"},"bonus":1.540000000000001},{"rt":3247.099999964237,"stimulus":"bees-with-color/bee-B1DM.svg","response":0,"trial_type":"image-button-response","trial_index":19,"time_elapsed":257289,"internal_node_id":"0.0-4.0-0.6","subject_id":"6017320a527c3897e958d393","study_id":"6197b3f67c2b5cd3b6d9596a","session_id":"619bfc039836327200ae593d","condition":"full-information","relevant_dimensions":["pattern","legs"],"bee_group":{"antennae":"X","wings":"X","pattern":"S","legs":"F"},"action":"harvest","summary":"good-harvest","bonus":1.540000000000001},{"rt":1056.199999988079,"stimulus":"\n                    <p><b>Action: <em>harvest</em></b></p>\n                    <p>This is the bee that you just saw.</p>\n                    <img src=\"bees-with-color/bee-B1DM.svg\" width=\"200\">\n                    <p><span class=\"greenText\"><b>Successful harvest!</b></span><br>Your pay has increased by $0.02. Your bonus pay is now $0.60.</p>\n            ","response":0,"trial_type":"html-button-response","trial_index":20,"time_elapsed":258346,"internal_node_id":"0.0-4.0-1.6","subject_id":"6017320a527c3897e958d393","study_id":"6197b3f67c2b5cd3b6d9596a","session_id":"619bfc039836327200ae593d","condition":"full-information","relevant_dimensions":["pattern","legs"],"bee_group":{"antennae":"X","wings":"X","pattern":"S","legs":"F"},"bonus":1.540000000000001},{"rt":3375.199999988079,"stimulus":"bees-with-color/bee-B1DF.svg","response":1,"trial_type":"image-button-response","trial_index":21,"time_elapsed":261724,"internal_node_id":"0.0-4.0-0.7","subject_id":"6017320a527c3897e958d393","study_id":"6197b3f67c2b5cd3b6d9596a","session_id":"619bfc039836327200ae593d","condition":"full-information","relevant_dimensions":["pattern","legs"],"bee_group":{"antennae":"X","wings":"X","pattern":"S","legs":"F"},"action":"avoid","summary":"bad-avoid","bonus":1.540000000000001},{"rt":3964.300000011921,"stimulus":"\n                    <p><b>Action: <em>avoid</em></b></p>\n                    <p>This is the bee that you just saw.</p>\n                    <img src=\"bees-with-color/bee-B1DF.svg\" width=\"200\">\n                    <p><span class=\"redText\">Bad choice,</span> the bee was friendly.<br>Your bonus pay is unchanged, and remains at $0.60.</p>\n            ","response":0,"trial_type":"html-button-response","trial_index":22,"time_elapsed":265690,"internal_node_id":"0.0-4.0-1.7","subject_id":"6017320a527c3897e958d393","study_id":"6197b3f67c2b5cd3b6d9596a","session_id":"619bfc039836327200ae593d","condition":"full-information","relevant_dimensions":["pattern","legs"],"bee_group":{"antennae":"X","wings":"X","pattern":"S","legs":"F"},"bonus":1.540000000000001},{"rt":2733.900000035763,"stimulus":"bees-with-color/bee-B2SF.svg","response":1,"trial_type":"image-button-response","trial_index":23,"time_elapsed":268426,"internal_node_id":"0.0-4.0-0.8","subject_id":"6017320a527c3897e958d393","study_id":"6197b3f67c2b5cd3b6d9596a","session_id":"619bfc039836327200ae593d","condition":"full-information","relevant_dimensions":["pattern","legs"],"bee_group":{"antennae":"X","wings":"X","pattern":"S","legs":"F"},"action":"avoid","summary":"good-avoid","bonus":1.540000000000001},{"rt":736,"stimulus":"\n                    <p><b>Action: <em>avoid</em></b></p>\n                    <p>This is the bee that you just saw.</p>\n                    <img src=\"bees-with-color/bee-B2SF.svg\" width=\"200\">\n                    <p><span class=\"greenText\">Good choice!</span>  This bee would have stung you.<br>Your bonus pay is unchanged, and remains at $0.60.</p>\n            ","response":0,"trial_type":"html-button-response","trial_index":24,"time_elapsed":269163,"internal_node_id":"0.0-4.0-1.8","subject_id":"6017320a527c3897e958d393","study_id":"6197b3f67c2b5cd3b6d9596a","session_id":"619bfc039836327200ae593d","condition":"full-information","relevant_dimensions":["pattern","legs"],"bee_group":{"antennae":"X","wings":"X","pattern":"S","legs":"F"},"bonus":1.540000000000001},{"rt":4218.199999988079,"stimulus":"bees-with-color/bee-A1DF.svg","response":0,"trial_type":"image-button-response","trial_index":25,"time_elapsed":273383,"internal_node_id":"0.0-4.0-0.9","subject_id":"6017320a527c3897e958d393","study_id":"6197b3f67c2b5cd3b6d9596a","session_id":"619bfc039836327200ae593d","condition":"full-information","relevant_dimensions":["pattern","legs"],"bee_group":{"antennae":"X","wings":"X","pattern":"S","legs":"F"},"action":"harvest","summary":"good-harvest","bonus":1.540000000000001},{"rt":1072.6000000238419,"stimulus":"\n                    <p><b>Action: <em>harvest</em></b></p>\n                    <p>This is the bee that you just saw.</p>\n                    <img src=\"bees-with-color/bee-A1DF.svg\" width=\"200\">\n                    <p><span class=\"greenText\"><b>Successful harvest!</b></span><br>Your pay has increased by $0.02. Your bonus pay is now $0.62.</p>\n            ","response":0,"trial_type":"html-button-response","trial_index":26,"time_elapsed":274457,"internal_node_id":"0.0-4.0-1.9","subject_id":"6017320a527c3897e958d393","study_id":"6197b3f67c2b5cd3b6d9596a","session_id":"619bfc039836327200ae593d","condition":"full-information","relevant_dimensions":["pattern","legs"],"bee_group":{"antennae":"X","wings":"X","pattern":"S","legs":"F"},"bonus":1.540000000000001},{"rt":2813.5,"stimulus":"bees-with-color/bee-A1SF.svg","response":1,"trial_type":"image-button-response","trial_index":27,"time_elapsed":277273,"internal_node_id":"0.0-4.0-0.10","subject_id":"6017320a527c3897e958d393","study_id":"6197b3f67c2b5cd3b6d9596a","session_id":"619bfc039836327200ae593d","condition":"full-information","relevant_dimensions":["pattern","legs"],"bee_group":{"antennae":"X","wings":"X","pattern":"S","legs":"F"},"action":"avoid","summary":"good-avoid","bonus":1.540000000000001},{"rt":1200.699999988079,"stimulus":"\n                    <p><b>Action: <em>avoid</em></b></p>\n                    <p>This is the bee that you just saw.</p>\n                    <img src=\"bees-with-color/bee-A1SF.svg\" width=\"200\">\n                    <p><span class=\"greenText\">Good choice!</span>  This bee would have stung you.<br>Your bonus pay is unchanged, and remains at $0.62.</p>\n            ","response":0,"trial_type":"html-button-response","trial_index":28,"time_elapsed":278476,"internal_node_id":"0.0-4.0-1.10","subject_id":"6017320a527c3897e958d393","study_id":"6197b3f67c2b5cd3b6d9596a","session_id":"619bfc039836327200ae593d","condition":"full-information","relevant_dimensions":["pattern","legs"],"bee_group":{"antennae":"X","wings":"X","pattern":"S","legs":"F"},"bonus":1.540000000000001},{"rt":2228.600000023842,"stimulus":"bees-with-color/bee-A2DF.svg","response":0,"trial_type":"image-button-response","trial_index":29,"time_elapsed":280706,"internal_node_id":"0.0-4.0-0.11","subject_id":"6017320a527c3897e958d393","study_id":"6197b3f67c2b5cd3b6d9596a","session_id":"619bfc039836327200ae593d","condition":"full-information","relevant_dimensions":["pattern","legs"],"bee_group":{"antennae":"X","wings":"X","pattern":"S","legs":"F"},"action":"harvest","summary":"good-harvest","bonus":1.540000000000001},{"rt":802.6000000238419,"stimulus":"\n                    <p><b>Action: <em>harvest</em></b></p>\n                    <p>This is the bee that you just saw.</p>\n                    <img src=\"bees-with-color/bee-A2DF.svg\" width=\"200\">\n                    <p><span class=\"greenText\"><b>Successful harvest!</b></span><br>Your pay has increased by $0.02. Your bonus pay is now $0.64.</p>\n            ","response":0,"trial_type":"html-button-response","trial_index":30,"time_elapsed":281510,"internal_node_id":"0.0-4.0-1.11","subject_id":"6017320a527c3897e958d393","study_id":"6197b3f67c2b5cd3b6d9596a","session_id":"619bfc039836327200ae593d","condition":"full-information","relevant_dimensions":["pattern","legs"],"bee_group":{"antennae":"X","wings":"X","pattern":"S","legs":"F"},"bonus":1.540000000000001},{"rt":2803.5,"stimulus":"bees-with-color/bee-B2SM.svg","response":0,"trial_type":"image-button-response","trial_index":31,"time_elapsed":284315,"internal_node_id":"0.0-4.0-0.12","subject_id":"6017320a527c3897e958d393","study_id":"6197b3f67c2b5cd3b6d9596a","session_id":"619bfc039836327200ae593d","condition":"full-information","relevant_dimensions":["pattern","legs"],"bee_group":{"antennae":"X","wings":"X","pattern":"S","legs":"F"},"action":"harvest","summary":"good-harvest","bonus":1.540000000000001},{"rt":761.6000000238419,"stimulus":"\n                    <p><b>Action: <em>harvest</em></b></p>\n                    <p>This is the bee that you just saw.</p>\n                    <img src=\"bees-with-color/bee-B2SM.svg\" width=\"200\">\n                    <p><span class=\"greenText\"><b>Successful harvest!</b></span><br>Your pay has increased by $0.02. Your bonus pay is now $0.66.</p>\n            ","response":0,"trial_type":"html-button-response","trial_index":32,"time_elapsed":285078,"internal_node_id":"0.0-4.0-1.12","subject_id":"6017320a527c3897e958d393","study_id":"6197b3f67c2b5cd3b6d9596a","session_id":"619bfc039836327200ae593d","condition":"full-information","relevant_dimensions":["pattern","legs"],"bee_group":{"antennae":"X","wings":"X","pattern":"S","legs":"F"},"bonus":1.540000000000001},{"rt":4722.5,"stimulus":"bees-with-color/bee-B1SM.svg","response":0,"trial_type":"image-button-response","trial_index":33,"time_elapsed":289803,"internal_node_id":"0.0-4.0-0.13","subject_id":"6017320a527c3897e958d393","study_id":"6197b3f67c2b5cd3b6d9596a","session_id":"619bfc039836327200ae593d","condition":"full-information","relevant_dimensions":["pattern","legs"],"bee_group":{"antennae":"X","wings":"X","pattern":"S","legs":"F"},"action":"harvest","summary":"good-harvest","bonus":1.540000000000001},{"rt":663.6999999880791,"stimulus":"\n                    <p><b>Action: <em>harvest</em></b></p>\n                    <p>This is the bee that you just saw.</p>\n                    <img src=\"bees-with-color/bee-B1SM.svg\" width=\"200\">\n                    <p><span class=\"greenText\"><b>Successful harvest!</b></span><br>Your pay has increased by $0.02. Your bonus pay is now $0.68.</p>\n            ","response":0,"trial_type":"html-button-response","trial_index":34,"time_elapsed":290468,"internal_node_id":"0.0-4.0-1.13","subject_id":"6017320a527c3897e958d393","study_id":"6197b3f67c2b5cd3b6d9596a","session_id":"619bfc039836327200ae593d","condition":"full-information","relevant_dimensions":["pattern","legs"],"bee_group":{"antennae":"X","wings":"X","pattern":"S","legs":"F"},"bonus":1.540000000000001},{"rt":3710.300000011921,"stimulus":"bees-with-color/bee-B2DF.svg","response":1,"trial_type":"image-button-response","trial_index":35,"time_elapsed":294180,"internal_node_id":"0.0-4.0-0.14","subject_id":"6017320a527c3897e958d393","study_id":"6197b3f67c2b5cd3b6d9596a","session_id":"619bfc039836327200ae593d","condition":"full-information","relevant_dimensions":["pattern","legs"],"bee_group":{"antennae":"X","wings":"X","pattern":"S","legs":"F"},"action":"avoid","summary":"bad-avoid","bonus":1.540000000000001},{"rt":1476.3999999761581,"stimulus":"\n                    <p><b>Action: <em>avoid</em></b></p>\n                    <p>This is the bee that you just saw.</p>\n                    <img src=\"bees-with-color/bee-B2DF.svg\" width=\"200\">\n                    <p><span class=\"redText\">Bad choice,</span> the bee was friendly.<br>Your bonus pay is unchanged, and remains at $0.68.</p>\n            ","response":0,"trial_type":"html-button-response","trial_index":36,"time_elapsed":295658,"internal_node_id":"0.0-4.0-1.14","subject_id":"6017320a527c3897e958d393","study_id":"6197b3f67c2b5cd3b6d9596a","session_id":"619bfc039836327200ae593d","condition":"full-information","relevant_dimensions":["pattern","legs"],"bee_group":{"antennae":"X","wings":"X","pattern":"S","legs":"F"},"bonus":1.540000000000001},{"rt":3153.199999988079,"stimulus":"bees-with-color/bee-A2SM.svg","response":1,"trial_type":"image-button-response","trial_index":37,"time_elapsed":298813,"internal_node_id":"0.0-4.0-0.15","subject_id":"6017320a527c3897e958d393","study_id":"6197b3f67c2b5cd3b6d9596a","session_id":"619bfc039836327200ae593d","condition":"full-information","relevant_dimensions":["pattern","legs"],"bee_group":{"antennae":"X","wings":"X","pattern":"S","legs":"F"},"action":"avoid","summary":"bad-avoid","bonus":1.540000000000001},{"rt":946.1999999880791,"stimulus":"\n                    <p><b>Action: <em>avoid</em></b></p>\n                    <p>This is the bee that you just saw.</p>\n                    <img src=\"bees-with-color/bee-A2SM.svg\" width=\"200\">\n                    <p><span class=\"redText\">Bad choice,</span> the bee was friendly.<br>Your bonus pay is unchanged, and remains at $0.68.</p>\n            ","response":0,"trial_type":"html-button-response","trial_index":38,"time_elapsed":299761,"internal_node_id":"0.0-4.0-1.15","subject_id":"6017320a527c3897e958d393","study_id":"6197b3f67c2b5cd3b6d9596a","session_id":"619bfc039836327200ae593d","condition":"full-information","relevant_dimensions":["pattern","legs"],"bee_group":{"antennae":"X","wings":"X","pattern":"S","legs":"F"},"bonus":1.540000000000001},{"rt":2884.2999999523163,"stimulus":"bees-with-color/bee-B2DM.svg","response":0,"trial_type":"image-button-response","trial_index":39,"time_elapsed":302647,"internal_node_id":"0.0-4.0-0.16","subject_id":"6017320a527c3897e958d393","study_id":"6197b3f67c2b5cd3b6d9596a","session_id":"619bfc039836327200ae593d","condition":"full-information","relevant_dimensions":["pattern","legs"],"bee_group":{"antennae":"X","wings":"X","pattern":"S","legs":"F"},"action":"harvest","summary":"good-harvest","bonus":1.540000000000001},{"rt":627.6999999880791,"stimulus":"\n                    <p><b>Action: <em>harvest</em></b></p>\n                    <p>This is the bee that you just saw.</p>\n                    <img src=\"bees-with-color/bee-B2DM.svg\" width=\"200\">\n                    <p><span class=\"greenText\"><b>Successful harvest!</b></span><br>Your pay has increased by $0.02. Your bonus pay is now $0.70.</p>\n            ","response":0,"trial_type":"html-button-response","trial_index":40,"time_elapsed":303276,"internal_node_id":"0.0-4.0-1.16","subject_id":"6017320a527c3897e958d393","study_id":"6197b3f67c2b5cd3b6d9596a","session_id":"619bfc039836327200ae593d","condition":"full-information","relevant_dimensions":["pattern","legs"],"bee_group":{"antennae":"X","wings":"X","pattern":"S","legs":"F"},"bonus":1.540000000000001},{"rt":3621.600000023842,"stimulus":"bees-with-color/bee-A2DF.svg","response":0,"trial_type":"image-button-response","trial_index":41,"time_elapsed":306899,"internal_node_id":"0.0-4.0-0.17","subject_id":"6017320a527c3897e958d393","study_id":"6197b3f67c2b5cd3b6d9596a","session_id":"619bfc039836327200ae593d","condition":"full-information","relevant_dimensions":["pattern","legs"],"bee_group":{"antennae":"X","wings":"X","pattern":"S","legs":"F"},"action":"harvest","summary":"good-harvest","bonus":1.540000000000001},{"rt":632.5999999642372,"stimulus":"\n                    <p><b>Action: <em>harvest</em></b></p>\n                    <p>This is the bee that you just saw.</p>\n                    <img src=\"bees-with-color/bee-A2DF.svg\" width=\"200\">\n                    <p><span class=\"greenText\"><b>Successful harvest!</b></span><br>Your pay has increased by $0.02. Your bonus pay is now $0.72.</p>\n            ","response":0,"trial_type":"html-button-response","trial_index":42,"time_elapsed":307533,"internal_node_id":"0.0-4.0-1.17","subject_id":"6017320a527c3897e958d393","study_id":"6197b3f67c2b5cd3b6d9596a","session_id":"619bfc039836327200ae593d","condition":"full-information","relevant_dimensions":["pattern","legs"],"bee_group":{"antennae":"X","wings":"X","pattern":"S","legs":"F"},"bonus":1.540000000000001},{"rt":4571.599999964237,"stimulus":"bees-with-color/bee-A1DF.svg","response":1,"trial_type":"image-button-response","trial_index":43,"time_elapsed":312106,"internal_node_id":"0.0-4.0-0.18","subject_id":"6017320a527c3897e958d393","study_id":"6197b3f67c2b5cd3b6d9596a","session_id":"619bfc039836327200ae593d","condition":"full-information","relevant_dimensions":["pattern","legs"],"bee_group":{"antennae":"X","wings":"X","pattern":"S","legs":"F"},"action":"avoid","summary":"bad-avoid","bonus":1.540000000000001},{"rt":1010.5,"stimulus":"\n                    <p><b>Action: <em>avoid</em></b></p>\n                    <p>This is the bee that you just saw.</p>\n                    <img src=\"bees-with-color/bee-A1DF.svg\" width=\"200\">\n                    <p><span class=\"redText\">Bad choice,</span> the bee was friendly.<br>Your bonus pay is unchanged, and remains at $0.72.</p>\n            ","response":0,"trial_type":"html-button-response","trial_index":44,"time_elapsed":313118,"internal_node_id":"0.0-4.0-1.18","subject_id":"6017320a527c3897e958d393","study_id":"6197b3f67c2b5cd3b6d9596a","session_id":"619bfc039836327200ae593d","condition":"full-information","relevant_dimensions":["pattern","legs"],"bee_group":{"antennae":"X","wings":"X","pattern":"S","legs":"F"},"bonus":1.540000000000001},{"rt":2552.600000023842,"stimulus":"bees-with-color/bee-B1DM.svg","response":1,"trial_type":"image-button-response","trial_index":45,"time_elapsed":315672,"internal_node_id":"0.0-4.0-0.19","subject_id":"6017320a527c3897e958d393","study_id":"6197b3f67c2b5cd3b6d9596a","session_id":"619bfc039836327200ae593d","condition":"full-information","relevant_dimensions":["pattern","legs"],"bee_group":{"antennae":"X","wings":"X","pattern":"S","legs":"F"},"action":"avoid","summary":"bad-avoid","bonus":1.540000000000001},{"rt":932.1000000238419,"stimulus":"\n                    <p><b>Action: <em>avoid</em></b></p>\n                    <p>This is the bee that you just saw.</p>\n                    <img src=\"bees-with-color/bee-B1DM.svg\" width=\"200\">\n                    <p><span class=\"redText\">Bad choice,</span> the bee was friendly.<br>Your bonus pay is unchanged, and remains at $0.72.</p>\n            ","response":0,"trial_type":"html-button-response","trial_index":46,"time_elapsed":316606,"internal_node_id":"0.0-4.0-1.19","subject_id":"6017320a527c3897e958d393","study_id":"6197b3f67c2b5cd3b6d9596a","session_id":"619bfc039836327200ae593d","condition":"full-information","relevant_dimensions":["pattern","legs"],"bee_group":{"antennae":"X","wings":"X","pattern":"S","legs":"F"},"bonus":1.540000000000001},{"rt":2324.800000011921,"stimulus":"bees-with-color/bee-A2SF.svg","response":1,"trial_type":"image-button-response","trial_index":47,"time_elapsed":318932,"internal_node_id":"0.0-4.0-0.20","subject_id":"6017320a527c3897e958d393","study_id":"6197b3f67c2b5cd3b6d9596a","session_id":"619bfc039836327200ae593d","condition":"full-information","relevant_dimensions":["pattern","legs"],"bee_group":{"antennae":"X","wings":"X","pattern":"S","legs":"F"},"action":"avoid","summary":"good-avoid","bonus":1.540000000000001},{"rt":703.1999999880791,"stimulus":"\n                    <p><b>Action: <em>avoid</em></b></p>\n                    <p>This is the bee that you just saw.</p>\n                    <img src=\"bees-with-color/bee-A2SF.svg\" width=\"200\">\n                    <p><span class=\"greenText\">Good choice!</span>  This bee would have stung you.<br>Your bonus pay is unchanged, and remains at $0.72.</p>\n            ","response":0,"trial_type":"html-button-response","trial_index":48,"time_elapsed":319637,"internal_node_id":"0.0-4.0-1.20","subject_id":"6017320a527c3897e958d393","study_id":"6197b3f67c2b5cd3b6d9596a","session_id":"619bfc039836327200ae593d","condition":"full-information","relevant_dimensions":["pattern","legs"],"bee_group":{"antennae":"X","wings":"X","pattern":"S","legs":"F"},"bonus":1.540000000000001},{"rt":1944.8999999761581,"stimulus":"bees-with-color/bee-B1DF.svg","response":0,"trial_type":"image-button-response","trial_index":49,"time_elapsed":321584,"internal_node_id":"0.0-4.0-0.21","subject_id":"6017320a527c3897e958d393","study_id":"6197b3f67c2b5cd3b6d9596a","session_id":"619bfc039836327200ae593d","condition":"full-information","relevant_dimensions":["pattern","legs"],"bee_group":{"antennae":"X","wings":"X","pattern":"S","legs":"F"},"action":"harvest","summary":"good-harvest","bonus":1.540000000000001},{"rt":687.2999999523163,"stimulus":"\n                    <p><b>Action: <em>harvest</em></b></p>\n                    <p>This is the bee that you just saw.</p>\n                    <img src=\"bees-with-color/bee-B1DF.svg\" width=\"200\">\n                    <p><span class=\"greenText\"><b>Successful harvest!</b></span><br>Your pay has increased by $0.02. Your bonus pay is now $0.74.</p>\n            ","response":0,"trial_type":"html-button-response","trial_index":50,"time_elapsed":322273,"internal_node_id":"0.0-4.0-1.21","subject_id":"6017320a527c3897e958d393","study_id":"6197b3f67c2b5cd3b6d9596a","session_id":"619bfc039836327200ae593d","condition":"full-information","relevant_dimensions":["pattern","legs"],"bee_group":{"antennae":"X","wings":"X","pattern":"S","legs":"F"},"bonus":1.540000000000001},{"rt":4215.5,"stimulus":"bees-with-color/bee-A1SM.svg","response":0,"trial_type":"image-button-response","trial_index":51,"time_elapsed":326490,"internal_node_id":"0.0-4.0-0.22","subject_id":"6017320a527c3897e958d393","study_id":"6197b3f67c2b5cd3b6d9596a","session_id":"619bfc039836327200ae593d","condition":"full-information","relevant_dimensions":["pattern","legs"],"bee_group":{"antennae":"X","wings":"X","pattern":"S","legs":"F"},"action":"harvest","summary":"good-harvest","bonus":1.540000000000001},{"rt":726.3000000119209,"stimulus":"\n                    <p><b>Action: <em>harvest</em></b></p>\n                    <p>This is the bee that you just saw.</p>\n                    <img src=\"bees-with-color/bee-A1SM.svg\" width=\"200\">\n                    <p><span class=\"greenText\"><b>Successful harvest!</b></span><br>Your pay has increased by $0.02. Your bonus pay is now $0.76.</p>\n            ","response":0,"trial_type":"html-button-response","trial_index":52,"time_elapsed":327218,"internal_node_id":"0.0-4.0-1.22","subject_id":"6017320a527c3897e958d393","study_id":"6197b3f67c2b5cd3b6d9596a","session_id":"619bfc039836327200ae593d","condition":"full-information","relevant_dimensions":["pattern","legs"],"bee_group":{"antennae":"X","wings":"X","pattern":"S","legs":"F"},"bonus":1.540000000000001},{"rt":1846.3999999761581,"stimulus":"bees-with-color/bee-A1SF.svg","response":1,"trial_type":"image-button-response","trial_index":53,"time_elapsed":329067,"internal_node_id":"0.0-4.0-0.23","subject_id":"6017320a527c3897e958d393","study_id":"6197b3f67c2b5cd3b6d9596a","session_id":"619bfc039836327200ae593d","condition":"full-information","relevant_dimensions":["pattern","legs"],"bee_group":{"antennae":"X","wings":"X","pattern":"S","legs":"F"},"action":"avoid","summary":"good-avoid","bonus":1.540000000000001},{"rt":969.1999999880791,"stimulus":"\n                    <p><b>Action: <em>avoid</em></b></p>\n                    <p>This is the bee that you just saw.</p>\n                    <img src=\"bees-with-color/bee-A1SF.svg\" width=\"200\">\n                    <p><span class=\"greenText\">Good choice!</span>  This bee would have stung you.<br>Your bonus pay is unchanged, and remains at $0.76.</p>\n            ","response":0,"trial_type":"html-button-response","trial_index":54,"time_elapsed":330038,"internal_node_id":"0.0-4.0-1.23","subject_id":"6017320a527c3897e958d393","study_id":"6197b3f67c2b5cd3b6d9596a","session_id":"619bfc039836327200ae593d","condition":"full-information","relevant_dimensions":["pattern","legs"],"bee_group":{"antennae":"X","wings":"X","pattern":"S","legs":"F"},"bonus":1.540000000000001},{"rt":2302.599999964237,"stimulus":"bees-with-color/bee-B2SF.svg","response":1,"trial_type":"image-button-response","trial_index":55,"time_elapsed":332342,"internal_node_id":"0.0-4.0-0.24","subject_id":"6017320a527c3897e958d393","study_id":"6197b3f67c2b5cd3b6d9596a","session_id":"619bfc039836327200ae593d","condition":"full-information","relevant_dimensions":["pattern","legs"],"bee_group":{"antennae":"X","wings":"X","pattern":"S","legs":"F"},"action":"avoid","summary":"good-avoid","bonus":1.540000000000001},{"rt":1076.4000000357628,"stimulus":"\n                    <p><b>Action: <em>avoid</em></b></p>\n                    <p>This is the bee that you just saw.</p>\n                    <img src=\"bees-with-color/bee-B2SF.svg\" width=\"200\">\n                    <p><span class=\"greenText\">Good choice!</span>  This bee would have stung you.<br>Your bonus pay is unchanged, and remains at $0.76.</p>\n            ","response":0,"trial_type":"html-button-response","trial_index":56,"time_elapsed":333420,"internal_node_id":"0.0-4.0-1.24","subject_id":"6017320a527c3897e958d393","study_id":"6197b3f67c2b5cd3b6d9596a","session_id":"619bfc039836327200ae593d","condition":"full-information","relevant_dimensions":["pattern","legs"],"bee_group":{"antennae":"X","wings":"X","pattern":"S","legs":"F"},"bonus":1.540000000000001},{"rt":1313.5,"stimulus":"bees-with-color/bee-A1DM.svg","response":0,"trial_type":"image-button-response","trial_index":57,"time_elapsed":334735,"internal_node_id":"0.0-4.0-0.25","subject_id":"6017320a527c3897e958d393","study_id":"6197b3f67c2b5cd3b6d9596a","session_id":"619bfc039836327200ae593d","condition":"full-information","relevant_dimensions":["pattern","legs"],"bee_group":{"antennae":"X","wings":"X","pattern":"S","legs":"F"},"action":"harvest","summary":"good-harvest","bonus":1.540000000000001},{"rt":873.7999999523163,"stimulus":"\n                    <p><b>Action: <em>harvest</em></b></p>\n                    <p>This is the bee that you just saw.</p>\n                    <img src=\"bees-with-color/bee-A1DM.svg\" width=\"200\">\n                    <p><span class=\"greenText\"><b>Successful harvest!</b></span><br>Your pay has increased by $0.02. Your bonus pay is now $0.78.</p>\n            ","response":0,"trial_type":"html-button-response","trial_index":58,"time_elapsed":335610,"internal_node_id":"0.0-4.0-1.25","subject_id":"6017320a527c3897e958d393","study_id":"6197b3f67c2b5cd3b6d9596a","session_id":"619bfc039836327200ae593d","condition":"full-information","relevant_dimensions":["pattern","legs"],"bee_group":{"antennae":"X","wings":"X","pattern":"S","legs":"F"},"bonus":1.540000000000001},{"rt":5694.600000023842,"stimulus":"bees-with-color/bee-B2SM.svg","response":0,"trial_type":"image-button-response","trial_index":59,"time_elapsed":341306,"internal_node_id":"0.0-4.0-0.26","subject_id":"6017320a527c3897e958d393","study_id":"6197b3f67c2b5cd3b6d9596a","session_id":"619bfc039836327200ae593d","condition":"full-information","relevant_dimensions":["pattern","legs"],"bee_group":{"antennae":"X","wings":"X","pattern":"S","legs":"F"},"action":"harvest","summary":"good-harvest","bonus":1.540000000000001},{"rt":693.5999999642372,"stimulus":"\n                    <p><b>Action: <em>harvest</em></b></p>\n                    <p>This is the bee that you just saw.</p>\n                    <img src=\"bees-with-color/bee-B2SM.svg\" width=\"200\">\n                    <p><span class=\"greenText\"><b>Successful harvest!</b></span><br>Your pay has increased by $0.02. Your bonus pay is now $0.80.</p>\n            ","response":0,"trial_type":"html-button-response","trial_index":60,"time_elapsed":342001,"internal_node_id":"0.0-4.0-1.26","subject_id":"6017320a527c3897e958d393","study_id":"6197b3f67c2b5cd3b6d9596a","session_id":"619bfc039836327200ae593d","condition":"full-information","relevant_dimensions":["pattern","legs"],"bee_group":{"antennae":"X","wings":"X","pattern":"S","legs":"F"},"bonus":1.540000000000001},{"rt":5748.5,"stimulus":"bees-with-color/bee-B1SF.svg","response":1,"trial_type":"image-button-response","trial_index":61,"time_elapsed":347751,"internal_node_id":"0.0-4.0-0.27","subject_id":"6017320a527c3897e958d393","study_id":"6197b3f67c2b5cd3b6d9596a","session_id":"619bfc039836327200ae593d","condition":"full-information","relevant_dimensions":["pattern","legs"],"bee_group":{"antennae":"X","wings":"X","pattern":"S","legs":"F"},"action":"avoid","summary":"good-avoid","bonus":1.540000000000001},{"rt":573.5,"stimulus":"\n                    <p><b>Action: <em>avoid</em></b></p>\n                    <p>This is the bee that you just saw.</p>\n                    <img src=\"bees-with-color/bee-B1SF.svg\" width=\"200\">\n                    <p><span class=\"greenText\">Good choice!</span>  This bee would have stung you.<br>Your bonus pay is unchanged, and remains at $0.80.</p>\n            ","response":0,"trial_type":"html-button-response","trial_index":62,"time_elapsed":348327,"internal_node_id":"0.0-4.0-1.27","subject_id":"6017320a527c3897e958d393","study_id":"6197b3f67c2b5cd3b6d9596a","session_id":"619bfc039836327200ae593d","condition":"full-information","relevant_dimensions":["pattern","legs"],"bee_group":{"antennae":"X","wings":"X","pattern":"S","legs":"F"},"bonus":1.540000000000001},{"rt":1472.6000000238419,"stimulus":"bees-with-color/bee-A2DM.svg","response":0,"trial_type":"image-button-response","trial_index":63,"time_elapsed":349801,"internal_node_id":"0.0-4.0-0.28","subject_id":"6017320a527c3897e958d393","study_id":"6197b3f67c2b5cd3b6d9596a","session_id":"619bfc039836327200ae593d","condition":"full-information","relevant_dimensions":["pattern","legs"],"bee_group":{"antennae":"X","wings":"X","pattern":"S","legs":"F"},"action":"harvest","summary":"good-harvest","bonus":1.540000000000001},{"rt":647,"stimulus":"\n                    <p><b>Action: <em>harvest</em></b></p>\n                    <p>This is the bee that you just saw.</p>\n                    <img src=\"bees-with-color/bee-A2DM.svg\" width=\"200\">\n                    <p><span class=\"greenText\"><b>Successful harvest!</b></span><br>Your pay has increased by $0.02. Your bonus pay is now $0.82.</p>\n            ","response":0,"trial_type":"html-button-response","trial_index":64,"time_elapsed":350450,"internal_node_id":"0.0-4.0-1.28","subject_id":"6017320a527c3897e958d393","study_id":"6197b3f67c2b5cd3b6d9596a","session_id":"619bfc039836327200ae593d","condition":"full-information","relevant_dimensions":["pattern","legs"],"bee_group":{"antennae":"X","wings":"X","pattern":"S","legs":"F"},"bonus":1.540000000000001},{"rt":2992.5,"stimulus":"bees-with-color/bee-B2DF.svg","response":0,"trial_type":"image-button-response","trial_index":65,"time_elapsed":353444,"internal_node_id":"0.0-4.0-0.29","subject_id":"6017320a527c3897e958d393","study_id":"6197b3f67c2b5cd3b6d9596a","session_id":"619bfc039836327200ae593d","condition":"full-information","relevant_dimensions":["pattern","legs"],"bee_group":{"antennae":"X","wings":"X","pattern":"S","legs":"F"},"action":"harvest","summary":"good-harvest","bonus":1.540000000000001},{"rt":737.2999999523163,"stimulus":"\n                    <p><b>Action: <em>harvest</em></b></p>\n                    <p>This is the bee that you just saw.</p>\n                    <img src=\"bees-with-color/bee-B2DF.svg\" width=\"200\">\n                    <p><span class=\"greenText\"><b>Successful harvest!</b></span><br>Your pay has increased by $0.02. Your bonus pay is now $0.84.</p>\n            ","response":0,"trial_type":"html-button-response","trial_index":66,"time_elapsed":354183,"internal_node_id":"0.0-4.0-1.29","subject_id":"6017320a527c3897e958d393","study_id":"6197b3f67c2b5cd3b6d9596a","session_id":"619bfc039836327200ae593d","condition":"full-information","relevant_dimensions":["pattern","legs"],"bee_group":{"antennae":"X","wings":"X","pattern":"S","legs":"F"},"bonus":1.540000000000001},{"rt":5199.199999988079,"stimulus":"bees-with-color/bee-B1SM.svg","response":1,"trial_type":"image-button-response","trial_index":67,"time_elapsed":359384,"internal_node_id":"0.0-4.0-0.30","subject_id":"6017320a527c3897e958d393","study_id":"6197b3f67c2b5cd3b6d9596a","session_id":"619bfc039836327200ae593d","condition":"full-information","relevant_dimensions":["pattern","legs"],"bee_group":{"antennae":"X","wings":"X","pattern":"S","legs":"F"},"action":"avoid","summary":"bad-avoid","bonus":1.540000000000001},{"rt":757.8999999761581,"stimulus":"\n                    <p><b>Action: <em>avoid</em></b></p>\n                    <p>This is the bee that you just saw.</p>\n                    <img src=\"bees-with-color/bee-B1SM.svg\" width=\"200\">\n                    <p><span class=\"redText\">Bad choice,</span> the bee was friendly.<br>Your bonus pay is unchanged, and remains at $0.84.</p>\n            ","response":0,"trial_type":"html-button-response","trial_index":68,"time_elapsed":360144,"internal_node_id":"0.0-4.0-1.30","subject_id":"6017320a527c3897e958d393","study_id":"6197b3f67c2b5cd3b6d9596a","session_id":"619bfc039836327200ae593d","condition":"full-information","relevant_dimensions":["pattern","legs"],"bee_group":{"antennae":"X","wings":"X","pattern":"S","legs":"F"},"bonus":1.540000000000001},{"rt":3199.900000035763,"stimulus":"bees-with-color/bee-A2SM.svg","response":0,"trial_type":"image-button-response","trial_index":69,"time_elapsed":363346,"internal_node_id":"0.0-4.0-0.31","subject_id":"6017320a527c3897e958d393","study_id":"6197b3f67c2b5cd3b6d9596a","session_id":"619bfc039836327200ae593d","condition":"full-information","relevant_dimensions":["pattern","legs"],"bee_group":{"antennae":"X","wings":"X","pattern":"S","legs":"F"},"action":"harvest","summary":"good-harvest","bonus":1.540000000000001},{"rt":702.6999999880791,"stimulus":"\n                    <p><b>Action: <em>harvest</em></b></p>\n                    <p>This is the bee that you just saw.</p>\n                    <img src=\"bees-with-color/bee-A2SM.svg\" width=\"200\">\n                    <p><span class=\"greenText\"><b>Successful harvest!</b></span><br>Your pay has increased by $0.02. Your bonus pay is now $0.86.</p>\n            ","response":0,"trial_type":"html-button-response","trial_index":70,"time_elapsed":364050,"internal_node_id":"0.0-4.0-1.31","subject_id":"6017320a527c3897e958d393","study_id":"6197b3f67c2b5cd3b6d9596a","session_id":"619bfc039836327200ae593d","condition":"full-information","relevant_dimensions":["pattern","legs"],"bee_group":{"antennae":"X","wings":"X","pattern":"S","legs":"F"},"bonus":1.540000000000001},{"rt":1938.2999999523163,"stimulus":"bees-with-color/bee-B2SM.svg","response":1,"trial_type":"image-button-response","trial_index":71,"time_elapsed":365990,"internal_node_id":"0.0-4.0-0.32","subject_id":"6017320a527c3897e958d393","study_id":"6197b3f67c2b5cd3b6d9596a","session_id":"619bfc039836327200ae593d","condition":"full-information","relevant_dimensions":["pattern","legs"],"bee_group":{"antennae":"X","wings":"X","pattern":"S","legs":"F"},"action":"avoid","summary":"bad-avoid","bonus":1.540000000000001},{"rt":773,"stimulus":"\n                    <p><b>Action: <em>avoid</em></b></p>\n                    <p>This is the bee that you just saw.</p>\n                    <img src=\"bees-with-color/bee-B2SM.svg\" width=\"200\">\n                    <p><span class=\"redText\">Bad choice,</span> the bee was friendly.<br>Your bonus pay is unchanged, and remains at $0.86.</p>\n            ","response":0,"trial_type":"html-button-response","trial_index":72,"time_elapsed":366764,"internal_node_id":"0.0-4.0-1.32","subject_id":"6017320a527c3897e958d393","study_id":"6197b3f67c2b5cd3b6d9596a","session_id":"619bfc039836327200ae593d","condition":"full-information","relevant_dimensions":["pattern","legs"],"bee_group":{"antennae":"X","wings":"X","pattern":"S","legs":"F"},"bonus":1.540000000000001},{"rt":1002.8999999761581,"stimulus":"bees-with-color/bee-B2DM.svg","response":0,"trial_type":"image-button-response","trial_index":73,"time_elapsed":367768,"internal_node_id":"0.0-4.0-0.33","subject_id":"6017320a527c3897e958d393","study_id":"6197b3f67c2b5cd3b6d9596a","session_id":"619bfc039836327200ae593d","condition":"full-information","relevant_dimensions":["pattern","legs"],"bee_group":{"antennae":"X","wings":"X","pattern":"S","legs":"F"},"action":"harvest","summary":"good-harvest","bonus":1.540000000000001},{"rt":1161.300000011921,"stimulus":"\n                    <p><b>Action: <em>harvest</em></b></p>\n                    <p>This is the bee that you just saw.</p>\n                    <img src=\"bees-with-color/bee-B2DM.svg\" width=\"200\">\n                    <p><span class=\"greenText\"><b>Successful harvest!</b></span><br>Your pay has increased by $0.02. Your bonus pay is now $0.88.</p>\n            ","response":0,"trial_type":"html-button-response","trial_index":74,"time_elapsed":368931,"internal_node_id":"0.0-4.0-1.33","subject_id":"6017320a527c3897e958d393","study_id":"6197b3f67c2b5cd3b6d9596a","session_id":"619bfc039836327200ae593d","condition":"full-information","relevant_dimensions":["pattern","legs"],"bee_group":{"antennae":"X","wings":"X","pattern":"S","legs":"F"},"bonus":1.540000000000001},{"rt":4590.799999952316,"stimulus":"bees-with-color/bee-A2DF.svg","response":0,"trial_type":"image-button-response","trial_index":75,"time_elapsed":373523,"internal_node_id":"0.0-4.0-0.34","subject_id":"6017320a527c3897e958d393","study_id":"6197b3f67c2b5cd3b6d9596a","session_id":"619bfc039836327200ae593d","condition":"full-information","relevant_dimensions":["pattern","legs"],"bee_group":{"antennae":"X","wings":"X","pattern":"S","legs":"F"},"action":"harvest","summary":"good-harvest","bonus":1.540000000000001},{"rt":607.6000000238419,"stimulus":"\n                    <p><b>Action: <em>harvest</em></b></p>\n                    <p>This is the bee that you just saw.</p>\n                    <img src=\"bees-with-color/bee-A2DF.svg\" width=\"200\">\n                    <p><span class=\"greenText\"><b>Successful harvest!</b></span><br>Your pay has increased by $0.02. Your bonus pay is now $0.90.</p>\n            ","response":0,"trial_type":"html-button-response","trial_index":76,"time_elapsed":374132,"internal_node_id":"0.0-4.0-1.34","subject_id":"6017320a527c3897e958d393","study_id":"6197b3f67c2b5cd3b6d9596a","session_id":"619bfc039836327200ae593d","condition":"full-information","relevant_dimensions":["pattern","legs"],"bee_group":{"antennae":"X","wings":"X","pattern":"S","legs":"F"},"bonus":1.540000000000001},{"rt":2359.5,"stimulus":"bees-with-color/bee-A1DF.svg","response":0,"trial_type":"image-button-response","trial_index":77,"time_elapsed":376494,"internal_node_id":"0.0-4.0-0.35","subject_id":"6017320a527c3897e958d393","study_id":"6197b3f67c2b5cd3b6d9596a","session_id":"619bfc039836327200ae593d","condition":"full-information","relevant_dimensions":["pattern","legs"],"bee_group":{"antennae":"X","wings":"X","pattern":"S","legs":"F"},"action":"harvest","summary":"good-harvest","bonus":1.540000000000001},{"rt":510.5,"stimulus":"\n                    <p><b>Action: <em>harvest</em></b></p>\n                    <p>This is the bee that you just saw.</p>\n                    <img src=\"bees-with-color/bee-A1DF.svg\" width=\"200\">\n                    <p><span class=\"greenText\"><b>Successful harvest!</b></span><br>Your pay has increased by $0.02. Your bonus pay is now $0.92.</p>\n            ","response":0,"trial_type":"html-button-response","trial_index":78,"time_elapsed":377006,"internal_node_id":"0.0-4.0-1.35","subject_id":"6017320a527c3897e958d393","study_id":"6197b3f67c2b5cd3b6d9596a","session_id":"619bfc039836327200ae593d","condition":"full-information","relevant_dimensions":["pattern","legs"],"bee_group":{"antennae":"X","wings":"X","pattern":"S","legs":"F"},"bonus":1.540000000000001},{"rt":1543.5999999642372,"stimulus":"bees-with-color/bee-B2DF.svg","response":1,"trial_type":"image-button-response","trial_index":79,"time_elapsed":378551,"internal_node_id":"0.0-4.0-0.36","subject_id":"6017320a527c3897e958d393","study_id":"6197b3f67c2b5cd3b6d9596a","session_id":"619bfc039836327200ae593d","condition":"full-information","relevant_dimensions":["pattern","legs"],"bee_group":{"antennae":"X","wings":"X","pattern":"S","legs":"F"},"action":"avoid","summary":"bad-avoid","bonus":1.540000000000001},{"rt":811.3999999761581,"stimulus":"\n                    <p><b>Action: <em>avoid</em></b></p>\n                    <p>This is the bee that you just saw.</p>\n                    <img src=\"bees-with-color/bee-B2DF.svg\" width=\"200\">\n                    <p><span class=\"redText\">Bad choice,</span> the bee was friendly.<br>Your bonus pay is unchanged, and remains at $0.92.</p>\n            ","response":0,"trial_type":"html-button-response","trial_index":80,"time_elapsed":379364,"internal_node_id":"0.0-4.0-1.36","subject_id":"6017320a527c3897e958d393","study_id":"6197b3f67c2b5cd3b6d9596a","session_id":"619bfc039836327200ae593d","condition":"full-information","relevant_dimensions":["pattern","legs"],"bee_group":{"antennae":"X","wings":"X","pattern":"S","legs":"F"},"bonus":1.540000000000001},{"rt":1927.199999988079,"stimulus":"bees-with-color/bee-B2SF.svg","response":1,"trial_type":"image-button-response","trial_index":81,"time_elapsed":381293,"internal_node_id":"0.0-4.0-0.37","subject_id":"6017320a527c3897e958d393","study_id":"6197b3f67c2b5cd3b6d9596a","session_id":"619bfc039836327200ae593d","condition":"full-information","relevant_dimensions":["pattern","legs"],"bee_group":{"antennae":"X","wings":"X","pattern":"S","legs":"F"},"action":"avoid","summary":"good-avoid","bonus":1.540000000000001},{"rt":468.2999999523163,"stimulus":"\n                    <p><b>Action: <em>avoid</em></b></p>\n                    <p>This is the bee that you just saw.</p>\n                    <img src=\"bees-with-color/bee-B2SF.svg\" width=\"200\">\n                    <p><span class=\"greenText\">Good choice!</span>  This bee would have stung you.<br>Your bonus pay is unchanged, and remains at $0.92.</p>\n            ","response":0,"trial_type":"html-button-response","trial_index":82,"time_elapsed":381763,"internal_node_id":"0.0-4.0-1.37","subject_id":"6017320a527c3897e958d393","study_id":"6197b3f67c2b5cd3b6d9596a","session_id":"619bfc039836327200ae593d","condition":"full-information","relevant_dimensions":["pattern","legs"],"bee_group":{"antennae":"X","wings":"X","pattern":"S","legs":"F"},"bonus":1.540000000000001},{"rt":4750.599999964237,"stimulus":"bees-with-color/bee-A2SF.svg","response":1,"trial_type":"image-button-response","trial_index":83,"time_elapsed":386515,"internal_node_id":"0.0-4.0-0.38","subject_id":"6017320a527c3897e958d393","study_id":"6197b3f67c2b5cd3b6d9596a","session_id":"619bfc039836327200ae593d","condition":"full-information","relevant_dimensions":["pattern","legs"],"bee_group":{"antennae":"X","wings":"X","pattern":"S","legs":"F"},"action":"avoid","summary":"good-avoid","bonus":1.540000000000001},{"rt":1206.1000000238419,"stimulus":"\n                    <p><b>Action: <em>avoid</em></b></p>\n                    <p>This is the bee that you just saw.</p>\n                    <img src=\"bees-with-color/bee-A2SF.svg\" width=\"200\">\n                    <p><span class=\"greenText\">Good choice!</span>  This bee would have stung you.<br>Your bonus pay is unchanged, and remains at $0.92.</p>\n            ","response":0,"trial_type":"html-button-response","trial_index":84,"time_elapsed":387723,"internal_node_id":"0.0-4.0-1.38","subject_id":"6017320a527c3897e958d393","study_id":"6197b3f67c2b5cd3b6d9596a","session_id":"619bfc039836327200ae593d","condition":"full-information","relevant_dimensions":["pattern","legs"],"bee_group":{"antennae":"X","wings":"X","pattern":"S","legs":"F"},"bonus":1.540000000000001},{"rt":1372.300000011921,"stimulus":"bees-with-color/bee-A2DM.svg","response":0,"trial_type":"image-button-response","trial_index":85,"time_elapsed":389097,"internal_node_id":"0.0-4.0-0.39","subject_id":"6017320a527c3897e958d393","study_id":"6197b3f67c2b5cd3b6d9596a","session_id":"619bfc039836327200ae593d","condition":"full-information","relevant_dimensions":["pattern","legs"],"bee_group":{"antennae":"X","wings":"X","pattern":"S","legs":"F"},"action":"harvest","summary":"good-harvest","bonus":1.540000000000001},{"rt":616.8000000119209,"stimulus":"\n                    <p><b>Action: <em>harvest</em></b></p>\n                    <p>This is the bee that you just saw.</p>\n                    <img src=\"bees-with-color/bee-A2DM.svg\" width=\"200\">\n                    <p><span class=\"greenText\"><b>Successful harvest!</b></span><br>Your pay has increased by $0.02. Your bonus pay is now $0.94.</p>\n            ","response":0,"trial_type":"html-button-response","trial_index":86,"time_elapsed":389715,"internal_node_id":"0.0-4.0-1.39","subject_id":"6017320a527c3897e958d393","study_id":"6197b3f67c2b5cd3b6d9596a","session_id":"619bfc039836327200ae593d","condition":"full-information","relevant_dimensions":["pattern","legs"],"bee_group":{"antennae":"X","wings":"X","pattern":"S","legs":"F"},"bonus":1.540000000000001},{"rt":1939.699999988079,"stimulus":"bees-with-color/bee-B1DM.svg","response":0,"trial_type":"image-button-response","trial_index":87,"time_elapsed":391656,"internal_node_id":"0.0-4.0-0.40","subject_id":"6017320a527c3897e958d393","study_id":"6197b3f67c2b5cd3b6d9596a","session_id":"619bfc039836327200ae593d","condition":"full-information","relevant_dimensions":["pattern","legs"],"bee_group":{"antennae":"X","wings":"X","pattern":"S","legs":"F"},"action":"harvest","summary":"good-harvest","bonus":1.540000000000001},{"rt":592.5999999642372,"stimulus":"\n                    <p><b>Action: <em>harvest</em></b></p>\n                    <p>This is the bee that you just saw.</p>\n                    <img src=\"bees-with-color/bee-B1DM.svg\" width=\"200\">\n                    <p><span class=\"greenText\"><b>Successful harvest!</b></span><br>Your pay has increased by $0.02. Your bonus pay is now $0.96.</p>\n            ","response":0,"trial_type":"html-button-response","trial_index":88,"time_elapsed":392250,"internal_node_id":"0.0-4.0-1.40","subject_id":"6017320a527c3897e958d393","study_id":"6197b3f67c2b5cd3b6d9596a","session_id":"619bfc039836327200ae593d","condition":"full-information","relevant_dimensions":["pattern","legs"],"bee_group":{"antennae":"X","wings":"X","pattern":"S","legs":"F"},"bonus":1.540000000000001},{"rt":4623.800000011921,"stimulus":"bees-with-color/bee-B1SM.svg","response":0,"trial_type":"image-button-response","trial_index":89,"time_elapsed":396875,"internal_node_id":"0.0-4.0-0.41","subject_id":"6017320a527c3897e958d393","study_id":"6197b3f67c2b5cd3b6d9596a","session_id":"619bfc039836327200ae593d","condition":"full-information","relevant_dimensions":["pattern","legs"],"bee_group":{"antennae":"X","wings":"X","pattern":"S","legs":"F"},"action":"harvest","summary":"good-harvest","bonus":1.540000000000001},{"rt":612.5,"stimulus":"\n                    <p><b>Action: <em>harvest</em></b></p>\n                    <p>This is the bee that you just saw.</p>\n                    <img src=\"bees-with-color/bee-B1SM.svg\" width=\"200\">\n                    <p><span class=\"greenText\"><b>Successful harvest!</b></span><br>Your pay has increased by $0.02. Your bonus pay is now $0.98.</p>\n            ","response":0,"trial_type":"html-button-response","trial_index":90,"time_elapsed":397489,"internal_node_id":"0.0-4.0-1.41","subject_id":"6017320a527c3897e958d393","study_id":"6197b3f67c2b5cd3b6d9596a","session_id":"619bfc039836327200ae593d","condition":"full-information","relevant_dimensions":["pattern","legs"],"bee_group":{"antennae":"X","wings":"X","pattern":"S","legs":"F"},"bonus":1.540000000000001},{"rt":2104.899999976158,"stimulus":"bees-with-color/bee-A1SM.svg","response":0,"trial_type":"image-button-response","trial_index":91,"time_elapsed":399596,"internal_node_id":"0.0-4.0-0.42","subject_id":"6017320a527c3897e958d393","study_id":"6197b3f67c2b5cd3b6d9596a","session_id":"619bfc039836327200ae593d","condition":"full-information","relevant_dimensions":["pattern","legs"],"bee_group":{"antennae":"X","wings":"X","pattern":"S","legs":"F"},"action":"harvest","summary":"good-harvest","bonus":1.540000000000001},{"rt":578.5999999642372,"stimulus":"\n                    <p><b>Action: <em>harvest</em></b></p>\n                    <p>This is the bee that you just saw.</p>\n                    <img src=\"bees-with-color/bee-A1SM.svg\" width=\"200\">\n                    <p><span class=\"greenText\"><b>Successful harvest!</b></span><br>Your pay has increased by $0.02. Your bonus pay is now $1.00.</p>\n            ","response":0,"trial_type":"html-button-response","trial_index":92,"time_elapsed":400176,"internal_node_id":"0.0-4.0-1.42","subject_id":"6017320a527c3897e958d393","study_id":"6197b3f67c2b5cd3b6d9596a","session_id":"619bfc039836327200ae593d","condition":"full-information","relevant_dimensions":["pattern","legs"],"bee_group":{"antennae":"X","wings":"X","pattern":"S","legs":"F"},"bonus":1.540000000000001},{"rt":3996.300000011921,"stimulus":"bees-with-color/bee-A2SM.svg","response":0,"trial_type":"image-button-response","trial_index":93,"time_elapsed":404174,"internal_node_id":"0.0-4.0-0.43","subject_id":"6017320a527c3897e958d393","study_id":"6197b3f67c2b5cd3b6d9596a","session_id":"619bfc039836327200ae593d","condition":"full-information","relevant_dimensions":["pattern","legs"],"bee_group":{"antennae":"X","wings":"X","pattern":"S","legs":"F"},"action":"harvest","summary":"good-harvest","bonus":1.540000000000001},{"rt":608.3999999761581,"stimulus":"\n                    <p><b>Action: <em>harvest</em></b></p>\n                    <p>This is the bee that you just saw.</p>\n                    <img src=\"bees-with-color/bee-A2SM.svg\" width=\"200\">\n                    <p><span class=\"greenText\"><b>Successful harvest!</b></span><br>Your pay has increased by $0.02. Your bonus pay is now $1.02.</p>\n            ","response":0,"trial_type":"html-button-response","trial_index":94,"time_elapsed":404784,"internal_node_id":"0.0-4.0-1.43","subject_id":"6017320a527c3897e958d393","study_id":"6197b3f67c2b5cd3b6d9596a","session_id":"619bfc039836327200ae593d","condition":"full-information","relevant_dimensions":["pattern","legs"],"bee_group":{"antennae":"X","wings":"X","pattern":"S","legs":"F"},"bonus":1.540000000000001},{"rt":3129.300000011921,"stimulus":"bees-with-color/bee-A1DM.svg","response":0,"trial_type":"image-button-response","trial_index":95,"time_elapsed":407915,"internal_node_id":"0.0-4.0-0.44","subject_id":"6017320a527c3897e958d393","study_id":"6197b3f67c2b5cd3b6d9596a","session_id":"619bfc039836327200ae593d","condition":"full-information","relevant_dimensions":["pattern","legs"],"bee_group":{"antennae":"X","wings":"X","pattern":"S","legs":"F"},"action":"harvest","summary":"good-harvest","bonus":1.540000000000001},{"rt":598.6000000238419,"stimulus":"\n                    <p><b>Action: <em>harvest</em></b></p>\n                    <p>This is the bee that you just saw.</p>\n                    <img src=\"bees-with-color/bee-A1DM.svg\" width=\"200\">\n                    <p><span class=\"greenText\"><b>Successful harvest!</b></span><br>Your pay has increased by $0.02. Your bonus pay is now $1.04.</p>\n            ","response":0,"trial_type":"html-button-response","trial_index":96,"time_elapsed":408515,"internal_node_id":"0.0-4.0-1.44","subject_id":"6017320a527c3897e958d393","study_id":"6197b3f67c2b5cd3b6d9596a","session_id":"619bfc039836327200ae593d","condition":"full-information","relevant_dimensions":["pattern","legs"],"bee_group":{"antennae":"X","wings":"X","pattern":"S","legs":"F"},"bonus":1.540000000000001},{"rt":1455.300000011921,"stimulus":"bees-with-color/bee-A1SF.svg","response":1,"trial_type":"image-button-response","trial_index":97,"time_elapsed":409972,"internal_node_id":"0.0-4.0-0.45","subject_id":"6017320a527c3897e958d393","study_id":"6197b3f67c2b5cd3b6d9596a","session_id":"619bfc039836327200ae593d","condition":"full-information","relevant_dimensions":["pattern","legs"],"bee_group":{"antennae":"X","wings":"X","pattern":"S","legs":"F"},"action":"avoid","summary":"good-avoid","bonus":1.540000000000001},{"rt":640.1999999880791,"stimulus":"\n                    <p><b>Action: <em>avoid</em></b></p>\n                    <p>This is the bee that you just saw.</p>\n                    <img src=\"bees-with-color/bee-A1SF.svg\" width=\"200\">\n                    <p><span class=\"greenText\">Good choice!</span>  This bee would have stung you.<br>Your bonus pay is unchanged, and remains at $1.04.</p>\n            ","response":0,"trial_type":"html-button-response","trial_index":98,"time_elapsed":410614,"internal_node_id":"0.0-4.0-1.45","subject_id":"6017320a527c3897e958d393","study_id":"6197b3f67c2b5cd3b6d9596a","session_id":"619bfc039836327200ae593d","condition":"full-information","relevant_dimensions":["pattern","legs"],"bee_group":{"antennae":"X","wings":"X","pattern":"S","legs":"F"},"bonus":1.540000000000001},{"rt":1847.4000000357628,"stimulus":"bees-with-color/bee-B1DF.svg","response":1,"trial_type":"image-button-response","trial_index":99,"time_elapsed":412463,"internal_node_id":"0.0-4.0-0.46","subject_id":"6017320a527c3897e958d393","study_id":"6197b3f67c2b5cd3b6d9596a","session_id":"619bfc039836327200ae593d","condition":"full-information","relevant_dimensions":["pattern","legs"],"bee_group":{"antennae":"X","wings":"X","pattern":"S","legs":"F"},"action":"avoid","summary":"bad-avoid","bonus":1.540000000000001},{"rt":917,"stimulus":"\n                    <p><b>Action: <em>avoid</em></b></p>\n                    <p>This is the bee that you just saw.</p>\n                    <img src=\"bees-with-color/bee-B1DF.svg\" width=\"200\">\n                    <p><span class=\"redText\">Bad choice,</span> the bee was friendly.<br>Your bonus pay is unchanged, and remains at $1.04.</p>\n            ","response":0,"trial_type":"html-button-response","trial_index":100,"time_elapsed":413382,"internal_node_id":"0.0-4.0-1.46","subject_id":"6017320a527c3897e958d393","study_id":"6197b3f67c2b5cd3b6d9596a","session_id":"619bfc039836327200ae593d","condition":"full-information","relevant_dimensions":["pattern","legs"],"bee_group":{"antennae":"X","wings":"X","pattern":"S","legs":"F"},"bonus":1.540000000000001},{"rt":1523.5999999642372,"stimulus":"bees-with-color/bee-B1SF.svg","response":1,"trial_type":"image-button-response","trial_index":101,"time_elapsed":414907,"internal_node_id":"0.0-4.0-0.47","subject_id":"6017320a527c3897e958d393","study_id":"6197b3f67c2b5cd3b6d9596a","session_id":"619bfc039836327200ae593d","condition":"full-information","relevant_dimensions":["pattern","legs"],"bee_group":{"antennae":"X","wings":"X","pattern":"S","legs":"F"},"action":"avoid","summary":"good-avoid","bonus":1.540000000000001},{"rt":508.60000002384186,"stimulus":"\n                    <p><b>Action: <em>avoid</em></b></p>\n                    <p>This is the bee that you just saw.</p>\n                    <img src=\"bees-with-color/bee-B1SF.svg\" width=\"200\">\n                    <p><span class=\"greenText\">Good choice!</span>  This bee would have stung you.<br>Your bonus pay is unchanged, and remains at $1.04.</p>\n            ","response":0,"trial_type":"html-button-response","trial_index":102,"time_elapsed":415417,"internal_node_id":"0.0-4.0-1.47","subject_id":"6017320a527c3897e958d393","study_id":"6197b3f67c2b5cd3b6d9596a","session_id":"619bfc039836327200ae593d","condition":"full-information","relevant_dimensions":["pattern","legs"],"bee_group":{"antennae":"X","wings":"X","pattern":"S","legs":"F"},"bonus":1.540000000000001},{"rt":1342.0999999642372,"stimulus":"bees-with-color/bee-A2SM.svg","response":0,"trial_type":"image-button-response","trial_index":103,"time_elapsed":416760,"internal_node_id":"0.0-4.0-0.48","subject_id":"6017320a527c3897e958d393","study_id":"6197b3f67c2b5cd3b6d9596a","session_id":"619bfc039836327200ae593d","condition":"full-information","relevant_dimensions":["pattern","legs"],"bee_group":{"antennae":"X","wings":"X","pattern":"S","legs":"F"},"action":"harvest","summary":"good-harvest","bonus":1.540000000000001},{"rt":505.30000001192093,"stimulus":"\n                    <p><b>Action: <em>harvest</em></b></p>\n                    <p>This is the bee that you just saw.</p>\n                    <img src=\"bees-with-color/bee-A2SM.svg\" width=\"200\">\n                    <p><span class=\"greenText\"><b>Successful harvest!</b></span><br>Your pay has increased by $0.02. Your bonus pay is now $1.06.</p>\n            ","response":0,"trial_type":"html-button-response","trial_index":104,"time_elapsed":417267,"internal_node_id":"0.0-4.0-1.48","subject_id":"6017320a527c3897e958d393","study_id":"6197b3f67c2b5cd3b6d9596a","session_id":"619bfc039836327200ae593d","condition":"full-information","relevant_dimensions":["pattern","legs"],"bee_group":{"antennae":"X","wings":"X","pattern":"S","legs":"F"},"bonus":1.540000000000001},{"rt":1350,"stimulus":"bees-with-color/bee-A2DM.svg","response":0,"trial_type":"image-button-response","trial_index":105,"time_elapsed":418619,"internal_node_id":"0.0-4.0-0.49","subject_id":"6017320a527c3897e958d393","study_id":"6197b3f67c2b5cd3b6d9596a","session_id":"619bfc039836327200ae593d","condition":"full-information","relevant_dimensions":["pattern","legs"],"bee_group":{"antennae":"X","wings":"X","pattern":"S","legs":"F"},"action":"harvest","summary":"good-harvest","bonus":1.540000000000001},{"rt":538.8999999761581,"stimulus":"\n                    <p><b>Action: <em>harvest</em></b></p>\n                    <p>This is the bee that you just saw.</p>\n                    <img src=\"bees-with-color/bee-A2DM.svg\" width=\"200\">\n                    <p><span class=\"greenText\"><b>Successful harvest!</b></span><br>Your pay has increased by $0.02. Your bonus pay is now $1.08.</p>\n            ","response":0,"trial_type":"html-button-response","trial_index":106,"time_elapsed":419159,"internal_node_id":"0.0-4.0-1.49","subject_id":"6017320a527c3897e958d393","study_id":"6197b3f67c2b5cd3b6d9596a","session_id":"619bfc039836327200ae593d","condition":"full-information","relevant_dimensions":["pattern","legs"],"bee_group":{"antennae":"X","wings":"X","pattern":"S","legs":"F"},"bonus":1.540000000000001},{"rt":1418.5,"stimulus":"bees-with-color/bee-A1DM.svg","response":0,"trial_type":"image-button-response","trial_index":107,"time_elapsed":420579,"internal_node_id":"0.0-4.0-0.50","subject_id":"6017320a527c3897e958d393","study_id":"6197b3f67c2b5cd3b6d9596a","session_id":"619bfc039836327200ae593d","condition":"full-information","relevant_dimensions":["pattern","legs"],"bee_group":{"antennae":"X","wings":"X","pattern":"S","legs":"F"},"action":"harvest","summary":"good-harvest","bonus":1.540000000000001},{"rt":482.80000001192093,"stimulus":"\n                    <p><b>Action: <em>harvest</em></b></p>\n                    <p>This is the bee that you just saw.</p>\n                    <img src=\"bees-with-color/bee-A1DM.svg\" width=\"200\">\n                    <p><span class=\"greenText\"><b>Successful harvest!</b></span><br>Your pay has increased by $0.02. Your bonus pay is now $1.10.</p>\n            ","response":0,"trial_type":"html-button-response","trial_index":108,"time_elapsed":421063,"internal_node_id":"0.0-4.0-1.50","subject_id":"6017320a527c3897e958d393","study_id":"6197b3f67c2b5cd3b6d9596a","session_id":"619bfc039836327200ae593d","condition":"full-information","relevant_dimensions":["pattern","legs"],"bee_group":{"antennae":"X","wings":"X","pattern":"S","legs":"F"},"bonus":1.540000000000001},{"rt":2274.5,"stimulus":"bees-with-color/bee-A2DF.svg","response":0,"trial_type":"image-button-response","trial_index":109,"time_elapsed":423339,"internal_node_id":"0.0-4.0-0.51","subject_id":"6017320a527c3897e958d393","study_id":"6197b3f67c2b5cd3b6d9596a","session_id":"619bfc039836327200ae593d","condition":"full-information","relevant_dimensions":["pattern","legs"],"bee_group":{"antennae":"X","wings":"X","pattern":"S","legs":"F"},"action":"harvest","summary":"good-harvest","bonus":1.540000000000001},{"rt":468.5,"stimulus":"\n                    <p><b>Action: <em>harvest</em></b></p>\n                    <p>This is the bee that you just saw.</p>\n                    <img src=\"bees-with-color/bee-A2DF.svg\" width=\"200\">\n                    <p><span class=\"greenText\"><b>Successful harvest!</b></span><br>Your pay has increased by $0.02. Your bonus pay is now $1.12.</p>\n            ","response":0,"trial_type":"html-button-response","trial_index":110,"time_elapsed":423809,"internal_node_id":"0.0-4.0-1.51","subject_id":"6017320a527c3897e958d393","study_id":"6197b3f67c2b5cd3b6d9596a","session_id":"619bfc039836327200ae593d","condition":"full-information","relevant_dimensions":["pattern","legs"],"bee_group":{"antennae":"X","wings":"X","pattern":"S","legs":"F"},"bonus":1.540000000000001},{"rt":3616.800000011921,"stimulus":"bees-with-color/bee-B2SM.svg","response":0,"trial_type":"image-button-response","trial_index":111,"time_elapsed":427428,"internal_node_id":"0.0-4.0-0.52","subject_id":"6017320a527c3897e958d393","study_id":"6197b3f67c2b5cd3b6d9596a","session_id":"619bfc039836327200ae593d","condition":"full-information","relevant_dimensions":["pattern","legs"],"bee_group":{"antennae":"X","wings":"X","pattern":"S","legs":"F"},"action":"harvest","summary":"good-harvest","bonus":1.540000000000001},{"rt":695.3000000119209,"stimulus":"\n                    <p><b>Action: <em>harvest</em></b></p>\n                    <p>This is the bee that you just saw.</p>\n                    <img src=\"bees-with-color/bee-B2SM.svg\" width=\"200\">\n                    <p><span class=\"greenText\"><b>Successful harvest!</b></span><br>Your pay has increased by $0.02. Your bonus pay is now $1.14.</p>\n            ","response":0,"trial_type":"html-button-response","trial_index":112,"time_elapsed":428125,"internal_node_id":"0.0-4.0-1.52","subject_id":"6017320a527c3897e958d393","study_id":"6197b3f67c2b5cd3b6d9596a","session_id":"619bfc039836327200ae593d","condition":"full-information","relevant_dimensions":["pattern","legs"],"bee_group":{"antennae":"X","wings":"X","pattern":"S","legs":"F"},"bonus":1.540000000000001},{"rt":4499.199999988079,"stimulus":"bees-with-color/bee-B2SF.svg","response":1,"trial_type":"image-button-response","trial_index":113,"time_elapsed":432627,"internal_node_id":"0.0-4.0-0.53","subject_id":"6017320a527c3897e958d393","study_id":"6197b3f67c2b5cd3b6d9596a","session_id":"619bfc039836327200ae593d","condition":"full-information","relevant_dimensions":["pattern","legs"],"bee_group":{"antennae":"X","wings":"X","pattern":"S","legs":"F"},"action":"avoid","summary":"good-avoid","bonus":1.540000000000001},{"rt":530.2999999523163,"stimulus":"\n                    <p><b>Action: <em>avoid</em></b></p>\n                    <p>This is the bee that you just saw.</p>\n                    <img src=\"bees-with-color/bee-B2SF.svg\" width=\"200\">\n                    <p><span class=\"greenText\">Good choice!</span>  This bee would have stung you.<br>Your bonus pay is unchanged, and remains at $1.14.</p>\n            ","response":0,"trial_type":"html-button-response","trial_index":114,"time_elapsed":433159,"internal_node_id":"0.0-4.0-1.53","subject_id":"6017320a527c3897e958d393","study_id":"6197b3f67c2b5cd3b6d9596a","session_id":"619bfc039836327200ae593d","condition":"full-information","relevant_dimensions":["pattern","legs"],"bee_group":{"antennae":"X","wings":"X","pattern":"S","legs":"F"},"bonus":1.540000000000001},{"rt":1389.5,"stimulus":"bees-with-color/bee-B1SF.svg","response":0,"trial_type":"image-button-response","trial_index":115,"time_elapsed":434550,"internal_node_id":"0.0-4.0-0.54","subject_id":"6017320a527c3897e958d393","study_id":"6197b3f67c2b5cd3b6d9596a","session_id":"619bfc039836327200ae593d","condition":"full-information","relevant_dimensions":["pattern","legs"],"bee_group":{"antennae":"X","wings":"X","pattern":"S","legs":"F"},"action":"harvest","summary":"bad-harvest","bonus":1.540000000000001},{"rt":3777.399999976158,"stimulus":"\n                    <p><b>Action: <em>harvest</em></b></p>\n                    <p>This is the bee that you just saw.</p>\n                    <img src=\"bees-with-color/bee-B1SF.svg\" width=\"200\">\n                    <p><span class=\"redText\">Bad choice, the bee was angry.</span><br><b>You have been stung!</b><br>Your pay has been decreased by $0.10. Your bonus pay is now $1.04.</p>\n            ","response":0,"trial_type":"html-button-response","trial_index":116,"time_elapsed":438329,"internal_node_id":"0.0-4.0-1.54","subject_id":"6017320a527c3897e958d393","study_id":"6197b3f67c2b5cd3b6d9596a","session_id":"619bfc039836327200ae593d","condition":"full-information","relevant_dimensions":["pattern","legs"],"bee_group":{"antennae":"X","wings":"X","pattern":"S","legs":"F"},"bonus":1.540000000000001},{"rt":2693.600000023842,"stimulus":"bees-with-color/bee-B2DF.svg","response":0,"trial_type":"image-button-response","trial_index":117,"time_elapsed":441025,"internal_node_id":"0.0-4.0-0.55","subject_id":"6017320a527c3897e958d393","study_id":"6197b3f67c2b5cd3b6d9596a","session_id":"619bfc039836327200ae593d","condition":"full-information","relevant_dimensions":["pattern","legs"],"bee_group":{"antennae":"X","wings":"X","pattern":"S","legs":"F"},"action":"harvest","summary":"good-harvest","bonus":1.540000000000001},{"rt":476.0999999642372,"stimulus":"\n                    <p><b>Action: <em>harvest</em></b></p>\n                    <p>This is the bee that you just saw.</p>\n                    <img src=\"bees-with-color/bee-B2DF.svg\" width=\"200\">\n                    <p><span class=\"greenText\"><b>Successful harvest!</b></span><br>Your pay has increased by $0.02. Your bonus pay is now $1.06.</p>\n            ","response":0,"trial_type":"html-button-response","trial_index":118,"time_elapsed":441502,"internal_node_id":"0.0-4.0-1.55","subject_id":"6017320a527c3897e958d393","study_id":"6197b3f67c2b5cd3b6d9596a","session_id":"619bfc039836327200ae593d","condition":"full-information","relevant_dimensions":["pattern","legs"],"bee_group":{"antennae":"X","wings":"X","pattern":"S","legs":"F"},"bonus":1.540000000000001},{"rt":2997.899999976158,"stimulus":"bees-with-color/bee-A1DF.svg","response":1,"trial_type":"image-button-response","trial_index":119,"time_elapsed":444501,"internal_node_id":"0.0-4.0-0.56","subject_id":"6017320a527c3897e958d393","study_id":"6197b3f67c2b5cd3b6d9596a","session_id":"619bfc039836327200ae593d","condition":"full-information","relevant_dimensions":["pattern","legs"],"bee_group":{"antennae":"X","wings":"X","pattern":"S","legs":"F"},"action":"avoid","summary":"bad-avoid","bonus":1.540000000000001},{"rt":844.4000000357628,"stimulus":"\n                    <p><b>Action: <em>avoid</em></b></p>\n                    <p>This is the bee that you just saw.</p>\n                    <img src=\"bees-with-color/bee-A1DF.svg\" width=\"200\">\n                    <p><span class=\"redText\">Bad choice,</span> the bee was friendly.<br>Your bonus pay is unchanged, and remains at $1.06.</p>\n            ","response":0,"trial_type":"html-button-response","trial_index":120,"time_elapsed":445347,"internal_node_id":"0.0-4.0-1.56","subject_id":"6017320a527c3897e958d393","study_id":"6197b3f67c2b5cd3b6d9596a","session_id":"619bfc039836327200ae593d","condition":"full-information","relevant_dimensions":["pattern","legs"],"bee_group":{"antennae":"X","wings":"X","pattern":"S","legs":"F"},"bonus":1.540000000000001},{"rt":1352.1000000238419,"stimulus":"bees-with-color/bee-B1DM.svg","response":0,"trial_type":"image-button-response","trial_index":121,"time_elapsed":446701,"internal_node_id":"0.0-4.0-0.57","subject_id":"6017320a527c3897e958d393","study_id":"6197b3f67c2b5cd3b6d9596a","session_id":"619bfc039836327200ae593d","condition":"full-information","relevant_dimensions":["pattern","legs"],"bee_group":{"antennae":"X","wings":"X","pattern":"S","legs":"F"},"action":"harvest","summary":"good-harvest","bonus":1.540000000000001},{"rt":1042.199999988079,"stimulus":"\n                    <p><b>Action: <em>harvest</em></b></p>\n                    <p>This is the bee that you just saw.</p>\n                    <img src=\"bees-with-color/bee-B1DM.svg\" width=\"200\">\n                    <p><span class=\"greenText\"><b>Successful harvest!</b></span><br>Your pay has increased by $0.02. Your bonus pay is now $1.08.</p>\n            ","response":0,"trial_type":"html-button-response","trial_index":122,"time_elapsed":447745,"internal_node_id":"0.0-4.0-1.57","subject_id":"6017320a527c3897e958d393","study_id":"6197b3f67c2b5cd3b6d9596a","session_id":"619bfc039836327200ae593d","condition":"full-information","relevant_dimensions":["pattern","legs"],"bee_group":{"antennae":"X","wings":"X","pattern":"S","legs":"F"},"bonus":1.540000000000001},{"rt":1070.6000000238419,"stimulus":"bees-with-color/bee-B2DM.svg","response":0,"trial_type":"image-button-response","trial_index":123,"time_elapsed":448817,"internal_node_id":"0.0-4.0-0.58","subject_id":"6017320a527c3897e958d393","study_id":"6197b3f67c2b5cd3b6d9596a","session_id":"619bfc039836327200ae593d","condition":"full-information","relevant_dimensions":["pattern","legs"],"bee_group":{"antennae":"X","wings":"X","pattern":"S","legs":"F"},"action":"harvest","summary":"good-harvest","bonus":1.540000000000001},{"rt":530.5,"stimulus":"\n                    <p><b>Action: <em>harvest</em></b></p>\n                    <p>This is the bee that you just saw.</p>\n                    <img src=\"bees-with-color/bee-B2DM.svg\" width=\"200\">\n                    <p><span class=\"greenText\"><b>Successful harvest!</b></span><br>Your pay has increased by $0.02. Your bonus pay is now $1.10.</p>\n            ","response":0,"trial_type":"html-button-response","trial_index":124,"time_elapsed":449349,"internal_node_id":"0.0-4.0-1.58","subject_id":"6017320a527c3897e958d393","study_id":"6197b3f67c2b5cd3b6d9596a","session_id":"619bfc039836327200ae593d","condition":"full-information","relevant_dimensions":["pattern","legs"],"bee_group":{"antennae":"X","wings":"X","pattern":"S","legs":"F"},"bonus":1.540000000000001},{"rt":5432.5,"stimulus":"bees-with-color/bee-A1SF.svg","response":1,"trial_type":"image-button-response","trial_index":125,"time_elapsed":454783,"internal_node_id":"0.0-4.0-0.59","subject_id":"6017320a527c3897e958d393","study_id":"6197b3f67c2b5cd3b6d9596a","session_id":"619bfc039836327200ae593d","condition":"full-information","relevant_dimensions":["pattern","legs"],"bee_group":{"antennae":"X","wings":"X","pattern":"S","legs":"F"},"action":"avoid","summary":"good-avoid","bonus":1.540000000000001},{"rt":522.4000000357628,"stimulus":"\n                    <p><b>Action: <em>avoid</em></b></p>\n                    <p>This is the bee that you just saw.</p>\n                    <img src=\"bees-with-color/bee-A1SF.svg\" width=\"200\">\n                    <p><span class=\"greenText\">Good choice!</span>  This bee would have stung you.<br>Your bonus pay is unchanged, and remains at $1.10.</p>\n            ","response":0,"trial_type":"html-button-response","trial_index":126,"time_elapsed":455307,"internal_node_id":"0.0-4.0-1.59","subject_id":"6017320a527c3897e958d393","study_id":"6197b3f67c2b5cd3b6d9596a","session_id":"619bfc039836327200ae593d","condition":"full-information","relevant_dimensions":["pattern","legs"],"bee_group":{"antennae":"X","wings":"X","pattern":"S","legs":"F"},"bonus":1.540000000000001},{"rt":1516.3999999761581,"stimulus":"bees-with-color/bee-B1DF.svg","response":0,"trial_type":"image-button-response","trial_index":127,"time_elapsed":456825,"internal_node_id":"0.0-4.0-0.60","subject_id":"6017320a527c3897e958d393","study_id":"6197b3f67c2b5cd3b6d9596a","session_id":"619bfc039836327200ae593d","condition":"full-information","relevant_dimensions":["pattern","legs"],"bee_group":{"antennae":"X","wings":"X","pattern":"S","legs":"F"},"action":"harvest","summary":"good-harvest","bonus":1.540000000000001},{"rt":460.5,"stimulus":"\n                    <p><b>Action: <em>harvest</em></b></p>\n                    <p>This is the bee that you just saw.</p>\n                    <img src=\"bees-with-color/bee-B1DF.svg\" width=\"200\">\n                    <p><span class=\"greenText\"><b>Successful harvest!</b></span><br>Your pay has increased by $0.02. Your bonus pay is now $1.12.</p>\n            ","response":0,"trial_type":"html-button-response","trial_index":128,"time_elapsed":457287,"internal_node_id":"0.0-4.0-1.60","subject_id":"6017320a527c3897e958d393","study_id":"6197b3f67c2b5cd3b6d9596a","session_id":"619bfc039836327200ae593d","condition":"full-information","relevant_dimensions":["pattern","legs"],"bee_group":{"antennae":"X","wings":"X","pattern":"S","legs":"F"},"bonus":1.540000000000001},{"rt":1866.9000000357628,"stimulus":"bees-with-color/bee-B1SM.svg","response":0,"trial_type":"image-button-response","trial_index":129,"time_elapsed":459155,"internal_node_id":"0.0-4.0-0.61","subject_id":"6017320a527c3897e958d393","study_id":"6197b3f67c2b5cd3b6d9596a","session_id":"619bfc039836327200ae593d","condition":"full-information","relevant_dimensions":["pattern","legs"],"bee_group":{"antennae":"X","wings":"X","pattern":"S","legs":"F"},"action":"harvest","summary":"good-harvest","bonus":1.540000000000001},{"rt":518.5,"stimulus":"\n                    <p><b>Action: <em>harvest</em></b></p>\n                    <p>This is the bee that you just saw.</p>\n                    <img src=\"bees-with-color/bee-B1SM.svg\" width=\"200\">\n                    <p><span class=\"greenText\"><b>Successful harvest!</b></span><br>Your pay has increased by $0.02. Your bonus pay is now $1.14.</p>\n            ","response":0,"trial_type":"html-button-response","trial_index":130,"time_elapsed":459675,"internal_node_id":"0.0-4.0-1.61","subject_id":"6017320a527c3897e958d393","study_id":"6197b3f67c2b5cd3b6d9596a","session_id":"619bfc039836327200ae593d","condition":"full-information","relevant_dimensions":["pattern","legs"],"bee_group":{"antennae":"X","wings":"X","pattern":"S","legs":"F"},"bonus":1.540000000000001},{"rt":1426.699999988079,"stimulus":"bees-with-color/bee-A2SF.svg","response":1,"trial_type":"image-button-response","trial_index":131,"time_elapsed":461103,"internal_node_id":"0.0-4.0-0.62","subject_id":"6017320a527c3897e958d393","study_id":"6197b3f67c2b5cd3b6d9596a","session_id":"619bfc039836327200ae593d","condition":"full-information","relevant_dimensions":["pattern","legs"],"bee_group":{"antennae":"X","wings":"X","pattern":"S","legs":"F"},"action":"avoid","summary":"good-avoid","bonus":1.540000000000001},{"rt":488.5999999642372,"stimulus":"\n                    <p><b>Action: <em>avoid</em></b></p>\n                    <p>This is the bee that you just saw.</p>\n                    <img src=\"bees-with-color/bee-A2SF.svg\" width=\"200\">\n                    <p><span class=\"greenText\">Good choice!</span>  This bee would have stung you.<br>Your bonus pay is unchanged, and remains at $1.14.</p>\n            ","response":0,"trial_type":"html-button-response","trial_index":132,"time_elapsed":461593,"internal_node_id":"0.0-4.0-1.62","subject_id":"6017320a527c3897e958d393","study_id":"6197b3f67c2b5cd3b6d9596a","session_id":"619bfc039836327200ae593d","condition":"full-information","relevant_dimensions":["pattern","legs"],"bee_group":{"antennae":"X","wings":"X","pattern":"S","legs":"F"},"bonus":1.540000000000001},{"rt":1120.800000011921,"stimulus":"bees-with-color/bee-A1SM.svg","response":0,"trial_type":"image-button-response","trial_index":133,"time_elapsed":462715,"internal_node_id":"0.0-4.0-0.63","subject_id":"6017320a527c3897e958d393","study_id":"6197b3f67c2b5cd3b6d9596a","session_id":"619bfc039836327200ae593d","condition":"full-information","relevant_dimensions":["pattern","legs"],"bee_group":{"antennae":"X","wings":"X","pattern":"S","legs":"F"},"action":"harvest","summary":"good-harvest","bonus":1.540000000000001},{"rt":416.2000000476837,"stimulus":"\n                    <p><b>Action: <em>harvest</em></b></p>\n                    <p>This is the bee that you just saw.</p>\n                    <img src=\"bees-with-color/bee-A1SM.svg\" width=\"200\">\n                    <p><span class=\"greenText\"><b>Successful harvest!</b></span><br>Your pay has increased by $0.02. Your bonus pay is now $1.16.</p>\n            ","response":0,"trial_type":"html-button-response","trial_index":134,"time_elapsed":463133,"internal_node_id":"0.0-4.0-1.63","subject_id":"6017320a527c3897e958d393","study_id":"6197b3f67c2b5cd3b6d9596a","session_id":"619bfc039836327200ae593d","condition":"full-information","relevant_dimensions":["pattern","legs"],"bee_group":{"antennae":"X","wings":"X","pattern":"S","legs":"F"},"bonus":1.540000000000001},{"rt":9282.100000023842,"stimulus":"You have completed the first part of this experiment.<br><br>You will now begin a shorter second part, in which you will receive no feedback.<br>The same rules regarding bonus pay apply.<br><br>Press any key to begin.","response":" ","trial_type":"html-keyboard-response","trial_index":135,"time_elapsed":472417,"internal_node_id":"0.0-5.0","subject_id":"6017320a527c3897e958d393","study_id":"6197b3f67c2b5cd3b6d9596a","session_id":"619bfc039836327200ae593d","condition":"full-information","relevant_dimensions":["pattern","legs"],"bee_group":{"antennae":"X","wings":"X","pattern":"S","legs":"F"},"bonus":1.540000000000001},{"rt":2756.199999988079,"stimulus":"bees-with-color/bee-B2SM.svg","response":0,"trial_type":"image-button-response","trial_index":136,"time_elapsed":475192,"internal_node_id":"0.0-6.0-0.0","subject_id":"6017320a527c3897e958d393","study_id":"6197b3f67c2b5cd3b6d9596a","session_id":"619bfc039836327200ae593d","condition":"full-information","relevant_dimensions":["pattern","legs"],"bee_group":{"antennae":"X","wings":"X","pattern":"S","legs":"F"},"bonus":1.540000000000001},{"rt":6533.699999988079,"stimulus":"bees-with-color/bee-B1SM.svg","response":0,"trial_type":"image-button-response","trial_index":137,"time_elapsed":481728,"internal_node_id":"0.0-6.0-0.1","subject_id":"6017320a527c3897e958d393","study_id":"6197b3f67c2b5cd3b6d9596a","session_id":"619bfc039836327200ae593d","condition":"full-information","relevant_dimensions":["pattern","legs"],"bee_group":{"antennae":"X","wings":"X","pattern":"S","legs":"F"},"bonus":1.540000000000001},{"rt":1387.2000000476837,"stimulus":"bees-with-color/bee-A2SM.svg","response":0,"trial_type":"image-button-response","trial_index":138,"time_elapsed":483118,"internal_node_id":"0.0-6.0-0.2","subject_id":"6017320a527c3897e958d393","study_id":"6197b3f67c2b5cd3b6d9596a","session_id":"619bfc039836327200ae593d","condition":"full-information","relevant_dimensions":["pattern","legs"],"bee_group":{"antennae":"X","wings":"X","pattern":"S","legs":"F"},"bonus":1.540000000000001},{"rt":1794.699999988079,"stimulus":"bees-with-color/bee-B2SF.svg","response":1,"trial_type":"image-button-response","trial_index":139,"time_elapsed":484915,"internal_node_id":"0.0-6.0-0.3","subject_id":"6017320a527c3897e958d393","study_id":"6197b3f67c2b5cd3b6d9596a","session_id":"619bfc039836327200ae593d","condition":"full-information","relevant_dimensions":["pattern","legs"],"bee_group":{"antennae":"X","wings":"X","pattern":"S","legs":"F"},"bonus":1.540000000000001},{"rt":1161,"stimulus":"bees-with-color/bee-B1SF.svg","response":1,"trial_type":"image-button-response","trial_index":140,"time_elapsed":486078,"internal_node_id":"0.0-6.0-0.4","subject_id":"6017320a527c3897e958d393","study_id":"6197b3f67c2b5cd3b6d9596a","session_id":"619bfc039836327200ae593d","condition":"full-information","relevant_dimensions":["pattern","legs"],"bee_group":{"antennae":"X","wings":"X","pattern":"S","legs":"F"},"bonus":1.540000000000001},{"rt":1002.4000000357628,"stimulus":"bees-with-color/bee-B1DM.svg","response":0,"trial_type":"image-button-response","trial_index":141,"time_elapsed":487083,"internal_node_id":"0.0-6.0-0.5","subject_id":"6017320a527c3897e958d393","study_id":"6197b3f67c2b5cd3b6d9596a","session_id":"619bfc039836327200ae593d","condition":"full-information","relevant_dimensions":["pattern","legs"],"bee_group":{"antennae":"X","wings":"X","pattern":"S","legs":"F"},"bonus":1.540000000000001},{"rt":3164.800000011921,"stimulus":"bees-with-color/bee-A1DF.svg","response":0,"trial_type":"image-button-response","trial_index":142,"time_elapsed":490250,"internal_node_id":"0.0-6.0-0.6","subject_id":"6017320a527c3897e958d393","study_id":"6197b3f67c2b5cd3b6d9596a","session_id":"619bfc039836327200ae593d","condition":"full-information","relevant_dimensions":["pattern","legs"],"bee_group":{"antennae":"X","wings":"X","pattern":"S","legs":"F"},"bonus":1.540000000000001},{"rt":2679.800000011921,"stimulus":"bees-with-color/bee-B1DF.svg","response":0,"trial_type":"image-button-response","trial_index":143,"time_elapsed":492932,"internal_node_id":"0.0-6.0-0.7","subject_id":"6017320a527c3897e958d393","study_id":"6197b3f67c2b5cd3b6d9596a","session_id":"619bfc039836327200ae593d","condition":"full-information","relevant_dimensions":["pattern","legs"],"bee_group":{"antennae":"X","wings":"X","pattern":"S","legs":"F"},"bonus":1.540000000000001},{"rt":1309.9000000357628,"stimulus":"bees-with-color/bee-A1DM.svg","response":0,"trial_type":"image-button-response","trial_index":144,"time_elapsed":494244,"internal_node_id":"0.0-6.0-0.8","subject_id":"6017320a527c3897e958d393","study_id":"6197b3f67c2b5cd3b6d9596a","session_id":"619bfc039836327200ae593d","condition":"full-information","relevant_dimensions":["pattern","legs"],"bee_group":{"antennae":"X","wings":"X","pattern":"S","legs":"F"},"bonus":1.540000000000001},{"rt":1880.199999988079,"stimulus":"bees-with-color/bee-A2SF.svg","response":1,"trial_type":"image-button-response","trial_index":145,"time_elapsed":496126,"internal_node_id":"0.0-6.0-0.9","subject_id":"6017320a527c3897e958d393","study_id":"6197b3f67c2b5cd3b6d9596a","session_id":"619bfc039836327200ae593d","condition":"full-information","relevant_dimensions":["pattern","legs"],"bee_group":{"antennae":"X","wings":"X","pattern":"S","legs":"F"},"bonus":1.540000000000001},{"rt":2604.2000000476837,"stimulus":"bees-with-color/bee-A1SF.svg","response":1,"trial_type":"image-button-response","trial_index":146,"time_elapsed":498732,"internal_node_id":"0.0-6.0-0.10","subject_id":"6017320a527c3897e958d393","study_id":"6197b3f67c2b5cd3b6d9596a","session_id":"619bfc039836327200ae593d","condition":"full-information","relevant_dimensions":["pattern","legs"],"bee_group":{"antennae":"X","wings":"X","pattern":"S","legs":"F"},"bonus":1.540000000000001},{"rt":763.5,"stimulus":"bees-with-color/bee-B2DM.svg","response":0,"trial_type":"image-button-response","trial_index":147,"time_elapsed":499498,"internal_node_id":"0.0-6.0-0.11","subject_id":"6017320a527c3897e958d393","study_id":"6197b3f67c2b5cd3b6d9596a","session_id":"619bfc039836327200ae593d","condition":"full-information","relevant_dimensions":["pattern","legs"],"bee_group":{"antennae":"X","wings":"X","pattern":"S","legs":"F"},"bonus":1.540000000000001},{"rt":3779.800000011921,"stimulus":"bees-with-color/bee-A2DF.svg","response":0,"trial_type":"image-button-response","trial_index":148,"time_elapsed":503280,"internal_node_id":"0.0-6.0-0.12","subject_id":"6017320a527c3897e958d393","study_id":"6197b3f67c2b5cd3b6d9596a","session_id":"619bfc039836327200ae593d","condition":"full-information","relevant_dimensions":["pattern","legs"],"bee_group":{"antennae":"X","wings":"X","pattern":"S","legs":"F"},"bonus":1.540000000000001},{"rt":903.2000000476837,"stimulus":"bees-with-color/bee-A2DM.svg","response":0,"trial_type":"image-button-response","trial_index":149,"time_elapsed":504186,"internal_node_id":"0.0-6.0-0.13","subject_id":"6017320a527c3897e958d393","study_id":"6197b3f67c2b5cd3b6d9596a","session_id":"619bfc039836327200ae593d","condition":"full-information","relevant_dimensions":["pattern","legs"],"bee_group":{"antennae":"X","wings":"X","pattern":"S","legs":"F"},"bonus":1.540000000000001},{"rt":6601.800000011921,"stimulus":"bees-with-color/bee-A1SM.svg","response":1,"trial_type":"image-button-response","trial_index":150,"time_elapsed":510790,"internal_node_id":"0.0-6.0-0.14","subject_id":"6017320a527c3897e958d393","study_id":"6197b3f67c2b5cd3b6d9596a","session_id":"619bfc039836327200ae593d","condition":"full-information","relevant_dimensions":["pattern","legs"],"bee_group":{"antennae":"X","wings":"X","pattern":"S","legs":"F"},"bonus":1.540000000000001},{"rt":1183.5,"stimulus":"bees-with-color/bee-B2DF.svg","response":0,"trial_type":"image-button-response","trial_index":151,"time_elapsed":511976,"internal_node_id":"0.0-6.0-0.15","subject_id":"6017320a527c3897e958d393","study_id":"6197b3f67c2b5cd3b6d9596a","session_id":"619bfc039836327200ae593d","condition":"full-information","relevant_dimensions":["pattern","legs"],"bee_group":{"antennae":"X","wings":"X","pattern":"S","legs":"F"},"bonus":1.540000000000001},{"rt":3341.100000023842,"stimulus":"bees-with-color/bee-A1SM.svg","response":1,"trial_type":"image-button-response","trial_index":152,"time_elapsed":515319,"internal_node_id":"0.0-6.0-0.16","subject_id":"6017320a527c3897e958d393","study_id":"6197b3f67c2b5cd3b6d9596a","session_id":"619bfc039836327200ae593d","condition":"full-information","relevant_dimensions":["pattern","legs"],"bee_group":{"antennae":"X","wings":"X","pattern":"S","legs":"F"},"bonus":1.540000000000001},{"rt":698,"stimulus":"bees-with-color/bee-A2DF.svg","response":0,"trial_type":"image-button-response","trial_index":153,"time_elapsed":516019,"internal_node_id":"0.0-6.0-0.17","subject_id":"6017320a527c3897e958d393","study_id":"6197b3f67c2b5cd3b6d9596a","session_id":"619bfc039836327200ae593d","condition":"full-information","relevant_dimensions":["pattern","legs"],"bee_group":{"antennae":"X","wings":"X","pattern":"S","legs":"F"},"bonus":1.540000000000001},{"rt":1356.199999988079,"stimulus":"bees-with-color/bee-B1SF.svg","response":1,"trial_type":"image-button-response","trial_index":154,"time_elapsed":517377,"internal_node_id":"0.0-6.0-0.18","subject_id":"6017320a527c3897e958d393","study_id":"6197b3f67c2b5cd3b6d9596a","session_id":"619bfc039836327200ae593d","condition":"full-information","relevant_dimensions":["pattern","legs"],"bee_group":{"antennae":"X","wings":"X","pattern":"S","legs":"F"},"bonus":1.540000000000001},{"rt":1289.199999988079,"stimulus":"bees-with-color/bee-A1SF.svg","response":1,"trial_type":"image-button-response","trial_index":155,"time_elapsed":518668,"internal_node_id":"0.0-6.0-0.19","subject_id":"6017320a527c3897e958d393","study_id":"6197b3f67c2b5cd3b6d9596a","session_id":"619bfc039836327200ae593d","condition":"full-information","relevant_dimensions":["pattern","legs"],"bee_group":{"antennae":"X","wings":"X","pattern":"S","legs":"F"},"bonus":1.540000000000001},{"rt":5555.100000023842,"stimulus":"bees-with-color/bee-B1DF.svg","response":0,"trial_type":"image-button-response","trial_index":156,"time_elapsed":524225,"internal_node_id":"0.0-6.0-0.20","subject_id":"6017320a527c3897e958d393","study_id":"6197b3f67c2b5cd3b6d9596a","session_id":"619bfc039836327200ae593d","condition":"full-information","relevant_dimensions":["pattern","legs"],"bee_group":{"antennae":"X","wings":"X","pattern":"S","legs":"F"},"bonus":1.540000000000001},{"rt":1587.8999999761581,"stimulus":"bees-with-color/bee-B1SM.svg","response":1,"trial_type":"image-button-response","trial_index":157,"time_elapsed":525815,"internal_node_id":"0.0-6.0-0.21","subject_id":"6017320a527c3897e958d393","study_id":"6197b3f67c2b5cd3b6d9596a","session_id":"619bfc039836327200ae593d","condition":"full-information","relevant_dimensions":["pattern","legs"],"bee_group":{"antennae":"X","wings":"X","pattern":"S","legs":"F"},"bonus":1.540000000000001},{"rt":3666.899999976158,"stimulus":"bees-with-color/bee-A1DF.svg","response":1,"trial_type":"image-button-response","trial_index":158,"time_elapsed":529484,"internal_node_id":"0.0-6.0-0.22","subject_id":"6017320a527c3897e958d393","