[{"success":true,"trial_type":"fullscreen","trial_index":0,"time_elapsed":3192,"internal_node_id":"0.0-0.0","subject_id":"5d13739ce001640015f40d7f","study_id":"6197b3f67c2b5cd3b6d9596a","session_id":"619beef11022530dce95b3ef","condition":"contingent","relevant_dimensions":["antennae","legs"],"bee_group":{"antennae":"B","wings":"X","pattern":"X","legs":"F"},"bonus":1.480000000000001},{"success":true,"timeout":false,"failed_images":[],"failed_audio":[],"failed_video":[],"trial_type":"preload","trial_index":1,"time_elapsed":4674,"internal_node_id":"0.0-1.0","subject_id":"5d13739ce001640015f40d7f","study_id":"6197b3f67c2b5cd3b6d9596a","session_id":"619beef11022530dce95b3ef","condition":"contingent","relevant_dimensions":["antennae","legs"],"bee_group":{"antennae":"B","wings":"X","pattern":"X","legs":"F"},"bonus":1.480000000000001},{"rt":2171.60000000149,"stimulus":"Welcome! Press any key to begin.","response":" ","trial_type":"html-keyboard-response","trial_index":2,"time_elapsed":6846,"internal_node_id":"0.0-2.0","subject_id":"5d13739ce001640015f40d7f","study_id":"6197b3f67c2b5cd3b6d9596a","session_id":"619beef11022530dce95b3ef","condition":"contingent","relevant_dimensions":["antennae","legs"],"bee_group":{"antennae":"B","wings":"X","pattern":"X","legs":"F"},"bonus":1.480000000000001},{"view_history":[{"page_index":0,"viewing_time":2274.300000000745},{"page_index":1,"viewing_time":1281.8999999985099},{"page_index":0,"viewing_time":1568},{"page_index":1,"viewing_time":7879.199999999255},{"page_index":2,"viewing_time":1472.800000000745},{"page_index":3,"viewing_time":7664.10000000149},{"page_index":4,"viewing_time":2966.099999997765},{"page_index":5,"viewing_time":3035.900000002235},{"page_index":6,"viewing_time":2676.199999999255},{"page_index":7,"viewing_time":3120.699999999255},{"page_index":8,"viewing_time":2102.10000000149},{"page_index":9,"viewing_time":2359.099999997765},{"page_index":10,"viewing_time":1856.9000000022352},{"page_index":11,"viewing_time":6633},{"page_index":12,"viewing_time":7798},{"page_index":13,"viewing_time":1000.8999999985099},{"page_index":14,"viewing_time":1718.1000000014901}],"rt":57407.5,"trial_type":"instructions","trial_index":3,"time_elapsed":64254,"internal_node_id":"0.0-3.0-0.0","subject_id":"5d13739ce001640015f40d7f","study_id":"6197b3f67c2b5cd3b6d9596a","session_id":"619beef11022530dce95b3ef","condition":"contingent","relevant_dimensions":["antennae","legs"],"bee_group":{"antennae":"B","wings":"X","pattern":"X","legs":"F"},"bonus":1.480000000000001},{"rt":24342.599999997765,"response":{"Q0":["Two or six legs","Stripes or spots on body","Single or double wings","Antennae or no antennae"]},"question_order":[0],"trial_type":"survey-multi-select","trial_index":4,"time_elapsed":88599,"internal_node_id":"0.0-3.0-1.0","subject_id":"5d13739ce001640015f40d7f","study_id":"6197b3f67c2b5cd3b6d9596a","session_id":"619beef11022530dce95b3ef","condition":"contingent","relevant_dimensions":["antennae","legs"],"bee_group":{"antennae":"B","wings":"X","pattern":"X","legs":"F"},"correct":true,"bonus":1.480000000000001},{"rt":38343.10000000149,"response":{"Q1":"No.","Q2":"Based on the four features of the bee.","Q3":"You do not learn if it was friendly or dangerous, and do not alter your bonus."},"question_order":[0,1,2],"trial_type":"survey-multi-choice","trial_index":5,"time_elapsed":126946,"internal_node_id":"0.0-3.0-2.0","subject_id":"5d13739ce001640015f40d7f","study_id":"6197b3f67c2b5cd3b6d9596a","session_id":"619beef11022530dce95b3ef","condition":"contingent","relevant_dimensions":["antennae","legs"],"bee_group":{"antennae":"B","wings":"X","pattern":"X","legs":"F"},"correct":true,"bonus":1.480000000000001},{"rt":2320.599999997765,"stimulus":"<p>Congrats, you got everything right<br>When you're ready, click the button below to continue to the experiment.</p>","response":0,"trial_type":"html-button-response","trial_index":6,"time_elapsed":129269,"internal_node_id":"0.0-3.0-3.0","subject_id":"5d13739ce001640015f40d7f","study_id":"6197b3f67c2b5cd3b6d9596a","session_id":"619beef11022530dce95b3ef","condition":"contingent","relevant_dimensions":["antennae","legs"],"bee_group":{"antennae":"B","wings":"X","pattern":"X","legs":"F"},"bonus":1.480000000000001},{"rt":22673.5,"stimulus":"bees-with-color/bee-A2DF.svg","response":0,"trial_type":"image-button-response","trial_index":7,"time_elapsed":151943,"internal_node_id":"0.0-4.0-0.0","subject_id":"5d13739ce001640015f40d7f","study_id":"6197b3f67c2b5cd3b6d9596a","session_id":"619beef11022530dce95b3ef","condition":"contingent","relevant_dimensions":["antennae","legs"],"bee_group":{"antennae":"B","wings":"X","pattern":"X","legs":"F"},"action":"harvest","summary":"good-harvest","bonus":1.480000000000001},{"rt":9652.400000002235,"stimulus":"\n                    <p><b>Action: <em>harvest</em></b></p>\n                    <p>This is the bee that you just saw.</p>\n                    <img src=\"bees-with-color/bee-A2DF.svg\" width=\"200\">\n                    <p><span class=\"greenText\"><b>Successful harvest!</b></span><br>Your pay has increased by $0.02. Your bonus pay is now $0.56.</p>\n            ","response":0,"trial_type":"html-button-response","trial_index":8,"time_elapsed":161597,"internal_node_id":"0.0-4.0-1.0","subject_id":"5d13739ce001640015f40d7f","study_id":"6197b3f67c2b5cd3b6d9596a","session_id":"619beef11022530dce95b3ef","condition":"contingent","relevant_dimensions":["antennae","legs"],"bee_group":{"antennae":"B","wings":"X","pattern":"X","legs":"F"},"bonus":1.480000000000001},{"rt":15156,"stimulus":"bees-with-color/bee-B2DM.svg","response":0,"trial_type":"image-button-response","trial_index":9,"time_elapsed":176754,"internal_node_id":"0.0-4.0-0.1","subject_id":"5d13739ce001640015f40d7f","study_id":"6197b3f67c2b5cd3b6d9596a","session_id":"619beef11022530dce95b3ef","condition":"contingent","relevant_dimensions":["antennae","legs"],"bee_group":{"antennae":"B","wings":"X","pattern":"X","legs":"F"},"action":"harvest","summary":"good-harvest","bonus":1.480000000000001},{"rt":9239.79999999702,"stimulus":"\n                    <p><b>Action: <em>harvest</em></b></p>\n                    <p>This is the bee that you just saw.</p>\n                    <img src=\"bees-with-color/bee-B2DM.svg\" width=\"200\">\n                    <p><span class=\"greenText\"><b>Successful harvest!</b></span><br>Your pay has increased by $0.02. Your bonus pay is now $0.58.</p>\n            ","response":0,"trial_type":"html-button-response","trial_index":10,"time_elapsed":185995,"internal_node_id":"0.0-4.0-1.1","subject_id":"5d13739ce001640015f40d7f","study_id":"6197b3f67c2b5cd3b6d9596a","session_id":"619beef11022530dce95b3ef","condition":"contingent","relevant_dimensions":["antennae","legs"],"bee_group":{"antennae":"B","wings":"X","pattern":"X","legs":"F"},"bonus":1.480000000000001},{"rt":6183.89999999851,"stimulus":"bees-with-color/bee-B1SM.svg","response":1,"trial_type":"image-button-response","trial_index":11,"time_elapsed":192180,"internal_node_id":"0.0-4.0-0.2","subject_id":"5d13739ce001640015f40d7f","study_id":"6197b3f67c2b5cd3b6d9596a","session_id":"619beef11022530dce95b3ef","condition":"contingent","relevant_dimensions":["antennae","legs"],"bee_group":{"antennae":"B","wings":"X","pattern":"X","legs":"F"},"action":"avoid","summary":"bad-avoid","bonus":1.480000000000001},{"rt":1480,"stimulus":"\n                    <p><b>Action: <em>avoid</em></b></p>\n                    <p>This is the bee that you just saw.</p>\n                    <img src=\"bees-with-color/bee-B1SM.svg\" width=\"200\">\n                    <p><br>Your bonus pay is unchanged, and remains at $0.58.</p>\n            ","response":0,"trial_type":"html-button-response","trial_index":12,"time_elapsed":193661,"internal_node_id":"0.0-4.0-1.2","subject_id":"5d13739ce001640015f40d7f","study_id":"6197b3f67c2b5cd3b6d9596a","session_id":"619beef11022530dce95b3ef","condition":"contingent","relevant_dimensions":["antennae","legs"],"bee_group":{"antennae":"B","wings":"X","pattern":"X","legs":"F"},"bonus":1.480000000000001},{"rt":12549.199999999255,"stimulus":"bees-with-color/bee-A2SF.svg","response":0,"trial_type":"image-button-response","trial_index":13,"time_elapsed":206211,"internal_node_id":"0.0-4.0-0.3","subject_id":"5d13739ce001640015f40d7f","study_id":"6197b3f67c2b5cd3b6d9596a","session_id":"619beef11022530dce95b3ef","condition":"contingent","relevant_dimensions":["antennae","legs"],"bee_group":{"antennae":"B","wings":"X","pattern":"X","legs":"F"},"action":"harvest","summary":"good-harvest","bonus":1.480000000000001},{"rt":15834.29999999702,"stimulus":"\n                    <p><b>Action: <em>harvest</em></b></p>\n                    <p>This is the bee that you just saw.</p>\n                    <img src=\"bees-with-color/bee-A2SF.svg\" width=\"200\">\n                    <p><span class=\"greenText\"><b>Successful harvest!</b></span><br>Your pay has increased by $0.02. Your bonus pay is now $0.60.</p>\n            ","response":0,"trial_type":"html-button-response","trial_index":14,"time_elapsed":222046,"internal_node_id":"0.0-4.0-1.3","subject_id":"5d13739ce001640015f40d7f","study_id":"6197b3f67c2b5cd3b6d9596a","session_id":"619beef11022530dce95b3ef","condition":"contingent","relevant_dimensions":["antennae","legs"],"bee_group":{"antennae":"B","wings":"X","pattern":"X","legs":"F"},"bonus":1.480000000000001},{"rt":10681,"stimulus":"bees-with-color/bee-B2SF.svg","response":1,"trial_type":"image-button-response","trial_index":15,"time_elapsed":232728,"internal_node_id":"0.0-4.0-0.4","subject_id":"5d13739ce001640015f40d7f","study_id":"6197b3f67c2b5cd3b6d9596a","session_id":"619beef11022530dce95b3ef","condition":"contingent","relevant_dimensions":["antennae","legs"],"bee_group":{"antennae":"B","wings":"X","pattern":"X","legs":"F"},"action":"avoid","summary":"good-avoid","bonus":1.480000000000001},{"rt":2013.300000000745,"stimulus":"\n                    <p><b>Action: <em>avoid</em></b></p>\n                    <p>This is the bee that you just saw.</p>\n                    <img src=\"bees-with-color/bee-B2SF.svg\" width=\"200\">\n                    <p><br>Your bonus pay is unchanged, and remains at $0.60.</p>\n            ","response":0,"trial_type":"html-button-response","trial_index":16,"time_elapsed":234742,"internal_node_id":"0.0-4.0-1.4","subject_id":"5d13739ce001640015f40d7f","study_id":"6197b3f67c2b5cd3b6d9596a","session_id":"619beef11022530dce95b3ef","condition":"contingent","relevant_dimensions":["antennae","legs"],"bee_group":{"antennae":"B","wings":"X","pattern":"X","legs":"F"},"bonus":1.480000000000001},{"rt":9314.10000000149,"stimulus":"bees-with-color/bee-A1DM.svg","response":1,"trial_type":"image-button-response","trial_index":17,"time_elapsed":244057,"internal_node_id":"0.0-4.0-0.5","subject_id":"5d13739ce001640015f40d7f","study_id":"6197b3f67c2b5cd3b6d9596a","session_id":"619beef11022530dce95b3ef","condition":"contingent","relevant_dimensions":["antennae","legs"],"bee_group":{"antennae":"B","wings":"X","pattern":"X","legs":"F"},"action":"avoid","summary":"bad-avoid","bonus":1.480000000000001},{"rt":887.8999999985099,"stimulus":"\n                    <p><b>Action: <em>avoid</em></b></p>\n                    <p>This is the bee that you just saw.</p>\n                    <img src=\"bees-with-color/bee-A1DM.svg\" width=\"200\">\n                    <p><br>Your bonus pay is unchanged, and remains at $0.60.</p>\n            ","response":0,"trial_type":"html-button-response","trial_index":18,"time_elapsed":244946,"internal_node_id":"0.0-4.0-1.5","subject_id":"5d13739ce001640015f40d7f","study_id":"6197b3f67c2b5cd3b6d9596a","session_id":"619beef11022530dce95b3ef","condition":"contingent","relevant_dimensions":["antennae","legs"],"bee_group":{"antennae":"B","wings":"X","pattern":"X","legs":"F"},"bonus":1.480000000000001},{"rt":1636.7999999970198,"stimulus":"bees-with-color/bee-A1SF.svg","response":1,"trial_type":"image-button-response","trial_index":19,"time_elapsed":246584,"internal_node_id":"0.0-4.0-0.6","subject_id":"5d13739ce001640015f40d7f","study_id":"6197b3f67c2b5cd3b6d9596a","session_id":"619beef11022530dce95b3ef","condition":"contingent","relevant_dimensions":["antennae","legs"],"bee_group":{"antennae":"B","wings":"X","pattern":"X","legs":"F"},"action":"avoid","summary":"bad-avoid","bonus":1.480000000000001},{"rt":655.1999999992549,"stimulus":"\n                    <p><b>Action: <em>avoid</em></b></p>\n                    <p>This is the bee that you just saw.</p>\n                    <img src=\"bees-with-color/bee-A1SF.svg\" width=\"200\">\n                    <p><br>Your bonus pay is unchanged, and remains at $0.60.</p>\n            ","response":0,"trial_type":"html-button-response","trial_index":20,"time_elapsed":247240,"internal_node_id":"0.0-4.0-1.6","subject_id":"5d13739ce001640015f40d7f","study_id":"6197b3f67c2b5cd3b6d9596a","session_id":"619beef11022530dce95b3ef","condition":"contingent","relevant_dimensions":["antennae","legs"],"bee_group":{"antennae":"B","wings":"X","pattern":"X","legs":"F"},"bonus":1.480000000000001},{"rt":1850.2999999970198,"stimulus":"bees-with-color/bee-B1DF.svg","response":1,"trial_type":"image-button-response","trial_index":21,"time_elapsed":249091,"internal_node_id":"0.0-4.0-0.7","subject_id":"5d13739ce001640015f40d7f","study_id":"6197b3f67c2b5cd3b6d9596a","session_id":"619beef11022530dce95b3ef","condition":"contingent","relevant_dimensions":["antennae","legs"],"bee_group":{"antennae":"B","wings":"X","pattern":"X","legs":"F"},"action":"avoid","summary":"good-avoid","bonus":1.480000000000001},{"rt":568.1000000014901,"stimulus":"\n                    <p><b>Action: <em>avoid</em></b></p>\n                    <p>This is the bee that you just saw.</p>\n                    <img src=\"bees-with-color/bee-B1DF.svg\" width=\"200\">\n                    <p><br>Your bonus pay is unchanged, and remains at $0.60.</p>\n            ","response":0,"trial_type":"html-button-response","trial_index":22,"time_elapsed":249660,"internal_node_id":"0.0-4.0-1.7","subject_id":"5d13739ce001640015f40d7f","study_id":"6197b3f67c2b5cd3b6d9596a","session_id":"619beef11022530dce95b3ef","condition":"contingent","relevant_dimensions":["antennae","legs"],"bee_group":{"antennae":"B","wings":"X","pattern":"X","legs":"F"},"bonus":1.480000000000001},{"rt":3951,"stimulus":"bees-with-color/bee-B2DF.svg","response":0,"trial_type":"image-button-response","trial_index":23,"time_elapsed":253612,"internal_node_id":"0.0-4.0-0.8","subject_id":"5d13739ce001640015f40d7f","study_id":"6197b3f67c2b5cd3b6d9596a","session_id":"619beef11022530dce95b3ef","condition":"contingent","relevant_dimensions":["antennae","legs"],"bee_group":{"antennae":"B","wings":"X","pattern":"X","legs":"F"},"action":"harvest","summary":"bad-harvest","bonus":1.480000000000001},{"rt":25205.20000000298,"stimulus":"\n                    <p><b>Action: <em>harvest</em></b></p>\n                    <p>This is the bee that you just saw.</p>\n                    <img src=\"bees-with-color/bee-B2DF.svg\" width=\"200\">\n                    <p><span class=\"redText\">Bad choice, the bee was angry.</span><br><b>You have been stung!</b><br>Your pay has been decreased by $0.10. Your bonus pay is now $0.50.</p>\n            ","response":0,"trial_type":"html-button-response","trial_index":24,"time_elapsed":278818,"internal_node_id":"0.0-4.0-1.8","subject_id":"5d13739ce001640015f40d7f","study_id":"6197b3f67c2b5cd3b6d9596a","session_id":"619beef11022530dce95b3ef","condition":"contingent","relevant_dimensions":["antennae","legs"],"bee_group":{"antennae":"B","wings":"X","pattern":"X","legs":"F"},"bonus":1.480000000000001},{"rt":6061.099999997765,"stimulus":"bees-with-color/bee-B1SF.svg","response":0,"trial_type":"image-button-response","trial_index":25,"time_elapsed":284880,"internal_node_id":"0.0-4.0-0.9","subject_id":"5d13739ce001640015f40d7f","study_id":"6197b3f67c2b5cd3b6d9596a","session_id":"619beef11022530dce95b3ef","condition":"contingent","relevant_dimensions":["antennae","legs"],"bee_group":{"antennae":"B","wings":"X","pattern":"X","legs":"F"},"action":"harvest","summary":"bad-harvest","bonus":1.480000000000001},{"rt":11008.10000000149,"stimulus":"\n                    <p><b>Action: <em>harvest</em></b></p>\n                    <p>This is the bee that you just saw.</p>\n                    <img src=\"bees-with-color/bee-B1SF.svg\" width=\"200\">\n                    <p><span class=\"redText\">Bad choice, the bee was angry.</span><br><b>You have been stung!</b><br>Your pay has been decreased by $0.10. Your bonus pay is now $0.40.</p>\n            ","response":0,"trial_type":"html-button-response","trial_index":26,"time_elapsed":295889,"internal_node_id":"0.0-4.0-1.9","subject_id":"5d13739ce001640015f40d7f","study_id":"6197b3f67c2b5cd3b6d9596a","session_id":"619beef11022530dce95b3ef","condition":"contingent","relevant_dimensions":["antennae","legs"],"bee_group":{"antennae":"B","wings":"X","pattern":"X","legs":"F"},"bonus":1.480000000000001},{"rt":2506,"stimulus":"bees-with-color/bee-A2SM.svg","response":0,"trial_type":"image-button-response","trial_index":27,"time_elapsed":298396,"internal_node_id":"0.0-4.0-0.10","subject_id":"5d13739ce001640015f40d7f","study_id":"6197b3f67c2b5cd3b6d9596a","session_id":"619beef11022530dce95b3ef","condition":"contingent","relevant_dimensions":["antennae","legs"],"bee_group":{"antennae":"B","wings":"X","pattern":"X","legs":"F"},"action":"harvest","summary":"good-harvest","bonus":1.480000000000001},{"rt":14357.199999999255,"stimulus":"\n                    <p><b>Action: <em>harvest</em></b></p>\n                    <p>This is the bee that you just saw.</p>\n                    <img src=\"bees-with-color/bee-A2SM.svg\" width=\"200\">\n                    <p><span class=\"greenText\"><b>Successful harvest!</b></span><br>Your pay has increased by $0.02. Your bonus pay is now $0.42.</p>\n            ","response":0,"trial_type":"html-button-response","trial_index":28,"time_elapsed":312754,"internal_node_id":"0.0-4.0-1.10","subject_id":"5d13739ce001640015f40d7f","study_id":"6197b3f67c2b5cd3b6d9596a","session_id":"619beef11022530dce95b3ef","condition":"contingent","relevant_dimensions":["antennae","legs"],"bee_group":{"antennae":"B","wings":"X","pattern":"X","legs":"F"},"bonus":1.480000000000001},{"rt":5422,"stimulus":"bees-with-color/bee-A1DF.svg","response":0,"trial_type":"image-button-response","trial_index":29,"time_elapsed":318177,"internal_node_id":"0.0-4.0-0.11","subject_id":"5d13739ce001640015f40d7f","study_id":"6197b3f67c2b5cd3b6d9596a","session_id":"619beef11022530dce95b3ef","condition":"contingent","relevant_dimensions":["antennae","legs"],"bee_group":{"antennae":"B","wings":"X","pattern":"X","legs":"F"},"action":"harvest","summary":"good-harvest","bonus":1.480000000000001},{"rt":9766.199999999255,"stimulus":"\n                    <p><b>Action: <em>harvest</em></b></p>\n                    <p>This is the bee that you just saw.</p>\n                    <img src=\"bees-with-color/bee-A1DF.svg\" width=\"200\">\n                    <p><span class=\"greenText\"><b>Successful harvest!</b></span><br>Your pay has increased by $0.02. Your bonus pay is now $0.44.</p>\n            ","response":0,"trial_type":"html-button-response","trial_index":30,"time_elapsed":327944,"internal_node_id":"0.0-4.0-1.11","subject_id":"5d13739ce001640015f40d7f","study_id":"6197b3f67c2b5cd3b6d9596a","session_id":"619beef11022530dce95b3ef","condition":"contingent","relevant_dimensions":["antennae","legs"],"bee_group":{"antennae":"B","wings":"X","pattern":"X","legs":"F"},"bonus":1.480000000000001},{"rt":5624.20000000298,"stimulus":"bees-with-color/bee-A1SM.svg","response":0,"trial_type":"image-button-response","trial_index":31,"time_elapsed":333569,"internal_node_id":"0.0-4.0-0.12","subject_id":"5d13739ce001640015f40d7f","study_id":"6197b3f67c2b5cd3b6d9596a","session_id":"619beef11022530dce95b3ef","condition":"contingent","relevant_dimensions":["antennae","legs"],"bee_group":{"antennae":"B","wings":"X","pattern":"X","legs":"F"},"action":"harvest","summary":"good-harvest","bonus":1.480000000000001},{"rt":1075.300000000745,"stimulus":"\n                    <p><b>Action: <em>harvest</em></b></p>\n                    <p>This is the bee that you just saw.</p>\n                    <img src=\"bees-with-color/bee-A1SM.svg\" width=\"200\">\n                    <p><span class=\"greenText\"><b>Successful harvest!</b></span><br>Your pay has increased by $0.02. Your bonus pay is now $0.46.</p>\n            ","response":0,"trial_type":"html-button-response","trial_index":32,"time_elapsed":334645,"internal_node_id":"0.0-4.0-1.12","subject_id":"5d13739ce001640015f40d7f","study_id":"6197b3f67c2b5cd3b6d9596a","session_id":"619beef11022530dce95b3ef","condition":"contingent","relevant_dimensions":["antennae","legs"],"bee_group":{"antennae":"B","wings":"X","pattern":"X","legs":"F"},"bonus":1.480000000000001},{"rt":2913,"stimulus":"bees-with-color/bee-B1DM.svg","response":1,"trial_type":"image-button-response","trial_index":33,"time_elapsed":337559,"internal_node_id":"0.0-4.0-0.13","subject_id":"5d13739ce001640015f40d7f","study_id":"6197b3f67c2b5cd3b6d9596a","session_id":"619beef11022530dce95b3ef","condition":"contingent","relevant_dimensions":["antennae","legs"],"bee_group":{"antennae":"B","wings":"X","pattern":"X","legs":"F"},"action":"avoid","summary":"bad-avoid","bonus":1.480000000000001},{"rt":1064.2000000029802,"stimulus":"\n                    <p><b>Action: <em>avoid</em></b></p>\n                    <p>This is the bee that you just saw.</p>\n                    <img src=\"bees-with-color/bee-B1DM.svg\" width=\"200\">\n                    <p><br>Your bonus pay is unchanged, and remains at $0.46.</p>\n            ","response":0,"trial_type":"html-button-response","trial_index":34,"time_elapsed":338624,"internal_node_id":"0.0-4.0-1.13","subject_id":"5d13739ce001640015f40d7f","study_id":"6197b3f67c2b5cd3b6d9596a","session_id":"619beef11022530dce95b3ef","condition":"contingent","relevant_dimensions":["antennae","legs"],"bee_group":{"antennae":"B","wings":"X","pattern":"X","legs":"F"},"bonus":1.480000000000001},{"rt":7976,"stimulus":"bees-with-color/bee-B2SM.svg","response":0,"trial_type":"image-button-response","trial_index":35,"time_elapsed":346601,"internal_node_id":"0.0-4.0-0.14","subject_id":"5d13739ce001640015f40d7f","study_id":"6197b3f67c2b5cd3b6d9596a","session_id":"619beef11022530dce95b3ef","condition":"contingent","relevant_dimensions":["antennae","legs"],"bee_group":{"antennae":"B","wings":"X","pattern":"X","legs":"F"},"action":"harvest","summary":"good-harvest","bonus":1.480000000000001},{"rt":13883.199999999255,"stimulus":"\n                    <p><b>Action: <em>harvest</em></b></p>\n                    <p>This is the bee that you just saw.</p>\n                    <img src=\"bees-with-color/bee-B2SM.svg\" width=\"200\">\n                    <p><span class=\"greenText\"><b>Successful harvest!</b></span><br>Your pay has increased by $0.02. Your bonus pay is now $0.48.</p>\n            ","response":0,"trial_type":"html-button-response","trial_index":36,"time_elapsed":360485,"internal_node_id":"0.0-4.0-1.14","subject_id":"5d13739ce001640015f40d7f","study_id":"6197b3f67c2b5cd3b6d9596a","session_id":"619beef11022530dce95b3ef","condition":"contingent","relevant_dimensions":["antennae","legs"],"bee_group":{"antennae":"B","wings":"X","pattern":"X","legs":"F"},"bonus":1.480000000000001},{"rt":4800.300000000745,"stimulus":"bees-with-color/bee-A2DM.svg","response":0,"trial_type":"image-button-response","trial_index":37,"time_elapsed":365286,"internal_node_id":"0.0-4.0-0.15","subject_id":"5d13739ce001640015f40d7f","study_id":"6197b3f67c2b5cd3b6d9596a","session_id":"619beef11022530dce95b3ef","condition":"contingent","relevant_dimensions":["antennae","legs"],"bee_group":{"antennae":"B","wings":"X","pattern":"X","legs":"F"},"action":"harvest","summary":"good-harvest","bonus":1.480000000000001},{"rt":18348.199999999255,"stimulus":"\n                    <p><b>Action: <em>harvest</em></b></p>\n                    <p>This is the bee that you just saw.</p>\n                    <img src=\"bees-with-color/bee-A2DM.svg\" width=\"200\">\n                    <p><span class=\"greenText\"><b>Successful harvest!</b></span><br>Your pay has increased by $0.02. Your bonus pay is now $0.50.</p>\n            ","response":0,"trial_type":"html-button-response","trial_index":38,"time_elapsed":383635,"internal_node_id":"0.0-4.0-1.15","subject_id":"5d13739ce001640015f40d7f","study_id":"6197b3f67c2b5cd3b6d9596a","session_id":"619beef11022530dce95b3ef","condition":"contingent","relevant_dimensions":["antennae","legs"],"bee_group":{"antennae":"B","wings":"X","pattern":"X","legs":"F"},"bonus":1.480000000000001},{"rt":5628,"stimulus":"bees-with-color/bee-B1DF.svg","response":1,"trial_type":"image-button-response","trial_index":39,"time_elapsed":389264,"internal_node_id":"0.0-4.0-0.16","subject_id":"5d13739ce001640015f40d7f","study_id":"6197b3f67c2b5cd3b6d9596a","session_id":"619beef11022530dce95b3ef","condition":"contingent","relevant_dimensions":["antennae","legs"],"bee_group":{"antennae":"B","wings":"X","pattern":"X","legs":"F"},"action":"avoid","summary":"good-avoid","bonus":1.480000000000001},{"rt":778.1000000014901,"stimulus":"\n                    <p><b>Action: <em>avoid</em></b></p>\n                    <p>This is the bee that you just saw.</p>\n                    <img src=\"bees-with-color/bee-B1DF.svg\" width=\"200\">\n                    <p><br>Your bonus pay is unchanged, and remains at $0.50.</p>\n            ","response":0,"trial_type":"html-button-response","trial_index":40,"time_elapsed":390043,"internal_node_id":"0.0-4.0-1.16","subject_id":"5d13739ce001640015f40d7f","study_id":"6197b3f67c2b5cd3b6d9596a","session_id":"619beef11022530dce95b3ef","condition":"contingent","relevant_dimensions":["antennae","legs"],"bee_group":{"antennae":"B","wings":"X","pattern":"X","legs":"F"},"bonus":1.480000000000001},{"rt":2273.10000000149,"stimulus":"bees-with-color/bee-A1DM.svg","response":0,"trial_type":"image-button-response","trial_index":41,"time_elapsed":392317,"internal_node_id":"0.0-4.0-0.17","subject_id":"5d13739ce001640015f40d7f","study_id":"6197b3f67c2b5cd3b6d9596a","session_id":"619beef11022530dce95b3ef","condition":"contingent","relevant_dimensions":["antennae","legs"],"bee_group":{"antennae":"B","wings":"X","pattern":"X","legs":"F"},"action":"harvest","summary":"good-harvest","bonus":1.480000000000001},{"rt":932.2000000029802,"stimulus":"\n                    <p><b>Action: <em>harvest</em></b></p>\n                    <p>This is the bee that you just saw.</p>\n                    <img src=\"bees-with-color/bee-A1DM.svg\" width=\"200\">\n                    <p><span class=\"greenText\"><b>Successful harvest!</b></span><br>Your pay has increased by $0.02. Your bonus pay is now $0.52.</p>\n            ","response":0,"trial_type":"html-button-response","trial_index":42,"time_elapsed":393250,"internal_node_id":"0.0-4.0-1.17","subject_id":"5d13739ce001640015f40d7f","study_id":"6197b3f67c2b5cd3b6d9596a","session_id":"619beef11022530dce95b3ef","condition":"contingent","relevant_dimensions":["antennae","legs"],"bee_group":{"antennae":"B","wings":"X","pattern":"X","legs":"F"},"bonus":1.480000000000001},{"rt":2897.5,"stimulus":"bees-with-color/bee-A1DF.svg","response":0,"trial_type":"image-button-response","trial_index":43,"time_elapsed":396148,"internal_node_id":"0.0-4.0-0.18","subject_id":"5d13739ce001640015f40d7f","study_id":"6197b3f67c2b5cd3b6d9596a","session_id":"619beef11022530dce95b3ef","condition":"contingent","relevant_dimensions":["antennae","legs"],"bee_group":{"antennae":"B","wings":"X","pattern":"X","legs":"F"},"action":"harvest","summary":"good-harvest","bonus":1.480000000000001},{"rt":891.3000000007451,"stimulus":"\n                    <p><b>Action: <em>harvest</em></b></p>\n                    <p>This is the bee that you just saw.</p>\n                    <img src=\"bees-with-color/bee-A1DF.svg\" width=\"200\">\n                    <p><span class=\"greenText\"><b>Successful harvest!</b></span><br>Your pay has increased by $0.02. Your bonus pay is now $0.54.</p>\n            ","response":0,"trial_type":"html-button-response","trial_index":44,"time_elapsed":397040,"internal_node_id":"0.0-4.0-1.18","subject_id":"5d13739ce001640015f40d7f","study_id":"6197b3f67c2b5cd3b6d9596a","session_id":"619beef11022530dce95b3ef","condition":"contingent","relevant_dimensions":["antennae","legs"],"bee_group":{"antennae":"B","wings":"X","pattern":"X","legs":"F"},"bonus":1.480000000000001},{"rt":12752.300000000745,"stimulus":"bees-with-color/bee-A1SF.svg","response":1,"trial_type":"image-button-response","trial_index":45,"time_elapsed":409793,"internal_node_id":"0.0-4.0-0.19","subject_id":"5d13739ce001640015f40d7f","study_id":"6197b3f67c2b5cd3b6d9596a","session_id":"619beef11022530dce95b3ef","condition":"contingent","relevant_dimensions":["antennae","legs"],"bee_group":{"antennae":"B","wings":"X","pattern":"X","legs":"F"},"action":"avoid","summary":"bad-avoid","bonus":1.480000000000001},{"rt":848.1000000014901,"stimulus":"\n                    <p><b>Action: <em>avoid</em></b></p>\n                    <p>This is the bee that you just saw.</p>\n                    <img src=\"bees-with-color/bee-A1SF.svg\" width=\"200\">\n                    <p><br>Your bonus pay is unchanged, and remains at $0.54.</p>\n            ","response":0,"trial_type":"html-button-response","trial_index":46,"time_elapsed":410642,"internal_node_id":"0.0-4.0-1.19","subject_id":"5d13739ce001640015f40d7f","study_id":"6197b3f67c2b5cd3b6d9596a","session_id":"619beef11022530dce95b3ef","condition":"contingent","relevant_dimensions":["antennae","legs"],"bee_group":{"antennae":"B","wings":"X","pattern":"X","legs":"F"},"bonus":1.480000000000001},{"rt":11448.199999999255,"stimulus":"bees-with-color/bee-B2SF.svg","response":1,"trial_type":"image-button-response","trial_index":47,"time_elapsed":422091,"internal_node_id":"0.0-4.0-0.20","subject_id":"5d13739ce001640015f40d7f","study_id":"6197b3f67c2b5cd3b6d9596a","session_id":"619beef11022530dce95b3ef","condition":"contingent","relevant_dimensions":["antennae","legs"],"bee_group":{"antennae":"B","wings":"X","pattern":"X","legs":"F"},"action":"avoid","summary":"good-avoid","bonus":1.480000000000001},{"rt":674.1000000014901,"stimulus":"\n                    <p><b>Action: <em>avoid</em></b></p>\n                    <p>This is the bee that you just saw.</p>\n                    <img src=\"bees-with-color/bee-B2SF.svg\" width=\"200\">\n                    <p><br>Your bonus pay is unchanged, and remains at $0.54.</p>\n            ","response":0,"trial_type":"html-button-response","trial_index":48,"time_elapsed":422766,"internal_node_id":"0.0-4.0-1.20","subject_id":"5d13739ce001640015f40d7f","study_id":"6197b3f67c2b5cd3b6d9596a","session_id":"619beef11022530dce95b3ef","condition":"contingent","relevant_dimensions":["antennae","legs"],"bee_group":{"antennae":"B","wings":"X","pattern":"X","legs":"F"},"bonus":1.480000000000001},{"rt":8347.300000000745,"stimulus":"bees-with-color/bee-B2DM.svg","response":0,"trial_type":"image-button-response","trial_index":49,"time_elapsed":431114,"internal_node_id":"0.0-4.0-0.21","subject_id":"5d13739ce001640015f40d7f","study_id":"6197b3f67c2b5cd3b6d9596a","session_id":"619beef11022530dce95b3ef","condition":"contingent","relevant_dimensions":["antennae","legs"],"bee_group":{"antennae":"B","wings":"X","pattern":"X","legs":"F"},"action":"harvest","summary":"good-harvest","bonus":1.480000000000001},{"rt":2792.300000000745,"stimulus":"\n                    <p><b>Action: <em>harvest</em></b></p>\n                    <p>This is the bee that you just saw.</p>\n                    <img src=\"bees-with-color/bee-B2DM.svg\" width=\"200\">\n                    <p><span class=\"greenText\"><b>Successful harvest!</b></span><br>Your pay has increased by $0.02. Your bonus pay is now $0.56.</p>\n            ","response":0,"trial_type":"html-button-response","trial_index":50,"time_elapsed":433907,"internal_node_id":"0.0-4.0-1.21","subject_id":"5d13739ce001640015f40d7f","study_id":"6197b3f67c2b5cd3b6d9596a","session_id":"619beef11022530dce95b3ef","condition":"contingent","relevant_dimensions":["antennae","legs"],"bee_group":{"antennae":"B","wings":"X","pattern":"X","legs":"F"},"bonus":1.480000000000001},{"rt":8715.900000002235,"stimulus":"bees-with-color/bee-A2SM.svg","response":0,"trial_type":"image-button-response","trial_index":51,"time_elapsed":442624,"internal_node_id":"0.0-4.0-0.22","subject_id":"5d13739ce001640015f40d7f","study_id":"6197b3f67c2b5cd3b6d9596a","session_id":"619beef11022530dce95b3ef","condition":"contingent","relevant_dimensions":["antennae","legs"],"bee_group":{"antennae":"B","wings":"X","pattern":"X","legs":"F"},"action":"harvest","summary":"good-harvest","bonus":1.480000000000001},{"rt":1131.3999999985099,"stimulus":"\n                    <p><b>Action: <em>harvest</em></b></p>\n                    <p>This is the bee that you just saw.</p>\n                    <img src=\"bees-with-color/bee-A2SM.svg\" width=\"200\">\n                    <p><span class=\"greenText\"><b>Successful harvest!</b></span><br>Your pay has increased by $0.02. Your bonus pay is now $0.58.</p>\n            ","response":0,"trial_type":"html-button-response","trial_index":52,"time_elapsed":443756,"internal_node_id":"0.0-4.0-1.22","subject_id":"5d13739ce001640015f40d7f","study_id":"6197b3f67c2b5cd3b6d9596a","session_id":"619beef11022530dce95b3ef","condition":"contingent","relevant_dimensions":["antennae","legs"],"bee_group":{"antennae":"B","wings":"X","pattern":"X","legs":"F"},"bonus":1.480000000000001},{"rt":6483.099999997765,"stimulus":"bees-with-color/bee-A2DF.svg","response":0,"trial_type":"image-button-response","trial_index":53,"time_elapsed":450240,"internal_node_id":"0.0-4.0-0.23","subject_id":"5d13739ce001640015f40d7f","study_id":"6197b3f67c2b5cd3b6d9596a","session_id":"619beef11022530dce95b3ef","condition":"contingent","relevant_dimensions":["antennae","legs"],"bee_group":{"antennae":"B","wings":"X","pattern":"X","legs":"F"},"action":"harvest","summary":"good-harvest","bonus":1.480000000000001},{"rt":855.3000000007451,"stimulus":"\n                    <p><b>Action: <em>harvest</em></b></p>\n                    <p>This is the bee that you just saw.</p>\n                    <img src=\"bees-with-color/bee-A2DF.svg\" width=\"200\">\n                    <p><span class=\"greenText\"><b>Successful harvest!</b></span><br>Your pay has increased by $0.02. Your bonus pay is now $0.60.</p>\n            ","response":0,"trial_type":"html-button-response","trial_index":54,"time_elapsed":451096,"internal_node_id":"0.0-4.0-1.23","subject_id":"5d13739ce001640015f40d7f","study_id":"6197b3f67c2b5cd3b6d9596a","session_id":"619beef11022530dce95b3ef","condition":"contingent","relevant_dimensions":["antennae","legs"],"bee_group":{"antennae":"B","wings":"X","pattern":"X","legs":"F"},"bonus":1.480000000000001},{"rt":6620,"stimulus":"bees-with-color/bee-B1SF.svg","response":1,"trial_type":"image-button-response","trial_index":55,"time_elapsed":457717,"internal_node_id":"0.0-4.0-0.24","subject_id":"5d13739ce001640015f40d7f","study_id":"6197b3f67c2b5cd3b6d9596a","session_id":"619beef11022530dce95b3ef","condition":"contingent","relevant_dimensions":["antennae","legs"],"bee_group":{"antennae":"B","wings":"X","pattern":"X","legs":"F"},"action":"avoid","summary":"good-avoid","bonus":1.480000000000001},{"rt":781.3000000007451,"stimulus":"\n                    <p><b>Action: <em>avoid</em></b></p>\n                    <p>This is the bee that you just saw.</p>\n                    <img src=\"bees-with-color/bee-B1SF.svg\" width=\"200\">\n                    <p><br>Your bonus pay is unchanged, and remains at $0.60.</p>\n            ","response":0,"trial_type":"html-button-response","trial_index":56,"time_elapsed":458499,"internal_node_id":"0.0-4.0-1.24","subject_id":"5d13739ce001640015f40d7f","study_id":"6197b3f67c2b5cd3b6d9596a","session_id":"619beef11022530dce95b3ef","condition":"contingent","relevant_dimensions":["antennae","legs"],"bee_group":{"antennae":"B","wings":"X","pattern":"X","legs":"F"},"bonus":1.480000000000001},{"rt":4489.20000000298,"stimulus":"bees-with-color/bee-B2DF.svg","response":1,"trial_type":"image-button-response","trial_index":57,"time_elapsed":462989,"internal_node_id":"0.0-4.0-0.25","subject_id":"5d13739ce001640015f40d7f","study_id":"6197b3f67c2b5cd3b6d9596a","session_id":"619beef11022530dce95b3ef","condition":"contingent","relevant_dimensions":["antennae","legs"],"bee_group":{"antennae":"B","wings":"X","pattern":"X","legs":"F"},"action":"avoid","summary":"good-avoid","bonus":1.480000000000001},{"rt":736.3000000007451,"stimulus":"\n                    <p><b>Action: <em>avoid</em></b></p>\n                    <p>This is the bee that you just saw.</p>\n                    <img src=\"bees-with-color/bee-B2DF.svg\" width=\"200\">\n                    <p><br>Your bonus pay is unchanged, and remains at $0.60.</p>\n            ","response":0,"trial_type":"html-button-response","trial_index":58,"time_elapsed":463726,"internal_node_id":"0.0-4.0-1.25","subject_id":"5d13739ce001640015f40d7f","study_id":"6197b3f67c2b5cd3b6d9596a","session_id":"619beef11022530dce95b3ef","condition":"contingent","relevant_dimensions":["antennae","legs"],"bee_group":{"antennae":"B","wings":"X","pattern":"X","legs":"F"},"bonus":1.480000000000001},{"rt":16773.099999997765,"stimulus":"bees-with-color/bee-A1SM.svg","response":0,"trial_type":"image-button-response","trial_index":59,"time_elapsed":480500,"internal_node_id":"0.0-4.0-0.26","subject_id":"5d13739ce001640015f40d7f","study_id":"6197b3f67c2b5cd3b6d9596a","session_id":"619beef11022530dce95b3ef","condition":"contingent","relevant_dimensions":["antennae","legs"],"bee_group":{"antennae":"B","wings":"X","pattern":"X","legs":"F"},"action":"harvest","summary":"good-harvest","bonus":1.480000000000001},{"rt":22000.10000000149,"stimulus":"\n                    <p><b>Action: <em>harvest</em></b></p>\n                    <p>This is the bee that you just saw.</p>\n                    <img src=\"bees-with-color/bee-A1SM.svg\" width=\"200\">\n                    <p><span class=\"greenText\"><b>Successful harvest!</b></span><br>Your pay has increased by $0.02. Your bonus pay is now $0.62.</p>\n            ","response":0,"trial_type":"html-button-response","trial_index":60,"time_elapsed":502501,"internal_node_id":"0.0-4.0-1.26","subject_id":"5d13739ce001640015f40d7f","study_id":"6197b3f67c2b5cd3b6d9596a","session_id":"619beef11022530dce95b3ef","condition":"contingent","relevant_dimensions":["antennae","legs"],"bee_group":{"antennae":"B","wings":"X","pattern":"X","legs":"F"},"bonus":1.480000000000001},{"rt":7682,"stimulus":"bees-with-color/bee-A2SF.svg","response":0,"trial_type":"image-button-response","trial_index":61,"time_elapsed":510184,"internal_node_id":"0.0-4.0-0.27","subject_id":"5d13739ce001640015f40d7f","study_id":"6197b3f67c2b5cd3b6d9596a","session_id":"619beef11022530dce95b3ef","condition":"contingent","relevant_dimensions":["antennae","legs"],"bee_group":{"antennae":"B","wings":"X","pattern":"X","legs":"F"},"action":"harvest","summary":"good-harvest","bonus":1.480000000000001},{"rt":830.3000000007451,"stimulus":"\n                    <p><b>Action: <em>harvest</em></b></p>\n                    <p>This is the bee that you just saw.</p>\n                    <img src=\"bees-with-color/bee-A2SF.svg\" width=\"200\">\n                    <p><span class=\"greenText\"><b>Successful harvest!</b></span><br>Your pay has increased by $0.02. Your bonus pay is now $0.64.</p>\n            ","response":0,"trial_type":"html-button-response","trial_index":62,"time_elapsed":511015,"internal_node_id":"0.0-4.0-1.27","subject_id":"5d13739ce001640015f40d7f","study_id":"6197b3f67c2b5cd3b6d9596a","session_id":"619beef11022530dce95b3ef","condition":"contingent","relevant_dimensions":["antennae","legs"],"bee_group":{"antennae":"B","wings":"X","pattern":"X","legs":"F"},"bonus":1.480000000000001},{"rt":13546,"stimulus":"bees-with-color/bee-A2DM.svg","response":0,"trial_type":"image-button-response","trial_index":63,"time_elapsed":524562,"internal_node_id":"0.0-4.0-0.28","subject_id":"5d13739ce001640015f40d7f","study_id":"6197b3f67c2b5cd3b6d9596a","session_id":"619beef11022530dce95b3ef","condition":"contingent","relevant_dimensions":["antennae","legs"],"bee_group":{"antennae":"B","wings":"X","pattern":"X","legs":"F"},"action":"harvest","summary":"good-harvest","bonus":1.480000000000001},{"rt":966.3000000007451,"stimulus":"\n                    <p><b>Action: <em>harvest</em></b></p>\n                    <p>This is the bee that you just saw.</p>\n                    <img src=\"bees-with-color/bee-A2DM.svg\" width=\"200\">\n                    <p><span class=\"greenText\"><b>Successful harvest!</b></span><br>Your pay has increased by $0.02. Your bonus pay is now $0.66.</p>\n            ","response":0,"trial_type":"html-button-response","trial_index":64,"time_elapsed":525529,"internal_node_id":"0.0-4.0-1.28","subject_id":"5d13739ce001640015f40d7f","study_id":"6197b3f67c2b5cd3b6d9596a","session_id":"619beef11022530dce95b3ef","condition":"contingent","relevant_dimensions":["antennae","legs"],"bee_group":{"antennae":"B","wings":"X","pattern":"X","legs":"F"},"bonus":1.480000000000001},{"rt":7815.199999999255,"stimulus":"bees-with-color/bee-B1DM.svg","response":1,"trial_type":"image-button-response","trial_index":65,"time_elapsed":533345,"internal_node_id":"0.0-4.0-0.29","subject_id":"5d13739ce001640015f40d7f","study_id":"6197b3f67c2b5cd3b6d9596a","session_id":"619beef11022530dce95b3ef","condition":"contingent","relevant_dimensions":["antennae","legs"],"bee_group":{"antennae":"B","wings":"X","pattern":"X","legs":"F"},"action":"avoid","summary":"bad-avoid","bonus":1.480000000000001},{"rt":789.5,"stimulus":"\n                    <p><b>Action: <em>avoid</em></b></p>\n                    <p>This is the bee that you just saw.</p>\n                    <img src=\"bees-with-color/bee-B1DM.svg\" width=\"200\">\n                    <p><br>Your bonus pay is unchanged, and remains at $0.66.</p>\n            ","response":0,"trial_type":"html-button-response","trial_index":66,"time_elapsed":534136,"internal_node_id":"0.0-4.0-1.29","subject_id":"5d13739ce001640015f40d7f","study_id":"6197b3f67c2b5cd3b6d9596a","session_id":"619beef11022530dce95b3ef","condition":"contingent","relevant_dimensions":["antennae","legs"],"bee_group":{"antennae":"B","wings":"X","pattern":"X","legs":"F"},"bonus":1.480000000000001},{"rt":21160,"stimulus":"bees-with-color/bee-B2SM.svg","response":0,"trial_type":"image-button-response","trial_index":67,"time_elapsed":555296,"internal_node_id":"0.0-4.0-0.30","subject_id":"5d13739ce001640015f40d7f","study_id":"6197b3f67c2b5cd3b6d9596a","session_id":"619beef11022530dce95b3ef","condition":"contingent","relevant_dimensions":["antennae","legs"],"bee_group":{"antennae":"B","wings":"X","pattern":"X","legs":"F"},"action":"harvest","summary":"good-harvest","bonus":1.480000000000001},{"rt":713.1999999992549,"stimulus":"\n                    <p><b>Action: <em>harvest</em></b></p>\n                    <p>This is the bee that you just saw.</p>\n                    <img src=\"bees-with-color/bee-B2SM.svg\" width=\"200\">\n                    <p><span class=\"greenText\"><b>Successful harvest!</b></span><br>Your pay has increased by $0.02. Your bonus pay is now $0.68.</p>\n            ","response":0,"trial_type":"html-button-response","trial_index":68,"time_elapsed":556010,"internal_node_id":"0.0-4.0-1.30","subject_id":"5d13739ce001640015f40d7f","study_id":"6197b3f67c2b5cd3b6d9596a","session_id":"619beef11022530dce95b3ef","condition":"contingent","relevant_dimensions":["antennae","legs"],"bee_group":{"antennae":"B","wings":"X","pattern":"X","legs":"F"},"bonus":1.480000000000001},{"rt":28198.10000000149,"stimulus":"bees-with-color/bee-B1SM.svg","response":1,"trial_type":"image-button-response","trial_index":69,"time_elapsed":584209,"internal_node_id":"0.0-4.0-0.31","subject_id":"5d13739ce001640015f40d7f","study_id":"6197b3f67c2b5cd3b6d9596a","session_id":"619beef11022530dce95b3ef","condition":"contingent","relevant_dimensions":["antennae","legs"],"bee_group":{"antennae":"B","wings":"X","pattern":"X","legs":"F"},"action":"avoid","summary":"bad-avoid","bonus":1.480000000000001},{"rt":773.1999999992549,"stimulus":"\n                    <p><b>Action: <em>avoid</em></b></p>\n                    <p>This is the bee that you just saw.</p>\n                    <img src=\"bees-with-color/bee-B1SM.svg\" width=\"200\">\n                    <p><br>Your bonus pay is unchanged, and remains at $0.68.</p>\n            ","response":0,"trial_type":"html-button-response","trial_index":70,"time_elapsed":584983,"internal_node_id":"0.0-4.0-1.31","subject_id":"5d13739ce001640015f40d7f","study_id":"6197b3f67c2b5cd3b6d9596a","session_id":"619beef11022530dce95b3ef","condition":"contingent","relevant_dimensions":["antennae","legs"],"bee_group":{"antennae":"B","wings":"X","pattern":"X","legs":"F"},"bonus":1.480000000000001},{"rt":23130.29999999702,"stimulus":"bees-with-color/bee-B2SF.svg","response":1,"trial_type":"image-button-response","trial_index":71,"time_elapsed":608114,"internal_node_id":"0.0-4.0-0.32","subject_id":"5d13739ce001640015f40d7f","study_id":"6197b3f67c2b5cd3b6d9596a","session_id":"619beef11022530dce95b3ef","condition":"contingent","relevant_dimensions":["antennae","legs"],"bee_group":{"antennae":"B","wings":"X","pattern":"X","legs":"F"},"action":"avoid","summary":"good-avoid","bonus":1.480000000000001},{"rt":964.1999999992549,"stimulus":"\n                    <p><b>Action: <em>avoid</em></b></p>\n                    <p>This is the bee that you just saw.</p>\n                    <img src=\"bees-with-color/bee-B2SF.svg\" width=\"200\">\n                    <p><br>Your bonus pay is unchanged, and remains at $0.68.</p>\n            ","response":0,"trial_type":"html-button-response","trial_index":72,"time_elapsed":609079,"internal_node_id":"0.0-4.0-1.32","subject_id":"5d13739ce001640015f40d7f","study_id":"6197b3f67c2b5cd3b6d9596a","session_id":"619beef11022530dce95b3ef","condition":"contingent","relevant_dimensions":["antennae","legs"],"bee_group":{"antennae":"B","wings":"X","pattern":"X","legs":"F"},"bonus":1.480000000000001},{"rt":11305,"stimulus":"bees-with-color/bee-B2SM.svg","response":0,"trial_type":"image-button-response","trial_index":73,"time_elapsed":620385,"internal_node_id":"0.0-4.0-0.33","subject_id":"5d13739ce001640015f40d7f","study_id":"6197b3f67c2b5cd3b6d9596a","session_id":"619beef11022530dce95b3ef","condition":"contingent","relevant_dimensions":["antennae","legs"],"bee_group":{"antennae":"B","wings":"X","pattern":"X","legs":"F"},"action":"harvest","summary":"good-harvest","bonus":1.480000000000001},{"rt":870.1999999992549,"stimulus":"\n                    <p><b>Action: <em>harvest</em></b></p>\n                    <p>This is the bee that you just saw.</p>\n                    <img src=\"bees-with-color/bee-B2SM.svg\" width=\"200\">\n                    <p><span class=\"greenText\"><b>Successful harvest!</b></span><br>Your pay has increased by $0.02. Your bonus pay is now $0.70.</p>\n            ","response":0,"trial_type":"html-button-response","trial_index":74,"time_elapsed":621256,"internal_node_id":"0.0-4.0-1.33","subject_id":"5d13739ce001640015f40d7f","study_id":"6197b3f67c2b5cd3b6d9596a","session_id":"619beef11022530dce95b3ef","condition":"contingent","relevant_dimensions":["antennae","legs"],"bee_group":{"antennae":"B","wings":"X","pattern":"X","legs":"F"},"bonus":1.480000000000001},{"rt":31338,"stimulus":"bees-with-color/bee-A1DM.svg","response":0,"trial_type":"image-button-response","trial_index":75,"time_elapsed":652595,"internal_node_id":"0.0-4.0-0.34","subject_id":"5d13739ce001640015f40d7f","study_id":"6197b3f67c2b5cd3b6d9596a","session_id":"619beef11022530dce95b3ef","condition":"contingent","relevant_dimensions":["antennae","legs"],"bee_group":{"antennae":"B","wings":"X","pattern":"X","legs":"F"},"action":"harvest","summary":"good-harvest","bonus":1.480000000000001},{"rt":3784.2999999970198,"stimulus":"\n                    <p><b>Action: <em>harvest</em></b></p>\n                    <p>This is the bee that you just saw.</p>\n                    <img src=\"bees-with-color/bee-A1DM.svg\" width=\"200\">\n                    <p><span class=\"greenText\"><b>Successful harvest!</b></span><br>Your pay has increased by $0.02. Your bonus pay is now $0.72.</p>\n            ","response":0,"trial_type":"html-button-response","trial_index":76,"time_elapsed":656380,"internal_node_id":"0.0-4.0-1.34","subject_id":"5d13739ce001640015f40d7f","study_id":"6197b3f67c2b5cd3b6d9596a","session_id":"619beef11022530dce95b3ef","condition":"contingent","relevant_dimensions":["antennae","legs"],"bee_group":{"antennae":"B","wings":"X","pattern":"X","legs":"F"},"bonus":1.480000000000001},{"rt":5139,"stimulus":"bees-with-color/bee-A2SM.svg","response":0,"trial_type":"image-button-response","trial_index":77,"time_elapsed":661520,"internal_node_id":"0.0-4.0-0.35","subject_id":"5d13739ce001640015f40d7f","study_id":"6197b3f67c2b5cd3b6d9596a","session_id":"619beef11022530dce95b3ef","condition":"contingent","relevant_dimensions":["antennae","legs"],"bee_group":{"antennae":"B","wings":"X","pattern":"X","legs":"F"},"action":"harvest","summary":"good-harvest","bonus":1.480000000000001},{"rt":750,"stimulus":"\n                    <p><b>Action: <em>harvest</em></b></p>\n                    <p>This is the bee that you just saw.</p>\n                    <img src=\"bees-with-color/bee-A2SM.svg\" width=\"200\">\n                    <p><span class=\"greenText\"><b>Successful harvest!</b></span><br>Your pay has increased by $0.02. Your bonus pay is now $0.74.</p>\n            ","response":0,"trial_type":"html-button-response","trial_index":78,"time_elapsed":662271,"internal_node_id":"0.0-4.0-1.35","subject_id":"5d13739ce001640015f40d7f","study_id":"6197b3f67c2b5cd3b6d9596a","session_id":"619beef11022530dce95b3ef","condition":"contingent","relevant_dimensions":["antennae","legs"],"bee_group":{"antennae":"B","wings":"X","pattern":"X","legs":"F"},"bonus":1.480000000000001},{"rt":8248.10000000149,"stimulus":"bees-with-color/bee-A2DF.svg","response":0,"trial_type":"image-button-response","trial_index":79,"time_elapsed":670520,"internal_node_id":"0.0-4.0-0.36","subject_id":"5d13739ce001640015f40d7f","study_id":"6197b3f67c2b5cd3b6d9596a","session_id":"619beef11022530dce95b3ef","condition":"contingent","relevant_dimensions":["antennae","legs"],"bee_group":{"antennae":"B","wings":"X","pattern":"X","legs":"F"},"action":"harvest","summary":"good-harvest","bonus":1.480000000000001},{"rt":892.2999999970198,"stimulus":"\n                    <p><b>Action: <em>harvest</em></b></p>\n                    <p>This is the bee that you just saw.</p>\n                    <img src=\"bees-with-color/bee-A2DF.svg\" width=\"200\">\n                    <p><span class=\"greenText\"><b>Successful harvest!</b></span><br>Your pay has increased by $0.02. Your bonus pay is now $0.76.</p>\n            ","response":0,"trial_type":"html-button-response","trial_index":80,"time_elapsed":671413,"internal_node_id":"0.0-4.0-1.36","subject_id":"5d13739ce001640015f40d7f","study_id":"6197b3f67c2b5cd3b6d9596a","session_id":"619beef11022530dce95b3ef","condition":"contingent","relevant_dimensions":["antennae","legs"],"bee_group":{"antennae":"B","wings":"X","pattern":"X","legs":"F"},"bonus":1.480000000000001},{"rt":7455,"stimulus":"bees-with-color/bee-A2SF.svg","response":0,"trial_type":"image-button-response","trial_index":81,"time_elapsed":678869,"internal_node_id":"0.0-4.0-0.37","subject_id":"5d13739ce001640015f40d7f","study_id":"6197b3f67c2b5cd3b6d9596a","session_id":"619beef11022530dce95b3ef","condition":"contingent","relevant_dimensions":["antennae","legs"],"bee_group":{"antennae":"B","wings":"X","pattern":"X","legs":"F"},"action":"harvest","summary":"good-harvest","bonus":1.480000000000001},{"rt":834.1999999992549,"stimulus":"\n                    <p><b>Action: <em>harvest</em></b></p>\n                    <p>This is the bee that you just saw.</p>\n                    <img src=\"bees-with-color/bee-A2SF.svg\" width=\"200\">\n                    <p><span class=\"greenText\"><b>Successful harvest!</b></span><br>Your pay has increased by $0.02. Your bonus pay is now $0.78.</p>\n            ","response":0,"trial_type":"html-button-response","trial_index":82,"time_elapsed":679704,"internal_node_id":"0.0-4.0-1.37","subject_id":"5d13739ce001640015f40d7f","study_id":"6197b3f67c2b5cd3b6d9596a","session_id":"619beef11022530dce95b3ef","condition":"contingent","relevant_dimensions":["antennae","legs"],"bee_group":{"antennae":"B","wings":"X","pattern":"X","legs":"F"},"bonus":1.480000000000001},{"rt":20044.199999999255,"stimulus":"bees-with-color/bee-A1DF.svg","response":0,"trial_type":"image-button-response","trial_index":83,"time_elapsed":699749,"internal_node_id":"0.0-4.0-0.38","subject_id":"5d13739ce001640015f40d7f","study_id":"6197b3f67c2b5cd3b6d9596a","session_id":"619beef11022530dce95b3ef","condition":"contingent","relevant_dimensions":["antennae","legs"],"bee_group":{"antennae":"B","wings":"X","pattern":"X","legs":"F"},"action":"harvest","summary":"good-harvest","bonus":1.480000000000001},{"rt":10382.5,"stimulus":"\n                    <p><b>Action: <em>harvest</em></b></p>\n                    <p>This is the bee that you just saw.</p>\n                    <img src=\"bees-with-color/bee-A1DF.svg\" width=\"200\">\n                    <p><span class=\"greenText\"><b>Successful harvest!</b></span><br>Your pay has increased by $0.02. Your bonus pay is now $0.80.</p>\n            ","response":0,"trial_type":"html-button-response","trial_index":84,"time_elapsed":710133,"internal_node_id":"0.0-4.0-1.38","subject_id":"5d13739ce001640015f40d7f","study_id":"6197b3f67c2b5cd3b6d9596a","session_id":"619beef11022530dce95b3ef","condition":"contingent","relevant_dimensions":["antennae","legs"],"bee_group":{"antennae":"B","wings":"X","pattern":"X","legs":"F"},"bonus":1.480000000000001},{"rt":4646.89999999851,"stimulus":"bees-with-color/bee-B1SF.svg","response":1,"trial_type":"image-button-response","trial_index":85,"time_elapsed":714780,"internal_node_id":"0.0-4.0-0.39","subject_id":"5d13739ce001640015f40d7f","study_id":"6197b3f67c2b5cd3b6d9596a","session_id":"619beef11022530dce95b3ef","condition":"contingent","relevant_dimensions":["antennae","legs"],"bee_group":{"antennae":"B","wings":"X","pattern":"X","legs":"F"},"action":"avoid","summary":"good-avoid","bonus":1.480000000000001},{"rt":557.1999999992549,"stimulus":"\n                    <p><b>Action: <em>avoid</em></b></p>\n                    <p>This is the bee that you just saw.</p>\n                    <img src=\"bees-with-color/bee-B1SF.svg\" width=\"200\">\n                    <p><br>Your bonus pay is unchanged, and remains at $0.80.</p>\n            ","response":0,"trial_type":"html-button-response","trial_index":86,"time_elapsed":715338,"internal_node_id":"0.0-4.0-1.39","subject_id":"5d13739ce001640015f40d7f","study_id":"6197b3f67c2b5cd3b6d9596a","session_id":"619beef11022530dce95b3ef","condition":"contingent","relevant_dimensions":["antennae","legs"],"bee_group":{"antennae":"B","wings":"X","pattern":"X","legs":"F"},"bonus":1.480000000000001},{"rt":4894.39999999851,"stimulus":"bees-with-color/bee-B1DM.svg","response":1,"trial_type":"image-button-response","trial_index":87,"time_elapsed":720233,"internal_node_id":"0.0-4.0-0.40","subject_id":"5d13739ce001640015f40d7f","study_id":"6197b3f67c2b5cd3b6d9596a","session_id":"619beef11022530dce95b3ef","condition":"contingent","relevant_dimensions":["antennae","legs"],"bee_group":{"antennae":"B","wings":"X","pattern":"X","legs":"F"},"action":"avoid","summary":"bad-avoid","bonus":1.480000000000001},{"rt":625,"stimulus":"\n                    <p><b>Action: <em>avoid</em></b></p>\n                    <p>This is the bee that you just saw.</p>\n                    <img src=\"bees-with-color/bee-B1DM.svg\" width=\"200\">\n                    <p><br>Your bonus pay is unchanged, and remains at $0.80.</p>\n            ","response":0,"trial_type":"html-button-response","trial_index":88,"time_elapsed":720859,"internal_node_id":"0.0-4.0-1.40","subject_id":"5d13739ce001640015f40d7f","study_id":"6197b3f67c2b5cd3b6d9596a","session_id":"619beef11022530dce95b3ef","condition":"contingent","relevant_dimensions":["antennae","legs"],"bee_group":{"antennae":"B","wings":"X","pattern":"X","legs":"F"},"bonus":1.480000000000001},{"rt":21981.29999999702,"stimulus":"bees-with-color/bee-B1DF.svg","response":1,"trial_type":"image-button-response","trial_index":89,"time_elapsed":742842,"internal_node_id":"0.0-4.0-0.41","subject_id":"5d13739ce001640015f40d7f","study_id":"6197b3f67c2b5cd3b6d9596a","session_id":"619beef11022530dce95b3ef","condition":"contingent","relevant_dimensions":["antennae","legs"],"bee_group":{"antennae":"B","wings":"X","pattern":"X","legs":"F"},"action":"avoid","summary":"good-avoid","bonus":1.480000000000001},{"rt":892.1999999992549,"stimulus":"\n                    <p><b>Action: <em>avoid</em></b></p>\n                    <p>This is the bee that you just saw.</p>\n                    <img src=\"bees-with-color/bee-B1DF.svg\" width=\"200\">\n                    <p><br>Your bonus pay is unchanged, and remains at $0.80.</p>\n            ","response":0,"trial_type":"html-button-response","trial_index":90,"time_elapsed":743735,"internal_node_id":"0.0-4.0-1.41","subject_id":"5d13739ce001640015f40d7f","study_id":"6197b3f67c2b5cd3b6d9596a","session_id":"619beef11022530dce95b3ef","condition":"contingent","relevant_dimensions":["antennae","legs"],"bee_group":{"antennae":"B","wings":"X","pattern":"X","legs":"F"},"bonus":1.480000000000001},{"rt":14337.099999997765,"stimulus":"bees-with-color/bee-B2DF.svg","response":1,"trial_type":"image-button-response","trial_index":91,"time_elapsed":758073,"internal_node_id":"0.0-4.0-0.42","subject_id":"5d13739ce001640015f40d7f","study_id":"6197b3f67c2b5cd3b6d9596a","session_id":"619beef11022530dce95b3ef","condition":"contingent","relevant_dimensions":["antennae","legs"],"bee_group":{"antennae":"B","wings":"X","pattern":"X","legs":"F"},"action":"avoid","summary":"good-avoid","bonus":1.480000000000001},{"rt":606.1999999992549,"stimulus":"\n                    <p><b>Action: <em>avoid</em></b></p>\n                    <p>This is the bee that you just saw.</p>\n                    <img src=\"bees-with-color/bee-B2DF.svg\" width=\"200\">\n                    <p><br>Your bonus pay is unchanged, and remains at $0.80.</p>\n            ","response":0,"trial_type":"html-button-response","trial_index":92,"time_elapsed":758680,"internal_node_id":"0.0-4.0-1.42","subject_id":"5d13739ce001640015f40d7f","study_id":"6197b3f67c2b5cd3b6d9596a","session_id":"619beef11022530dce95b3ef","condition":"contingent","relevant_dimensions":["antennae","legs"],"bee_group":{"antennae":"B","wings":"X","pattern":"X","legs":"F"},"bonus":1.480000000000001},{"rt":46911.300000000745,"stimulus":"bees-with-color/bee-B2DM.svg","response":0,"trial_type":"image-button-response","trial_index":93,"time_elapsed":805591,"internal_node_id":"0.0-4.0-0.43","subject_id":"5d13739ce001640015f40d7f","study_id":"6197b3f67c2b5cd3b6d9596a","session_id":"619beef11022530dce95b3ef","condition":"contingent","relevant_dimensions":["antennae","legs"],"bee_group":{"antennae":"B","wings":"X","pattern":"X","legs":"F"},"action":"harvest","summary":"good-harvest","bonus":1.480000000000001},{"rt":1519.1000000014901,"stimulus":"\n                    <p><b>Action: <em>harvest</em></b></p>\n                    <p>This is the bee that you just saw.</p>\n                    <img src=\"bees-with-color/bee-B2DM.svg\" width=\"200\">\n                    <p><span class=\"greenText\"><b>Successful harvest!</b></span><br>Your pay has increased by $0.02. Your bonus pay is now $0.82.</p>\n            ","response":0,"trial_type":"html-button-response","trial_index":94,"time_elapsed":807111,"internal_node_id":"0.0-4.0-1.43","subject_id":"5d13739ce001640015f40d7f","study_id":"6197b3f67c2b5cd3b6d9596a","session_id":"619beef11022530dce95b3ef","condition":"contingent","relevant_dimensions":["antennae","legs"],"bee_group":{"antennae":"B","wings":"X","pattern":"X","legs":"F"},"bonus":1.480000000000001},{"rt":6624,"stimulus":"bees-with-color/bee-A2DM.svg","response":0,"trial_type":"image-button-response","trial_index":95,"time_elapsed":813736,"internal_node_id":"0.0-4.0-0.44","subject_id":"5d13739ce001640015f40d7f","study_id":"6197b3f67c2b5cd3b6d9596a","session_id":"619beef11022530dce95b3ef","condition":"contingent","relevant_dimensions":["antennae","legs"],"bee_group":{"antennae":"B","wings":"X","pattern":"X","legs":"F"},"action":"harvest","summary":"good-harvest","bonus":1.480000000000001},{"rt":552.3999999985099,"stimulus":"\n                    <p><b>Action: <em>harvest</em></b></p>\n                    <p>This is the bee that you just saw.</p>\n                    <img src=\"bees-with-color/bee-A2DM.svg\" width=\"200\">\n                    <p><span class=\"greenText\"><b>Successful harvest!</b></span><br>Your pay has increased by $0.02. Your bonus pay is now $0.84.</p>\n            ","response":0,"trial_type":"html-button-response","trial_index":96,"time_elapsed":814289,"internal_node_id":"0.0-4.0-1.44","subject_id":"5d13739ce001640015f40d7f","study_id":"6197b3f67c2b5cd3b6d9596a","session_id":"619beef11022530dce95b3ef","condition":"contingent","relevant_dimensions":["antennae","legs"],"bee_group":{"antennae":"B","wings":"X","pattern":"X","legs":"F"},"bonus":1.480000000000001},{"rt":11769.10000000149,"stimulus":"bees-with-color/bee-A1SM.svg","response":0,"trial_type":"image-button-response","trial_index":97,"time_elapsed":826059,"internal_node_id":"0.0-4.0-0.45","subject_id":"5d13739ce001640015f40d7f","study_id":"6197b3f67c2b5cd3b6d9596a","session_id":"619beef11022530dce95b3ef","condition":"contingent","relevant_dimensions":["antennae","legs"],"bee_group":{"antennae":"B","wings":"X","pattern":"X","legs":"F"},"action":"harvest","summary":"good-harvest","bonus":1.480000000000001},{"rt":732.1999999992549,"stimulus":"\n                    <p><b>Action: <em>harvest</em></b></p>\n                    <p>This is the bee that you just saw.</p>\n                    <img src=\"bees-with-color/bee-A1SM.svg\" width=\"200\">\n                    <p><span class=\"greenText\"><b>Successful harvest!</b></span><br>Your pay has increased by $0.02. Your bonus pay is now $0.86.</p>\n            ","response":0,"trial_type":"html-button-response","trial_index":98,"time_elapsed":826792,"internal_node_id":"0.0-4.0-1.45","subject_id":"5d13739ce001640015f40d7f","study_id":"6197b3f67c2b5cd3b6d9596a","session_id":"619beef11022530dce95b3ef","condition":"contingent","relevant_dimensions":["antennae","legs"],"bee_group":{"antennae":"B","wings":"X","pattern":"X","legs":"F"},"bonus":1.480000000000001},{"rt":8426.300000000745,"stimulus":"bees-with-color/bee-A1SF.svg","response":0,"trial_type":"image-button-response","trial_index":99,"time_elapsed":835219,"internal_node_id":"0.0-4.0-0.46","subject_id":"5d13739ce001640015f40d7f","study_id":"6197b3f67c2b5cd3b6d9596a","session_id":"619beef11022530dce95b3ef","condition":"contingent","relevant_dimensions":["antennae","legs"],"bee_group":{"antennae":"B","wings":"X","pattern":"X","legs":"F"},"action":"harvest","summary":"good-harvest","bonus":1.480000000000001},{"rt":1016.1999999992549,"stimulus":"\n                    <p><b>Action: <em>harvest</em></b></p>\n                    <p>This is the bee that you just saw.</p>\n                    <img src=\"bees-with-color/bee-A1SF.svg\" width=\"200\">\n                    <p><span class=\"greenText\"><b>Successful harvest!</b></span><br>Your pay has increased by $0.02. Your bonus pay is now $0.88.</p>\n            ","response":0,"trial_type":"html-button-response","trial_index":100,"time_elapsed":836236,"internal_node_id":"0.0-4.0-1.46","subject_id":"5d13739ce001640015f40d7f","study_id":"6197b3f67c2b5cd3b6d9596a","session_id":"619beef11022530dce95b3ef","condition":"contingent","relevant_dimensions":["antennae","legs"],"bee_group":{"antennae":"B","wings":"X","pattern":"X","legs":"F"},"bonus":1.480000000000001},{"rt":26504.199999999255,"stimulus":"bees-with-color/bee-B1SM.svg","response":1,"trial_type":"image-button-response","trial_index":101,"time_elapsed":862742,"internal_node_id":"0.0-4.0-0.47","subject_id":"5d13739ce001640015f40d7f","study_id":"6197b3f67c2b5cd3b6d9596a","session_id":"619beef11022530dce95b3ef","condition":"contingent","relevant_dimensions":["antennae","legs"],"bee_group":{"antennae":"B","wings":"X","pattern":"X","legs":"F"},"action":"avoid","summary":"bad-avoid","bonus":1.480000000000001},{"rt":773.1999999992549,"stimulus":"\n                    <p><b>Action: <em>avoid</em></b></p>\n                    <p>This is the bee that you just saw.</p>\n                    <img src=\"bees-with-color/bee-B1SM.svg\" width=\"200\">\n                    <p><br>Your bonus pay is unchanged, and remains at $0.88.</p>\n            ","response":0,"trial_type":"html-button-response","trial_index":102,"time_elapsed":863516,"internal_node_id":"0.0-4.0-1.47","subject_id":"5d13739ce001640015f40d7f","study_id":"6197b3f67c2b5cd3b6d9596a","session_id":"619beef11022530dce95b3ef","condition":"contingent","relevant_dimensions":["antennae","legs"],"bee_group":{"antennae":"B","wings":"X","pattern":"X","legs":"F"},"bonus":1.480000000000001},{"rt":11165.199999999255,"stimulus":"bees-with-color/bee-B2SM.svg","response":0,"trial_type":"image-button-response","trial_index":103,"time_elapsed":874682,"internal_node_id":"0.0-4.0-0.48","subject_id":"5d13739ce001640015f40d7f","study_id":"6197b3f67c2b5cd3b6d9596a","session_id":"619beef11022530dce95b3ef","condition":"contingent","relevant_dimensions":["antennae","legs"],"bee_group":{"antennae":"B","wings":"X","pattern":"X","legs":"F"},"action":"harvest","summary":"good-harvest","bonus":1.480000000000001},{"rt":620.1000000014901,"stimulus":"\n                    <p><b>Action: <em>harvest</em></b></p>\n                    <p>This is the bee that you just saw.</p>\n                    <img src=\"bees-with-color/bee-B2SM.svg\" width=\"200\">\n                    <p><span class=\"greenText\"><b>Successful harvest!</b></span><br>Your pay has increased by $0.02. Your bonus pay is now $0.90.</p>\n            ","response":0,"trial_type":"html-button-response","trial_index":104,"time_elapsed":875303,"internal_node_id":"0.0-4.0-1.48","subject_id":"5d13739ce001640015f40d7f","study_id":"6197b3f67c2b5cd3b6d9596a","session_id":"619beef11022530dce95b3ef","condition":"contingent","relevant_dimensions":["antennae","legs"],"bee_group":{"antennae":"B","wings":"X","pattern":"X","legs":"F"},"bonus":1.480000000000001},{"rt":11432.39999999851,"stimulus":"bees-with-color/bee-A1DM.svg","response":0,"trial_type":"image-button-response","trial_index":105,"time_elapsed":886736,"internal_node_id":"0.0-4.0-0.49","subject_id":"5d13739ce001640015f40d7f","study_id":"6197b3f67c2b5cd3b6d9596a","session_id":"619beef11022530dce95b3ef","condition":"contingent","relevant_dimensions":["antennae","legs"],"bee_group":{"antennae":"B","wings":"X","pattern":"X","legs":"F"},"action":"harvest","summary":"good-harvest","bonus":1.480000000000001},{"rt":666.2000000029802,"stimulus":"\n                    <p><b>Action: <em>harvest</em></b></p>\n                    <p>This is the bee that you just saw.</p>\n                    <img src=\"bees-with-color/bee-A1DM.svg\" width=\"200\">\n                    <p><span class=\"greenText\"><b>Successful harvest!</b></span><br>Your pay has increased by $0.02. Your bonus pay is now $0.92.</p>\n            ","response":0,"trial_type":"html-button-response","trial_index":106,"time_elapsed":887403,"internal_node_id":"0.0-4.0-1.49","subject_id":"5d13739ce001640015f40d7f","study_id":"6197b3f67c2b5cd3b6d9596a","session_id":"619beef11022530dce95b3ef","condition":"contingent","relevant_dimensions":["antennae","legs"],"bee_group":{"antennae":"B","wings":"X","pattern":"X","legs":"F"},"bonus":1.480000000000001},{"rt":7665,"stimulus":"bees-with-color/bee-B1DM.svg","response":1,"trial_type":"image-button-response","trial_index":107,"time_elapsed":895069,"internal_node_id":"0.0-4.0-0.50","subject_id":"5d13739ce001640015f40d7f","study_id":"6197b3f67c2b5cd3b6d9596a","session_id":"619beef11022530dce95b3ef","condition":"contingent","relevant_dimensions":["antennae","legs"],"bee_group":{"antennae":"B","wings":"X","pattern":"X","legs":"F"},"action":"avoid","summary":"bad-avoid","bonus":1.480000000000001},{"rt":603.4000000022352,"stimulus":"\n                    <p><b>Action: <em>avoid</em></b></p>\n                    <p>This is the bee that you just saw.</p>\n                    <img src=\"bees-with-color/bee-B1DM.svg\" width=\"200\">\n                    <p><br>Your bonus pay is unchanged, and remains at $0.92.</p>\n            ","response":0,"trial_type":"html-button-response","trial_index":108,"time_elapsed":895673,"internal_node_id":"0.0-4.0-1.50","subject_id":"5d13739ce001640015f40d7f","study_id":"6197b3f67c2b5cd3b6d9596a","session_id":"619beef11022530dce95b3ef","condition":"contingent","relevant_dimensions":["antennae","legs"],"bee_group":{"antennae":"B","wings":"X","pattern":"X","legs":"F"},"bonus":1.480000000000001},{"rt":11391.20000000298,"stimulus":"bees-with-color/bee-B2DM.svg","response":0,"trial_type":"image-button-response","trial_index":109,"time_elapsed":907065,"internal_node_id":"0.0-4.0-0.51","subject_id":"5d13739ce001640015f40d7f","study_id":"6197b3f67c2b5cd3b6d9596a","session_id":"619beef11022530dce95b3ef","condition":"contingent","relevant_dimensions":["antennae","legs"],"bee_group":{"antennae":"B","wings":"X","pattern":"X","legs":"F"},"action":"harvest","summary":"good-harvest","bonus":1.480000000000001},{"rt":638.1000000014901,"stimulus":"\n                    <p><b>Action: <em>harvest</em></b></p>\n                    <p>This is the bee that you just saw.</p>\n                    <img src=\"bees-with-color/bee-B2DM.svg\" width=\"200\">\n                    <p><span class=\"greenText\"><b>Successful harvest!</b></span><br>Your pay has increased by $0.02. Your bonus pay is now $0.94.</p>\n            ","response":0,"trial_type":"html-button-response","trial_index":110,"time_elapsed":907704,"internal_node_id":"0.0-4.0-1.51","subject_id":"5d13739ce001640015f40d7f","study_id":"6197b3f67c2b5cd3b6d9596a","session_id":"619beef11022530dce95b3ef","condition":"contingent","relevant_dimensions":["antennae","legs"],"bee_group":{"antennae":"B","wings":"X","pattern":"X","legs":"F"},"bonus":1.480000000000001},{"rt":10446.300000000745,"stimulus":"bees-with-color/bee-A1SM.svg","response":0,"trial_type":"image-button-response","trial_index":111,"time_elapsed":918151,"internal_node_id":"0.0-4.0-0.52","subject_id":"5d13739ce001640015f40d7f","study_id":"6197b3f67c2b5cd3b6d9596a","session_id":"619beef11022530dce95b3ef","condition":"contingent","relevant_dimensions":["antennae","legs"],"bee_group":{"antennae":"B","wings":"X","pattern":"X","legs":"F"},"action":"harvest","summary":"good-harvest","bonus":1.480000000000001},{"rt":770.1000000014901,"stimulus":"\n                    <p><b>Action: <em>harvest</em></b></p>\n                    <p>This is the bee that you just saw.</p>\n                    <img src=\"bees-with-color/bee-A1SM.svg\" width=\"200\">\n                    <p><span class=\"greenText\"><b>Successful harvest!</b></span><br>Your pay has increased by $0.02. Your bonus pay is now $0.96.</p>\n            ","response":0,"trial_type":"html-button-response","trial_index":112,"time_elapsed":918922,"internal_node_id":"0.0-4.0-1.52","subject_id":"5d13739ce001640015f40d7f","study_id":"6197b3f67c2b5cd3b6d9596a","session_id":"619beef11022530dce95b3ef","condition":"contingent","relevant_dimensions":["antennae","legs"],"bee_group":{"antennae":"B","wings":"X","pattern":"X","legs":"F"},"bonus":1.480000000000001},{"rt":6368.20000000298,"stimulus":"bees-with-color/bee-A2DF.svg","response":0,"trial_type":"image-button-response","trial_index":113,"time_elapsed":925290,"internal_node_id":"0.0-4.0-0.53","subject_id":"5d13739ce001640015f40d7f","study_id":"6197b3f67c2b5cd3b6d9596a","session_id":"619beef11022530dce95b3ef","condition":"contingent","relevant_dimensions":["antennae","legs"],"bee_group":{"antennae":"B","wings":"X","pattern":"X","legs":"F"},"action":"harvest","summary":"good-harvest","bonus":1.480000000000001},{"rt":749.1000000014901,"stimulus":"\n                    <p><b>Action: <em>harvest</em></b></p>\n                    <p>This is the bee that you just saw.</p>\n                    <img src=\"bees-with-color/bee-A2DF.svg\" width=\"200\">\n                    <p><span class=\"greenText\"><b>Successful harvest!</b></span><br>Your pay has increased by $0.02. Your bonus pay is now $0.98.</p>\n            ","response":0,"trial_type":"html-button-response","trial_index":114,"time_elapsed":926040,"internal_node_id":"0.0-4.0-1.53","subject_id":"5d13739ce001640015f40d7f","study_id":"6197b3f67c2b5cd3b6d9596a","session_id":"619beef11022530dce95b3ef","condition":"contingent","relevant_dimensions":["antennae","legs"],"bee_group":{"antennae":"B","wings":"X","pattern":"X","legs":"F"},"bonus":1.480000000000001},{"rt":49067.400000002235,"stimulus":"bees-with-color/bee-B2DF.svg","response":1,"trial_type":"image-button-response","trial_index":115,"time_elapsed":975108,"internal_node_id":"0.0-4.0-0.54","subject_id":"5d13739ce001640015f40d7f","study_id":"6197b3f67c2b5cd3b6d9596a","session_id":"619beef11022530dce95b3ef","condition":"contingent","relevant_dimensions":["antennae","legs"],"bee_group":{"antennae":"B","wings":"X","pattern":"X","legs":"F"},"action":"avoid","summary":"good-avoid","bonus":1.480000000000001},{"rt":890,"stimulus":"\n                    <p><b>Action: <em>avoid</em></b></p>\n                    <p>This is the bee that you just saw.</p>\n                    <img src=\"bees-with-color/bee-B2DF.svg\" width=\"200\">\n                    <p><br>Your bonus pay is unchanged, and remains at $0.98.</p>\n            ","response":0,"trial_type":"html-button-response","trial_index":116,"time_elapsed":975999,"internal_node_id":"0.0-4.0-1.54","subject_id":"5d13739ce001640015f40d7f","study_id":"6197b3f67c2b5cd3b6d9596a","session_id":"619beef11022530dce95b3ef","condition":"contingent","relevant_dimensions":["antennae","legs"],"bee_group":{"antennae":"B","wings":"X","pattern":"X","legs":"F"},"bonus":1.480000000000001},{"rt":7244.199999999255,"stimulus":"bees-with-color/bee-B1DF.svg","response":1,"trial_type":"image-button-response","trial_index":117,"time_elapsed":983244,"internal_node_id":"0.0-4.0-0.55","subject_id":"5d13739ce001640015f40d7f","study_id":"6197b3f67c2b5cd3b6d9596a","session_id":"619beef11022530dce95b3ef","condition":"contingent","relevant_dimensions":["antennae","legs"],"bee_group":{"antennae":"B","wings":"X","pattern":"X","legs":"F"},"action":"avoid","summary":"good-avoid","bonus":1.480000000000001},{"rt":563.2000000029802,"stimulus":"\n                    <p><b>Action: <em>avoid</em></b></p>\n                    <p>This is the bee that you just saw.</p>\n                    <img src=\"bees-with-color/bee-B1DF.svg\" width=\"200\">\n                    <p><br>Your bonus pay is unchanged, and remains at $0.98.</p>\n            ","response":0,"trial_type":"html-button-response","trial_index":118,"time_elapsed":983808,"internal_node_id":"0.0-4.0-1.55","subject_id":"5d13739ce001640015f40d7f","study_id":"6197b3f67c2b5cd3b6d9596a","session_id":"619beef11022530dce95b3ef","condition":"contingent","relevant_dimensions":["antennae","legs"],"bee_group":{"antennae":"B","wings":"X","pattern":"X","legs":"F"},"bonus":1.480000000000001},{"rt":910.1000000014901,"stimulus":"bees-with-color/bee-A2DM.svg","response":0,"trial_type":"image-button-response","trial_index":119,"time_elapsed":984719,"internal_node_id":"0.0-4.0-0.56","subject_id":"5d13739ce001640015f40d7f","study_id":"6197b3f67c2b5cd3b6d9596a","session_id":"619beef11022530dce95b3ef","condition":"contingent","relevant_dimensions":["antennae","legs"],"bee_group":{"antennae":"B","wings":"X","pattern":"X","legs":"F"},"action":"harvest","summary":"good-harvest","bonus":1.480000000000001},{"rt":543.3000000007451,"stimulus":"\n                    <p><b>Action: <em>harvest</em></b></p>\n                    <p>This is the bee that you just saw.</p>\n                    <img src=\"bees-with-color/bee-A2DM.svg\" width=\"200\">\n                    <p><span class=\"greenText\"><b>Successful harvest!</b></span><br>Your pay has increased by $0.02. Your bonus pay is now $1.00.</p>\n            ","response":0,"trial_type":"html-button-response","trial_index":120,"time_elapsed":985263,"internal_node_id":"0.0-4.0-1.56","subject_id":"5d13739ce001640015f40d7f","study_id":"6197b3f67c2b5cd3b6d9596a","session_id":"619beef11022530dce95b3ef","condition":"contingent","relevant_dimensions":["antennae","legs"],"bee_group":{"antennae":"B","wings":"X","pattern":"X","legs":"F"},"bonus":1.480000000000001},{"rt":1034.300000000745,"stimulus":"bees-with-color/bee-A1SF.svg","response":0,"trial_type":"image-button-response","trial_index":121,"time_elapsed":986298,"internal_node_id":"0.0-4.0-0.57","subject_id":"5d13739ce001640015f40d7f","study_id":"6197b3f67c2b5cd3b6d9596a","session_id":"619beef11022530dce95b3ef","condition":"contingent","relevant_dimensions":["antennae","legs"],"bee_group":{"antennae":"B","wings":"X","pattern":"X","legs":"F"},"action":"harvest","summary":"good-harvest","bonus":1.480000000000001},{"rt":652.1000000014901,"stimulus":"\n                    <p><b>Action: <em>harvest</em></b></p>\n                    <p>This is the bee that you just saw.</p>\n                    <img src=\"bees-with-color/bee-A1SF.svg\" width=\"200\">\n                    <p><span class=\"greenText\"><b>Successful harvest!</b></span><br>Your pay has increased by $0.02. Your bonus pay is now $1.02.</p>\n            ","response":0,"trial_type":"html-button-response","trial_index":122,"time_elapsed":986951,"internal_node_id":"0.0-4.0-1.57","subject_id":"5d13739ce001640015f40d7f","study_id":"6197b3f67c2b5cd3b6d9596a","session_id":"619beef11022530dce95b3ef","condition":"contingent","relevant_dimensions":["antennae","legs"],"bee_group":{"antennae":"B","wings":"X","pattern":"X","legs":"F"},"bonus":1.480000000000001},{"rt":8080.300000000745,"stimulus":"bees-with-color/bee-B1SF.svg","response":1,"trial_type":"image-button-response","trial_index":123,"time_elapsed":995032,"internal_node_id":"0.0-4.0-0.58","subject_id":"5d13739ce001640015f40d7f","study_id":"6197b3f67c2b5cd3b6d9596a","session_id":"619beef11022530dce95b3ef","condition":"contingent","relevant_dimensions":["antennae","legs"],"bee_group":{"antennae":"B","wings":"X","pattern":"X","legs":"F"},"action":"avoid","summary":"good-avoid","bonus":1.480000000000001},{"rt":502.30000000074506,"stimulus":"\n                    <p><b>Action: <em>avoid</em></b></p>\n                    <p>This is the bee that you just saw.</p>\n                    <img src=\"bees-with-color/bee-B1SF.svg\" width=\"200\">\n                    <p><br>Your bonus pay is unchanged, and remains at $1.02.</p>\n            ","response":0,"trial_type":"html-button-response","trial_index":124,"time_elapsed":995535,"internal_node_id":"0.0-4.0-1.58","subject_id":"5d13739ce001640015f40d7f","study_id":"6197b3f67c2b5cd3b6d9596a","session_id":"619beef11022530dce95b3ef","condition":"contingent","relevant_dimensions":["antennae","legs"],"bee_group":{"antennae":"B","wings":"X","pattern":"X","legs":"F"},"bonus":1.480000000000001},{"rt":10808,"stimulus":"bees-with-color/bee-A1DF.svg","response":0,"trial_type":"image-button-response","trial_index":125,"time_elapsed":1006344,"internal_node_id":"0.0-4.0-0.59","subject_id":"5d13739ce001640015f40d7f","study_id":"6197b3f67c2b5cd3b6d9596a","session_id":"619beef11022530dce95b3ef","condition":"contingent","relevant_dimensions":["antennae","legs"],"bee_group":{"antennae":"B","wings":"X","pattern":"X","legs":"F"},"action":"harvest","summary":"good-harvest","bonus":1.480000000000001},{"rt":446.3999999985099,"stimulus":"\n                    <p><b>Action: <em>harvest</em></b></p>\n                    <p>This is the bee that you just saw.</p>\n                    <img src=\"bees-with-color/bee-A1DF.svg\" width=\"200\">\n                    <p><span class=\"greenText\"><b>Successful harvest!</b></span><br>Your pay has increased by $0.02. Your bonus pay is now $1.04.</p>\n            ","response":0,"trial_type":"html-button-response","trial_index":126,"time_elapsed":1006791,"internal_node_id":"0.0-4.0-1.59","subject_id":"5d13739ce001640015f40d7f","study_id":"6197b3f67c2b5cd3b6d9596a","session_id":"619beef11022530dce95b3ef","condition":"contingent","relevant_dimensions":["antennae","legs"],"bee_group":{"antennae":"B","wings":"X","pattern":"X","legs":"F"},"bonus":1.480000000000001},{"rt":4437.199999999255,"stimulus":"bees-with-color/bee-B2SF.svg","response":1,"trial_type":"image-button-response","trial_index":127,"time_elapsed":1011229,"internal_node_id":"0.0-4.0-0.60","subject_id":"5d13739ce001640015f40d7f","study_id":"6197b3f67c2b5cd3b6d9596a","session_id":"619beef11022530dce95b3ef","condition":"contingent","relevant_dimensions":["antennae","legs"],"bee_group":{"antennae":"B","wings":"X","pattern":"X","legs":"F"},"action":"avoid","summary":"good-avoid","bonus":1.480000000000001},{"rt":494,"stimulus":"\n                    <p><b>Action: <em>avoid</em></b></p>\n                    <p>This is the bee that you just saw.</p>\n                    <img src=\"bees-with-color/bee-B2SF.svg\" width=\"200\">\n                    <p><br>Your bonus pay is unchanged, and remains at $1.04.</p>\n            ","response":0,"trial_type":"html-button-response","trial_index":128,"time_elapsed":1011724,"internal_node_id":"0.0-4.0-1.60","subject_id":"5d13739ce001640015f40d7f","study_id":"6197b3f67c2b5cd3b6d9596a","session_id":"619beef11022530dce95b3ef","condition":"contingent","relevant_dimensions":["antennae","legs"],"bee_group":{"antennae":"B","wings":"X","pattern":"X","legs":"F"},"bonus":1.480000000000001},{"rt":1332.1000000014901,"stimulus":"bees-with-color/bee-A2SF.svg","response":0,"trial_type":"image-button-response","trial_index":129,"time_elapsed":1013057,"internal_node_id":"0.0-4.0-0.61","subject_id":"5d13739ce001640015f40d7f","study_id":"6197b3f67c2b5cd3b6d9596a","session_id":"619beef11022530dce95b3ef","condition":"contingent","relevant_dimensions":["antennae","legs"],"bee_group":{"antennae":"B","wings":"X","pattern":"X","legs":"F"},"action":"harvest","summary":"good-harvest","bonus":1.480000000000001},{"rt":564.3000000007451,"stimulus":"\n                    <p><b>Action: <em>harvest</em></b></p>\n                    <p>This is the bee that you just saw.</p>\n                    <img src=\"bees-with-color/bee-A2SF.svg\" width=\"200\">\n                    <p><span class=\"greenText\"><b>Successful harvest!</b></span><br>Your pay has increased by $0.02. Your bonus pay is now $1.06.</p>\n            ","response":0,"trial_type":"html-button-response","trial_index":130,"time_elapsed":1013622,"internal_node_id":"0.0-4.0-1.61","subject_id":"5d13739ce001640015f40d7f","study_id":"6197b3f67c2b5cd3b6d9596a","session_id":"619beef11022530dce95b3ef","condition":"contingent","relevant_dimensions":["antennae","legs"],"bee_group":{"antennae":"B","wings":"X","pattern":"X","legs":"F"},"bonus":1.480000000000001},{"rt":9171.300000000745,"stimulus":"bees-with-color/bee-B1SM.svg","response":1,"trial_type":"image-button-response","trial_index":131,"time_elapsed":1022794,"internal_node_id":"0.0-4.0-0.62","subject_id":"5d13739ce001640015f40d7f","study_id":"6197b3f67c2b5cd3b6d9596a","session_id":"619beef11022530dce95b3ef","condition":"contingent","relevant_dimensions":["antennae","legs"],"bee_group":{"antennae":"B","wings":"X","pattern":"X","legs":"F"},"action":"avoid","summary":"bad-avoid","bonus":1.480000000000001},{"rt":650.1000000014901,"stimulus":"\n                    <p><b>Action: <em>avoid</em></b></p>\n                    <p>This is the bee that you just saw.</p>\n                    <img src=\"bees-with-color/bee-B1SM.svg\" width=\"200\">\n                    <p><br>Your bonus pay is unchanged, and remains at $1.06.</p>\n            ","response":0,"trial_type":"html-button-response","trial_index":132,"time_elapsed":1023445,"internal_node_id":"0.0-4.0-1.62","subject_id":"5d13739ce001640015f40d7f","study_id":"6197b3f67c2b5cd3b6d9596a","session_id":"619beef11022530dce95b3ef","condition":"contingent","relevant_dimensions":["antennae","legs"],"bee_group":{"antennae":"B","wings":"X","pattern":"X","legs":"F"},"bonus":1.480000000000001},{"rt":2826.2000000029802,"stimulus":"bees-with-color/bee-A2SM.svg","response":0,"trial_type":"image-button-response","trial_index":133,"time_elapsed":1026272,"internal_node_id":"0.0-4.0-0.63","subject_id":"5d13739ce001640015f40d7f","study_id":"6197b3f67c2b5cd3b6d9596a","session_id":"619beef11022530dce95b3ef","condition":"contingent","relevant_dimensions":["antennae","legs"],"bee_group":{"antennae":"B","wings":"X","pattern":"X","legs":"F"},"action":"harvest","summary":"good-harvest","bonus":1.480000000000001},{"rt":651.3000000007451,"stimulus":"\n                    <p><b>Action: <em>harvest</em></b></p>\n                    <p>This is the bee that you just saw.</p>\n                    <img src=\"bees-with-color/bee-A2SM.svg\" width=\"200\">\n                    <p><span class=\"greenText\"><b>Successful harvest!</b></span><br>Your pay has increased by $0.02. Your bonus pay is now $1.08.</p>\n            ","response":0,"trial_type":"html-button-response","trial_index":134,"time_elapsed":1026924,"internal_node_id":"0.0-4.0-1.63","subject_id":"5d13739ce001640015f40d7f","study_id":"6197b3f67c2b5cd3b6d9596a","session_id":"619beef11022530dce95b3ef","condition":"contingent","relevant_dimensions":["antennae","legs"],"bee_group":{"antennae":"B","wings":"X","pattern":"X","legs":"F"},"bonus":1.480000000000001},{"rt":9521.800000000745,"stimulus":"You have completed the first part of this experiment.<br><br>You will now begin a shorter second part, in which you will receive no feedback.<br>The same rules regarding bonus pay apply.<br><br>Press any key to begin.","response":"enter","trial_type":"html-keyboard-response","trial_index":135,"time_elapsed":1036447,"internal_node_id":"0.0-5.0","subject_id":"5d13739ce001640015f40d7f","study_id":"6197b3f67c2b5cd3b6d9596a","session_id":"619beef11022530dce95b3ef","condition":"contingent","relevant_dimensions":["antennae","legs"],"bee_group":{"antennae":"B","wings":"X","pattern":"X","legs":"F"},"bonus":1.480000000000001},{"rt":4064.300000000745,"stimulus":"bees-with-color/bee-A2SF.svg","response":0,"trial_type":"image-button-response","trial_index":136,"time_elapsed":1040515,"internal_node_id":"0.0-6.0-0.0","subject_id":"5d13739ce001640015f40d7f","study_id":"6197b3f67c2b5cd3b6d9596a","session_id":"619beef11022530dce95b3ef","condition":"contingent","relevant_dimensions":["antennae","legs"],"bee_group":{"antennae":"B","wings":"X","pattern":"X","legs":"F"},"bonus":1.480000000000001},{"rt":3706.800000000745,"stimulus":"bees-with-color/bee-B1DM.svg","response":1,"trial_type":"image-button-response","trial_index":137,"time_elapsed":1044223,"internal_node_id":"0.0-6.0-0.1","subject_id":"5d13739ce001640015f40d7f","study_id":"6197b3f67c2b5cd3b6d9596a","session_id":"619beef11022530dce95b3ef","condition":"contingent","relevant_dimensions":["antennae","legs"],"bee_group":{"antennae":"B","wings":"X","pattern":"X","legs":"F"},"bonus":1.480000000000001},{"rt":8084,"stimulus":"bees-with-color/bee-B1SM.svg","response":1,"trial_type":"image-button-response","trial_index":138,"time_elapsed":1052308,"internal_node_id":"0.0-6.0-0.2","subject_id":"5d13739ce001640015f40d7f","study_id":"6197b3f67c2b5cd3b6d9596a","session_id":"619beef11022530dce95b3ef","condition":"contingent","relevant_dimensions":["antennae","legs"],"bee_group":{"antennae":"B","wings":"X","pattern":"X","legs":"F"},"bonus":1.480000000000001},{"rt":2179.60000000149,"stimulus":"bees-with-color/bee-A2SM.svg","response":0,"trial_type":"image-button-response","trial_index":139,"time_elapsed":1054489,"internal_node_id":"0.0-6.0-0.3","subject_id":"5d13739ce001640015f40d7f","study_id":"6197b3f67c2b5cd3b6d9596a","session_id":"619beef11022530dce95b3ef","condition":"contingent","relevant_dimensions":["antennae","legs"],"bee_group":{"antennae":"B","wings":"X","pattern":"X","legs":"F"},"bonus":1.480000000000001},{"rt":1780.6000000014901,"stimulus":"bees-with-color/bee-B1SF.svg","response":1,"trial_type":"image-button-response","trial_index":140,"time_elapsed":1056271,"internal_node_id":"0.0-6.0-0.4","subject_id":"5d13739ce001640015f40d7f","study_id":"6197b3f67c2b5cd3b6d9596a","session_id":"619beef11022530dce95b3ef","condition":"contingent","relevant_dimensions":["antennae","legs"],"bee_group":{"antennae":"B","wings":"X","pattern":"X","legs":"F"},"bonus":1.480000000000001},{"rt":1131.800000000745,"stimulus":"bees-with-color/bee-B1DF.svg","response":1,"trial_type":"image-button-response","trial_index":141,"time_elapsed":1057404,"internal_node_id":"0.0-6.0-0.5","subject_id":"5d13739ce001640015f40d7f","study_id":"6197b3f67c2b5cd3b6d9596a","session_id":"619beef11022530dce95b3ef","condition":"contingent","relevant_dimensions":["antennae","legs"],"bee_group":{"antennae":"B","wings":"X","pattern":"X","legs":"F"},"bonus":1.480000000000001},{"rt":10048.699999999255,"stimulus":"bees-with-color/bee-B2DM.svg","response":0,"trial_type":"image-button-response","trial_index":142,"time_elapsed":1067454,"internal_node_id":"0.0-6.0-0.6","subject_id":"5d13739ce001640015f40d7f","study_id":"6197b3f67c2b5cd3b6d9596a","session_id":"619beef11022530dce95b3ef","condition":"contingent","relevant_dimensions":["antennae","legs"],"bee_group":{"antennae":"B","wings":"X","pattern":"X","legs":"F"},"bonus":1.480000000000001},{"rt":1248.6000000014901,"stimulus":"bees-with-color/bee-A1SM.svg","response":0,"trial_type":"image-button-response","trial_index":143,"time_elapsed":1068704,"internal_node_id":"0.0-6.0-0.7","subject_id":"5d13739ce001640015f40d7f","study_id":"6197b3f67c2b5cd3b6d9596a","session_id":"619beef11022530dce95b3ef","condition":"contingent","relevant_dimensions":["antennae","legs"],"bee_group":{"antennae":"B","wings":"X","pattern":"X","legs":"F"},"bonus":1.480000000000001},{"rt":807.9000000022352,"stimulus":"bees-with-color/bee-A2DF.svg","response":0,"trial_type":"image-button-response","trial_index":144,"time_elapsed":1069513,"internal_node_id":"0.0-6.0-0.8","subject_id":"5d13739ce001640015f40d7f","study_id":"6197b3f67c2b5cd3b6d9596a","session_id":"619beef11022530dce95b3ef","condition":"contingent","relevant_dimensions":["antennae","legs"],"bee_group":{"antennae":"B","wings":"X","pattern":"X","legs":"F"},"bonus":1.480000000000001},{"rt":961.8000000007451,"stimulus":"bees-with-color/bee-A2DM.svg","response":0,"trial_type":"image-button-response","trial_index":145,"time_elapsed":1070476,"internal_node_id":"0.0-6.0-0.9","subject_id":"5d13739ce001640015f40d7f","study_id":"6197b3f67c2b5cd3b6d9596a","session_id":"619beef11022530dce95b3ef","condition":"contingent","relevant_dimensions":["antennae","legs"],"bee_group":{"antennae":"B","wings":"X","pattern":"X","legs":"F"},"bonus":1.480000000000001},{"rt":4812.89999999851,"stimulus":"bees-with-color/bee-B2SM.svg","response":0,"trial_type":"image-button-response","trial_index":146,"time_elapsed":1075290,"internal_node_id":"0.0-6.0-0.10","subject_id":"5d13739ce001640015f40d7f","study_id":"6197b3f67c2b5cd3b6d9596a","session_id":"619beef11022530dce95b3ef","condition":"contingent","relevant_dimensions":["antennae","legs"],"bee_group":{"antennae":"B","wings":"X","pattern":"X","legs":"F"},"bonus":1.480000000000001},{"rt":12956.800000000745,"stimulus":"bees-with-color/bee-B2DF.svg","response":1,"trial_type":"image-button-response","trial_index":147,"time_elapsed":1088248,"internal_node_id":"0.0-6.0-0.11","subject_id":"5d13739ce001640015f40d7f","study_id":"6197b3f67c2b5cd3b6d9596a","session_id":"619beef11022530dce95b3ef","condition":"contingent","relevant_dimensions":["antennae","legs"],"bee_group":{"antennae":"B","wings":"X","pattern":"X","legs":"F"},"bonus":1.480000000000001},{"rt":1140.6000000014901,"stimulus":"bees-with-color/bee-A1SF.svg","response":0,"trial_type":"image-button-response","trial_index":148,"time_elapsed":1089390,"internal_node_id":"0.0-6.0-0.12","subject_id":"5d13739ce001640015f40d7f","study_id":"6197b3f67c2b5cd3b6d9596a","session_id":"619beef11022530dce95b3ef","condition":"contingent","relevant_dimensions":["antennae","legs"],"bee_group":{"antennae":"B","wings":"X","pattern":"X","legs":"F"},"bonus":1.480000000000001},{"rt":786.8999999985099,"stimulus":"bees-with-color/bee-A1DF.svg","response":0,"trial_type":"image-button-response","trial_index":149,"time_elapsed":1090178,"internal_node_id":"0.0-6.0-0.13","subject_id":"5d13739ce001640015f40d7f","study_id":"6197b3f67c2b5cd3b6d9596a","session_id":"619beef11022530dce95b3ef","condition":"contingent","relevant_dimensions":["antennae","legs"],"bee_group":{"antennae":"B","wings":"X","pattern":"X","legs":"F"},"bonus":1.480000000000001},{"rt":790,"stimulus":"bees-with-color/bee-A1DM.svg","response":0,"trial_type":"image-button-response","trial_index":150,"time_elapsed":1090969,"internal_node_id":"0.0-6.0-0.14","subject_id":"5d13739ce001640015f40d7f","study_id":"6197b3f67c2b5cd3b6d9596a","session_id":"619beef11022530dce95b3ef","condition":"contingent","relevant_dimensions":["antennae","legs"],"bee_group":{"antennae":"B","wings":"X","pattern":"X","legs":"F"},"bonus":1.480000000000001},{"rt":23526,"stimulus":"bees-with-color/bee-B2SF.svg","response":1,"trial_type":"image-button-response","trial_index":151,"time_elapsed":1114497,"internal_node_id":"0.0-6.0-0.15","subject_id":"5d13739ce001640015f40d7f","study_id":"6197b3f67c2b5cd3b6d9596a","session_id":"619beef11022530dce95b3ef","condition":"contingent","relevant_dimensions":["antennae","legs"],"bee_group":{"antennae":"B","wings":"X","pattern":"X","legs":"F"},"bonus":1.480000000000001},{"rt":696.6999999992549,"stimulus":"bees-with-color/bee-A2DM.svg","response":0,"trial_type":"image-button-response","trial_index":152,"time_elapsed":1115194,"internal_node_id":"0.0-6.0-0.16","subject_id":"5d13739ce001640015f40d7f","study_id":"6197b3f67c2b5cd3b6d9596a","session_id":"619beef11022530dce95b3ef","condition":"contingent","relevant_dimensions":["antennae","legs"],"bee_group":{"antennae":"B","wings":"X","pattern":"X","legs":"F"},"bonus":1.480000000000001},{"rt":5737.10000000149,"stimulus":"bees-with-color/bee-B2SM.svg","response":0,"trial_type":"image-button-response","trial_index":153,"time_elapsed":1120932,"internal_node_id":"0.0-6.0-0.17","subject_id":"5d13739ce001640015f40d7f","study_id":"6197b3f67c2b5cd3b6d9596a","session_id":"619beef11022530dce95b3ef","condition":"contingent","relevant_dimensions":["antennae","legs"],"bee_group":{"antennae":"B","wings":"X","pattern":"X","legs":"F"},"bonus":1.480000000000001},{"rt":1551.9000000022352,"stimulus":"bees-with-color/bee-B1DM.svg","response":1,"trial_type":"image-button-response","trial_index":154,"time_elapsed":1122485,"internal_node_id":"0.0-6.0-0.18","subject_id":"5d13739ce001640015f40d7f","study_id":"6197b3f67c2b5cd3b6d9596a","session_id":"619beef11022530dce95b3ef","condition":"contingent","relevant_dimensions":["antennae","legs"],"bee_group":{"antennae":"B","wings":"X","pattern":"X","legs":"F"},"bonus":1.480000000000001},{"rt":2288.10000000149,"stimulus":"bees-with-color/bee-A1SM.svg","response":0,"trial_type":"image-button-response","trial_index":155,"time_elapsed":1124774,"internal_node_id":"0.0-6.0-0.19","subject_id":"5d13739ce001640015f40d7f","study_id":"6197b3f67c2b5cd3b6d9596a","session_id":"619beef11022530dce95b3ef","condition":"contingent","relevant_dimensions":["antennae","legs"],"bee_group":{"antennae":"B","wings":"X","pattern":"X","legs":"F"},"bonus":1.480000000000001},{"rt":569.9000000022352,"stimulus":"bees-with-color/bee-A2SF.svg","response":0,"trial_type":"image-button-response","trial_index":156,"time_elapsed":1125345,"internal_node_id":"0.0-6.0-0.20","subject_id":"5d13739ce001640015f40d7f","study_id":"6197b3f67c2b5cd3b6d9596a","session_id":"619beef11022530dce95b3ef","condition":"contingent","relevant_dimensions":["antennae","legs"],"bee_group":{"antennae":"B","wings":"X","pattern":"X","legs":"F"},"bonus":1.480000000000001},{"rt":485.1000000014901,"stimulus":"bees-with-color/bee-A1SF.svg","response":0,"trial_type":"image-button-response","trial_index":157,"time_elapsed":1125831,"internal_node_id":"0.0-6.0-0.21","subject_id":"5d13739ce001640015f40d7f","study_id":"6197b3f67c2b5cd3b6d9596a","session_id":"619beef11022530dce95b3ef","condition":"contingent","relevant_dimensions":["antennae","legs"],"bee_group":{"antennae":"B","wings":"X","pattern":"X","legs":"F"},"bonus":1.480000000000001},{"rt":1789.2999999970198,"stimulus":"bees-with-color/bee-B1SF.svg","response":1,"trial_type":"image-button-response","trial_index":158,"time_elapsed":1127622,"internal_node_id":"0.0-6.0-0.22","subject_id":"5d13739ce001640015f40d7f","study_id":"6197b3f67c2b5cd3b6d9596a","session_id":"619beef11022530dce95b3ef","condition":"contingent","relevant_dimensions":["antennae","legs"],"bee_group":{"antennae":"B","wings":"X","pattern":"X","legs":"F"},"bonus":1.480000000000001},{"rt":5857.099999997765,"stimulus":"bees-with-color/bee-B2DF.svg","response":1,"trial_type":"image-button-response","trial_index":159,"time_elapsed":1133480,"internal_node_id":"0.0-6.0-0.23","subject_id":"5d13739ce001640015f40d7f","study_id":"6197b3f67c2b5cd3b6d9596a","session_id":"619beef11022530dce95b3ef","condition":"contingent","relevant_dimensions":["antennae","legs"],"bee_group":{"antennae":"B","wings":"X","pattern":"X","legs":"F"},"bonus":1.480000000000001},{"rt":1022.8000000007451,"stimulus":"bees-with-color/bee-A2DF.svg","response":0,"trial_type":"image-button-response","trial_index":160,"time_elapsed":1134503,"internal_node_id":"0.0-6.0-0.24","subject_id":"5d13739ce001640015f40d7f","study_id":"6197b3f67c2b5cd3b6d9596a","session_id":"619beef11022530dce95b3ef","condition":"contingent","relevant_dimensions":["antennae","legs"],"bee_group":{"antennae":"B","wings":"X","pattern":"X","legs":"F"},"bonus":1.480000000000001},{"rt":655.1999999992549,"stimulus":"bees-with-color/bee-A1DM.svg","response":0,"trial_type":"image-button-response","trial_index":161,"time_elapsed":1135159,"internal_node_id":"0.0-6.0-0.25","subject_id":"5d13739ce001640015f40d7f","study_id":"6197b3f67c2b5cd3b6d9596a","session_id":"619beef11022530dce95b3ef","condition":"contingent","relevant_dimensions":["antennae","legs"],"bee_group":{"antennae":"B","wings":"X","pattern":"X","legs":"F"},"bonus":1.480000000000001},{"rt":3472.099999997765,"stimulus":"bees-with-color/bee-B2SF.svg","response":1,"trial_type":"image-button-response","trial_index":162,"time_elapsed":1138633,"internal_node_id":"0.0-6.0-0.26","subject_id":"5d13739ce001640015f40d7f","study_id":"6197b3f67c2b5cd3b6d9596a","session_id":"619beef11022530dce95b3ef","condition":"contingent","relevant_dimensions":["antennae","legs"],"bee_group":{"antennae":"B","wings":"X","pattern":"X","legs":"F"},"bonus":1.480000000000001},{"rt":2921.89999999851,"stimulus":"bees-with-color/bee-B1SM.svg","response":1,"trial_type":"image-button-response","trial_index":163,"time_elapsed":1141556,"internal_node_id":"0.0-6.0-0.27","subject_id":"5d13739ce001640015f40d7f","study_id":"6197b3f67c2b5cd3b6d9596a","session_id":"619beef11022530dce95b3ef","condition":"contingent","relevan