[{"success":true,"trial_type":"fullscreen","trial_index":0,"time_elapsed":4274,"internal_node_id":"0.0-0.0","subject_id":"60dd80677c883380b252f05c","study_id":"6197b3f67c2b5cd3b6d9596a","session_id":"619be78932b195b0e70c0920","condition":"full-information","relevant_dimensions":["wings","pattern"],"bee_group":{"antennae":"X","wings":"2","pattern":"S","legs":"X"},"bonus":0.8800000000000011},{"success":true,"timeout":false,"failed_images":[],"failed_audio":[],"failed_video":[],"trial_type":"preload","trial_index":1,"time_elapsed":6712,"internal_node_id":"0.0-1.0","subject_id":"60dd80677c883380b252f05c","study_id":"6197b3f67c2b5cd3b6d9596a","session_id":"619be78932b195b0e70c0920","condition":"full-information","relevant_dimensions":["wings","pattern"],"bee_group":{"antennae":"X","wings":"2","pattern":"S","legs":"X"},"bonus":0.8800000000000011},{"rt":2278.7000000476837,"stimulus":"Welcome! Press any key to begin.","response":"enter","trial_type":"html-keyboard-response","trial_index":2,"time_elapsed":8991,"internal_node_id":"0.0-2.0","subject_id":"60dd80677c883380b252f05c","study_id":"6197b3f67c2b5cd3b6d9596a","session_id":"619be78932b195b0e70c0920","condition":"full-information","relevant_dimensions":["wings","pattern"],"bee_group":{"antennae":"X","wings":"2","pattern":"S","legs":"X"},"bonus":0.8800000000000011},{"view_history":[{"page_index":0,"viewing_time":4230.299999952316},{"page_index":1,"viewing_time":20891.800000071526},{"page_index":2,"viewing_time":15742},{"page_index":3,"viewing_time":30127.399999976158},{"page_index":4,"viewing_time":6668.299999952316},{"page_index":5,"viewing_time":11002.100000023842},{"page_index":6,"viewing_time":29051.700000047684},{"page_index":7,"viewing_time":9925.899999976158},{"page_index":8,"viewing_time":9144.100000023842},{"page_index":9,"viewing_time":10322},{"page_index":10,"viewing_time":9847.899999976158},{"page_index":11,"viewing_time":18317.799999952316},{"page_index":12,"viewing_time":8579.600000023842},{"page_index":13,"viewing_time":1272},{"page_index":14,"viewing_time":2724.2000000476837}],"rt":187847.70000004768,"trial_type":"instructions","trial_index":3,"time_elapsed":196840,"internal_node_id":"0.0-3.0-0.0","subject_id":"60dd80677c883380b252f05c","study_id":"6197b3f67c2b5cd3b6d9596a","session_id":"619be78932b195b0e70c0920","condition":"full-information","relevant_dimensions":["wings","pattern"],"bee_group":{"antennae":"X","wings":"2","pattern":"S","legs":"X"},"bonus":0.8800000000000011},{"rt":32155.299999952316,"response":{"Q0":["Two or six legs","Stripes or spots on body","Single or double wings","Antennae or no antennae"]},"question_order":[0],"trial_type":"survey-multi-select","trial_index":4,"time_elapsed":228998,"internal_node_id":"0.0-3.0-1.0","subject_id":"60dd80677c883380b252f05c","study_id":"6197b3f67c2b5cd3b6d9596a","session_id":"619be78932b195b0e70c0920","condition":"full-information","relevant_dimensions":["wings","pattern"],"bee_group":{"antennae":"X","wings":"2","pattern":"S","legs":"X"},"correct":true,"bonus":0.8800000000000011},{"rt":43669.800000071526,"response":{"Q1":"No.","Q2":"Based on the four features of the bee.","Q3":"You do not learn if it was friendly or dangerous, and do not alter your bonus."},"question_order":[0,1,2],"trial_type":"survey-multi-choice","trial_index":5,"time_elapsed":272668,"internal_node_id":"0.0-3.0-2.0","subject_id":"60dd80677c883380b252f05c","study_id":"6197b3f67c2b5cd3b6d9596a","session_id":"619be78932b195b0e70c0920","condition":"full-information","relevant_dimensions":["wings","pattern"],"bee_group":{"antennae":"X","wings":"2","pattern":"S","legs":"X"},"correct":false,"bonus":0.8800000000000011},{"rt":4641,"stimulus":"<p>You did not answer all comprehension questions correctly.<br>Press <b>continue</b> to review the instructions again.</p>","response":0,"trial_type":"html-button-response","trial_index":6,"time_elapsed":277311,"internal_node_id":"0.0-3.0-3.0","subject_id":"60dd80677c883380b252f05c","study_id":"6197b3f67c2b5cd3b6d9596a","session_id":"619be78932b195b0e70c0920","condition":"full-information","relevant_dimensions":["wings","pattern"],"bee_group":{"antennae":"X","wings":"2","pattern":"S","legs":"X"},"bonus":0.8800000000000011},{"view_history":[{"page_index":0,"viewing_time":3712.5},{"page_index":1,"viewing_time":11685.799999952316},{"page_index":2,"viewing_time":12614.200000047684},{"page_index":3,"viewing_time":6225.899999976158},{"page_index":4,"viewing_time":19989.899999976158},{"page_index":5,"viewing_time":2044},{"page_index":6,"viewing_time":26265.799999952316},{"page_index":7,"viewing_time":2753.9000000953674},{"page_index":8,"viewing_time":1896.0999999046326},{"page_index":9,"viewing_time":3621.9000000953674},{"page_index":10,"viewing_time":1654.0999999046326},{"page_index":11,"viewing_time":1255.6000000238419},{"page_index":12,"viewing_time":1350.2000000476837},{"page_index":13,"viewing_time":1256.1999999284744},{"page_index":14,"viewing_time":1169.6000000238419}],"rt":97495.89999997616,"trial_type":"instructions","trial_index":7,"time_elapsed":374808,"internal_node_id":"0.0-3.0-4.0-0.0","subject_id":"60dd80677c883380b252f05c","study_id":"6197b3f67c2b5cd3b6d9596a","session_id":"619be78932b195b0e70c0920","condition":"full-information","relevant_dimensions":["wings","pattern"],"bee_group":{"antennae":"X","wings":"2","pattern":"S","legs":"X"},"bonus":0.8800000000000011},{"rt":26103,"response":{"Q0":["Two or six legs","Stripes or spots on body","Single or double wings","Antennae or no antennae"]},"question_order":[0],"trial_type":"survey-multi-select","trial_index":8,"time_elapsed":400912,"internal_node_id":"0.0-3.0-4.0-1.0","subject_id":"60dd80677c883380b252f05c","study_id":"6197b3f67c2b5cd3b6d9596a","session_id":"619be78932b195b0e70c0920","condition":"full-information","relevant_dimensions":["wings","pattern"],"bee_group":{"antennae":"X","wings":"2","pattern":"S","legs":"X"},"correct":true,"bonus":0.8800000000000011},{"rt":33010.60000002384,"response":{"Q1":"No.","Q2":"Based on the four features of the bee.","Q3":"You learn if it was friendly or dangerous, but do not alter your bonus."},"question_order":[0,1,2],"trial_type":"survey-multi-choice","trial_index":9,"time_elapsed":433924,"internal_node_id":"0.0-3.0-4.0-2.0","subject_id":"60dd80677c883380b252f05c","study_id":"6197b3f67c2b5cd3b6d9596a","session_id":"619be78932b195b0e70c0920","condition":"full-information","relevant_dimensions":["wings","pattern"],"bee_group":{"antennae":"X","wings":"2","pattern":"S","legs":"X"},"correct":true,"bonus":0.8800000000000011},{"rt":5046.799999952316,"stimulus":"<p>Congrats, you got everything right<br>When you're ready, click the button below to continue to the experiment.</p>","response":0,"trial_type":"html-button-response","trial_index":10,"time_elapsed":438972,"internal_node_id":"0.0-3.0-4.0-3.0","subject_id":"60dd80677c883380b252f05c","study_id":"6197b3f67c2b5cd3b6d9596a","session_id":"619be78932b195b0e70c0920","condition":"full-information","relevant_dimensions":["wings","pattern"],"bee_group":{"antennae":"X","wings":"2","pattern":"S","legs":"X"},"bonus":0.8800000000000011},{"rt":8994.100000023842,"stimulus":"bees-with-color/bee-A2DM.svg","response":1,"trial_type":"image-button-response","trial_index":11,"time_elapsed":447968,"internal_node_id":"0.0-4.0-0.0","subject_id":"60dd80677c883380b252f05c","study_id":"6197b3f67c2b5cd3b6d9596a","session_id":"619be78932b195b0e70c0920","condition":"full-information","relevant_dimensions":["wings","pattern"],"bee_group":{"antennae":"X","wings":"2","pattern":"S","legs":"X"},"action":"avoid","summary":"bad-avoid","bonus":0.8800000000000011},{"rt":8548.099999904633,"stimulus":"\n                    <p><b>Action: <em>avoid</em></b></p>\n                    <p>This is the bee that you just saw.</p>\n                    <img src=\"bees-with-color/bee-A2DM.svg\" width=\"200\">\n                    <p><span class=\"redText\">Bad choice,</span> the bee was friendly.<br>Your bonus pay is unchanged, and remains at $0.54.</p>\n            ","response":0,"trial_type":"html-button-response","trial_index":12,"time_elapsed":456518,"internal_node_id":"0.0-4.0-1.0","subject_id":"60dd80677c883380b252f05c","study_id":"6197b3f67c2b5cd3b6d9596a","session_id":"619be78932b195b0e70c0920","condition":"full-information","relevant_dimensions":["wings","pattern"],"bee_group":{"antennae":"X","wings":"2","pattern":"S","legs":"X"},"bonus":0.8800000000000011},{"rt":5178.799999952316,"stimulus":"bees-with-color/bee-A2SM.svg","response":0,"trial_type":"image-button-response","trial_index":13,"time_elapsed":461698,"internal_node_id":"0.0-4.0-0.1","subject_id":"60dd80677c883380b252f05c","study_id":"6197b3f67c2b5cd3b6d9596a","session_id":"619be78932b195b0e70c0920","condition":"full-information","relevant_dimensions":["wings","pattern"],"bee_group":{"antennae":"X","wings":"2","pattern":"S","legs":"X"},"action":"harvest","summary":"bad-harvest","bonus":0.8800000000000011},{"rt":15688.800000071526,"stimulus":"\n                    <p><b>Action: <em>harvest</em></b></p>\n                    <p>This is the bee that you just saw.</p>\n                    <img src=\"bees-with-color/bee-A2SM.svg\" width=\"200\">\n                    <p><span class=\"redText\">Bad choice, the bee was angry.</span><br><b>You have been stung!</b><br>Your pay has been decreased by $0.10. Your bonus pay is now $0.44.</p>\n            ","response":0,"trial_type":"html-button-response","trial_index":14,"time_elapsed":477387,"internal_node_id":"0.0-4.0-1.1","subject_id":"60dd80677c883380b252f05c","study_id":"6197b3f67c2b5cd3b6d9596a","session_id":"619be78932b195b0e70c0920","condition":"full-information","relevant_dimensions":["wings","pattern"],"bee_group":{"antennae":"X","wings":"2","pattern":"S","legs":"X"},"bonus":0.8800000000000011},{"rt":5124.600000023842,"stimulus":"bees-with-color/bee-B1SM.svg","response":0,"trial_type":"image-button-response","trial_index":15,"time_elapsed":482513,"internal_node_id":"0.0-4.0-0.2","subject_id":"60dd80677c883380b252f05c","study_id":"6197b3f67c2b5cd3b6d9596a","session_id":"619be78932b195b0e70c0920","condition":"full-information","relevant_dimensions":["wings","pattern"],"bee_group":{"antennae":"X","wings":"2","pattern":"S","legs":"X"},"action":"harvest","summary":"good-harvest","bonus":0.8800000000000011},{"rt":2104.899999976158,"stimulus":"\n                    <p><b>Action: <em>harvest</em></b></p>\n                    <p>This is the bee that you just saw.</p>\n                    <img src=\"bees-with-color/bee-B1SM.svg\" width=\"200\">\n                    <p><span class=\"greenText\"><b>Successful harvest!</b></span><br>Your pay has increased by $0.02. Your bonus pay is now $0.46.</p>\n            ","response":0,"trial_type":"html-button-response","trial_index":16,"time_elapsed":484619,"internal_node_id":"0.0-4.0-1.2","subject_id":"60dd80677c883380b252f05c","study_id":"6197b3f67c2b5cd3b6d9596a","session_id":"619be78932b195b0e70c0920","condition":"full-information","relevant_dimensions":["wings","pattern"],"bee_group":{"antennae":"X","wings":"2","pattern":"S","legs":"X"},"bonus":0.8800000000000011},{"rt":2768.7000000476837,"stimulus":"bees-with-color/bee-A1DF.svg","response":0,"trial_type":"image-button-response","trial_index":17,"time_elapsed":487389,"internal_node_id":"0.0-4.0-0.3","subject_id":"60dd80677c883380b252f05c","study_id":"6197b3f67c2b5cd3b6d9596a","session_id":"619be78932b195b0e70c0920","condition":"full-information","relevant_dimensions":["wings","pattern"],"bee_group":{"antennae":"X","wings":"2","pattern":"S","legs":"X"},"action":"harvest","summary":"good-harvest","bonus":0.8800000000000011},{"rt":988.8999999761581,"stimulus":"\n                    <p><b>Action: <em>harvest</em></b></p>\n                    <p>This is the bee that you just saw.</p>\n                    <img src=\"bees-with-color/bee-A1DF.svg\" width=\"200\">\n                    <p><span class=\"greenText\"><b>Successful harvest!</b></span><br>Your pay has increased by $0.02. Your bonus pay is now $0.48.</p>\n            ","response":0,"trial_type":"html-button-response","trial_index":18,"time_elapsed":488379,"internal_node_id":"0.0-4.0-1.3","subject_id":"60dd80677c883380b252f05c","study_id":"6197b3f67c2b5cd3b6d9596a","session_id":"619be78932b195b0e70c0920","condition":"full-information","relevant_dimensions":["wings","pattern"],"bee_group":{"antennae":"X","wings":"2","pattern":"S","legs":"X"},"bonus":0.8800000000000011},{"rt":4952.699999928474,"stimulus":"bees-with-color/bee-A2DF.svg","response":0,"trial_type":"image-button-response","trial_index":19,"time_elapsed":493333,"internal_node_id":"0.0-4.0-0.4","subject_id":"60dd80677c883380b252f05c","study_id":"6197b3f67c2b5cd3b6d9596a","session_id":"619be78932b195b0e70c0920","condition":"full-information","relevant_dimensions":["wings","pattern"],"bee_group":{"antennae":"X","wings":"2","pattern":"S","legs":"X"},"action":"harvest","summary":"good-harvest","bonus":0.8800000000000011},{"rt":1319.2000000476837,"stimulus":"\n                    <p><b>Action: <em>harvest</em></b></p>\n                    <p>This is the bee that you just saw.</p>\n                    <img src=\"bees-with-color/bee-A2DF.svg\" width=\"200\">\n                    <p><span class=\"greenText\"><b>Successful harvest!</b></span><br>Your pay has increased by $0.02. Your bonus pay is now $0.50.</p>\n            ","response":0,"trial_type":"html-button-response","trial_index":20,"time_elapsed":494653,"internal_node_id":"0.0-4.0-1.4","subject_id":"60dd80677c883380b252f05c","study_id":"6197b3f67c2b5cd3b6d9596a","session_id":"619be78932b195b0e70c0920","condition":"full-information","relevant_dimensions":["wings","pattern"],"bee_group":{"antennae":"X","wings":"2","pattern":"S","legs":"X"},"bonus":0.8800000000000011},{"rt":1120.5,"stimulus":"bees-with-color/bee-A1SF.svg","response":0,"trial_type":"image-button-response","trial_index":21,"time_elapsed":495774,"internal_node_id":"0.0-4.0-0.5","subject_id":"60dd80677c883380b252f05c","study_id":"6197b3f67c2b5cd3b6d9596a","session_id":"619be78932b195b0e70c0920","condition":"full-information","relevant_dimensions":["wings","pattern"],"bee_group":{"antennae":"X","wings":"2","pattern":"S","legs":"X"},"action":"harvest","summary":"good-harvest","bonus":0.8800000000000011},{"rt":647.2999999523163,"stimulus":"\n                    <p><b>Action: <em>harvest</em></b></p>\n                    <p>This is the bee that you just saw.</p>\n                    <img src=\"bees-with-color/bee-A1SF.svg\" width=\"200\">\n                    <p><span class=\"greenText\"><b>Successful harvest!</b></span><br>Your pay has increased by $0.02. Your bonus pay is now $0.52.</p>\n            ","response":0,"trial_type":"html-button-response","trial_index":22,"time_elapsed":496423,"internal_node_id":"0.0-4.0-1.5","subject_id":"60dd80677c883380b252f05c","study_id":"6197b3f67c2b5cd3b6d9596a","session_id":"619be78932b195b0e70c0920","condition":"full-information","relevant_dimensions":["wings","pattern"],"bee_group":{"antennae":"X","wings":"2","pattern":"S","legs":"X"},"bonus":0.8800000000000011},{"rt":1381.3000000715256,"stimulus":"bees-with-color/bee-B2SF.svg","response":0,"trial_type":"image-button-response","trial_index":23,"time_elapsed":497805,"internal_node_id":"0.0-4.0-0.6","subject_id":"60dd80677c883380b252f05c","study_id":"6197b3f67c2b5cd3b6d9596a","session_id":"619be78932b195b0e70c0920","condition":"full-information","relevant_dimensions":["wings","pattern"],"bee_group":{"antennae":"X","wings":"2","pattern":"S","legs":"X"},"action":"harvest","summary":"bad-harvest","bonus":0.8800000000000011},{"rt":2072.6999999284744,"stimulus":"\n                    <p><b>Action: <em>harvest</em></b></p>\n                    <p>This is the bee that you just saw.</p>\n                    <img src=\"bees-with-color/bee-B2SF.svg\" width=\"200\">\n                    <p><span class=\"redText\">Bad choice, the bee was angry.</span><br><b>You have been stung!</b><br>Your pay has been decreased by $0.10. Your bonus pay is now $0.42.</p>\n            ","response":0,"trial_type":"html-button-response","trial_index":24,"time_elapsed":499879,"internal_node_id":"0.0-4.0-1.6","subject_id":"60dd80677c883380b252f05c","study_id":"6197b3f67c2b5cd3b6d9596a","session_id":"619be78932b195b0e70c0920","condition":"full-information","relevant_dimensions":["wings","pattern"],"bee_group":{"antennae":"X","wings":"2","pattern":"S","legs":"X"},"bonus":0.8800000000000011},{"rt":1607,"stimulus":"bees-with-color/bee-B2DM.svg","response":1,"trial_type":"image-button-response","trial_index":25,"time_elapsed":501487,"internal_node_id":"0.0-4.0-0.7","subject_id":"60dd80677c883380b252f05c","study_id":"6197b3f67c2b5cd3b6d9596a","session_id":"619be78932b195b0e70c0920","condition":"full-information","relevant_dimensions":["wings","pattern"],"bee_group":{"antennae":"X","wings":"2","pattern":"S","legs":"X"},"action":"avoid","summary":"bad-avoid","bonus":0.8800000000000011},{"rt":918.8999999761581,"stimulus":"\n                    <p><b>Action: <em>avoid</em></b></p>\n                    <p>This is the bee that you just saw.</p>\n                    <img src=\"bees-with-color/bee-B2DM.svg\" width=\"200\">\n                    <p><span class=\"redText\">Bad choice,</span> the bee was friendly.<br>Your bonus pay is unchanged, and remains at $0.42.</p>\n            ","response":0,"trial_type":"html-button-response","trial_index":26,"time_elapsed":502407,"internal_node_id":"0.0-4.0-1.7","subject_id":"60dd80677c883380b252f05c","study_id":"6197b3f67c2b5cd3b6d9596a","session_id":"619be78932b195b0e70c0920","condition":"full-information","relevant_dimensions":["wings","pattern"],"bee_group":{"antennae":"X","wings":"2","pattern":"S","legs":"X"},"bonus":0.8800000000000011},{"rt":1316.6000000238419,"stimulus":"bees-with-color/bee-B1DM.svg","response":0,"trial_type":"image-button-response","trial_index":27,"time_elapsed":503724,"internal_node_id":"0.0-4.0-0.8","subject_id":"60dd80677c883380b252f05c","study_id":"6197b3f67c2b5cd3b6d9596a","session_id":"619be78932b195b0e70c0920","condition":"full-information","relevant_dimensions":["wings","pattern"],"bee_group":{"antennae":"X","wings":"2","pattern":"S","legs":"X"},"action":"harvest","summary":"good-harvest","bonus":0.8800000000000011},{"rt":671.2000000476837,"stimulus":"\n                    <p><b>Action: <em>harvest</em></b></p>\n                    <p>This is the bee that you just saw.</p>\n                    <img src=\"bees-with-color/bee-B1DM.svg\" width=\"200\">\n                    <p><span class=\"greenText\"><b>Successful harvest!</b></span><br>Your pay has increased by $0.02. Your bonus pay is now $0.44.</p>\n            ","response":0,"trial_type":"html-button-response","trial_index":28,"time_elapsed":504397,"internal_node_id":"0.0-4.0-1.8","subject_id":"60dd80677c883380b252f05c","study_id":"6197b3f67c2b5cd3b6d9596a","session_id":"619be78932b195b0e70c0920","condition":"full-information","relevant_dimensions":["wings","pattern"],"bee_group":{"antennae":"X","wings":"2","pattern":"S","legs":"X"},"bonus":0.8800000000000011},{"rt":1411,"stimulus":"bees-with-color/bee-A1SM.svg","response":0,"trial_type":"image-button-response","trial_index":29,"time_elapsed":505809,"internal_node_id":"0.0-4.0-0.9","subject_id":"60dd80677c883380b252f05c","study_id":"6197b3f67c2b5cd3b6d9596a","session_id":"619be78932b195b0e70c0920","condition":"full-information","relevant_dimensions":["wings","pattern"],"bee_group":{"antennae":"X","wings":"2","pattern":"S","legs":"X"},"action":"harvest","summary":"good-harvest","bonus":0.8800000000000011},{"rt":652.6999999284744,"stimulus":"\n                    <p><b>Action: <em>harvest</em></b></p>\n                    <p>This is the bee that you just saw.</p>\n                    <img src=\"bees-with-color/bee-A1SM.svg\" width=\"200\">\n                    <p><span class=\"greenText\"><b>Successful harvest!</b></span><br>Your pay has increased by $0.02. Your bonus pay is now $0.46.</p>\n            ","response":0,"trial_type":"html-button-response","trial_index":30,"time_elapsed":506463,"internal_node_id":"0.0-4.0-1.9","subject_id":"60dd80677c883380b252f05c","study_id":"6197b3f67c2b5cd3b6d9596a","session_id":"619be78932b195b0e70c0920","condition":"full-information","relevant_dimensions":["wings","pattern"],"bee_group":{"antennae":"X","wings":"2","pattern":"S","legs":"X"},"bonus":0.8800000000000011},{"rt":1575.2000000476837,"stimulus":"bees-with-color/bee-A2SF.svg","response":1,"trial_type":"image-button-response","trial_index":31,"time_elapsed":508039,"internal_node_id":"0.0-4.0-0.10","subject_id":"60dd80677c883380b252f05c","study_id":"6197b3f67c2b5cd3b6d9596a","session_id":"619be78932b195b0e70c0920","condition":"full-information","relevant_dimensions":["wings","pattern"],"bee_group":{"antennae":"X","wings":"2","pattern":"S","legs":"X"},"action":"avoid","summary":"good-avoid","bonus":0.8800000000000011},{"rt":850.7999999523163,"stimulus":"\n                    <p><b>Action: <em>avoid</em></b></p>\n                    <p>This is the bee that you just saw.</p>\n                    <img src=\"bees-with-color/bee-A2SF.svg\" width=\"200\">\n                    <p><span class=\"greenText\">Good choice!</span>  This bee would have stung you.<br>Your bonus pay is unchanged, and remains at $0.46.</p>\n            ","response":0,"trial_type":"html-button-response","trial_index":32,"time_elapsed":508891,"internal_node_id":"0.0-4.0-1.10","subject_id":"60dd80677c883380b252f05c","study_id":"6197b3f67c2b5cd3b6d9596a","session_id":"619be78932b195b0e70c0920","condition":"full-information","relevant_dimensions":["wings","pattern"],"bee_group":{"antennae":"X","wings":"2","pattern":"S","legs":"X"},"bonus":0.8800000000000011},{"rt":2204.7000000476837,"stimulus":"bees-with-color/bee-B1SF.svg","response":0,"trial_type":"image-button-response","trial_index":33,"time_elapsed":511096,"internal_node_id":"0.0-4.0-0.11","subject_id":"60dd80677c883380b252f05c","study_id":"6197b3f67c2b5cd3b6d9596a","session_id":"619be78932b195b0e70c0920","condition":"full-information","relevant_dimensions":["wings","pattern"],"bee_group":{"antennae":"X","wings":"2","pattern":"S","legs":"X"},"action":"harvest","summary":"good-harvest","bonus":0.8800000000000011},{"rt":577.2999999523163,"stimulus":"\n                    <p><b>Action: <em>harvest</em></b></p>\n                    <p>This is the bee that you just saw.</p>\n                    <img src=\"bees-with-color/bee-B1SF.svg\" width=\"200\">\n                    <p><span class=\"greenText\"><b>Successful harvest!</b></span><br>Your pay has increased by $0.02. Your bonus pay is now $0.48.</p>\n            ","response":0,"trial_type":"html-button-response","trial_index":34,"time_elapsed":511675,"internal_node_id":"0.0-4.0-1.11","subject_id":"60dd80677c883380b252f05c","study_id":"6197b3f67c2b5cd3b6d9596a","session_id":"619be78932b195b0e70c0920","condition":"full-information","relevant_dimensions":["wings","pattern"],"bee_group":{"antennae":"X","wings":"2","pattern":"S","legs":"X"},"bonus":0.8800000000000011},{"rt":2394.7999999523163,"stimulus":"bees-with-color/bee-A1DM.svg","response":0,"trial_type":"image-button-response","trial_index":35,"time_elapsed":514071,"internal_node_id":"0.0-4.0-0.12","subject_id":"60dd80677c883380b252f05c","study_id":"6197b3f67c2b5cd3b6d9596a","session_id":"619be78932b195b0e70c0920","condition":"full-information","relevant_dimensions":["wings","pattern"],"bee_group":{"antennae":"X","wings":"2","pattern":"S","legs":"X"},"action":"harvest","summary":"good-harvest","bonus":0.8800000000000011},{"rt":770.7999999523163,"stimulus":"\n                    <p><b>Action: <em>harvest</em></b></p>\n                    <p>This is the bee that you just saw.</p>\n                    <img src=\"bees-with-color/bee-A1DM.svg\" width=\"200\">\n                    <p><span class=\"greenText\"><b>Successful harvest!</b></span><br>Your pay has increased by $0.02. Your bonus pay is now $0.50.</p>\n            ","response":0,"trial_type":"html-button-response","trial_index":36,"time_elapsed":514843,"internal_node_id":"0.0-4.0-1.12","subject_id":"60dd80677c883380b252f05c","study_id":"6197b3f67c2b5cd3b6d9596a","session_id":"619be78932b195b0e70c0920","condition":"full-information","relevant_dimensions":["wings","pattern"],"bee_group":{"antennae":"X","wings":"2","pattern":"S","legs":"X"},"bonus":0.8800000000000011},{"rt":2228.8000000715256,"stimulus":"bees-with-color/bee-B2SM.svg","response":1,"trial_type":"image-button-response","trial_index":37,"time_elapsed":517073,"internal_node_id":"0.0-4.0-0.13","subject_id":"60dd80677c883380b252f05c","study_id":"6197b3f67c2b5cd3b6d9596a","session_id":"619be78932b195b0e70c0920","condition":"full-information","relevant_dimensions":["wings","pattern"],"bee_group":{"antennae":"X","wings":"2","pattern":"S","legs":"X"},"action":"avoid","summary":"good-avoid","bonus":0.8800000000000011},{"rt":763,"stimulus":"\n                    <p><b>Action: <em>avoid</em></b></p>\n                    <p>This is the bee that you just saw.</p>\n                    <img src=\"bees-with-color/bee-B2SM.svg\" width=\"200\">\n                    <p><span class=\"greenText\">Good choice!</span>  This bee would have stung you.<br>Your bonus pay is unchanged, and remains at $0.50.</p>\n            ","response":0,"trial_type":"html-button-response","trial_index":38,"time_elapsed":517837,"internal_node_id":"0.0-4.0-1.13","subject_id":"60dd80677c883380b252f05c","study_id":"6197b3f67c2b5cd3b6d9596a","session_id":"619be78932b195b0e70c0920","condition":"full-information","relevant_dimensions":["wings","pattern"],"bee_group":{"antennae":"X","wings":"2","pattern":"S","legs":"X"},"bonus":0.8800000000000011},{"rt":1262.6999999284744,"stimulus":"bees-with-color/bee-B2DF.svg","response":1,"trial_type":"image-button-response","trial_index":39,"time_elapsed":519101,"internal_node_id":"0.0-4.0-0.14","subject_id":"60dd80677c883380b252f05c","study_id":"6197b3f67c2b5cd3b6d9596a","session_id":"619be78932b195b0e70c0920","condition":"full-information","relevant_dimensions":["wings","pattern"],"bee_group":{"antennae":"X","wings":"2","pattern":"S","legs":"X"},"action":"avoid","summary":"bad-avoid","bonus":0.8800000000000011},{"rt":943.1000000238419,"stimulus":"\n                    <p><b>Action: <em>avoid</em></b></p>\n                    <p>This is the bee that you just saw.</p>\n                    <img src=\"bees-with-color/bee-B2DF.svg\" width=\"200\">\n                    <p><span class=\"redText\">Bad choice,</span> the bee was friendly.<br>Your bonus pay is unchanged, and remains at $0.50.</p>\n            ","response":0,"trial_type":"html-button-response","trial_index":40,"time_elapsed":520045,"internal_node_id":"0.0-4.0-1.14","subject_id":"60dd80677c883380b252f05c","study_id":"6197b3f67c2b5cd3b6d9596a","session_id":"619be78932b195b0e70c0920","condition":"full-information","relevant_dimensions":["wings","pattern"],"bee_group":{"antennae":"X","wings":"2","pattern":"S","legs":"X"},"bonus":0.8800000000000011},{"rt":3672.7000000476837,"stimulus":"bees-with-color/bee-B1DF.svg","response":0,"trial_type":"image-button-response","trial_index":41,"time_elapsed":523718,"internal_node_id":"0.0-4.0-0.15","subject_id":"60dd80677c883380b252f05c","study_id":"6197b3f67c2b5cd3b6d9596a","session_id":"619be78932b195b0e70c0920","condition":"full-information","relevant_dimensions":["wings","pattern"],"bee_group":{"antennae":"X","wings":"2","pattern":"S","legs":"X"},"action":"harvest","summary":"good-harvest","bonus":0.8800000000000011},{"rt":584.6000000238419,"stimulus":"\n                    <p><b>Action: <em>harvest</em></b></p>\n                    <p>This is the bee that you just saw.</p>\n                    <img src=\"bees-with-color/bee-B1DF.svg\" width=\"200\">\n                    <p><span class=\"greenText\"><b>Successful harvest!</b></span><br>Your pay has increased by $0.02. Your bonus pay is now $0.52.</p>\n            ","response":0,"trial_type":"html-button-response","trial_index":42,"time_elapsed":524304,"internal_node_id":"0.0-4.0-1.15","subject_id":"60dd80677c883380b252f05c","study_id":"6197b3f67c2b5cd3b6d9596a","session_id":"619be78932b195b0e70c0920","condition":"full-information","relevant_dimensions":["wings","pattern"],"bee_group":{"antennae":"X","wings":"2","pattern":"S","legs":"X"},"bonus":0.8800000000000011},{"rt":1021.1000000238419,"stimulus":"bees-with-color/bee-B1SF.svg","response":0,"trial_type":"image-button-response","trial_index":43,"time_elapsed":525327,"internal_node_id":"0.0-4.0-0.16","subject_id":"60dd80677c883380b252f05c","study_id":"6197b3f67c2b5cd3b6d9596a","session_id":"619be78932b195b0e70c0920","condition":"full-information","relevant_dimensions":["wings","pattern"],"bee_group":{"antennae":"X","wings":"2","pattern":"S","legs":"X"},"action":"harvest","summary":"good-harvest","bonus":0.8800000000000011},{"rt":590.6000000238419,"stimulus":"\n                    <p><b>Action: <em>harvest</em></b></p>\n                    <p>This is the bee that you just saw.</p>\n                    <img src=\"bees-with-color/bee-B1SF.svg\" width=\"200\">\n                    <p><span class=\"greenText\"><b>Successful harvest!</b></span><br>Your pay has increased by $0.02. Your bonus pay is now $0.54.</p>\n            ","response":0,"trial_type":"html-button-response","trial_index":44,"time_elapsed":525918,"internal_node_id":"0.0-4.0-1.16","subject_id":"60dd80677c883380b252f05c","study_id":"6197b3f67c2b5cd3b6d9596a","session_id":"619be78932b195b0e70c0920","condition":"full-information","relevant_dimensions":["wings","pattern"],"bee_group":{"antennae":"X","wings":"2","pattern":"S","legs":"X"},"bonus":0.8800000000000011},{"rt":975.2999999523163,"stimulus":"bees-with-color/bee-B1DF.svg","response":0,"trial_type":"image-button-response","trial_index":45,"time_elapsed":526895,"internal_node_id":"0.0-4.0-0.17","subject_id":"60dd80677c883380b252f05c","study_id":"6197b3f67c2b5cd3b6d9596a","session_id":"619be78932b195b0e70c0920","condition":"full-information","relevant_dimensions":["wings","pattern"],"bee_group":{"antennae":"X","wings":"2","pattern":"S","legs":"X"},"action":"harvest","summary":"good-harvest","bonus":0.8800000000000011},{"rt":552.8999999761581,"stimulus":"\n                    <p><b>Action: <em>harvest</em></b></p>\n                    <p>This is the bee that you just saw.</p>\n                    <img src=\"bees-with-color/bee-B1DF.svg\" width=\"200\">\n                    <p><span class=\"greenText\"><b>Successful harvest!</b></span><br>Your pay has increased by $0.02. Your bonus pay is now $0.56.</p>\n            ","response":0,"trial_type":"html-button-response","trial_index":46,"time_elapsed":527449,"internal_node_id":"0.0-4.0-1.17","subject_id":"60dd80677c883380b252f05c","study_id":"6197b3f67c2b5cd3b6d9596a","session_id":"619be78932b195b0e70c0920","condition":"full-information","relevant_dimensions":["wings","pattern"],"bee_group":{"antennae":"X","wings":"2","pattern":"S","legs":"X"},"bonus":0.8800000000000011},{"rt":1276.8999999761581,"stimulus":"bees-with-color/bee-B1DM.svg","response":0,"trial_type":"image-button-response","trial_index":47,"time_elapsed":528727,"internal_node_id":"0.0-4.0-0.18","subject_id":"60dd80677c883380b252f05c","study_id":"6197b3f67c2b5cd3b6d9596a","session_id":"619be78932b195b0e70c0920","condition":"full-information","relevant_dimensions":["wings","pattern"],"bee_group":{"antennae":"X","wings":"2","pattern":"S","legs":"X"},"action":"harvest","summary":"good-harvest","bonus":0.8800000000000011},{"rt":592.9000000953674,"stimulus":"\n                    <p><b>Action: <em>harvest</em></b></p>\n                    <p>This is the bee that you just saw.</p>\n                    <img src=\"bees-with-color/bee-B1DM.svg\" width=\"200\">\n                    <p><span class=\"greenText\"><b>Successful harvest!</b></span><br>Your pay has increased by $0.02. Your bonus pay is now $0.58.</p>\n            ","response":0,"trial_type":"html-button-response","trial_index":48,"time_elapsed":529320,"internal_node_id":"0.0-4.0-1.18","subject_id":"60dd80677c883380b252f05c","study_id":"6197b3f67c2b5cd3b6d9596a","session_id":"619be78932b195b0e70c0920","condition":"full-information","relevant_dimensions":["wings","pattern"],"bee_group":{"antennae":"X","wings":"2","pattern":"S","legs":"X"},"bonus":0.8800000000000011},{"rt":1809.2000000476837,"stimulus":"bees-with-color/bee-A2SM.svg","response":1,"trial_type":"image-button-response","trial_index":49,"time_elapsed":531130,"internal_node_id":"0.0-4.0-0.19","subject_id":"60dd80677c883380b252f05c","study_id":"6197b3f67c2b5cd3b6d9596a","session_id":"619be78932b195b0e70c0920","condition":"full-information","relevant_dimensions":["wings","pattern"],"bee_group":{"antennae":"X","wings":"2","pattern":"S","legs":"X"},"action":"avoid","summary":"good-avoid","bonus":0.8800000000000011},{"rt":793.3999999761581,"stimulus":"\n                    <p><b>Action: <em>avoid</em></b></p>\n                    <p>This is the bee that you just saw.</p>\n                    <img src=\"bees-with-color/bee-A2SM.svg\" width=\"200\">\n                    <p><span class=\"greenText\">Good choice!</span>  This bee would have stung you.<br>Your bonus pay is unchanged, and remains at $0.58.</p>\n            ","response":0,"trial_type":"html-button-response","trial_index":50,"time_elapsed":531925,"internal_node_id":"0.0-4.0-1.19","subject_id":"60dd80677c883380b252f05c","study_id":"6197b3f67c2b5cd3b6d9596a","session_id":"619be78932b195b0e70c0920","condition":"full-information","relevant_dimensions":["wings","pattern"],"bee_group":{"antennae":"X","wings":"2","pattern":"S","legs":"X"},"bonus":0.8800000000000011},{"rt":1714.8000000715256,"stimulus":"bees-with-color/bee-B2SM.svg","response":1,"trial_type":"image-button-response","trial_index":51,"time_elapsed":533640,"internal_node_id":"0.0-4.0-0.20","subject_id":"60dd80677c883380b252f05c","study_id":"6197b3f67c2b5cd3b6d9596a","session_id":"619be78932b195b0e70c0920","condition":"full-information","relevant_dimensions":["wings","pattern"],"bee_group":{"antennae":"X","wings":"2","pattern":"S","legs":"X"},"action":"avoid","summary":"good-avoid","bonus":0.8800000000000011},{"rt":693.2000000476837,"stimulus":"\n                    <p><b>Action: <em>avoid</em></b></p>\n                    <p>This is the bee that you just saw.</p>\n                    <img src=\"bees-with-color/bee-B2SM.svg\" width=\"200\">\n                    <p><span class=\"greenText\">Good choice!</span>  This bee would have stung you.<br>Your bonus pay is unchanged, and remains at $0.58.</p>\n            ","response":0,"trial_type":"html-button-response","trial_index":52,"time_elapsed":534334,"internal_node_id":"0.0-4.0-1.20","subject_id":"60dd80677c883380b252f05c","study_id":"6197b3f67c2b5cd3b6d9596a","session_id":"619be78932b195b0e70c0920","condition":"full-information","relevant_dimensions":["wings","pattern"],"bee_group":{"antennae":"X","wings":"2","pattern":"S","legs":"X"},"bonus":0.8800000000000011},{"rt":1575.2000000476837,"stimulus":"bees-with-color/bee-B2DF.svg","response":1,"trial_type":"image-button-response","trial_index":53,"time_elapsed":535910,"internal_node_id":"0.0-4.0-0.21","subject_id":"60dd80677c883380b252f05c","study_id":"6197b3f67c2b5cd3b6d9596a","session_id":"619be78932b195b0e70c0920","condition":"full-information","relevant_dimensions":["wings","pattern"],"bee_group":{"antennae":"X","wings":"2","pattern":"S","legs":"X"},"action":"avoid","summary":"bad-avoid","bonus":0.8800000000000011},{"rt":10593.100000023842,"stimulus":"\n                    <p><b>Action: <em>avoid</em></b></p>\n                    <p>This is the bee that you just saw.</p>\n                    <img src=\"bees-with-color/bee-B2DF.svg\" width=\"200\">\n                    <p><span class=\"redText\">Bad choice,</span> the bee was friendly.<br>Your bonus pay is unchanged, and remains at $0.58.</p>\n            ","response":0,"trial_type":"html-button-response","trial_index":54,"time_elapsed":546505,"internal_node_id":"0.0-4.0-1.21","subject_id":"60dd80677c883380b252f05c","study_id":"6197b3f67c2b5cd3b6d9596a","session_id":"619be78932b195b0e70c0920","condition":"full-information","relevant_dimensions":["wings","pattern"],"bee_group":{"antennae":"X","wings":"2","pattern":"S","legs":"X"},"bonus":0.8800000000000011},{"rt":1246.8999999761581,"stimulus":"bees-with-color/bee-A1DF.svg","response":0,"trial_type":"image-button-response","trial_index":55,"time_elapsed":547753,"internal_node_id":"0.0-4.0-0.22","subject_id":"60dd80677c883380b252f05c","study_id":"6197b3f67c2b5cd3b6d9596a","session_id":"619be78932b195b0e70c0920","condition":"full-information","relevant_dimensions":["wings","pattern"],"bee_group":{"antennae":"X","wings":"2","pattern":"S","legs":"X"},"action":"harvest","summary":"good-harvest","bonus":0.8800000000000011},{"rt":622.8999999761581,"stimulus":"\n                    <p><b>Action: <em>harvest</em></b></p>\n                    <p>This is the bee that you just saw.</p>\n                    <img src=\"bees-with-color/bee-A1DF.svg\" width=\"200\">\n                    <p><span class=\"greenText\"><b>Successful harvest!</b></span><br>Your pay has increased by $0.02. Your bonus pay is now $0.60.</p>\n            ","response":0,"trial_type":"html-button-response","trial_index":56,"time_elapsed":548377,"internal_node_id":"0.0-4.0-1.22","subject_id":"60dd80677c883380b252f05c","study_id":"6197b3f67c2b5cd3b6d9596a","session_id":"619be78932b195b0e70c0920","condition":"full-information","relevant_dimensions":["wings","pattern"],"bee_group":{"antennae":"X","wings":"2","pattern":"S","legs":"X"},"bonus":0.8800000000000011},{"rt":2651.5,"stimulus":"bees-with-color/bee-B2DM.svg","response":1,"trial_type":"image-button-response","trial_index":57,"time_elapsed":551029,"internal_node_id":"0.0-4.0-0.23","subject_id":"60dd80677c883380b252f05c","study_id":"6197b3f67c2b5cd3b6d9596a","session_id":"619be78932b195b0e70c0920","condition":"full-information","relevant_dimensions":["wings","pattern"],"bee_group":{"antennae":"X","wings":"2","pattern":"S","legs":"X"},"action":"avoid","summary":"bad-avoid","bonus":0.8800000000000011},{"rt":1535.1000000238419,"stimulus":"\n                    <p><b>Action: <em>avoid</em></b></p>\n                    <p>This is the bee that you just saw.</p>\n                    <img src=\"bees-with-color/bee-B2DM.svg\" width=\"200\">\n                    <p><span class=\"redText\">Bad choice,</span> the bee was friendly.<br>Your bonus pay is unchanged, and remains at $0.60.</p>\n            ","response":0,"trial_type":"html-button-response","trial_index":58,"time_elapsed":552565,"internal_node_id":"0.0-4.0-1.23","subject_id":"60dd80677c883380b252f05c","study_id":"6197b3f67c2b5cd3b6d9596a","session_id":"619be78932b195b0e70c0920","condition":"full-information","relevant_dimensions":["wings","pattern"],"bee_group":{"antennae":"X","wings":"2","pattern":"S","legs":"X"},"bonus":0.8800000000000011},{"rt":1582.8000000715256,"stimulus":"bees-with-color/bee-A2DF.svg","response":1,"trial_type":"image-button-response","trial_index":59,"time_elapsed":554149,"internal_node_id":"0.0-4.0-0.24","subject_id":"60dd80677c883380b252f05c","study_id":"6197b3f67c2b5cd3b6d9596a","session_id":"619be78932b195b0e70c0920","condition":"full-information","relevant_dimensions":["wings","pattern"],"bee_group":{"antennae":"X","wings":"2","pattern":"S","legs":"X"},"action":"avoid","summary":"bad-avoid","bonus":0.8800000000000011},{"rt":1994.8000000715256,"stimulus":"\n                    <p><b>Action: <em>avoid</em></b></p>\n                    <p>This is the bee that you just saw.</p>\n                    <img src=\"bees-with-color/bee-A2DF.svg\" width=\"200\">\n                    <p><span class=\"redText\">Bad choice,</span> the bee was friendly.<br>Your bonus pay is unchanged, and remains at $0.60.</p>\n            ","response":0,"trial_type":"html-button-response","trial_index":60,"time_elapsed":556145,"internal_node_id":"0.0-4.0-1.24","subject_id":"60dd80677c883380b252f05c","study_id":"6197b3f67c2b5cd3b6d9596a","session_id":"619be78932b195b0e70c0920","condition":"full-information","relevant_dimensions":["wings","pattern"],"bee_group":{"antennae":"X","wings":"2","pattern":"S","legs":"X"},"bonus":0.8800000000000011},{"rt":1059.2000000476837,"stimulus":"bees-with-color/bee-B1SM.svg","response":0,"trial_type":"image-button-response","trial_index":61,"time_elapsed":557205,"internal_node_id":"0.0-4.0-0.25","subject_id":"60dd80677c883380b252f05c","study_id":"6197b3f67c2b5cd3b6d9596a","session_id":"619be78932b195b0e70c0920","condition":"full-information","relevant_dimensions":["wings","pattern"],"bee_group":{"antennae":"X","wings":"2","pattern":"S","legs":"X"},"action":"harvest","summary":"good-harvest","bonus":0.8800000000000011},{"rt":531,"stimulus":"\n                    <p><b>Action: <em>harvest</em></b></p>\n                    <p>This is the bee that you just saw.</p>\n                    <img src=\"bees-with-color/bee-B1SM.svg\" width=\"200\">\n                    <p><span class=\"greenText\"><b>Successful harvest!</b></span><br>Your pay has increased by $0.02. Your bonus pay is now $0.62.</p>\n            ","response":0,"trial_type":"html-button-response","trial_index":62,"time_elapsed":557737,"internal_node_id":"0.0-4.0-1.25","subject_id":"60dd80677c883380b252f05c","study_id":"6197b3f67c2b5cd3b6d9596a","session_id":"619be78932b195b0e70c0920","condition":"full-information","relevant_dimensions":["wings","pattern"],"bee_group":{"antennae":"X","wings":"2","pattern":"S","legs":"X"},"bonus":0.8800000000000011},{"rt":723,"stimulus":"bees-with-color/bee-A1SM.svg","response":0,"trial_type":"image-button-response","trial_index":63,"time_elapsed":558461,"internal_node_id":"0.0-4.0-0.26","subject_id":"60dd80677c883380b252f05c","study_id":"6197b3f67c2b5cd3b6d9596a","session_id":"619be78932b195b0e70c0920","condition":"full-information","relevant_dimensions":["wings","pattern"],"bee_group":{"antennae":"X","wings":"2","pattern":"S","legs":"X"},"action":"harvest","summary":"good-harvest","bonus":0.8800000000000011},{"rt":591.1000000238419,"stimulus":"\n                    <p><b>Action: <em>harvest</em></b></p>\n                    <p>This is the bee that you just saw.</p>\n                    <img src=\"bees-with-color/bee-A1SM.svg\" width=\"200\">\n                    <p><span class=\"greenText\"><b>Successful harvest!</b></span><br>Your pay has increased by $0.02. Your bonus pay is now $0.64.</p>\n            ","response":0,"trial_type":"html-button-response","trial_index":64,"time_elapsed":559053,"internal_node_id":"0.0-4.0-1.26","subject_id":"60dd80677c883380b252f05c","study_id":"6197b3f67c2b5cd3b6d9596a","session_id":"619be78932b195b0e70c0920","condition":"full-information","relevant_dimensions":["wings","pattern"],"bee_group":{"antennae":"X","wings":"2","pattern":"S","legs":"X"},"bonus":0.8800000000000011},{"rt":1644.7000000476837,"stimulus":"bees-with-color/bee-A2SF.svg","response":0,"trial_type":"image-button-response","trial_index":65,"time_elapsed":560699,"internal_node_id":"0.0-4.0-0.27","subject_id":"60dd80677c883380b252f05c","study_id":"6197b3f67c2b5cd3b6d9596a","session_id":"619be78932b195b0e70c0920","condition":"full-information","relevant_dimensions":["wings","pattern"],"bee_group":{"antennae":"X","wings":"2","pattern":"S","legs":"X"},"action":"harvest","summary":"bad-harvest","bonus":0.8800000000000011},{"rt":1279.1999999284744,"stimulus":"\n                    <p><b>Action: <em>harvest</em></b></p>\n                    <p>This is the bee that you just saw.</p>\n                    <img src=\"bees-with-color/bee-A2SF.svg\" width=\"200\">\n                    <p><span class=\"redText\">Bad choice, the bee was angry.</span><br><b>You have been stung!</b><br>Your pay has been decreased by $0.10. Your bonus pay is now $0.54.</p>\n            ","response":0,"trial_type":"html-button-response","trial_index":66,"time_elapsed":561979,"internal_node_id":"0.0-4.0-1.27","subject_id":"60dd80677c883380b252f05c","study_id":"6197b3f67c2b5cd3b6d9596a","session_id":"619be78932b195b0e70c0920","condition":"full-information","relevant_dimensions":["wings","pattern"],"bee_group":{"antennae":"X","wings":"2","pattern":"S","legs":"X"},"bonus":0.8800000000000011},{"rt":1425.5,"stimulus":"bees-with-color/bee-A1SF.svg","response":0,"trial_type":"image-button-response","trial_index":67,"time_elapsed":563405,"internal_node_id":"0.0-4.0-0.28","subject_id":"60dd80677c883380b252f05c","study_id":"6197b3f67c2b5cd3b6d9596a","session_id":"619be78932b195b0e70c0920","condition":"full-information","relevant_dimensions":["wings","pattern"],"bee_group":{"antennae":"X","wings":"2","pattern":"S","legs":"X"},"action":"harvest","summary":"good-harvest","bonus":0.8800000000000011},{"rt":475,"stimulus":"\n                    <p><b>Action: <em>harvest</em></b></p>\n                    <p>This is the bee that you just saw.</p>\n                    <img src=\"bees-with-color/bee-A1SF.svg\" width=\"200\">\n                    <p><span class=\"greenText\"><b>Successful harvest!</b></span><br>Your pay has increased by $0.02. Your bonus pay is now $0.56.</p>\n            ","response":0,"trial_type":"html-button-response","trial_index":68,"time_elapsed":563881,"internal_node_id":"0.0-4.0-1.28","subject_id":"60dd80677c883380b252f05c","study_id":"6197b3f67c2b5cd3b6d9596a","session_id":"619be78932b195b0e70c0920","condition":"full-information","relevant_dimensions":["wings","pattern"],"bee_group":{"antennae":"X","wings":"2","pattern":"S","legs":"X"},"bonus":0.8800000000000011},{"rt":3385.100000023842,"stimulus":"bees-with-color/bee-A2DM.svg","response":1,"trial_type":"image-button-response","trial_index":69,"time_elapsed":567267,"internal_node_id":"0.0-4.0-0.29","subject_id":"60dd80677c883380b252f05c","study_id":"6197b3f67c2b5cd3b6d9596a","session_id":"619be78932b195b0e70c0920","condition":"full-information","relevant_dimensions":["wings","pattern"],"bee_group":{"antennae":"X","wings":"2","pattern":"S","legs":"X"},"action":"avoid","summary":"bad-avoid","bonus":0.8800000000000011},{"rt":840.8999999761581,"stimulus":"\n                    <p><b>Action: <em>avoid</em></b></p>\n                    <p>This is the bee that you just saw.</p>\n                    <img src=\"bees-with-color/bee-A2DM.svg\" width=\"200\">\n                    <p><span class=\"redText\">Bad choice,</span> the bee was friendly.<br>Your bonus pay is unchanged, and remains at $0.56.</p>\n            ","response":0,"trial_type":"html-button-response","trial_index":70,"time_elapsed":568109,"internal_node_id":"0.0-4.0-1.29","subject_id":"60dd80677c883380b252f05c","study_id":"6197b3f67c2b5cd3b6d9596a","session_id":"619be78932b195b0e70c0920","condition":"full-information","relevant_dimensions":["wings","pattern"],"bee_group":{"antennae":"X","wings":"2","pattern":"S","legs":"X"},"bonus":0.8800000000000011},{"rt":2199.100000023842,"stimulus":"bees-with-color/bee-A1DM.svg","response":0,"trial_type":"image-button-response","trial_index":71,"time_elapsed":570309,"internal_node_id":"0.0-4.0-0.30","subject_id":"60dd80677c883380b252f05c","study_id":"6197b3f67c2b5cd3b6d9596a","session_id":"619be78932b195b0e70c0920","condition":"full-information","relevant_dimensions":["wings","pattern"],"bee_group":{"antennae":"X","wings":"2","pattern":"S","legs":"X"},"action":"harvest","summary":"good-harvest","bonus":0.8800000000000011},{"rt":669,"stimulus":"\n                    <p><b>Action: <em>harvest</em></b></p>\n                    <p>This is the bee that you just saw.</p>\n                    <img src=\"bees-with-color/bee-A1DM.svg\" width=\"200\">\n                    <p><span class=\"greenText\"><b>Successful harvest!</b></span><br>Your pay has increased by $0.02. Your bonus pay is now $0.58.</p>\n            ","response":0,"trial_type":"html-button-response","trial_index":72,"time_elapsed":570979,"internal_node_id":"0.0-4.0-1.30","subject_id":"60dd80677c883380b252f05c","study_id":"6197b3f67c2b5cd3b6d9596a","session_id":"619be78932b195b0e70c0920","condition":"full-information","relevant_dimensions":["wings","pattern"],"bee_group":{"antennae":"X","wings":"2","pattern":"S","legs":"X"},"bonus":0.8800000000000011},{"rt":2026.9000000953674,"stimulus":"bees-with-color/bee-B2SF.svg","response":1,"trial_type":"image-button-response","trial_index":73,"time_elapsed":573007,"internal_node_id":"0.0-4.0-0.31","subject_id":"60dd80677c883380b252f05c","study_id":"6197b3f67c2b5cd3b6d9596a","session_id":"619be78932b195b0e70c0920","condition":"full-information","relevant_dimensions":["wings","pattern"],"bee_group":{"antennae":"X","wings":"2","pattern":"S","legs":"X"},"action":"avoid","summary":"good-avoid","bonus":0.8800000000000011},{"rt":568.7999999523163,"stimulus":"\n                    <p><b>Action: <em>avoid</em></b></p>\n                    <p>This is the bee that you just saw.</p>\n                    <img src=\"bees-with-color/bee-B2SF.svg\" width=\"200\">\n                    <p><span class=\"greenText\">Good choice!</span>  This bee would have stung you.<br>Your bonus pay is unchanged, and remains at $0.58.</p>\n            ","response":0,"trial_type":"html-button-response","trial_index":74,"time_elapsed":573577,"internal_node_id":"0.0-4.0-1.31","subject_id":"60dd80677c883380b252f05c","study_id":"6197b3f67c2b5cd3b6d9596a","session_id":"619be78932b195b0e70c0920","condition":"full-information","relevant_dimensions":["wings","pattern"],"bee_group":{"antennae":"X","wings":"2","pattern":"S","legs":"X"},"bonus":0.8800000000000011},{"rt":2081.2000000476837,"stimulus":"bees-with-color/bee-B2DM.svg","response":0,"trial_type":"image-button-response","trial_index":75,"time_elapsed":575659,"internal_node_id":"0.0-4.0-0.32","subject_id":"60dd80677c883380b252f05c","study_id":"6197b3f67c2b5cd3b6d9596a","session_id":"619be78932b195b0e70c0920","condition":"full-information","relevant_dimensions":["wings","pattern"],"bee_group":{"antennae":"X","wings":"2","pattern":"S","legs":"X"},"action":"harvest","summary":"good-harvest","bonus":0.8800000000000011},{"rt":622.7999999523163,"stimulus":"\n                    <p><b>Action: <em>harvest</em></b></p>\n                    <p>This is the bee that you just saw.</p>\n                    <img src=\"bees-with-color/bee-B2DM.svg\" width=\"200\">\n                    <p><span class=\"greenText\"><b>Successful harvest!</b></span><br>Your pay has increased by $0.02. Your bonus pay is now $0.60.</p>\n            ","response":0,"trial_type":"html-button-response","trial_index":76,"time_elapsed":576283,"internal_node_id":"0.0-4.0-1.32","subject_id":"60dd80677c883380b252f05c","study_id":"6197b3f67c2b5cd3b6d9596a","session_id":"619be78932b195b0e70c0920","condition":"full-information","relevant_dimensions":["wings","pattern"],"bee_group":{"antennae":"X","wings":"2","pattern":"S","legs":"X"},"bonus":0.8800000000000011},{"rt":1129.1000000238419,"stimulus":"bees-with-color/bee-B1SM.svg","response":0,"trial_type":"image-button-response","trial_index":77,"time_elapsed":577413,"internal_node_id":"0.0-4.0-0.33","subject_id":"60dd80677c883380b252f05c","study_id":"6197b3f67c2b5cd3b6d9596a","session_id":"619be78932b195b0e70c0920","condition":"full-information","relevant_dimensions":["wings","pattern"],"bee_group":{"antennae":"X","wings":"2","pattern":"S","legs":"X"},"action":"harvest","summary":"good-harvest","bonus":0.8800000000000011},{"rt":491,"stimulus":"\n                    <p><b>Action: <em>harvest</em></b></p>\n                    <p>This is the bee that you just saw.</p>\n                    <img src=\"bees-with-color/bee-B1SM.svg\" width=\"200\">\n                    <p><span class=\"greenText\"><b>Successful harvest!</b></span><br>Your pay has increased by $0.02. Your bonus pay is now $0.62.</p>\n            ","response":0,"trial_type":"html-button-response","trial_index":78,"time_elapsed":577905,"internal_node_id":"0.0-4.0-1.33","subject_id":"60dd80677c883380b252f05c","study_id":"6197b3f67c2b5cd3b6d9596a","session_id":"619be78932b195b0e70c0920","condition":"full-information","relevant_dimensions":["wings","pattern"],"bee_group":{"antennae":"X","wings":"2","pattern":"S","legs":"X"},"bonus":0.8800000000000011},{"rt":2783.2000000476837,"stimulus":"bees-with-color/bee-B2DF.svg","response":1,"trial_type":"image-button-response","trial_index":79,"time_elapsed":580689,"internal_node_id":"0.0-4.0-0.34","subject_id":"60dd80677c883380b252f05c","study_id":"6197b3f67c2b5cd3b6d9596a","session_id":"619be78932b195b0e70c0920","condition":"full-information","relevant_dimensions":["wings","pattern"],"bee_group":{"antennae":"X","wings":"2","pattern":"S","legs":"X"},"action":"avoid","summary":"bad-avoid","bonus":0.8800000000000011},{"rt":848.4000000953674,"stimulus":"\n                    <p><b>Action: <em>avoid</em></b></p>\n                    <p>This is the bee that you just saw.</p>\n                    <img src=\"bees-with-color/bee-B2DF.svg\" width=\"200\">\n                    <p><span class=\"redText\">Bad choice,</span> the bee was friendly.<br>Your bonus pay is unchanged, and remains at $0.62.</p>\n            ","response":0,"trial_type":"html-button-response","trial_index":80,"time_elapsed":581539,"internal_node_id":"0.0-4.0-1.34","subject_id":"60dd80677c883380b252f05c","study_id":"6197b3f67c2b5cd3b6d9596a","session_id":"619be78932b195b0e70c0920","condition":"full-information","relevant_dimensions":["wings","pattern"],"bee_group":{"antennae":"X","wings":"2","pattern":"S","legs":"X"},"bonus":0.8800000000000011},{"rt":1582.8999999761581,"stimulus":"bees-with-color/bee-A2SF.svg","response":1,"trial_type":"image-button-response","trial_index":81,"time_elapsed":583123,"internal_node_id":"0.0-4.0-0.35","subject_id":"60dd80677c883380b252f05c","study_id":"6197b3f67c2b5cd3b6d9596a","session_id":"619be78932b195b0e70c0920","condition":"full-information","relevant_dimensions":["wings","pattern"],"bee_group":{"antennae":"X","wings":"2","pattern":"S","legs":"X"},"action":"avoid","summary":"good-avoid","bonus":0.8800000000000011},{"rt":567,"stimulus":"\n                    <p><b>Action: <em>avoid</em></b></p>\n                    <p>This is the bee that you just saw.</p>\n                    <img src=\"bees-with-color/bee-A2SF.svg\" width=\"200\">\n                    <p><span class=\"greenText\">Good choice!</span>  This bee would have stung you.<br>Your bonus pay is unchanged, and remains at $0.62.</p>\n            ","response":0,"trial_type":"html-button-response","trial_index":82,"time_elapsed":583691,"internal_node_id":"0.0-4.0-1.35","subject_id":"60dd80677c883380b252f05c","study_id":"6197b3f67c2b5cd3b6d9596a","session_id":"619be78932b195b0e70c0920","condition":"full-information","relevant_dimensions":["wings","pattern"],"bee_group":{"antennae":"X","wings":"2","pattern":"S","legs":"X"},"bonus":0.8800000000000011},{"rt":951.1000000238419,"stimulus":"bees-with-color/bee-A1DF.svg","response":0,"trial_type":"image-button-response","trial_index":83,"time_elapsed":584643,"internal_node_id":"0.0-4.0-0.36","subject_id":"60dd80677c883380b252f05c","study_id":"6197b3f67c2b5cd3b6d9596a","session_id":"619be78932b195b0e70c0920","condition":"full-information","relevant_dimensions":["wings","pattern"],"bee_group":{"antennae":"X","wings":"2","pattern":"S","legs":"X"},"action":"harvest","summary":"good-harvest","bonus":0.8800000000000011},{"rt":474.89999997615814,"stimulus":"\n                    <p><b>Action: <em>harvest</em></b></p>\n                    <p>This is the bee that you just saw.</p>\n                    <img src=\"bees-with-color/bee-A1DF.svg\" width=\"200\">\n                    <p><span class=\"greenText\"><b>Successful harvest!</b></span><br>Your pay has increased by $0.02. Your bonus pay is now $0.64.</p>\n            ","response":0,"trial_type":"html-button-response","trial_index":84,"time_elapsed":585119,"internal_node_id":"0.0-4.0-1.36","subject_id":"60dd80677c883380b252f05c","study_id":"6197b3f67c2b5cd3b6d9596a","session_id":"619be78932b195b0e70c0920","condition":"full-information","relevant_dimensions":["wings","pattern"],"bee_group":{"antennae":"X","wings":"2","pattern":"S","legs":"X"},"bonus":0.8800000000000011},{"rt":1114.7000000476837,"stimulus":"bees-with-color/bee-A1SM.svg","response":0,"trial_type":"image-button-response","trial_index":85,"time_elapsed":586235,"internal_node_id":"0.0-4.0-0.37","subject_id":"60dd80677c883380b252f05c","study_id":"6197b3f67c2b5cd3b6d9596a","session_id":"619be78932b195b0e70c0920","condition":"full-information","relevant_dimensions":["wings","pattern"],"bee_group":{"antennae":"X","wings":"2","pattern":"S","legs":"X"},"action":"harvest","summary":"good-harvest","bonus":0.8800000000000011},{"rt":545.5,"stimulus":"\n                    <p><b>Action: <em>harvest</em></b></p>\n                    <p>This is the bee that you just saw.</p>\n                    <img src=\"bees-with-color/bee-A1SM.svg\" width=\"200\">\n                    <p><span class=\"greenText\"><b>Successful harvest!</b></span><br>Your pay has increased by $0.02. Your bonus pay is now $0.66.</p>\n            ","response":0,"trial_type":"html-button-response","trial_index":86,"time_elapsed":586781,"internal_node_id":"0.0-4.0-1.37","subject_id":"60dd80677c883380b252f05c","study_id":"6197b3f67c2b5cd3b6d9596a","session_id":"619be78932b195b0e70c0920","condition":"full-information","relevant_dimensions":["wings","pattern"],"bee_group":{"antennae":"X","wings":"2","pattern":"S","legs":"X"},"bonus":0.8800000000000011},{"rt":3781.100000023842,"stimulus":"bees-with-color/bee-B2SM.svg","response":0,"trial_type":"image-button-response","trial_index":87,"time_elapsed":590563,"internal_node_id":"0.0-4.0-0.38","subject_id":"60dd80677c883380b252f05c","study_id":"6197b3f67c2b5cd3b6d9596a","session_id":"619be78932b195b0e70c0920","condition":"full-information","relevant_dimensions":["wings","pattern"],"bee_group":{"antennae":"X","wings":"2","pattern":"S","legs":"X"},"action":"harvest","summary":"bad-harvest","bonus":0.8800000000000011},{"rt":1004.2000000476837,"stimulus":"\n                    <p><b>Action: <em>harvest</em></b></p>\n                    <p>This is the bee that you just saw.</p>\n                    <img src=\"bees-with-color/bee-B2SM.svg\" width=\"200\">\n                    <p><span class=\"redText\">Bad choice, the bee was angry.</span><br><b>You have been stung!</b><br>Your pay has been decreased by $0.10. Your bonus pay is now $0.56.</p>\n            ","response":0,"trial_type":"html-button-response","trial_index":88,"time_elapsed":591569,"internal_node_id":"0.0-4.0-1.38","subject_id":"60dd80677c883380b252f05c","study_id":"6197b3f67c2b5cd3b6d9596a","session_id":"619be78932b195b0e70c0920","condition":"full-information","relevant_dimensions":["wings","pattern"],"bee_group":{"antennae":"X","wings":"2","pattern":"S","legs":"X"},"bonus":0.8800000000000011},{"rt":1185.2000000476837,"stimulus":"bees-with-color/bee-B1DM.svg","response":0,"trial_type":"image-button-response","trial_index":89,"time_elapsed":592755,"internal_node_id":"0.0-4.0-0.39","subject_id":"60dd80677c883380b252f05c","study_id":"6197b3f67c2b5cd3b6d9596a","session_id":"619be78932b195b0e70c0920","condition":"full-information","relevant_dimensions":["wings","pattern"],"bee_group":{"antennae":"X","wings":"2","pattern":"S","legs":"X"},"action":"harvest","summary":"good-harvest","bonus":0.8800000000000011},{"rt":499.3000000715256,"stimulus":"\n                    <p><b>Action: <em>harvest</em></b></p>\n                    <p>This is the bee that you just saw.</p>\n                    <img src=\"bees-with-color/bee-B1DM.svg\" width=\"200\">\n                    <p><span class=\"greenText\"><b>Successful harvest!</b></span><br>Your pay has increased by $0.02. Your bonus pay is now $0.58.</p>\n            ","response":0,"trial_type":"html-button-response","trial_index":90,"time_elapsed":593255,"internal_node_id":"0.0-4.0-1.39","subject_id":"60dd80677c883380b252f05c","study_id":"6197b3f67c2b5cd3b6d9596a","session_id":"619be78932b195b0e70c0920","condition":"full-information","relevant_dimensions":["wings","pattern"],"bee_group":{"antennae":"X","wings":"2","pattern":"S","legs":"X"},"bonus":0.8800000000000011},{"rt":808.8000000715256,"stimulus":"bees-with-color/bee-B1DF.svg","response":0,"trial_type":"image-button-response","trial_index":91,"time_elapsed":594065,"internal_node_id":"0.0-4.0-0.40","subject_id":"60dd80677c883380b252f05c","study_id":"6197b3f67c2b5cd3b6d9596a","session_id":"619be78932b195b0e70c0920","condition":"full-information","relevant_dimensions":["wings","pattern"],"bee_group":{"antennae":"X","wings":"2","pattern":"S","legs":"X"},"action":"harvest","summary":"good-harvest","bonus":0.8800000000000011},{"rt":577.2000000476837,"stimulus":"\n                    <p><b>Action: <em>harvest</em></b></p>\n                    <p>This is the bee that you just saw.</p>\n                    <img src=\"bees-with-color/bee-B1DF.svg\" width=\"200\">\n                    <p><span class=\"greenText\"><b>Successful harvest!</b></span><br>Your pay has increased by $0.02. Your bonus pay is now $0.60.</p>\n            ","response":0,"trial_type":"html-button-response","trial_index":92,"time_elapsed":594643,"internal_node_id":"0.0-4.0-1.40","subject_id":"60dd80677c883380b252f05c","study_id":"6197b3f67c2b5cd3b6d9596a","session_id":"619be78932b195b0e70c0920","condition":"full-information","relevant_dimensions":["wings","pattern"],"bee_group":{"antennae":"X","wings":"2","pattern":"S","legs":"X"},"bonus":0.8800000000000011},{"rt":903.7000000476837,"stimulus":"bees-with-color/bee-A1SF.svg","response":0,"trial_type":"image-button-response","trial_index":93,"time_elapsed":595547,"internal_node_id":"0.0-4.0-0.41","subject_id":"60dd80677c883380b252f05c","study_id":"6197b3f67c2b5cd3b6d9596a","session_id":"619be78932b195b0e70c0920","condition":"full-information","relevant_dimensions":["wings","pattern"],"bee_group":{"antennae":"X","wings":"2","pattern":"S","legs":"X"},"action":"harvest","summary":"good-harvest","bonus":0.8800000000000011},{"rt":513,"stimulus":"\n                    <p><b>Action: <em>harvest</em></b></p>\n                    <p>This is the bee that you just saw.</p>\n                    <img src=\"bees-with-color/bee-A1SF.svg\" width=\"200\">\n                    <p><span class=\"greenText\"><b>Successful harvest!</b></span><br>Your pay has increased by $0.02. Your bonus pay is now $0.62.</p>\n            ","response":0,"trial_type":"html-button-response","trial_index":94,"time_elapsed":596061,"internal_node_id":"0.0-4.0-1.41","subject_id":"60dd80677c883380b252f05c","study_id":"6197b3f67c2b5cd3b6d9596a","session_id":"619be78932b195b0e70c0920","condition":"full-information","relevant_dimensions":["wings","pattern"],"bee_group":{"antennae":"X","wings":"2","pattern":"S","legs":"X"},"bonus":0.8800000000000011},{"rt":1005.1000000238419,"stimulus":"bees-with-color/bee-B1SF.svg","response":0,"trial_type":"image-button-response","trial_index":95,"time_elapsed":597067,"internal_node_id":"0.0-4.0-0.42","subject_id":"60dd80677c883380b252f05c","study_id":"6197b3f67c2b5cd3b6d9596a","session_id":"619be78932b195b0e70c0920","condition":"full-information","relevant_dimensions":["wings","pattern"],"bee_group":{"antennae":"X","wings":"2","pattern":"S","legs":"X"},"action":"harvest","summary":"good-harvest","bonus":0.8800000000000011},{"rt":523,"stimulus":"\n                    <p><b>Action: <em>harvest</em></b></p>\n                    <p>This is the bee that you just saw.</p>\n                    <img src=\"bees-with-color/bee-B1SF.svg\" width=\"200\">\n                    <p><span class=\"greenText\"><b>Successful harvest!</b></span><br>Your pay has increased by $0.02. Your bonus pay is now $0.64.</p>\n            ","response":0,"trial_type":"html-button-response","trial_index":96,"time_elapsed":597591,"internal_node_id":"0.0-4.0-1.42","subject_id":"60dd80677c883380b252f05c","study_id":"6197b3f67c2b5cd3b6d9596a","session_id":"619be78932b195b0e70c0920","condition":"full-information","relevant_dimensions":["wings","pattern"],"bee_group":{"antennae":"X","wings":"2","pattern":"S","legs":"X"},"bonus":0.8800000000000011},{"rt":1121.2000000476837,"stimulus":"bees-with-color/bee-A2SM.svg","response":1,"trial_type":"image-button-response","trial_index":97,"time_elapsed":598713,"internal_node_id":"0.0-4.0-0.43","subject_id":"60dd80677c883380b252f05c","study_id":"6197b3f67c2b5cd3b6d9596a","session_id":"619be78932b195b0e70c0920","condition":"full-information","relevant_dimensions":["wings","pattern"],"bee_group":{"antennae":"X","wings":"2","pattern":"S","legs":"X"},"action":"avoid","summary":"good-avoid","bonus":0.8800000000000011},{"rt":607.5,"stimulus":"\n                    <p><b>Action: <em>avoid</em></b></p>\n                    <p>This is the bee that you just saw.</p>\n                    <img src=\"bees-with-color/bee-A2SM.svg\" width=\"200\">\n                    <p><span class=\"greenText\">Good choice!</span>  This bee would have stung you.<br>Your bonus pay is unchanged, and remains at $0.64.</p>\n            ","response":0,"trial_type":"html-button-response","trial_index":98,"time_elapsed":599321,"internal_node_id":"0.0-4.0-1.43","subject_id":"60dd80677c883380b252f05c","study_id":"6197b3f67c2b5cd3b6d9596a","session_id":"619be78932b195b0e70c0920","condition":"full-information","relevant_dimensions":["wings","pattern"],"bee_group":{"antennae":"X","wings":"2","pattern":"S","legs":"X"},"bonus":0.8800000000000011},{"rt":1459.1999999284744,"stimulus":"bees-with-color/bee-A1DM.svg","response":0,"trial_type":"image-button-response","trial_index":99,"time_elapsed":600781,"internal_node_id":"0.0-4.0-0.44","subject_id":"60dd80677c883380b252f05c","study_id":"6197b3f67c2b5cd3b6d9596a","session_id":"619be78932b195b0e70c0920","condition":"full-information","relevant_dimensions":["wings","pattern"],"bee_group":{"antennae":"X","wings":"2","pattern":"S","legs":"X"},"action":"harvest","summary":"good-harvest","bonus":0.8800000000000011},{"rt":545,"stimulus":"\n                    <p><b>Action: <em>harvest</em></b></p>\n                    <p>This is the bee that you just saw.</p>\n                    <img src=\"bees-with-color/bee-A1DM.svg\" width=\"200\">\n                    <p><span class=\"greenText\"><b>Successful harvest!</b></span><br>Your pay has increased by $0.02. Your bonus pay is now $0.66.</p>\n            ","response":0,"trial_type":"html-button-response","trial_index":100,"time_elapsed":601327,"internal_node_id":"0.0-4.0-1.44","subject_id":"60dd80677c883380b252f05c","study_id":"6197b3f67c2b5cd3b6d9596a","session_id":"619be78932b195b0e70c0920","condition":"full-information","relevant_dimensions":["wings","pattern"],"bee_group":{"antennae":"X","wings":"2","pattern":"S","legs":"X"},"bonus":0.8800000000000011},{"rt":1581.1000000238419,"stimulus":"bees-with-color/bee-A2DM.svg","response":1,"trial_type":"image-button-response","trial_index":101,"time_elapsed":602909,"internal_node_id":"0.0-4.0-0.45","subject_id":"60dd80677c883380b252f05c","study_id":"6197b3f67c2b5cd3b6d9596a","session_id":"619be78932b195b0e70c0920","condition":"full-information","relevant_dimensions":["wings","pattern"],"bee_group":{"antennae":"X","wings":"2","pattern":"S","legs":"X"},"action":"avoid","summary":"bad-avoid","bonus":0.8800000000000011},{"rt":639.1999999284744,"stimulus":"\n                    <p><b>Action: <em>avoid</em></b></p>\n                    <p>This is the bee that you just saw.</p>\n                    <img src=\"bees-with-color/bee-A2DM.svg\" width=\"200\">\n                    <p><span class=\"redText\">Bad choice,</span> the bee was friendly.<br>Your bonus pay is unchanged, and remains at $0.66.</p>\n            ","response":0,"trial_type":"html-button-response","trial_index":102,"time_elapsed":603549,"internal_node_id":"0.0-4.0-1.45","subject_id":"60dd80677c883380b252f05c","study_id":"6197b3f67c2b5cd3b6d9596a","session_id":"619be78932b195b0e70c0920","condition":"full-information","relevant_dimensions":["wings","pattern"],"bee_group":{"antennae":"X","wings":"2","pattern":"S","legs":"X"},"bonus":0.8800000000000011},{"rt":3954.7999999523163,"stimulus":"bees-with-color/bee-B2SF.svg","response":1,"trial_type":"image-button-response","trial_index":103,"time_elapsed":607505,"internal_node_id":"0.0-4.0-0.46","subject_id":"60dd80677c883380b252f05c","study_id":"6197b3f67c2b5cd3b6d9596a","session_id":"619be78932b195b0e70c0920","condition":"full-information","relevant_dimensions":["wings","pattern"],"bee_group":{"antennae":"X","wings":"2","pattern":"S","legs":"X"},"action":"avoid","summary":"good-avoid","bonus":0.8800000000000011},{"rt":693.3000000715256,"stimulus":"\n                    <p><b>Action: <em>avoid</em></b></p>\n                    <p>This is the bee that you just saw.</p>\n                    <img src=\"bees-with-color/bee-B2SF.svg\" width=\"200\">\n                    <p><span class=\"greenText\">Good choice!</span>  This bee would have stung you.<br>Your bonus pay is unchanged, and remains at $0.66.</p>\n            ","response":0,"trial_type":"html-button-response","trial_index":104,"time_elapsed":608199,"internal_node_id":"0.0-4.0-1.46","subject_id":"60dd80677c883380b252f05c","study_id":"6197b3f67c2b5cd3b6d9596a","session_id":"619be78932b195b0e70c0920","condition":"full-information","relevant_dimensions":["wings","pattern"],"bee_group":{"antennae":"X","wings":"2","pattern":"S","legs":"X"},"bonus":0.8800000000000011},{"rt":887,"stimulus":"bees-with-color/bee-A2DF.svg","response":1,"trial_type":"image-button-response","trial_index":105,"time_elapsed":609087,"internal_node_id":"0.0-4.0-0.47","subject_id":"60dd80677c883380b252f05c","study_id":"6197b3f67c2b5cd3b6d9596a","session_id":"619be78932b195b0e70c0920","condition":"full-information","relevant_dimensions":["wings","pattern"],"bee_group":{"antennae":"X","wings":"2","pattern":"S","legs":"X"},"action":"avoid","summary":"bad-avoid","bonus":0.8800000000000011},{"rt":630.8999999761581,"stimulus":"\n                    <p><b>Action: <em>avoid</em></b></p>\n                    <p>This is the bee that you just saw.</p>\n                    <img src=\"bees-with-color/bee-A2DF.svg\" width=\"200\">\n                    <p><span class=\"redText\">Bad choice,</span> the bee was friendly.<br>Your bonus pay is unchanged, and remains at $0.66.</p>\n            ","response":0,"trial_type":"html-button-response","trial_index":106,"time_elapsed":609719,"internal_node_id":"0.0-4.0-1.47","subject_id":"60dd80677c883380b252f05c","study_id":"6197b3f67c2b5cd3b6d9596a","session_id":"619be78932b195b0e70c0920","condition":"full-information","relevant_dimensions":["wings","pattern"],"bee_group":{"antennae":"X","wings":"2","pattern":"S","legs":"X"},"bonus":0.8800000000000011},{"rt":1060.7999999523163,"stimulus":"bees-with-color/bee-A1DF.svg","response":0,"trial_type":"image-button-response","trial_index":107,"time_elapsed":610781,"internal_node_id":"0.0-4.0-0.48","subject_id":"60dd80677c883380b252f05c","study_id":"6197b3f67c2b5cd3b6d9596a","session_id":"619be78932b195b0e70c0920","condition":"full-information","relevant_dimensions":["wings","pattern"],"bee_group":{"antennae":"X","wings":"2","pattern":"S","legs":"X"},"action":"harvest","summary":"good-harvest","bonus":0.8800000000000011},{"rt":459.10000002384186,"stimulus":"\n                    <p><b>Action: <em>harvest</em></b></p>\n                    <p>This is the bee that you just saw.</p>\n                    <img src=\"bees-with-color/bee-A1DF.svg\" width=\"200\">\n                    <p><span class=\"greenText\"><b>Successful harvest!</b></span><br>Your pay has increased by $0.02. Your bonus pay is now $0.68.</p>\n            ","response":0,"trial_type":"html-button-response","trial_index":108,"time_elapsed":611241,"internal_node_id":"0.0-4.0-1.48","subject_id":"60dd80677c883380b252f05c","study_id":"6197b3f67c2b5cd3b6d9596a","session_id":"619be78932b195b0e70c0920","condition":"full-information","relevant_dimensions":["wings","pattern"],"bee_group":{"antennae":"X","wings":"2","pattern":"S","legs":"X"},"bonus":0.8800000000000011},{"rt":1043.3000000715256,"stimulus":"bees-with-color/bee-B1DM.svg","response":0,"trial_type":"image-button-response","trial_index":109,"time_elapsed":612285,"internal_node_id":"0.0-4.0-0.49","subject_id":"60dd80677c883380b252f05c","study_id":"6197b3f67c2b5cd3b6d9596a","session_id":"619be78932b195b0e70c0920","condition":"full-information","relevant_dimensions":["wings","pattern"],"bee_group":{"antennae":"X","wings":"2","pattern":"S","legs":"X"},"action":"harvest","summary":"good-harvest","bonus":0.8800000000000011},{"rt":475.09999990463257,"stimulus":"\n                    <p><b>Action: <em>harvest</em></b></p>\n                    <p>This is the bee that you just saw.</p>\n                    <img src=\"bees-with-color/bee-B1DM.svg\" width=\"200\">\n                    <p><span class=\"greenText\"><b>Successful harvest!</b></span><br>Your pay has increased by $0.02. Your bonus pay is now $0.70.</p>\n            ","response":0,"trial_type":"html-button-response","trial_index":110,"time_elapsed":612761,"internal_node_id":"0.0-4.0-1.49","subject_id":"60dd80677c883380b252f05c","study_id":"6197b3f67c2b5cd3b6d9596a","session_id":"619be78932b195b0e70c0920","condition":"full-information","relevant_dimensions":["wings","pattern"],"bee_group":{"antennae":"X","wings":"2","pattern":"S","legs":"X"},"bonus":0.8800000000000011},{"rt":1933.1999999284744,"stimulus":"bees-with-color/bee-B2SF.svg","response":1,"trial_type":"image-button-response","trial_index":111,"time_elapsed":614695,"internal_node_id":"0.0-4.0-0.50","subject_id":"60dd80677c883380b252f05c","study_id":"6197b3f67c2b5cd3b6d9596a","session_id":"619be78932b195b0e70c0920","condition":"full-information","relevant_dimensions":["wings","pattern"],"bee_group":{"antennae":"X","wings":"2","pattern":"S","legs":"X"},"action":"avoid","summary":"good-avoid","bonus":0.8800000000000011},{"rt":630.9000000953674,"stimulus":"\n                    <p><b>Action: <em>avoid</em></b></p>\n                    <p>This is the bee that you just saw.</p>\n                    <img src=\"bees-with-color/bee-B2SF.svg\" width=\"200\">\n                    <p><span class=\"greenText\">Good choice!</span>  This bee would have stung you.<br>Your bonus pay is unchanged, and remains at $0.70.</p>\n            ","response":0,"trial_type":"html-button-response","trial_index":112,"time_elapsed":615327,"internal_node_id":"0.0-4.0-1.50","subject_id":"60dd80677c883380b252f05c","study_id":"6197b3f67c2b5cd3b6d9596a","session_id":"619be78932b195b0e70c0920","condition":"full-information","relevant_dimensions":["wings","pattern"],"bee_group":{"antennae":"X","wings":"2","pattern":"S","legs":"X"},"bonus":0.8800000000000011},{"rt":1395.1999999284744,"stimulus":"bees-with-color/bee-B1SM.svg","response":0,"trial_type":"image-button-response","trial_index":113,"time_elapsed":616723,"internal_node_id":"0.0-4.0-0.51","subject_id":"60dd80677c883380b252f05c","study_id":"6197b3f67c2b5cd3b6d9596a","session_id":"619be78932b195b0e70c0920","condition":"full-information","relevant_dimensions":["wings","pattern"],"bee_group":{"antennae":"X","wings":"2","pattern":"S","legs":"X"},"action":"harvest","summary":"good-harvest","bonus":0.8800000000000011},{"rt":1254.8000000715256,"stimulus":"\n                    <p><b>Action: <em>harvest</em></b></p>\n                    <p>This is the bee that you just saw.</p>\n                    <img src=\"bees-with-color/bee-B1SM.svg\" width=\"200\">\n                    <p><span class=\"greenText\"><b>Successful harvest!</b></span><br>Your pay has increased by $0.02. Your bonus pay is now $0.72.</p>\n            ","response":0,"trial_type":"html-button-response","trial_index":114,"time_elapsed":617979,"internal_node_id":"0.0-4.0-1.51","subject_id":"60dd80677c883380b252f05c","study_id":"6197b3f67c2b5cd3b6d9596a","session_id":"619be78932b195b0e70c0920","condition":"full-information","relevant_dimensions":["wings","pattern"],"bee_group":{"antennae":"X","wings":"2","pattern":"S","legs":"X"},"bonus":0.8800000000000011},{"rt":1317.3999999761581,"stimulus":"bees-with-color/bee-A2DM.svg","response":1,"trial_type":"image-button-response","trial_index":115,"time_elapsed":619297,"internal_node_id":"0.0-4.0-0.52","subject_id":"60dd80677c883380b252f05c","study_id":"6197b3f67c2b5cd3b6d9596a","session_id":"619be78932b195b0e70c0920","condition":"full-information","relevant_dimensions":["wings","pattern"],"bee_group":{"antennae":"X","wings":"2","pattern":"S","legs":"X"},"action":"avoid","summary":"bad-avoid","bonus":0.8800000000000011},{"rt":600.8000000715256,"stimulus":"\n                    <p><b>Action: <em>avoid</em></b></p>\n                    <p>This is the bee that you just saw.</p>\n                    <img src=\"bees-with-color/bee-A2DM.svg\" width=\"200\">\n                    <p><span class=\"redText\">Bad choice,</span> the bee was friendly.<br>Your bonus pay is unchanged, and remains at $0.72.</p>\n            ","response":0,"trial_type":"html-button-response","trial_index":116,"time_elapsed":619899,"internal_node_id":"0.0-4.0-1.52","subject_id":"60dd80677c883380b252f05c","study_id":"6197b3f67c2b5cd3b6d9596a","session_id":"619be78932b195b0e70c0920","condition":"full-information","relevant_dimensions":["wings","pattern"],"bee_group":{"antennae":"X","wings":"2","pattern":"S","legs":"X"},"bonus":0.8800000000000011},{"rt":1223.2999999523163,"stimulus":"bees-with-color/bee-B2DF.svg","response":1,"trial_type":"image-button-response","trial_index":117,"time_elapsed":621123,"internal_node_id":"0.0-4.0-0.53","subject_id":"60dd80677c883380b252f05c","study_id":"6197b3f67c2b5cd3b6d9596a","session_id":"619be78932b195b0e70c0920","condition":"full-information","relevant_dimensions":["wings","pattern"],"bee_group":{"antennae":"X","wings":"2","pattern":"S","legs":"X"},"action":"avoid","summary":"bad-avoid","bonus":0.8800000000000011},{"rt":1012.8999999761581,"stimulus":"\n                    <p><b>Action: <em>avoid</em></b></p>\n                    <p>This is the bee that you just saw.</p>\n                    <img src=\"bees-with-color/bee-B2DF.svg\" width=\"200\">\n                    <p><span class=\"redText\">Bad choice,</span> the bee was friendly.<br>Your bonus pay is unchanged, and remains at $0.72.</p>\n            ","response":0,"trial_type":"html-button-response","trial_index":118,"time_elapsed":622137,"internal_node_id":"0.0-4.0-1.53","subject_id":"60dd80677c883380b252f05c","study_id":"6197b3f67c2b5cd3b6d9596a","session_id":"619be78932b195b0e70c0920","condition":"full-information","relevant_dimensions":["wings","pattern"],"bee_group":{"antennae":"X","wings":"2","pattern":"S","legs":"X"},"bonus":0.8800000000000011},{"rt":1153.0999999046326,"stimulus":"bees-with-color/bee-A1SF.svg","response":0,"trial_type":"image-button-response","trial_index":119,"time_elapsed":623291,"internal_node_id":"0.0-4.0-0.54","subject_id":"60dd80677c883380b252f05c","study_id":"6197b3f67c2b5cd3b6d9596a","session_id":"619be78932b195b0e70c0920","condition":"full-information","relevant_dimensions":["wings","pattern"],"bee_group":{"antennae":"X","wings":"2","pattern":"S","legs":"X"},"action":"harvest","summary":"good-harvest","bonus":0.8800000000000011},{"rt":520.6000000238419,"stimulus":"\n                    <p><b>Action: <em>harvest</em></b></p>\n                    <p>This is the bee that you just saw.</p>\n                    <img src=\"bees-with-color/bee-A1SF.svg\" width=\"200\">\n                    <p><span class=\"greenText\"><b>Successful harvest!</b></span><br>Your pay has increased by $0.02. Your bonus pay is now $0.74.</p>\n            ","response":0,"trial_type":"html-button-response","trial_index":120,"time_elapsed":623813,"internal_node_id":"0.0-4.0-1.54","subject_id":"60dd80677c883380b252f05c","study_id":"6197b3f67c2b5cd3b6d9596a","session_id":"619be78932b195b0e70c0920","condition":"full-information","relevant_dimensions":["wings","pattern"],"bee_group":{"antennae":"X","wings":"2","pattern":"S","legs":"X"},"bonus":0.8800000000000011},{"rt":1217.5,"stimulus":"bees-with-color/bee-A2SF.svg","response":1,"trial_type":"image-button-response","trial_index":121,"time_elapsed":625031,"internal_node_id":"0.0-4.0-0.55","subject_id":"60dd80677c883380b252f05c","study_id":"6197b3f67c2b5cd3b6d9596a","session_id":"619be78932b195b0e70c0920","condition":"full-information","relevant_dimensions":["wings","pattern"],"bee_group":{"antennae":"X","wings":"2","pattern":"S","legs":"X"},"action":"avoid","summary":"good-avoid","bonus":0.8800000000000011},{"rt":521,"stimulus":"\n                    <p><b>Action: <em>avoid</em></b></p>\n                    <p>This is the bee that you just saw.</p>\n                    <img src=\"bees-with-color/bee-A2SF.svg\" width=\"200\">\n                    <p><span class=\"greenText\">Good choice!</span>  This bee would have stung you.<br>Your bonus pay is unchanged, and remains at $0.74.</p>\n            ","response":0,"trial_type":"html-button-response","trial_index":122,"time_elapsed":625553,"internal_node_id":"0.0-4.0-1.55","subject_id":"60dd80677c883380b252f05c","study_id":"6197b3f67c2b5cd3b6d9596a","session_id":"619be78932b195b0e70c0920","condition":"full-information","relevant_dimensions":["wings","pattern"],"bee_group":{"antennae":"X","wings":"2","pattern":"S","legs":"X"},"bonus":0.8800000000000011},{"rt":1029.1000000238419,"stimulus":"bees-with-color/bee-B1SF.svg","response":0,"trial_type":"image-button-response","trial_index":123,"time_elapsed":626583,"internal_node_id":"0.0-4.0-0.56","subject_id":"60dd80677c883380b252f05c","study_id":"6197b3f67c2b5cd3b6d9596a","session_id":"619be78932b195b0e70c0920","condition":"full-information","relevant_dimensions":["wings","pattern"],"bee_group":{"antennae":"X","wings":"2","pattern":"S","legs":"X"},"action":"harvest","summary":"good-harvest","bonus":0.8800000000000011},{"rt":488.7000000476837,"stimulus":"\n                    <p><b>Action: <em>harvest</em></b></p>\n                    <p>This is the bee that you just saw.</p>\n                    <img src=\"bees-with-color/bee-B1SF.svg\" width=\"200\">\n                    <p><span class=\"greenText\"><b>Successful harvest!</b></span><br>Your pay has increased by $0.02. Your bonus pay is now $0.76.</p>\n            ","response":0,"trial_type":"html-button-response","trial_index":124,"time_elapsed":627073,"internal_node_id":"0.0-4.0-1.56","subject_id":"60dd80677c883380b252f05c","study_id":"6197b3f67c2b5cd3b6d9596a","session_id":"619be78932b195b0e70c0920","condition":"full-information","relevant_dimensions":["wings","pattern"],"bee_group":{"antennae":"X","wings":"2","pattern":"S","legs":"X"},"bonus":0.8800000000000011},{"rt":1177.3000000715256,"stimulus":"bees-with-color/bee-B2DM.svg","response":0,"trial_type":"image-button-response","trial_index":125,"time_elapsed":628251,"internal_node_id":"0.0-4.0-0.57","subject_id":"60dd80677c883380b252f05c","study_id":"6197b3f67c2b5cd3b6d9596a","session_id":"619be78932b195b0e70c0920","condition":"full-information","relevant_dimensions":["wings","pattern"],"bee_group":{"antennae":"X","wings":"2","pattern":"S","legs":"X"},"action":"harvest","summary":"good-harvest","bonus":0.8800000000000011},{"rt":708.8999999761581,"stimulus":"\n                    <p><b>Action: <em>harvest</em></b></p>\n                    <p>This is the bee that you just saw.</p>\n                    <img src=\"bees-with-color/bee-B2DM.svg\" width=\"200\">\n                    <p><span class=\"greenText\"><b>Successful harvest!</b></span><br>Your pay has increased by $0.02. Your bonus pay is now $0.78.</p>\n            ","response":0,"trial_type":"html-button-response","trial_index":126,"time_elapsed":628961,"internal_node_id":"0.0-4.0-1.57","subject_id":"60dd80677c883380b252f05c","study_id":"6197b3f67c2b5cd3b6d9596a","session_id":"619be78932b195b0e70c0920","condition":"full-information","relevant_dimensions":["wings","pattern"],"bee_group":{"antennae":"X","wings":"2","pattern":"S","legs":"X"},"bonus":0.8800000000000011},{"rt":1028.6000000238419,"stimulus":"bees-with-color/bee-B2SM.svg","response":0,"trial_type":"image-button-response","trial_index":127,"time_elapsed":629991,"internal_node_id":"0.0-4.0-0.58","subject_id":"60dd80677c883380b252f05c","study_id":"6197b3f67c2b5cd3b6d9596a","session_id":"619be78932b195b0e70c0920","condition":"full-information","relevant_dimensions":["wings","pattern"],"bee_group":{"antennae":"X","wings":"2","pattern":"S","legs":"X"},"action":"harvest","summary":"bad-harvest","bonus":0.8800000000000011},{"rt":731.1999999284744,"stimulus":"\n                    <p><b>Action: <em>harvest</em></b></p>\n                    <p>This is the bee that you just saw.</p>\n                    <img src=\"bees-with-color/bee-B2SM.svg\" width=\"200\">\n                    <p><span class=\"redText\">Bad choice, the bee was angry.</span><br><b>You have been stung!</b><br>Your pay has been decreased by $0.10. Your bonus pay is now $0.68.</p>\n            ","response":0,"trial_type":"html-button-response","trial_index":128,"time_elapsed":630723,"internal_node_id":"0.0-4.0-1.58","subject_id":"60dd80677c883380b252f05c","study_id":"6197b3f67c2b5cd3b6d9596a","session_id":"619be78932b195b0e70c0920","condition":"full-information","relevant_dimensions":["wings","pattern"],"bee_group":{"antennae":"X","wings":"2","pattern":"S","legs":"X"},"bonus":0.8800000000000011},{"rt":762.7999999523163,"stimulus":"bees-with-color/bee-A2DF.svg","response":0,"trial_type":"image-button-response","trial_index":129,"time_elapsed":631487,"internal_node_id":"0.0-4.0-0.59","subject_id":"60dd80677c883380b252f05c","study_id":"6197b3f67c2b5cd3b6d9596a","session_id":"619be78932b195b0e70c0920","condition":"full-information","relevant_dimensions":["wings","pattern"],"bee_group":{"antennae":"X","wings":"2","pattern":"S","legs":"X"},"action":"harvest","summary":"good-harvest","bonus":0.8800000000000011},{"rt":475.2999999523163,"stimulus":"\n                    <p><b>Action: <em>harvest</em></b></p>\n                    <p>This is the bee that you just saw.</p>\n                    <img src=\"bees-with-color/bee-A2DF.svg\" width=\"200\">\n                    <p><span class=\"greenText\"><b>Successful harvest!</b></span><br>Your pay has increased by $0.02. Your bonus pay is now $0.70.</p>\n            ","response":0,"trial_type":"html-button-response","trial_index":130,"time_elapsed":631963,"internal_node_id":"0.0-4.0-1.59","subject_id":"60dd80677c883380b252f05c","study_id":"6197b3f67c2b5cd3b6d9596a","session_id":"619be78932b195b0e70c0920","condition":"full-information","relevant_dimensions":["wings","pattern"],"bee_group":{"antennae":"X","wings":"2","pattern":"S","legs":"X"},"bonus":0.8800000000000011},{"rt":1309.1000000238419,"stimulus":"bees-with-color/bee-A2SM.svg","response":1,"trial_type":"image-button-response","trial_index":131,"time_elapsed":633273,"internal_node_id":"0.0-4.0-0.60","subject_id":"60dd80677c883380b252f05c","study_id":"6197b3f67c2b5cd3b6d9596a","session_id":"619be78932b195b0e70c0920","condition":"full-information","relevant_dimensions":["wings","pattern"],"bee_group":{"antennae":"X","wings":"2","pattern":"S","legs":"X"},"action":"avoid","summary":"good-avoid","bonus":0.8800000000000011},{"rt":630.6000000238419,"stimulus":"\n                    <p><b>Action: <em>avoid</em></b></p>\n                    <p>This is the bee that you just saw.</p>\n                    <img src=\"bees-with-color/bee-A2SM.svg\" width=\"200\">\n                    <p><span class=\"greenText\">Good choice!</span>  This bee would have stung you.<br>Your bonus pay is unchanged, and remains at $0.70.</p>\n            ","response":0,"trial_type":"html-button-response","trial_index":132,"time_elapsed":633905,"internal_node_id":"0.0-4.0-1.60","subject_id":"60dd80677c883380b252f05c","study_id":"6197b3f67c2b5cd3b6d9596a","session_id":"619be78932b195b0e70c0920","condition":"full-information","relevant_dimensions":["wings","pattern"],"bee_group":{"antennae":"X","wings":"2","pattern":"S","legs":"X"},"bonus":0.8800000000000011},{"rt":749.1999999284744,"stimulus":"bees-with-color/bee-B1DF.svg","response":0,"trial_type":"image-button-response","trial_index":133,"time_elapsed":634655,"internal_node_id":"0.0-4.0-0.61","subject_id":"60dd80677c883380b252f05c","study_id":"6197b3f67c2b5cd3b6d9596a","session_id":"619be78932b195b0e70c0920","condition":"full-information","relevant_dimensions":["wings","pattern"],"bee_group":{"antennae":"X","wings":"2","pattern":"S","legs":"X"},"action":"harvest","summary":"good-harvest","bonus":0.8800000000000011},{"rt":926.6000000238419,"stimulus":"\n                    <p><b>Action: <em>harvest</em></b></p>\n                    <p>This is the bee that you just saw.</p>\n                    <img src=\"bees-with-color/bee-B1DF.svg\" width=\"200\">\n                    <p><span class=\"greenText\"><b>Successful harvest!</b></span><br>Your pay has increased by $0.02. Your bonus pay is now $0.72.</p>\n            ","response":0,"trial_type":"html-button-response","trial_index":134,"time_elapsed":635583,"internal_node_id":"0.0-4.0-1.61","subject_id":"60dd80677c883380b252f05c","study_id":"6197b3f67c2b5cd3b6d9596a","session_id":"619be78932b195b0e70c0920","condition":"full-information","relevant_dimensions":["wings","pattern"],"bee_group":{"antennae":"X","wings":"2","pattern":"S","legs":"X"},"bonus":0.8800000000000011},{"rt":902.8999999761581,"stimulus":"bees-with-color/bee-A1SM.svg","response":0,"trial_type":"image-button-response","trial_index":135,"time_elapsed":636486,"internal_node_id":"0.0-4.0-0.62","subject_id":"60dd80677c883380b252f05c","study_id":"6197b3f67c2b5cd3b6d9596a","session_id":"619be78932b195b0e70c0920","condition":"full-information","relevant_dimensions":["wings","pattern"],"bee_group":{"antennae":"X","wings":"2","pattern":"S","legs":"X"},"action":"harvest","summary":"good-harvest","bonus":0.8800000000000011},{"rt":1231.3999999761581,"stimulus":"\n                    <p><b>Action: <em>harvest</em></b></p>\n                    <p>This is the bee that you just saw.</p>\n                    <img src=\"bees-with-color/bee-A1SM.svg\" width=\"200\">\n                    <p><span class=\"greenText\"><b>Successful harvest!</b></span><br>Your pay has increased by $0.02. Your bonus pay is now $0.74.</p>\n            ","response":0,"trial_type":"html-button-response","trial_index":136,"time_elapsed":637719,"internal_node_id":"0.0-4.0-1.62","subject_id":"60dd80677c883380b252f05c","study_id":"6197b3f67c2b5cd3b6d9596a","session_id":"619be78932b195b0e70c0920","condition":"full-information","relevant_dimensions":["wings","pattern"],"bee_group":{"antennae":"X","wings":"2","pattern":"S","legs":"X"},"bonus":0.8800000000000011},{"rt":857.2999999523163,"stimulus":"bees-with-color/bee-A1DM.svg","response":0,"trial_type":"image-button-response","trial_index":137,"time_elapsed":638577,"internal_node_id":"0.0-4.0-0.63","subject_id":"60dd80677c883380b252f05c","study_id":"6197b3f67c2b5cd3b6d9596a","session_id":"619be78932b195b0e70c0920","condition":"full-information","relevant_dimensions":["wings","pattern"],"bee_group":{"antennae":"X","wings":"2","pattern":"S","legs":"X"},"action":"harvest","summary":"good-harvest","bonus":0.8800000000000011},{"rt":614.5999999046326,"stimulus":"\n                    <p><b>Action: <em>harvest</em></b></p>\n                    <p>This is the bee that you just saw.</p>\n                    <img src=\"bees-with-color/bee-A1DM.svg\" width=\"200\">\n                    <p><span class=\"greenText\"><b>Successful harvest!</b></span><br>Your pay has increased by $0.02. Your bonus pay is now $0.76.</p>\n            ","response":0,"trial_type":"html-button-response","trial_index":138,"time_elapsed":639192,"internal_node_id":"0.0-4.0-1.63","subject_id":"60dd80677c883380b252f05c","study_id":"6197b3f67c2b5cd3b6d9596a","session_id":"619be78932b195b0e70c0920","condition":"full-information","relevant_dimensions":["wings","pattern"],"bee_group":{"antennae":"X","wings":"2","pattern":"S","legs":"X"},"bonus":0.8800000000000011},{"rt":6388.5,"stimulus":"You have completed the first part of this experiment.<br><br>You will now begin a shorter second part, in which you will receive no feedback.<br>The same rules regarding bonus pay apply.<br><br>Press any key to begin.","response":"enter","trial_type":"html-keyboard-response","trial_index":139,"time_elapsed":645582,"internal_node_id":"0.0-5.0","subject_id":"60dd80677c883380b252f05c","study_id":"6197b3f67c2b5cd3b6d9596a","session_id":"619be78932b195b0e70c0920","condition":"full-information","relevant_dimensions":["wings","pattern"],"bee_group":{"antennae":"X","wings":"2","pattern":"S","legs":"X"},"bonus":0.8800000000000011},{"rt":6716.899999976158,"stimulus":"bees-with-color/bee-B2SF.svg","response":0,"trial_type":"image-button-response","trial_index":140,"time_elapsed":652305,"internal_node_id":"0.0-6.0-0.0","subject_id":"60dd80677c883380b252f05c","study_id":"6197b3f67c2b5cd3b6d9596a","session_id":"619be78932b195b0e70c0920","condition":"full-information","relevant_dimensions":["wings","pattern"],"bee_group":{"antennae":"X","wings":"2","pattern":"S","legs":"X"},"bonus":0.8800000000000011},{"rt":2488.7000000476837,"stimulus":"bees-with-color/bee-B1SF.svg","response":0,"trial_type":"image-button-response","trial_index":141,"time_elapsed":654795,"internal_node_id":"0.0-6.0-0.1","subject_id":"60dd80677c883380b252f05c","study_id":"6197b3f67c2b5cd3b6d9596a","session_id":"619be78932b195b0e70c0920","condition":"full-information","relevant_dimensions":["wings","pattern"],"bee_group":{"antennae":"X","wings":"2","pattern":"S","legs":"X"},"bonus":0.8800000000000011},{"rt":1510.8999999761581,"stimulus":"bees-with-color/bee-A2DM.svg","response":1,"trial_type":"image-button-response","trial_index":142,"time_elapsed":656307,"internal_node_id":"0.0-6.0-0.2","subject_id":"60dd80677c883380b252f05c","study_id":"6197b3f67c2b5cd3b6d9596a","session_id":"619be78932b195b0e70c0920","condition":"full-information","relevant_dimensions":["wings","pattern"],"bee_group":{"antennae":"X","wings":"2","pattern":"S","legs":"X"},"bonus":0.8800000000000011},{"rt":950.3999999761581,"stimulus":"bees-with-color/bee-A1SF.svg","response":0,"trial_type":"image-button-response","trial_index":143,"time_elapsed":657259,"internal_node_id":"0.0-6.0-0.3","subject_id":"60dd80677c883380b252f05c","study_id":"6197b3f67c2b5cd3b6d9596a","session_id":"619be78932b195b0e70c0920","condition":"full-information","relevant_dimensions":["wings","pattern"],"bee_group":{"antennae":"X","wings":"2","pattern":"S","legs":"X"},"bonus":0.8800000000000011},{"rt":2244.9000000953674,"stimulus":"bees-with-color/bee-A1DM.svg","response":1,"trial_type":"image-button-response","trial_index":144,"time_elapsed":659505,"internal_node_id":"0.0-6.0-0.4","subject_id":"60dd80677c883380b252f05c","study_id":"6197b3f67c2b5cd3b6d9596a","session_id":"619be78932b195b0e70c0920","condition":"full-information","relevant_dimensions":["wings","pattern"],"bee_group":{"antennae":"X","wings":"2","pattern":"S","legs":"X"},"bonus":0.8800000000000011},{"rt":1380.6000000238419,"stimulus":"bees-with-color/bee-B2SM.svg","response":1,"trial_type":"image-button-response","trial_index":145,"time_elapsed":660887,"internal_node_id":"0.0-6.0-0.5","subject_id":"60dd80677c883380b252f05c","study_id":"6197b3f67c2b5cd3b6d9596a","session_id":"619be78932b195b0e70c0920","condition":"full-information","relevant_dimensions":["wings","pattern"],"bee_group":{"antennae":"X","wings":"2","pattern":"S","legs":"X"},"bonus":0.8800000000000011},{"rt":1160.8000000715256,"stimulus":"bees-with-color/bee-B1SM.svg","response":0,"trial_type":"image-button-response","trial_index":146,"time_elapsed":662049,"internal_node_id":"0.0-6.0-0.6","subject_id":"60dd80677c883380b252f05c","study_id":"6197b3f67c2b5cd3b6d9596a","session_id":"619be78932b195b0e70c0920","condition":"full-information","relevant_dimensions":["wings","pattern"],"bee_group":{"antennae":"X","wings":"2","pattern":"S","legs":"X"},"bonus":0.8800000000000011},{"rt":1042.3999999761581,"stimulus":"bees-with-color/bee-B1DM.svg","response":0,"trial_type":"image-button-response","trial_index":147,"time_elapsed":663093,"internal_node_id":"0.0-6.0-0.7","subject_id":"60dd80677c883380b252f05c","study_id":"6197b3f67c2b5cd3b6d9596a","session_id":"619be78932b195b0e70c0920","condition":"full-information","relevant_dimensions":["wings","pattern"],"bee_group":{"antennae":"X","wings":"2","pattern":"S","legs":"X"},"bonus":0.8800000000000011},{"rt":1138.7000000476837,"stimulus":"bees-with-color/bee-B2DM.svg","response":1,"trial_type":"image-button-response","trial_index":148,"time_elapsed":664233,"internal_node_id":"0.0-6.0-0.8","subject_id":"60dd80677c883380b252f05c","study_id":"6197b3f67c2b5cd3b6d9596a","session_id":"619be78932b195b0e70c0920","condition":"full-information","relevant_dimensions":["wings","pattern"],"bee_group":{"antennae":"X","wings":"2","pattern":"S","legs":"X"},"bonus":0.8800000000000011},{"rt":5420.399999976158,"stimulus":"bees-with-color/bee-B2DF.svg","response":0,"trial_type":"image-button-response","trial_index":149,"time_elapsed":669654,"internal_node_id":"0.0-6.0-0.9","subject_id":"60dd80677c883380b252f05c","study_id":"6197b3f67c2b5cd3b6d9596a","session_id":"619be78932b195b0e70c0920","condition":"full-information","relevant_dimensions":["wings","pattern"],"bee_group":{"antennae":"X","wings":"2","pattern":"S","legs":"X"},"bonus":0.8800000000000011},{"rt":972.7000000476837,"stimulus":"bees-with-color/bee-A2DF.svg","response":1,"trial_type":"image-button-response","trial_index":150,"time_elapsed":670628,"internal_node_id":"0.0-6.0-0.10","subject_id":"60dd80677c883380b252f05c","study_id":"6197b3f67c2b5cd3b6d9596a","session_id":"619be78932b195b0e70c0920","condition":"full-information","relevant_dimensions":["wings","pattern"],"bee_group":{"antennae":"X","wings":"2","pattern":"S","legs":"X"},"bonus":0.8800000000000011},{"rt":802.7000000476837,"stimulus":"bees-with-color/bee-B1DF.svg","response":0,"trial_type":"image-button-response","trial_index":151,"time_elapsed":671432,"internal_node_id":"0.0-6.0-0.11","subject_id":"60dd80677c883380b252f05c","study_id":"6197b3f67c2b5cd3b6d9596a","session_id":"619be78932b195b0e70c0920","condition":"full-information","relevant_dimensions":["wings","pattern"],"bee_group":{"antennae":"X","wings":"2","pattern":"S","legs":"X"},"bonus":0.8800000000000011},{"rt":2376.5,"stimulus":"bees-with-color/bee-A2SF.svg","response":1,"trial_type":"image-button-response","trial_index":152,"time_elapsed":673810,"internal_node_id":"0.0-6.0-0.12","subject_id":"60dd80677c883380b252f05c","study_id":"6197b3f67c2b5cd3b6d9596a","session_id":"619be78932b195b0e70c0920","condition":"full-information","relevant_dimensions":["wings","pattern"],"bee_group":{"antennae":"X","wings":"2","pattern":"S","legs":"X"},"bonus":0.8800000000000011},{"rt":1301.8999999761581,"stimulus":"bees-with-color/bee-A2SM.svg","response":1,"trial_type":"image-button-response","trial_index":153,"time_elapsed":675114,"internal_node_id":"0.0-6.0-0.13","subject_id":"60dd80677c883380b252f05c","study_id":"6197b3f67c2b5cd3b6d9596a","session_id":"619be78932b195b0e70c0920","condition":"full-information","relevant_dimensions":["wings","pattern"],"bee_group":{"antennae":"X","wings":"2","pattern":"S","legs":"X"},"bonus":0.8800000000000011},{"rt":1221.8999999761581,"stimulus":"bees-with-color/bee-A1SM.svg","response":0,"trial_type":"image-button-response","trial_index":154,"time_elapsed":676338,"internal_node_id":"0.0-6.0-0.14","subject_id":"60dd80677c883380b252f05c","study_id":"6197b3f67c2b5cd3b6d9596a","session_id":"619be78932b195b0e70c0920","condition":"full-information","relevant_dimensions":["wings","pattern"],"bee_group":{"antennae":"X","wings":"2","pattern":"S","legs":"X"},"bonus":0.8800000000000011},{"rt":622.6000000238419,"stimulus":"bees-with-color/bee-A1DF.svg","response":