[{"success":true,"trial_type":"fullscreen","trial_index":0,"time_elapsed":5232,"internal_node_id":"0.0-0.0","subject_id":"602f33eb166df7c14953e825","study_id":"6197b3f67c2b5cd3b6d9596a","session_id":"619be31dbc53d924303684a1","condition":"contingent","relevant_dimensions":["antennae","wings"],"bee_group":{"antennae":"A","wings":"2","pattern":"X","legs":"X"},"bonus":0.25999999999999995},{"success":true,"timeout":false,"failed_images":[],"failed_audio":[],"failed_video":[],"trial_type":"preload","trial_index":1,"time_elapsed":6672,"internal_node_id":"0.0-1.0","subject_id":"602f33eb166df7c14953e825","study_id":"6197b3f67c2b5cd3b6d9596a","session_id":"619be31dbc53d924303684a1","condition":"contingent","relevant_dimensions":["antennae","wings"],"bee_group":{"antennae":"A","wings":"2","pattern":"X","legs":"X"},"bonus":0.25999999999999995},{"rt":5893.799999952316,"stimulus":"Welcome! Press any key to begin.","response":"arrowdown","trial_type":"html-keyboard-response","trial_index":2,"time_elapsed":12567,"internal_node_id":"0.0-2.0","subject_id":"602f33eb166df7c14953e825","study_id":"6197b3f67c2b5cd3b6d9596a","session_id":"619be31dbc53d924303684a1","condition":"contingent","relevant_dimensions":["antennae","wings"],"bee_group":{"antennae":"A","wings":"2","pattern":"X","legs":"X"},"bonus":0.25999999999999995},{"view_history":[{"page_index":0,"viewing_time":2801.7000000476837},{"page_index":1,"viewing_time":7832.899999976158},{"page_index":2,"viewing_time":9555.899999976158},{"page_index":3,"viewing_time":9390.200000047684},{"page_index":4,"viewing_time":3822.5},{"page_index":5,"viewing_time":8609.199999928474},{"page_index":6,"viewing_time":6832.300000071526},{"page_index":7,"viewing_time":8022},{"page_index":8,"viewing_time":2097.899999976158},{"page_index":9,"viewing_time":2456.7999999523163},{"page_index":10,"viewing_time":1870.1000000238419},{"page_index":11,"viewing_time":6250.100000023842},{"page_index":12,"viewing_time":7760.100000023842},{"page_index":13,"viewing_time":1068.6999999284744},{"page_index":14,"viewing_time":2579.5}],"rt":80950.10000002384,"trial_type":"instructions","trial_index":3,"time_elapsed":93517,"internal_node_id":"0.0-3.0-0.0","subject_id":"602f33eb166df7c14953e825","study_id":"6197b3f67c2b5cd3b6d9596a","session_id":"619be31dbc53d924303684a1","condition":"contingent","relevant_dimensions":["antennae","wings"],"bee_group":{"antennae":"A","wings":"2","pattern":"X","legs":"X"},"bonus":0.25999999999999995},{"rt":15827.100000023842,"response":{"Q0":["Two or six legs","Stripes or spots on body","Single or double wings","Antennae or no antennae"]},"question_order":[0],"trial_type":"survey-multi-select","trial_index":4,"time_elapsed":109348,"internal_node_id":"0.0-3.0-1.0","subject_id":"602f33eb166df7c14953e825","study_id":"6197b3f67c2b5cd3b6d9596a","session_id":"619be31dbc53d924303684a1","condition":"contingent","relevant_dimensions":["antennae","wings"],"bee_group":{"antennae":"A","wings":"2","pattern":"X","legs":"X"},"correct":true,"bonus":0.25999999999999995},{"rt":14372.800000071526,"response":{"Q1":"No.","Q2":"Based on the four features of the bee.","Q3":"You do not learn if it was friendly or dangerous, and do not alter your bonus."},"question_order":[0,1,2],"trial_type":"survey-multi-choice","trial_index":5,"time_elapsed":123725,"internal_node_id":"0.0-3.0-2.0","subject_id":"602f33eb166df7c14953e825","study_id":"6197b3f67c2b5cd3b6d9596a","session_id":"619be31dbc53d924303684a1","condition":"contingent","relevant_dimensions":["antennae","wings"],"bee_group":{"antennae":"A","wings":"2","pattern":"X","legs":"X"},"correct":true,"bonus":0.25999999999999995},{"rt":2149.7999999523163,"stimulus":"<p>Congrats, you got everything right<br>When you're ready, click the button below to continue to the experiment.</p>","response":0,"trial_type":"html-button-response","trial_index":6,"time_elapsed":125878,"internal_node_id":"0.0-3.0-3.0","subject_id":"602f33eb166df7c14953e825","study_id":"6197b3f67c2b5cd3b6d9596a","session_id":"619be31dbc53d924303684a1","condition":"contingent","relevant_dimensions":["antennae","wings"],"bee_group":{"antennae":"A","wings":"2","pattern":"X","legs":"X"},"bonus":0.25999999999999995},{"rt":6450.299999952316,"stimulus":"bees-with-color/bee-A1SM.svg","response":0,"trial_type":"image-button-response","trial_index":7,"time_elapsed":132330,"internal_node_id":"0.0-4.0-0.0","subject_id":"602f33eb166df7c14953e825","study_id":"6197b3f67c2b5cd3b6d9596a","session_id":"619be31dbc53d924303684a1","condition":"contingent","relevant_dimensions":["antennae","wings"],"bee_group":{"antennae":"A","wings":"2","pattern":"X","legs":"X"},"action":"harvest","summary":"good-harvest","bonus":0.25999999999999995},{"rt":6695.200000047684,"stimulus":"\n                    <p><b>Action: <em>harvest</em></b></p>\n                    <p>This is the bee that you just saw.</p>\n                    <img src=\"bees-with-color/bee-A1SM.svg\" width=\"200\">\n                    <p><span class=\"greenText\"><b>Successful harvest!</b></span><br>Your pay has increased by $0.02. Your bonus pay is now $0.56.</p>\n            ","response":0,"trial_type":"html-button-response","trial_index":8,"time_elapsed":139026,"internal_node_id":"0.0-4.0-1.0","subject_id":"602f33eb166df7c14953e825","study_id":"6197b3f67c2b5cd3b6d9596a","session_id":"619be31dbc53d924303684a1","condition":"contingent","relevant_dimensions":["antennae","wings"],"bee_group":{"antennae":"A","wings":"2","pattern":"X","legs":"X"},"bonus":0.25999999999999995},{"rt":3164.399999976158,"stimulus":"bees-with-color/bee-B2DM.svg","response":0,"trial_type":"image-button-response","trial_index":9,"time_elapsed":142194,"internal_node_id":"0.0-4.0-0.1","subject_id":"602f33eb166df7c14953e825","study_id":"6197b3f67c2b5cd3b6d9596a","session_id":"619be31dbc53d924303684a1","condition":"contingent","relevant_dimensions":["antennae","wings"],"bee_group":{"antennae":"A","wings":"2","pattern":"X","legs":"X"},"action":"harvest","summary":"good-harvest","bonus":0.25999999999999995},{"rt":2370.600000023842,"stimulus":"\n                    <p><b>Action: <em>harvest</em></b></p>\n                    <p>This is the bee that you just saw.</p>\n                    <img src=\"bees-with-color/bee-B2DM.svg\" width=\"200\">\n                    <p><span class=\"greenText\"><b>Successful harvest!</b></span><br>Your pay has increased by $0.02. Your bonus pay is now $0.58.</p>\n            ","response":0,"trial_type":"html-button-response","trial_index":10,"time_elapsed":144566,"internal_node_id":"0.0-4.0-1.1","subject_id":"602f33eb166df7c14953e825","study_id":"6197b3f67c2b5cd3b6d9596a","session_id":"619be31dbc53d924303684a1","condition":"contingent","relevant_dimensions":["antennae","wings"],"bee_group":{"antennae":"A","wings":"2","pattern":"X","legs":"X"},"bonus":0.25999999999999995},{"rt":1922.5,"stimulus":"bees-with-color/bee-B1SF.svg","response":0,"trial_type":"image-button-response","trial_index":11,"time_elapsed":146491,"internal_node_id":"0.0-4.0-0.2","subject_id":"602f33eb166df7c14953e825","study_id":"6197b3f67c2b5cd3b6d9596a","session_id":"619be31dbc53d924303684a1","condition":"contingent","relevant_dimensions":["antennae","wings"],"bee_group":{"antennae":"A","wings":"2","pattern":"X","legs":"X"},"action":"harvest","summary":"good-harvest","bonus":0.25999999999999995},{"rt":2243.2999999523163,"stimulus":"\n                    <p><b>Action: <em>harvest</em></b></p>\n                    <p>This is the bee that you just saw.</p>\n                    <img src=\"bees-with-color/bee-B1SF.svg\" width=\"200\">\n                    <p><span class=\"greenText\"><b>Successful harvest!</b></span><br>Your pay has increased by $0.02. Your bonus pay is now $0.60.</p>\n            ","response":0,"trial_type":"html-button-response","trial_index":12,"time_elapsed":148735,"internal_node_id":"0.0-4.0-1.2","subject_id":"602f33eb166df7c14953e825","study_id":"6197b3f67c2b5cd3b6d9596a","session_id":"619be31dbc53d924303684a1","condition":"contingent","relevant_dimensions":["antennae","wings"],"bee_group":{"antennae":"A","wings":"2","pattern":"X","legs":"X"},"bonus":0.25999999999999995},{"rt":1469.5,"stimulus":"bees-with-color/bee-A1DF.svg","response":0,"trial_type":"image-button-response","trial_index":13,"time_elapsed":150207,"internal_node_id":"0.0-4.0-0.3","subject_id":"602f33eb166df7c14953e825","study_id":"6197b3f67c2b5cd3b6d9596a","session_id":"619be31dbc53d924303684a1","condition":"contingent","relevant_dimensions":["antennae","wings"],"bee_group":{"antennae":"A","wings":"2","pattern":"X","legs":"X"},"action":"harvest","summary":"good-harvest","bonus":0.25999999999999995},{"rt":1798.1999999284744,"stimulus":"\n                    <p><b>Action: <em>harvest</em></b></p>\n                    <p>This is the bee that you just saw.</p>\n                    <img src=\"bees-with-color/bee-A1DF.svg\" width=\"200\">\n                    <p><span class=\"greenText\"><b>Successful harvest!</b></span><br>Your pay has increased by $0.02. Your bonus pay is now $0.62.</p>\n            ","response":0,"trial_type":"html-button-response","trial_index":14,"time_elapsed":152006,"internal_node_id":"0.0-4.0-1.3","subject_id":"602f33eb166df7c14953e825","study_id":"6197b3f67c2b5cd3b6d9596a","session_id":"619be31dbc53d924303684a1","condition":"contingent","relevant_dimensions":["antennae","wings"],"bee_group":{"antennae":"A","wings":"2","pattern":"X","legs":"X"},"bonus":0.25999999999999995},{"rt":851.2999999523163,"stimulus":"bees-with-color/bee-A2DF.svg","response":0,"trial_type":"image-button-response","trial_index":15,"time_elapsed":152859,"internal_node_id":"0.0-4.0-0.4","subject_id":"602f33eb166df7c14953e825","study_id":"6197b3f67c2b5cd3b6d9596a","session_id":"619be31dbc53d924303684a1","condition":"contingent","relevant_dimensions":["antennae","wings"],"bee_group":{"antennae":"A","wings":"2","pattern":"X","legs":"X"},"action":"harvest","summary":"bad-harvest","bonus":0.25999999999999995},{"rt":3565.899999976158,"stimulus":"\n                    <p><b>Action: <em>harvest</em></b></p>\n                    <p>This is the bee that you just saw.</p>\n                    <img src=\"bees-with-color/bee-A2DF.svg\" width=\"200\">\n                    <p><span class=\"redText\">Bad choice, the bee was angry.</span><br><b>You have been stung!</b><br>Your pay has been decreased by $0.10. Your bonus pay is now $0.52.</p>\n            ","response":0,"trial_type":"html-button-response","trial_index":16,"time_elapsed":156427,"internal_node_id":"0.0-4.0-1.4","subject_id":"602f33eb166df7c14953e825","study_id":"6197b3f67c2b5cd3b6d9596a","session_id":"619be31dbc53d924303684a1","condition":"contingent","relevant_dimensions":["antennae","wings"],"bee_group":{"antennae":"A","wings":"2","pattern":"X","legs":"X"},"bonus":0.25999999999999995},{"rt":2999.399999976158,"stimulus":"bees-with-color/bee-A2DM.svg","response":0,"trial_type":"image-button-response","trial_index":17,"time_elapsed":159427,"internal_node_id":"0.0-4.0-0.5","subject_id":"602f33eb166df7c14953e825","study_id":"6197b3f67c2b5cd3b6d9596a","session_id":"619be31dbc53d924303684a1","condition":"contingent","relevant_dimensions":["antennae","wings"],"bee_group":{"antennae":"A","wings":"2","pattern":"X","legs":"X"},"action":"harvest","summary":"bad-harvest","bonus":0.25999999999999995},{"rt":1562.7000000476837,"stimulus":"\n                    <p><b>Action: <em>harvest</em></b></p>\n                    <p>This is the bee that you just saw.</p>\n                    <img src=\"bees-with-color/bee-A2DM.svg\" width=\"200\">\n                    <p><span class=\"redText\">Bad choice, the bee was angry.</span><br><b>You have been stung!</b><br>Your pay has been decreased by $0.10. Your bonus pay is now $0.42.</p>\n            ","response":0,"trial_type":"html-button-response","trial_index":18,"time_elapsed":160991,"internal_node_id":"0.0-4.0-1.5","subject_id":"602f33eb166df7c14953e825","study_id":"6197b3f67c2b5cd3b6d9596a","session_id":"619be31dbc53d924303684a1","condition":"contingent","relevant_dimensions":["antennae","wings"],"bee_group":{"antennae":"A","wings":"2","pattern":"X","legs":"X"},"bonus":0.25999999999999995},{"rt":860.2000000476837,"stimulus":"bees-with-color/bee-B1DM.svg","response":0,"trial_type":"image-button-response","trial_index":19,"time_elapsed":161853,"internal_node_id":"0.0-4.0-0.6","subject_id":"602f33eb166df7c14953e825","study_id":"6197b3f67c2b5cd3b6d9596a","session_id":"619be31dbc53d924303684a1","condition":"contingent","relevant_dimensions":["antennae","wings"],"bee_group":{"antennae":"A","wings":"2","pattern":"X","legs":"X"},"action":"harvest","summary":"good-harvest","bonus":0.25999999999999995},{"rt":665.6000000238419,"stimulus":"\n                    <p><b>Action: <em>harvest</em></b></p>\n                    <p>This is the bee that you just saw.</p>\n                    <img src=\"bees-with-color/bee-B1DM.svg\" width=\"200\">\n                    <p><span class=\"greenText\"><b>Successful harvest!</b></span><br>Your pay has increased by $0.02. Your bonus pay is now $0.44.</p>\n            ","response":0,"trial_type":"html-button-response","trial_index":20,"time_elapsed":162519,"internal_node_id":"0.0-4.0-1.6","subject_id":"602f33eb166df7c14953e825","study_id":"6197b3f67c2b5cd3b6d9596a","session_id":"619be31dbc53d924303684a1","condition":"contingent","relevant_dimensions":["antennae","wings"],"bee_group":{"antennae":"A","wings":"2","pattern":"X","legs":"X"},"bonus":0.25999999999999995},{"rt":3327.5,"stimulus":"bees-with-color/bee-B2SF.svg","response":1,"trial_type":"image-button-response","trial_index":21,"time_elapsed":165848,"internal_node_id":"0.0-4.0-0.7","subject_id":"602f33eb166df7c14953e825","study_id":"6197b3f67c2b5cd3b6d9596a","session_id":"619be31dbc53d924303684a1","condition":"contingent","relevant_dimensions":["antennae","wings"],"bee_group":{"antennae":"A","wings":"2","pattern":"X","legs":"X"},"action":"avoid","summary":"bad-avoid","bonus":0.25999999999999995},{"rt":9876.100000023842,"stimulus":"\n                    <p><b>Action: <em>avoid</em></b></p>\n                    <p>This is the bee that you just saw.</p>\n                    <img src=\"bees-with-color/bee-B2SF.svg\" width=\"200\">\n                    <p><br>Your bonus pay is unchanged, and remains at $0.44.</p>\n            ","response":0,"trial_type":"html-button-response","trial_index":22,"time_elapsed":175725,"internal_node_id":"0.0-4.0-1.7","subject_id":"602f33eb166df7c14953e825","study_id":"6197b3f67c2b5cd3b6d9596a","session_id":"619be31dbc53d924303684a1","condition":"contingent","relevant_dimensions":["antennae","wings"],"bee_group":{"antennae":"A","wings":"2","pattern":"X","legs":"X"},"bonus":0.25999999999999995},{"rt":2084.7000000476837,"stimulus":"bees-with-color/bee-A2SM.svg","response":0,"trial_type":"image-button-response","trial_index":23,"time_elapsed":177812,"internal_node_id":"0.0-4.0-0.8","subject_id":"602f33eb166df7c14953e825","study_id":"6197b3f67c2b5cd3b6d9596a","session_id":"619be31dbc53d924303684a1","condition":"contingent","relevant_dimensions":["antennae","wings"],"bee_group":{"antennae":"A","wings":"2","pattern":"X","legs":"X"},"action":"harvest","summary":"bad-harvest","bonus":0.25999999999999995},{"rt":1254.2999999523163,"stimulus":"\n                    <p><b>Action: <em>harvest</em></b></p>\n                    <p>This is the bee that you just saw.</p>\n                    <img src=\"bees-with-color/bee-A2SM.svg\" width=\"200\">\n                    <p><span class=\"redText\">Bad choice, the bee was angry.</span><br><b>You have been stung!</b><br>Your pay has been decreased by $0.10. Your bonus pay is now $0.34.</p>\n            ","response":0,"trial_type":"html-button-response","trial_index":24,"time_elapsed":179067,"internal_node_id":"0.0-4.0-1.8","subject_id":"602f33eb166df7c14953e825","study_id":"6197b3f67c2b5cd3b6d9596a","session_id":"619be31dbc53d924303684a1","condition":"contingent","relevant_dimensions":["antennae","wings"],"bee_group":{"antennae":"A","wings":"2","pattern":"X","legs":"X"},"bonus":0.25999999999999995},{"rt":832.5,"stimulus":"bees-with-color/bee-B2SM.svg","response":0,"trial_type":"image-button-response","trial_index":25,"time_elapsed":179901,"internal_node_id":"0.0-4.0-0.9","subject_id":"602f33eb166df7c14953e825","study_id":"6197b3f67c2b5cd3b6d9596a","session_id":"619be31dbc53d924303684a1","condition":"contingent","relevant_dimensions":["antennae","wings"],"bee_group":{"antennae":"A","wings":"2","pattern":"X","legs":"X"},"action":"harvest","summary":"good-harvest","bonus":0.25999999999999995},{"rt":1172.5,"stimulus":"\n                    <p><b>Action: <em>harvest</em></b></p>\n                    <p>This is the bee that you just saw.</p>\n                    <img src=\"bees-with-color/bee-B2SM.svg\" width=\"200\">\n                    <p><span class=\"greenText\"><b>Successful harvest!</b></span><br>Your pay has increased by $0.02. Your bonus pay is now $0.36.</p>\n            ","response":0,"trial_type":"html-button-response","trial_index":26,"time_elapsed":181074,"internal_node_id":"0.0-4.0-1.9","subject_id":"602f33eb166df7c14953e825","study_id":"6197b3f67c2b5cd3b6d9596a","session_id":"619be31dbc53d924303684a1","condition":"contingent","relevant_dimensions":["antennae","wings"],"bee_group":{"antennae":"A","wings":"2","pattern":"X","legs":"X"},"bonus":0.25999999999999995},{"rt":2425.100000023842,"stimulus":"bees-with-color/bee-A2SF.svg","response":0,"trial_type":"image-button-response","trial_index":27,"time_elapsed":183501,"internal_node_id":"0.0-4.0-0.10","subject_id":"602f33eb166df7c14953e825","study_id":"6197b3f67c2b5cd3b6d9596a","session_id":"619be31dbc53d924303684a1","condition":"contingent","relevant_dimensions":["antennae","wings"],"bee_group":{"antennae":"A","wings":"2","pattern":"X","legs":"X"},"action":"harvest","summary":"bad-harvest","bonus":0.25999999999999995},{"rt":898.8000000715256,"stimulus":"\n                    <p><b>Action: <em>harvest</em></b></p>\n                    <p>This is the bee that you just saw.</p>\n                    <img src=\"bees-with-color/bee-A2SF.svg\" width=\"200\">\n                    <p><span class=\"redText\">Bad choice, the bee was angry.</span><br><b>You have been stung!</b><br>Your pay has been decreased by $0.10. Your bonus pay is now $0.26.</p>\n            ","response":0,"trial_type":"html-button-response","trial_index":28,"time_elapsed":184401,"internal_node_id":"0.0-4.0-1.10","subject_id":"602f33eb166df7c14953e825","study_id":"6197b3f67c2b5cd3b6d9596a","session_id":"619be31dbc53d924303684a1","condition":"contingent","relevant_dimensions":["antennae","wings"],"bee_group":{"antennae":"A","wings":"2","pattern":"X","legs":"X"},"bonus":0.25999999999999995},{"rt":459.2999999523163,"stimulus":"bees-with-color/bee-B1DF.svg","response":0,"trial_type":"image-button-response","trial_index":29,"time_elapsed":184862,"internal_node_id":"0.0-4.0-0.11","subject_id":"602f33eb166df7c14953e825","study_id":"6197b3f67c2b5cd3b6d9596a","session_id":"619be31dbc53d924303684a1","condition":"contingent","relevant_dimensions":["antennae","wings"],"bee_group":{"antennae":"A","wings":"2","pattern":"X","legs":"X"},"action":"harvest","summary":"good-harvest","bonus":0.25999999999999995},{"rt":482.5,"stimulus":"\n                    <p><b>Action: <em>harvest</em></b></p>\n                    <p>This is the bee that you just saw.</p>\n                    <img src=\"bees-with-color/bee-B1DF.svg\" width=\"200\">\n                    <p><span class=\"greenText\"><b>Successful harvest!</b></span><br>Your pay has increased by $0.02. Your bonus pay is now $0.28.</p>\n            ","response":0,"trial_type":"html-button-response","trial_index":30,"time_elapsed":185346,"internal_node_id":"0.0-4.0-1.11","subject_id":"602f33eb166df7c14953e825","study_id":"6197b3f67c2b5cd3b6d9596a","session_id":"619be31dbc53d924303684a1","condition":"contingent","relevant_dimensions":["antennae","wings"],"bee_group":{"antennae":"A","wings":"2","pattern":"X","legs":"X"},"bonus":0.25999999999999995},{"rt":354.5,"stimulus":"bees-with-color/bee-B1SM.svg","response":0,"trial_type":"image-button-response","trial_index":31,"time_elapsed":185701,"internal_node_id":"0.0-4.0-0.12","subject_id":"602f33eb166df7c14953e825","study_id":"6197b3f67c2b5cd3b6d9596a","session_id":"619be31dbc53d924303684a1","condition":"contingent","relevant_dimensions":["antennae","wings"],"bee_group":{"antennae":"A","wings":"2","pattern":"X","legs":"X"},"action":"harvest","summary":"good-harvest","bonus":0.25999999999999995},{"rt":492.39999997615814,"stimulus":"\n                    <p><b>Action: <em>harvest</em></b></p>\n                    <p>This is the bee that you just saw.</p>\n                    <img src=\"bees-with-color/bee-B1SM.svg\" width=\"200\">\n                    <p><span class=\"greenText\"><b>Successful harvest!</b></span><br>Your pay has increased by $0.02. Your bonus pay is now $0.30.</p>\n            ","response":0,"trial_type":"html-button-response","trial_index":32,"time_elapsed":186196,"internal_node_id":"0.0-4.0-1.12","subject_id":"602f33eb166df7c14953e825","study_id":"6197b3f67c2b5cd3b6d9596a","session_id":"619be31dbc53d924303684a1","condition":"contingent","relevant_dimensions":["antennae","wings"],"bee_group":{"antennae":"A","wings":"2","pattern":"X","legs":"X"},"bonus":0.25999999999999995},{"rt":1281.3999999761581,"stimulus":"bees-with-color/bee-B2DF.svg","response":1,"trial_type":"image-button-response","trial_index":33,"time_elapsed":187478,"internal_node_id":"0.0-4.0-0.13","subject_id":"602f33eb166df7c14953e825","study_id":"6197b3f67c2b5cd3b6d9596a","session_id":"619be31dbc53d924303684a1","condition":"contingent","relevant_dimensions":["antennae","wings"],"bee_group":{"antennae":"A","wings":"2","pattern":"X","legs":"X"},"action":"avoid","summary":"bad-avoid","bonus":0.25999999999999995},{"rt":492.2999999523163,"stimulus":"\n                    <p><b>Action: <em>avoid</em></b></p>\n                    <p>This is the bee that you just saw.</p>\n                    <img src=\"bees-with-color/bee-B2DF.svg\" width=\"200\">\n                    <p><br>Your bonus pay is unchanged, and remains at $0.30.</p>\n            ","response":0,"trial_type":"html-button-response","trial_index":34,"time_elapsed":187971,"internal_node_id":"0.0-4.0-1.13","subject_id":"602f33eb166df7c14953e825","study_id":"6197b3f67c2b5cd3b6d9596a","session_id":"619be31dbc53d924303684a1","condition":"contingent","relevant_dimensions":["antennae","wings"],"bee_group":{"antennae":"A","wings":"2","pattern":"X","legs":"X"},"bonus":0.25999999999999995},{"rt":494.09999990463257,"stimulus":"bees-with-color/bee-A1SF.svg","response":0,"trial_type":"image-button-response","trial_index":35,"time_elapsed":188466,"internal_node_id":"0.0-4.0-0.14","subject_id":"602f33eb166df7c14953e825","study_id":"6197b3f67c2b5cd3b6d9596a","session_id":"619be31dbc53d924303684a1","condition":"contingent","relevant_dimensions":["antennae","wings"],"bee_group":{"antennae":"A","wings":"2","pattern":"X","legs":"X"},"action":"harvest","summary":"good-harvest","bonus":0.25999999999999995},{"rt":464,"stimulus":"\n                    <p><b>Action: <em>harvest</em></b></p>\n                    <p>This is the bee that you just saw.</p>\n                    <img src=\"bees-with-color/bee-A1SF.svg\" width=\"200\">\n                    <p><span class=\"greenText\"><b>Successful harvest!</b></span><br>Your pay has increased by $0.02. Your bonus pay is now $0.32.</p>\n            ","response":0,"trial_type":"html-button-response","trial_index":36,"time_elapsed":188932,"internal_node_id":"0.0-4.0-1.14","subject_id":"602f33eb166df7c14953e825","study_id":"6197b3f67c2b5cd3b6d9596a","session_id":"619be31dbc53d924303684a1","condition":"contingent","relevant_dimensions":["antennae","wings"],"bee_group":{"antennae":"A","wings":"2","pattern":"X","legs":"X"},"bonus":0.25999999999999995},{"rt":7751.100000023842,"stimulus":"bees-with-color/bee-A1DM.svg","response":0,"trial_type":"image-button-response","trial_index":37,"time_elapsed":196684,"internal_node_id":"0.0-4.0-0.15","subject_id":"602f33eb166df7c14953e825","study_id":"6197b3f67c2b5cd3b6d9596a","session_id":"619be31dbc53d924303684a1","condition":"contingent","relevant_dimensions":["antennae","wings"],"bee_group":{"antennae":"A","wings":"2","pattern":"X","legs":"X"},"action":"harvest","summary":"good-harvest","bonus":0.25999999999999995},{"rt":855.6999999284744,"stimulus":"\n                    <p><b>Action: <em>harvest</em></b></p>\n                    <p>This is the bee that you just saw.</p>\n                    <img src=\"bees-with-color/bee-A1DM.svg\" width=\"200\">\n                    <p><span class=\"greenText\"><b>Successful harvest!</b></span><br>Your pay has increased by $0.02. Your bonus pay is now $0.34.</p>\n            ","response":0,"trial_type":"html-button-response","trial_index":38,"time_elapsed":197541,"internal_node_id":"0.0-4.0-1.15","subject_id":"602f33eb166df7c14953e825","study_id":"6197b3f67c2b5cd3b6d9596a","session_id":"619be31dbc53d924303684a1","condition":"contingent","relevant_dimensions":["antennae","wings"],"bee_group":{"antennae":"A","wings":"2","pattern":"X","legs":"X"},"bonus":0.25999999999999995},{"rt":7717.799999952316,"stimulus":"bees-with-color/bee-B1SM.svg","response":0,"trial_type":"image-button-response","trial_index":39,"time_elapsed":205260,"internal_node_id":"0.0-4.0-0.16","subject_id":"602f33eb166df7c14953e825","study_id":"6197b3f67c2b5cd3b6d9596a","session_id":"619be31dbc53d924303684a1","condition":"contingent","relevant_dimensions":["antennae","wings"],"bee_group":{"antennae":"A","wings":"2","pattern":"X","legs":"X"},"action":"harvest","summary":"good-harvest","bonus":0.25999999999999995},{"rt":1227.2999999523163,"stimulus":"\n                    <p><b>Action: <em>harvest</em></b></p>\n                    <p>This is the bee that you just saw.</p>\n                    <img src=\"bees-with-color/bee-B1SM.svg\" width=\"200\">\n                    <p><span class=\"greenText\"><b>Successful harvest!</b></span><br>Your pay has increased by $0.02. Your bonus pay is now $0.36.</p>\n            ","response":0,"trial_type":"html-button-response","trial_index":40,"time_elapsed":206489,"internal_node_id":"0.0-4.0-1.16","subject_id":"602f33eb166df7c14953e825","study_id":"6197b3f67c2b5cd3b6d9596a","session_id":"619be31dbc53d924303684a1","condition":"contingent","relevant_dimensions":["antennae","wings"],"bee_group":{"antennae":"A","wings":"2","pattern":"X","legs":"X"},"bonus":0.25999999999999995},{"rt":2152.399999976158,"stimulus":"bees-with-color/bee-B1DF.svg","response":0,"trial_type":"image-button-response","trial_index":41,"time_elapsed":208643,"internal_node_id":"0.0-4.0-0.17","subject_id":"602f33eb166df7c14953e825","study_id":"6197b3f67c2b5cd3b6d9596a","session_id":"619be31dbc53d924303684a1","condition":"contingent","relevant_dimensions":["antennae","wings"],"bee_group":{"antennae":"A","wings":"2","pattern":"X","legs":"X"},"action":"harvest","summary":"good-harvest","bonus":0.25999999999999995},{"rt":602.9000000953674,"stimulus":"\n                    <p><b>Action: <em>harvest</em></b></p>\n                    <p>This is the bee that you just saw.</p>\n                    <img src=\"bees-with-color/bee-B1DF.svg\" width=\"200\">\n                    <p><span class=\"greenText\"><b>Successful harvest!</b></span><br>Your pay has increased by $0.02. Your bonus pay is now $0.38.</p>\n            ","response":0,"trial_type":"html-button-response","trial_index":42,"time_elapsed":209247,"internal_node_id":"0.0-4.0-1.17","subject_id":"602f33eb166df7c14953e825","study_id":"6197b3f67c2b5cd3b6d9596a","session_id":"619be31dbc53d924303684a1","condition":"contingent","relevant_dimensions":["antennae","wings"],"bee_group":{"antennae":"A","wings":"2","pattern":"X","legs":"X"},"bonus":0.25999999999999995},{"rt":1711.1000000238419,"stimulus":"bees-with-color/bee-B2DF.svg","response":1,"trial_type":"image-button-response","trial_index":43,"time_elapsed":210959,"internal_node_id":"0.0-4.0-0.18","subject_id":"602f33eb166df7c14953e825","study_id":"6197b3f67c2b5cd3b6d9596a","session_id":"619be31dbc53d924303684a1","condition":"contingent","relevant_dimensions":["antennae","wings"],"bee_group":{"antennae":"A","wings":"2","pattern":"X","legs":"X"},"action":"avoid","summary":"bad-avoid","bonus":0.25999999999999995},{"rt":627.5,"stimulus":"\n                    <p><b>Action: <em>avoid</em></b></p>\n                    <p>This is the bee that you just saw.</p>\n                    <img src=\"bees-with-color/bee-B2DF.svg\" width=\"200\">\n                    <p><br>Your bonus pay is unchanged, and remains at $0.38.</p>\n            ","response":0,"trial_type":"html-button-response","trial_index":44,"time_elapsed":211588,"internal_node_id":"0.0-4.0-1.18","subject_id":"602f33eb166df7c14953e825","study_id":"6197b3f67c2b5cd3b6d9596a","session_id":"619be31dbc53d924303684a1","condition":"contingent","relevant_dimensions":["antennae","wings"],"bee_group":{"antennae":"A","wings":"2","pattern":"X","legs":"X"},"bonus":0.25999999999999995},{"rt":1367.1000000238419,"stimulus":"bees-with-color/bee-A1SM.svg","response":0,"trial_type":"image-button-response","trial_index":45,"time_elapsed":212955,"internal_node_id":"0.0-4.0-0.19","subject_id":"602f33eb166df7c14953e825","study_id":"6197b3f67c2b5cd3b6d9596a","session_id":"619be31dbc53d924303684a1","condition":"contingent","relevant_dimensions":["antennae","wings"],"bee_group":{"antennae":"A","wings":"2","pattern":"X","legs":"X"},"action":"harvest","summary":"good-harvest","bonus":0.25999999999999995},{"rt":511.7000000476837,"stimulus":"\n                    <p><b>Action: <em>harvest</em></b></p>\n                    <p>This is the bee that you just saw.</p>\n                    <img src=\"bees-with-color/bee-A1SM.svg\" width=\"200\">\n                    <p><span class=\"greenText\"><b>Successful harvest!</b></span><br>Your pay has increased by $0.02. Your bonus pay is now $0.40.</p>\n            ","response":0,"trial_type":"html-button-response","trial_index":46,"time_elapsed":213468,"internal_node_id":"0.0-4.0-1.19","subject_id":"602f33eb166df7c14953e825","study_id":"6197b3f67c2b5cd3b6d9596a","session_id":"619be31dbc53d924303684a1","condition":"contingent","relevant_dimensions":["antennae","wings"],"bee_group":{"antennae":"A","wings":"2","pattern":"X","legs":"X"},"bonus":0.25999999999999995},{"rt":800.1000000238419,"stimulus":"bees-with-color/bee-B1SF.svg","response":0,"trial_type":"image-button-response","trial_index":47,"time_elapsed":214270,"internal_node_id":"0.0-4.0-0.20","subject_id":"602f33eb166df7c14953e825","study_id":"6197b3f67c2b5cd3b6d9596a","session_id":"619be31dbc53d924303684a1","condition":"contingent","relevant_dimensions":["antennae","wings"],"bee_group":{"antennae":"A","wings":"2","pattern":"X","legs":"X"},"action":"harvest","summary":"good-harvest","bonus":0.25999999999999995},{"rt":430.1999999284744,"stimulus":"\n                    <p><b>Action: <em>harvest</em></b></p>\n                    <p>This is the bee that you just saw.</p>\n                    <img src=\"bees-with-color/bee-B1SF.svg\" width=\"200\">\n                    <p><span class=\"greenText\"><b>Successful harvest!</b></span><br>Your pay has increased by $0.02. Your bonus pay is now $0.42.</p>\n            ","response":0,"trial_type":"html-button-response","trial_index":48,"time_elapsed":214701,"internal_node_id":"0.0-4.0-1.20","subject_id":"602f33eb166df7c14953e825","study_id":"6197b3f67c2b5cd3b6d9596a","session_id":"619be31dbc53d924303684a1","condition":"contingent","relevant_dimensions":["antennae","wings"],"bee_group":{"antennae":"A","wings":"2","pattern":"X","legs":"X"},"bonus":0.25999999999999995},{"rt":844,"stimulus":"bees-with-color/bee-A2DF.svg","response":1,"trial_type":"image-button-response","trial_index":49,"time_elapsed":215546,"internal_node_id":"0.0-4.0-0.21","subject_id":"602f33eb166df7c14953e825","study_id":"6197b3f67c2b5cd3b6d9596a","session_id":"619be31dbc53d924303684a1","condition":"contingent","relevant_dimensions":["antennae","wings"],"bee_group":{"antennae":"A","wings":"2","pattern":"X","legs":"X"},"action":"avoid","summary":"good-avoid","bonus":0.25999999999999995},{"rt":449,"stimulus":"\n                    <p><b>Action: <em>avoid</em></b></p>\n                    <p>This is the bee that you just saw.</p>\n                    <img src=\"bees-with-color/bee-A2DF.svg\" width=\"200\">\n                    <p><br>Your bonus pay is unchanged, and remains at $0.42.</p>\n            ","response":0,"trial_type":"html-button-response","trial_index":50,"time_elapsed":215996,"internal_node_id":"0.0-4.0-1.21","subject_id":"602f33eb166df7c14953e825","study_id":"6197b3f67c2b5cd3b6d9596a","session_id":"619be31dbc53d924303684a1","condition":"contingent","relevant_dimensions":["antennae","wings"],"bee_group":{"antennae":"A","wings":"2","pattern":"X","legs":"X"},"bonus":0.25999999999999995},{"rt":6645.899999976158,"stimulus":"bees-with-color/bee-A2SM.svg","response":0,"trial_type":"image-button-response","trial_index":51,"time_elapsed":222643,"internal_node_id":"0.0-4.0-0.22","subject_id":"602f33eb166df7c14953e825","study_id":"6197b3f67c2b5cd3b6d9596a","session_id":"619be31dbc53d924303684a1","condition":"contingent","relevant_dimensions":["antennae","wings"],"bee_group":{"antennae":"A","wings":"2","pattern":"X","legs":"X"},"action":"harvest","summary":"bad-harvest","bonus":0.25999999999999995},{"rt":853.7000000476837,"stimulus":"\n                    <p><b>Action: <em>harvest</em></b></p>\n                    <p>This is the bee that you just saw.</p>\n                    <img src=\"bees-with-color/bee-A2SM.svg\" width=\"200\">\n                    <p><span class=\"redText\">Bad choice, the bee was angry.</span><br><b>You have been stung!</b><br>Your pay has been decreased by $0.10. Your bonus pay is now $0.32.</p>\n            ","response":0,"trial_type":"html-button-response","trial_index":52,"time_elapsed":223497,"internal_node_id":"0.0-4.0-1.22","subject_id":"602f33eb166df7c14953e825","study_id":"6197b3f67c2b5cd3b6d9596a","session_id":"619be31dbc53d924303684a1","condition":"contingent","relevant_dimensions":["antennae","wings"],"bee_group":{"antennae":"A","wings":"2","pattern":"X","legs":"X"},"bonus":0.25999999999999995},{"rt":4838.5,"stimulus":"bees-with-color/bee-A1DM.svg","response":0,"trial_type":"image-button-response","trial_index":53,"time_elapsed":228337,"internal_node_id":"0.0-4.0-0.23","subject_id":"602f33eb166df7c14953e825","study_id":"6197b3f67c2b5cd3b6d9596a","session_id":"619be31dbc53d924303684a1","condition":"contingent","relevant_dimensions":["antennae","wings"],"bee_group":{"antennae":"A","wings":"2","pattern":"X","legs":"X"},"action":"harvest","summary":"good-harvest","bonus":0.25999999999999995},{"rt":542,"stimulus":"\n                    <p><b>Action: <em>harvest</em></b></p>\n                    <p>This is the bee that you just saw.</p>\n                    <img src=\"bees-with-color/bee-A1DM.svg\" width=\"200\">\n                    <p><span class=\"greenText\"><b>Successful harvest!</b></span><br>Your pay has increased by $0.02. Your bonus pay is now $0.34.</p>\n            ","response":0,"trial_type":"html-button-response","trial_index":54,"time_elapsed":228880,"internal_node_id":"0.0-4.0-1.23","subject_id":"602f33eb166df7c14953e825","study_id":"6197b3f67c2b5cd3b6d9596a","session_id":"619be31dbc53d924303684a1","condition":"contingent","relevant_dimensions":["antennae","wings"],"bee_group":{"antennae":"A","wings":"2","pattern":"X","legs":"X"},"bonus":0.25999999999999995},{"rt":1390.6000000238419,"stimulus":"bees-with-color/bee-A2SF.svg","response":0,"trial_type":"image-button-response","trial_index":55,"time_elapsed":230272,"internal_node_id":"0.0-4.0-0.24","subject_id":"602f33eb166df7c14953e825","study_id":"6197b3f67c2b5cd3b6d9596a","session_id":"619be31dbc53d924303684a1","condition":"contingent","relevant_dimensions":["antennae","wings"],"bee_group":{"antennae":"A","wings":"2","pattern":"X","legs":"X"},"action":"harvest","summary":"bad-harvest","bonus":0.25999999999999995},{"rt":710.7000000476837,"stimulus":"\n                    <p><b>Action: <em>harvest</em></b></p>\n                    <p>This is the bee that you just saw.</p>\n                    <img src=\"bees-with-color/bee-A2SF.svg\" width=\"200\">\n                    <p><span class=\"redText\">Bad choice, the bee was angry.</span><br><b>You have been stung!</b><br>Your pay has been decreased by $0.10. Your bonus pay is now $0.24.</p>\n            ","response":0,"trial_type":"html-button-response","trial_index":56,"time_elapsed":230984,"internal_node_id":"0.0-4.0-1.24","subject_id":"602f33eb166df7c14953e825","study_id":"6197b3f67c2b5cd3b6d9596a","session_id":"619be31dbc53d924303684a1","condition":"contingent","relevant_dimensions":["antennae","wings"],"bee_group":{"antennae":"A","wings":"2","pattern":"X","legs":"X"},"bonus":0.25999999999999995},{"rt":488.39999997615814,"stimulus":"bees-with-color/bee-A2DM.svg","response":0,"trial_type":"image-button-response","trial_index":57,"time_elapsed":231473,"internal_node_id":"0.0-4.0-0.25","subject_id":"602f33eb166df7c14953e825","study_id":"6197b3f67c2b5cd3b6d9596a","session_id":"619be31dbc53d924303684a1","condition":"contingent","relevant_dimensions":["antennae","wings"],"bee_group":{"antennae":"A","wings":"2","pattern":"X","legs":"X"},"action":"harvest","summary":"bad-harvest","bonus":0.25999999999999995},{"rt":555.6999999284744,"stimulus":"\n                    <p><b>Action: <em>harvest</em></b></p>\n                    <p>This is the bee that you just saw.</p>\n                    <img src=\"bees-with-color/bee-A2DM.svg\" width=\"200\">\n                    <p><span class=\"redText\">Bad choice, the bee was angry.</span><br><b>You have been stung!</b><br>Your pay has been decreased by $0.10. Your bonus pay is now $0.14.</p>\n            ","response":0,"trial_type":"html-button-response","trial_index":58,"time_elapsed":232030,"internal_node_id":"0.0-4.0-1.25","subject_id":"602f33eb166df7c14953e825","study_id":"6197b3f67c2b5cd3b6d9596a","session_id":"619be31dbc53d924303684a1","condition":"contingent","relevant_dimensions":["antennae","wings"],"bee_group":{"antennae":"A","wings":"2","pattern":"X","legs":"X"},"bonus":0.25999999999999995},{"rt":540.1000000238419,"stimulus":"bees-with-color/bee-B2SM.svg","response":0,"trial_type":"image-button-response","trial_index":59,"time_elapsed":232571,"internal_node_id":"0.0-4.0-0.26","subject_id":"602f33eb166df7c14953e825","study_id":"6197b3f67c2b5cd3b6d9596a","session_id":"619be31dbc53d924303684a1","condition":"contingent","relevant_dimensions":["antennae","wings"],"bee_group":{"antennae":"A","wings":"2","pattern":"X","legs":"X"},"action":"harvest","summary":"good-harvest","bonus":0.25999999999999995},{"rt":500.6999999284744,"stimulus":"\n                    <p><b>Action: <em>harvest</em></b></p>\n                    <p>This is the bee that you just saw.</p>\n                    <img src=\"bees-with-color/bee-B2SM.svg\" width=\"200\">\n                    <p><span class=\"greenText\"><b>Successful harvest!</b></span><br>Your pay has increased by $0.02. Your bonus pay is now $0.16.</p>\n            ","response":0,"trial_type":"html-button-response","trial_index":60,"time_elapsed":233074,"internal_node_id":"0.0-4.0-1.26","subject_id":"602f33eb166df7c14953e825","study_id":"6197b3f67c2b5cd3b6d9596a","session_id":"619be31dbc53d924303684a1","condition":"contingent","relevant_dimensions":["antennae","wings"],"bee_group":{"antennae":"A","wings":"2","pattern":"X","legs":"X"},"bonus":0.25999999999999995},{"rt":648.5,"stimulus":"bees-with-color/bee-B2SF.svg","response":0,"trial_type":"image-button-response","trial_index":61,"time_elapsed":233723,"internal_node_id":"0.0-4.0-0.27","subject_id":"602f33eb166df7c14953e825","study_id":"6197b3f67c2b5cd3b6d9596a","session_id":"619be31dbc53d924303684a1","condition":"contingent","relevant_dimensions":["antennae","wings"],"bee_group":{"antennae":"A","wings":"2","pattern":"X","legs":"X"},"action":"harvest","summary":"good-harvest","bonus":0.25999999999999995},{"rt":435,"stimulus":"\n                    <p><b>Action: <em>harvest</em></b></p>\n                    <p>This is the bee that you just saw.</p>\n                    <img src=\"bees-with-color/bee-B2SF.svg\" width=\"200\">\n                    <p><span class=\"greenText\"><b>Successful harvest!</b></span><br>Your pay has increased by $0.02. Your bonus pay is now $0.18.</p>\n            ","response":0,"trial_type":"html-button-response","trial_index":62,"time_elapsed":234160,"internal_node_id":"0.0-4.0-1.27","subject_id":"602f33eb166df7c14953e825","study_id":"6197b3f67c2b5cd3b6d9596a","session_id":"619be31dbc53d924303684a1","condition":"contingent","relevant_dimensions":["antennae","wings"],"bee_group":{"antennae":"A","wings":"2","pattern":"X","legs":"X"},"bonus":0.25999999999999995},{"rt":518.7999999523163,"stimulus":"bees-with-color/bee-B1DM.svg","response":0,"trial_type":"image-button-response","trial_index":63,"time_elapsed":234679,"internal_node_id":"0.0-4.0-0.28","subject_id":"602f33eb166df7c14953e825","study_id":"6197b3f67c2b5cd3b6d9596a","session_id":"619be31dbc53d924303684a1","condition":"contingent","relevant_dimensions":["antennae","wings"],"bee_group":{"antennae":"A","wings":"2","pattern":"X","legs":"X"},"action":"harvest","summary":"good-harvest","bonus":0.25999999999999995},{"rt":426.2999999523163,"stimulus":"\n                    <p><b>Action: <em>harvest</em></b></p>\n                    <p>This is the bee that you just saw.</p>\n                    <img src=\"bees-with-color/bee-B1DM.svg\" width=\"200\">\n                    <p><span class=\"greenText\"><b>Successful harvest!</b></span><br>Your pay has increased by $0.02. Your bonus pay is now $0.20.</p>\n            ","response":0,"trial_type":"html-button-response","trial_index":64,"time_elapsed":235107,"internal_node_id":"0.0-4.0-1.28","subject_id":"602f33eb166df7c14953e825","study_id":"6197b3f67c2b5cd3b6d9596a","session_id":"619be31dbc53d924303684a1","condition":"contingent","relevant_dimensions":["antennae","wings"],"bee_group":{"antennae":"A","wings":"2","pattern":"X","legs":"X"},"bonus":0.25999999999999995},{"rt":1442.4000000953674,"stimulus":"bees-with-color/bee-A1SF.svg","response":0,"trial_type":"image-button-response","trial_index":65,"time_elapsed":236551,"internal_node_id":"0.0-4.0-0.29","subject_id":"602f33eb166df7c14953e825","study_id":"6197b3f67c2b5cd3b6d9596a","session_id":"619be31dbc53d924303684a1","condition":"contingent","relevant_dimensions":["antennae","wings"],"bee_group":{"antennae":"A","wings":"2","pattern":"X","legs":"X"},"action":"harvest","summary":"good-harvest","bonus":0.25999999999999995},{"rt":400.2999999523163,"stimulus":"\n                    <p><b>Action: <em>harvest</em></b></p>\n                    <p>This is the bee that you just saw.</p>\n                    <img src=\"bees-with-color/bee-A1SF.svg\" width=\"200\">\n                    <p><span class=\"greenText\"><b>Successful harvest!</b></span><br>Your pay has increased by $0.02. Your bonus pay is now $0.22.</p>\n            ","response":0,"trial_type":"html-button-response","trial_index":66,"time_elapsed":236952,"internal_node_id":"0.0-4.0-1.29","subject_id":"602f33eb166df7c14953e825","study_id":"6197b3f67c2b5cd3b6d9596a","session_id":"619be31dbc53d924303684a1","condition":"contingent","relevant_dimensions":["antennae","wings"],"bee_group":{"antennae":"A","wings":"2","pattern":"X","legs":"X"},"bonus":0.25999999999999995},{"rt":3167.8000000715256,"stimulus":"bees-with-color/bee-B2DM.svg","response":0,"trial_type":"image-button-response","trial_index":67,"time_elapsed":240121,"internal_node_id":"0.0-4.0-0.30","subject_id":"602f33eb166df7c14953e825","study_id":"6197b3f67c2b5cd3b6d9596a","session_id":"619be31dbc53d924303684a1","condition":"contingent","relevant_dimensions":["antennae","wings"],"bee_group":{"antennae":"A","wings":"2","pattern":"X","legs":"X"},"action":"harvest","summary":"good-harvest","bonus":0.25999999999999995},{"rt":706.2999999523163,"stimulus":"\n                    <p><b>Action: <em>harvest</em></b></p>\n                    <p>This is the bee that you just saw.</p>\n                    <img src=\"bees-with-color/bee-B2DM.svg\" width=\"200\">\n                    <p><span class=\"greenText\"><b>Successful harvest!</b></span><br>Your pay has increased by $0.02. Your bonus pay is now $0.24.</p>\n            ","response":0,"trial_type":"html-button-response","trial_index":68,"time_elapsed":240829,"internal_node_id":"0.0-4.0-1.30","subject_id":"602f33eb166df7c14953e825","study_id":"6197b3f67c2b5cd3b6d9596a","session_id":"619be31dbc53d924303684a1","condition":"contingent","relevant_dimensions":["antennae","wings"],"bee_group":{"antennae":"A","wings":"2","pattern":"X","legs":"X"},"bonus":0.25999999999999995},{"rt":5337.799999952316,"stimulus":"bees-with-color/bee-A1DF.svg","response":0,"trial_type":"image-button-response","trial_index":69,"time_elapsed":246169,"internal_node_id":"0.0-4.0-0.31","subject_id":"602f33eb166df7c14953e825","study_id":"6197b3f67c2b5cd3b6d9596a","session_id":"619be31dbc53d924303684a1","condition":"contingent","relevant_dimensions":["antennae","wings"],"bee_group":{"antennae":"A","wings":"2","pattern":"X","legs":"X"},"action":"harvest","summary":"good-harvest","bonus":0.25999999999999995},{"rt":770.8000000715256,"stimulus":"\n                    <p><b>Action: <em>harvest</em></b></p>\n                    <p>This is the bee that you just saw.</p>\n                    <img src=\"bees-with-color/bee-A1DF.svg\" width=\"200\">\n                    <p><span class=\"greenText\"><b>Successful harvest!</b></span><br>Your pay has increased by $0.02. Your bonus pay is now $0.26.</p>\n            ","response":0,"trial_type":"html-button-response","trial_index":70,"time_elapsed":246941,"internal_node_id":"0.0-4.0-1.31","subject_id":"602f33eb166df7c14953e825","study_id":"6197b3f67c2b5cd3b6d9596a","session_id":"619be31dbc53d924303684a1","condition":"contingent","relevant_dimensions":["antennae","wings"],"bee_group":{"antennae":"A","wings":"2","pattern":"X","legs":"X"},"bonus":0.25999999999999995},{"rt":6428.900000095367,"stimulus":"bees-with-color/bee-B1SM.svg","response":1,"trial_type":"image-button-response","trial_index":71,"time_elapsed":253372,"internal_node_id":"0.0-4.0-0.32","subject_id":"602f33eb166df7c14953e825","study_id":"6197b3f67c2b5cd3b6d9596a","session_id":"619be31dbc53d924303684a1","condition":"contingent","relevant_dimensions":["antennae","wings"],"bee_group":{"antennae":"A","wings":"2","pattern":"X","legs":"X"},"action":"avoid","summary":"bad-avoid","bonus":0.25999999999999995},{"rt":576,"stimulus":"\n                    <p><b>Action: <em>avoid</em></b></p>\n                    <p>This is the bee that you just saw.</p>\n                    <img src=\"bees-with-color/bee-B1SM.svg\" width=\"200\">\n                    <p><br>Your bonus pay is unchanged, and remains at $0.26.</p>\n            ","response":0,"trial_type":"html-button-response","trial_index":72,"time_elapsed":253949,"internal_node_id":"0.0-4.0-1.32","subject_id":"602f33eb166df7c14953e825","study_id":"6197b3f67c2b5cd3b6d9596a","session_id":"619be31dbc53d924303684a1","condition":"contingent","relevant_dimensions":["antennae","wings"],"bee_group":{"antennae":"A","wings":"2","pattern":"X","legs":"X"},"bonus":0.25999999999999995},{"rt":1339.3999999761581,"stimulus":"bees-with-color/bee-B2DM.svg","response":1,"trial_type":"image-button-response","trial_index":73,"time_elapsed":255289,"internal_node_id":"0.0-4.0-0.33","subject_id":"602f33eb166df7c14953e825","study_id":"6197b3f67c2b5cd3b6d9596a","session_id":"619be31dbc53d924303684a1","condition":"contingent","relevant_dimensions":["antennae","wings"],"bee_group":{"antennae":"A","wings":"2","pattern":"X","legs":"X"},"action":"avoid","summary":"bad-avoid","bonus":0.25999999999999995},{"rt":701.8999999761581,"stimulus":"\n                    <p><b>Action: <em>avoid</em></b></p>\n                    <p>This is the bee that you just saw.</p>\n                    <img src=\"bees-with-color/bee-B2DM.svg\" width=\"200\">\n                    <p><br>Your bonus pay is unchanged, and remains at $0.26.</p>\n            ","response":0,"trial_type":"html-button-response","trial_index":74,"time_elapsed":255993,"internal_node_id":"0.0-4.0-1.33","subject_id":"602f33eb166df7c14953e825","study_id":"6197b3f67c2b5cd3b6d9596a","session_id":"619be31dbc53d924303684a1","condition":"contingent","relevant_dimensions":["antennae","wings"],"bee_group":{"antennae":"A","wings":"2","pattern":"X","legs":"X"},"bonus":0.25999999999999995},{"rt":1125.2000000476837,"stimulus":"bees-with-color/bee-A1SM.svg","response":0,"trial_type":"image-button-response","trial_index":75,"time_elapsed":257118,"internal_node_id":"0.0-4.0-0.34","subject_id":"602f33eb166df7c14953e825","study_id":"6197b3f67c2b5cd3b6d9596a","session_id":"619be31dbc53d924303684a1","condition":"contingent","relevant_dimensions":["antennae","wings"],"bee_group":{"antennae":"A","wings":"2","pattern":"X","legs":"X"},"action":"harvest","summary":"good-harvest","bonus":0.25999999999999995},{"rt":433.60000002384186,"stimulus":"\n                    <p><b>Action: <em>harvest</em></b></p>\n                    <p>This is the bee that you just saw.</p>\n                    <img src=\"bees-with-color/bee-A1SM.svg\" width=\"200\">\n                    <p><span class=\"greenText\"><b>Successful harvest!</b></span><br>Your pay has increased by $0.02. Your bonus pay is now $0.28.</p>\n            ","response":0,"trial_type":"html-button-response","trial_index":76,"time_elapsed":257553,"internal_node_id":"0.0-4.0-1.34","subject_id":"602f33eb166df7c14953e825","study_id":"6197b3f67c2b5cd3b6d9596a","session_id":"619be31dbc53d924303684a1","condition":"contingent","relevant_dimensions":["antennae","wings"],"bee_group":{"antennae":"A","wings":"2","pattern":"X","legs":"X"},"bonus":0.25999999999999995},{"rt":6796.600000023842,"stimulus":"bees-with-color/bee-A2SM.svg","response":0,"trial_type":"image-button-response","trial_index":77,"time_elapsed":264351,"internal_node_id":"0.0-4.0-0.35","subject_id":"602f33eb166df7c14953e825","study_id":"6197b3f67c2b5cd3b6d9596a","session_id":"619be31dbc53d924303684a1","condition":"contingent","relevant_dimensions":["antennae","wings"],"bee_group":{"antennae":"A","wings":"2","pattern":"X","legs":"X"},"action":"harvest","summary":"bad-harvest","bonus":0.25999999999999995},{"rt":767.6000000238419,"stimulus":"\n                    <p><b>Action: <em>harvest</em></b></p>\n                    <p>This is the bee that you just saw.</p>\n                    <img src=\"bees-with-color/bee-A2SM.svg\" width=\"200\">\n                    <p><span class=\"redText\">Bad choice, the bee was angry.</span><br><b>You have been stung!</b><br>Your pay has been decreased by $0.10. Your bonus pay is now $0.18.</p>\n            ","response":0,"trial_type":"html-button-response","trial_index":78,"time_elapsed":265120,"internal_node_id":"0.0-4.0-1.35","subject_id":"602f33eb166df7c14953e825","study_id":"6197b3f67c2b5cd3b6d9596a","session_id":"619be31dbc53d924303684a1","condition":"contingent","relevant_dimensions":["antennae","wings"],"bee_group":{"antennae":"A","wings":"2","pattern":"X","legs":"X"},"bonus":0.25999999999999995},{"rt":1081.2000000476837,"stimulus":"bees-with-color/bee-B1DF.svg","response":0,"trial_type":"image-button-response","trial_index":79,"time_elapsed":266202,"internal_node_id":"0.0-4.0-0.36","subject_id":"602f33eb166df7c14953e825","study_id":"6197b3f67c2b5cd3b6d9596a","session_id":"619be31dbc53d924303684a1","condition":"contingent","relevant_dimensions":["antennae","wings"],"bee_group":{"antennae":"A","wings":"2","pattern":"X","legs":"X"},"action":"harvest","summary":"good-harvest","bonus":0.25999999999999995},{"rt":406,"stimulus":"\n                    <p><b>Action: <em>harvest</em></b></p>\n                    <p>This is the bee that you just saw.</p>\n                    <img src=\"bees-with-color/bee-B1DF.svg\" width=\"200\">\n                    <p><span class=\"greenText\"><b>Successful harvest!</b></span><br>Your pay has increased by $0.02. Your bonus pay is now $0.20.</p>\n            ","response":0,"trial_type":"html-button-response","trial_index":80,"time_elapsed":266609,"internal_node_id":"0.0-4.0-1.36","subject_id":"602f33eb166df7c14953e825","study_id":"6197b3f67c2b5cd3b6d9596a","session_id":"619be31dbc53d924303684a1","condition":"contingent","relevant_dimensions":["antennae","wings"],"bee_group":{"antennae":"A","wings":"2","pattern":"X","legs":"X"},"bonus":0.25999999999999995},{"rt":1110,"stimulus":"bees-with-color/bee-A2DM.svg","response":0,"trial_type":"image-button-response","trial_index":81,"time_elapsed":267720,"internal_node_id":"0.0-4.0-0.37","subject_id":"602f33eb166df7c14953e825","study_id":"6197b3f67c2b5cd3b6d9596a","session_id":"619be31dbc53d924303684a1","condition":"contingent","relevant_dimensions":["antennae","wings"],"bee_group":{"antennae":"A","wings":"2","pattern":"X","legs":"X"},"action":"harvest","summary":"bad-harvest","bonus":0.25999999999999995},{"rt":567,"stimulus":"\n                    <p><b>Action: <em>harvest</em></b></p>\n                    <p>This is the bee that you just saw.</p>\n                    <img src=\"bees-with-color/bee-A2DM.svg\" width=\"200\">\n                    <p><span class=\"redText\">Bad choice, the bee was angry.</span><br><b>You have been stung!</b><br>Your pay has been decreased by $0.10. Your bonus pay is now $0.10.</p>\n            ","response":0,"trial_type":"html-button-response","trial_index":82,"time_elapsed":268289,"internal_node_id":"0.0-4.0-1.37","subject_id":"602f33eb166df7c14953e825","study_id":"6197b3f67c2b5cd3b6d9596a","session_id":"619be31dbc53d924303684a1","condition":"contingent","relevant_dimensions":["antennae","wings"],"bee_group":{"antennae":"A","wings":"2","pattern":"X","legs":"X"},"bonus":0.25999999999999995},{"rt":853.3000000715256,"stimulus":"bees-with-color/bee-A1DF.svg","response":0,"trial_type":"image-button-response","trial_index":83,"time_elapsed":269143,"internal_node_id":"0.0-4.0-0.38","subject_id":"602f33eb166df7c14953e825","study_id":"6197b3f67c2b5cd3b6d9596a","session_id":"619be31dbc53d924303684a1","condition":"contingent","relevant_dimensions":["antennae","wings"],"bee_group":{"antennae":"A","wings":"2","pattern":"X","legs":"X"},"action":"harvest","summary":"good-harvest","bonus":0.25999999999999995},{"rt":392.89999997615814,"stimulus":"\n                    <p><b>Action: <em>harvest</em></b></p>\n                    <p>This is the bee that you just saw.</p>\n                    <img src=\"bees-with-color/bee-A1DF.svg\" width=\"200\">\n                    <p><span class=\"greenText\"><b>Successful harvest!</b></span><br>Your pay has increased by $0.02. Your bonus pay is now $0.12.</p>\n            ","response":0,"trial_type":"html-button-response","trial_index":84,"time_elapsed":269537,"internal_node_id":"0.0-4.0-1.38","subject_id":"602f33eb166df7c14953e825","study_id":"6197b3f67c2b5cd3b6d9596a","session_id":"619be31dbc53d924303684a1","condition":"contingent","relevant_dimensions":["antennae","wings"],"bee_group":{"antennae":"A","wings":"2","pattern":"X","legs":"X"},"bonus":0.25999999999999995},{"rt":1285.5,"stimulus":"bees-with-color/bee-B1DM.svg","response":0,"trial_type":"image-button-response","trial_index":85,"time_elapsed":270824,"internal_node_id":"0.0-4.0-0.39","subject_id":"602f33eb166df7c14953e825","study_id":"6197b3f67c2b5cd3b6d9596a","session_id":"619be31dbc53d924303684a1","condition":"contingent","relevant_dimensions":["antennae","wings"],"bee_group":{"antennae":"A","wings":"2","pattern":"X","legs":"X"},"action":"harvest","summary":"good-harvest","bonus":0.25999999999999995},{"rt":452.7999999523163,"stimulus":"\n                    <p><b>Action: <em>harvest</em></b></p>\n                    <p>This is the bee that you just saw.</p>\n                    <img src=\"bees-with-color/bee-B1DM.svg\" width=\"200\">\n                    <p><span class=\"greenText\"><b>Successful harvest!</b></span><br>Your pay has increased by $0.02. Your bonus pay is now $0.14.</p>\n            ","response":0,"trial_type":"html-button-response","trial_index":86,"time_elapsed":271278,"internal_node_id":"0.0-4.0-1.39","subject_id":"602f33eb166df7c14953e825","study_id":"6197b3f67c2b5cd3b6d9596a","session_id":"619be31dbc53d924303684a1","condition":"contingent","relevant_dimensions":["antennae","wings"],"bee_group":{"antennae":"A","wings":"2","pattern":"X","legs":"X"},"bonus":0.25999999999999995},{"rt":1070.6000000238419,"stimulus":"bees-with-color/bee-B2SF.svg","response":0,"trial_type":"image-button-response","trial_index":87,"time_elapsed":272349,"internal_node_id":"0.0-4.0-0.40","subject_id":"602f33eb166df7c14953e825","study_id":"6197b3f67c2b5cd3b6d9596a","session_id":"619be31dbc53d924303684a1","condition":"contingent","relevant_dimensions":["antennae","wings"],"bee_group":{"antennae":"A","wings":"2","pattern":"X","legs":"X"},"action":"harvest","summary":"good-harvest","bonus":0.25999999999999995},{"rt":450.60000002384186,"stimulus":"\n                    <p><b>Action: <em>harvest</em></b></p>\n                    <p>This is the bee that you just saw.</p>\n                    <img src=\"bees-with-color/bee-B2SF.svg\" width=\"200\">\n                    <p><span class=\"greenText\"><b>Successful harvest!</b></span><br>Your pay has increased by $0.02. Your bonus pay is now $0.16.</p>\n            ","response":0,"trial_type":"html-button-response","trial_index":88,"time_elapsed":272801,"internal_node_id":"0.0-4.0-1.40","subject_id":"602f33eb166df7c14953e825","study_id":"6197b3f67c2b5cd3b6d9596a","session_id":"619be31dbc53d924303684a1","condition":"contingent","relevant_dimensions":["antennae","wings"],"bee_group":{"antennae":"A","wings":"2","pattern":"X","legs":"X"},"bonus":0.25999999999999995},{"rt":758.3999999761581,"stimulus":"bees-with-color/bee-B1SF.svg","response":0,"trial_type":"image-button-response","trial_index":89,"time_elapsed":273561,"internal_node_id":"0.0-4.0-0.41","subject_id":"602f33eb166df7c14953e825","study_id":"6197b3f67c2b5cd3b6d9596a","session_id":"619be31dbc53d924303684a1","condition":"contingent","relevant_dimensions":["antennae","wings"],"bee_group":{"antennae":"A","wings":"2","pattern":"X","legs":"X"},"action":"harvest","summary":"good-harvest","bonus":0.25999999999999995},{"rt":372.7999999523163,"stimulus":"\n                    <p><b>Action: <em>harvest</em></b></p>\n                    <p>This is the bee that you just saw.</p>\n                    <img src=\"bees-with-color/bee-B1SF.svg\" width=\"200\">\n                    <p><span class=\"greenText\"><b>Successful harvest!</b></span><br>Your pay has increased by $0.02. Your bonus pay is now $0.18.</p>\n            ","response":0,"trial_type":"html-button-response","trial_index":90,"time_elapsed":273935,"internal_node_id":"0.0-4.0-1.41","subject_id":"602f33eb166df7c14953e825","study_id":"6197b3f67c2b5cd3b6d9596a","session_id":"619be31dbc53d924303684a1","condition":"contingent","relevant_dimensions":["antennae","wings"],"bee_group":{"antennae":"A","wings":"2","pattern":"X","legs":"X"},"bonus":0.25999999999999995},{"rt":1163.3999999761581,"stimulus":"bees-with-color/bee-A2DF.svg","response":0,"trial_type":"image-button-response","trial_index":91,"time_elapsed":275099,"internal_node_id":"0.0-4.0-0.42","subject_id":"602f33eb166df7c14953e825","study_id":"6197b3f67c2b5cd3b6d9596a","session_id":"619be31dbc53d924303684a1","condition":"contingent","relevant_dimensions":["antennae","wings"],"bee_group":{"antennae":"A","wings":"2","pattern":"X","legs":"X"},"action":"harvest","summary":"bad-harvest","bonus":0.25999999999999995},{"rt":755.8999999761581,"stimulus":"\n                    <p><b>Action: <em>harvest</em></b></p>\n                    <p>This is the bee that you just saw.</p>\n                    <img src=\"bees-with-color/bee-A2DF.svg\" width=\"200\">\n                    <p><span class=\"redText\">Bad choice, the bee was angry.</span><br><b>You have been stung!</b><br>Your pay has been decreased by $0.10. Your bonus pay is now $0.08.</p>\n            ","response":0,"trial_type":"html-button-response","trial_index":92,"time_elapsed":275857,"internal_node_id":"0.0-4.0-1.42","subject_id":"602f33eb166df7c14953e825","study_id":"6197b3f67c2b5cd3b6d9596a","session_id":"619be31dbc53d924303684a1","condition":"contingent","relevant_dimensions":["antennae","wings"],"bee_group":{"antennae":"A","wings":"2","pattern":"X","legs":"X"},"bonus":0.25999999999999995},{"rt":417,"stimulus":"bees-with-color/bee-B2DF.svg","response":0,"trial_type":"image-button-response","trial_index":93,"time_elapsed":276276,"internal_node_id":"0.0-4.0-0.43","subject_id":"602f33eb166df7c14953e825","study_id":"6197b3f67c2b5cd3b6d9596a","session_id":"619be31dbc53d924303684a1","condition":"contingent","relevant_dimensions":["antennae","wings"],"bee_group":{"antennae":"A","wings":"2","pattern":"X","legs":"X"},"action":"harvest","summary":"good-harvest","bonus":0.25999999999999995},{"rt":485.2000000476837,"stimulus":"\n                    <p><b>Action: <em>harvest</em></b></p>\n                    <p>This is the bee that you just saw.</p>\n                    <img src=\"bees-with-color/bee-B2DF.svg\" width=\"200\">\n                    <p><span class=\"greenText\"><b>Successful harvest!</b></span><br>Your pay has increased by $0.02. Your bonus pay is now $0.10.</p>\n            ","response":0,"trial_type":"html-button-response","trial_index":94,"time_elapsed":276762,"internal_node_id":"0.0-4.0-1.43","subject_id":"602f33eb166df7c14953e825","study_id":"6197b3f67c2b5cd3b6d9596a","session_id":"619be31dbc53d924303684a1","condition":"contingent","relevant_dimensions":["antennae","wings"],"bee_group":{"antennae":"A","wings":"2","pattern":"X","legs":"X"},"bonus":0.25999999999999995},{"rt":460,"stimulus":"bees-with-color/bee-A2SF.svg","response":0,"trial_type":"image-button-response","trial_index":95,"time_elapsed":277223,"internal_node_id":"0.0-4.0-0.44","subject_id":"602f33eb166df7c14953e825","study_id":"6197b3f67c2b5cd3b6d9596a","session_id":"619be31dbc53d924303684a1","condition":"contingent","relevant_dimensions":["antennae","wings"],"bee_group":{"antennae":"A","wings":"2","pattern":"X","legs":"X"},"action":"harvest","summary":"bad-harvest","bonus":0.25999999999999995},{"rt":444,"stimulus":"\n                    <p><b>Action: <em>harvest</em></b></p>\n                    <p>This is the bee that you just saw.</p>\n                    <img src=\"bees-with-color/bee-A2SF.svg\" width=\"200\">\n                    <p><span class=\"redText\">Bad choice, the bee was angry.</span><br><b>You have been stung!</b><br>Your pay has been decreased by $0.10. Your bonus pay is now $0.00.</p>\n            ","response":0,"trial_type":"html-button-response","trial_index":96,"time_elapsed":277668,"internal_node_id":"0.0-4.0-1.44","subject_id":"602f33eb166df7c14953e825","study_id":"6197b3f67c2b5cd3b6d9596a","session_id":"619be31dbc53d924303684a1","condition":"contingent","relevant_dimensions":["antennae","wings"],"bee_group":{"antennae":"A","wings":"2","pattern":"X","legs":"X"},"bonus":0.25999999999999995},{"rt":348.2000000476837,"stimulus":"bees-with-color/bee-A1DM.svg","response":0,"trial_type":"image-button-response","trial_index":97,"time_elapsed":278018,"internal_node_id":"0.0-4.0-0.45","subject_id":"602f33eb166df7c14953e825","study_id":"6197b3f67c2b5cd3b6d9596a","session_id":"619be31dbc53d924303684a1","condition":"contingent","relevant_dimensions":["antennae","wings"],"bee_group":{"antennae":"A","wings":"2","pattern":"X","legs":"X"},"action":"harvest","summary":"good-harvest","bonus":0.25999999999999995},{"rt":348.5,"stimulus":"\n                    <p><b>Action: <em>harvest</em></b></p>\n                    <p>This is the bee that you just saw.</p>\n                    <img src=\"bees-with-color/bee-A1DM.svg\" width=\"200\">\n                    <p><span class=\"greenText\"><b>Successful harvest!</b></span><br>Your pay has increased by $0.02. Your bonus pay is now $0.02.</p>\n            ","response":0,"trial_type":"html-button-response","trial_index":98,"time_elapsed":278367,"internal_node_id":"0.0-4.0-1.45","subject_id":"602f33eb166df7c14953e825","study_id":"6197b3f67c2b5cd3b6d9596a","session_id":"619be31dbc53d924303684a1","condition":"contingent","relevant_dimensions":["antennae","wings"],"bee_group":{"antennae":"A","wings":"2","pattern":"X","legs":"X"},"bonus":0.25999999999999995},{"rt":566.0999999046326,"stimulus":"bees-with-color/bee-B2SM.svg","response":0,"trial_type":"image-button-response","trial_index":99,"time_elapsed":278934,"internal_node_id":"0.0-4.0-0.46","subject_id":"602f33eb166df7c14953e825","study_id":"6197b3f67c2b5cd3b6d9596a","session_id":"619be31dbc53d924303684a1","condition":"contingent","relevant_dimensions":["antennae","wings"],"bee_group":{"antennae":"A","wings":"2","pattern":"X","legs":"X"},"action":"harvest","summary":"good-harvest","bonus":0.25999999999999995},{"rt":506.39999997615814,"stimulus":"\n                    <p><b>Action: <em>harvest</em></b></p>\n                    <p>This is the bee that you just saw.</p>\n                    <img src=\"bees-with-color/bee-B2SM.svg\" width=\"200\">\n                    <p><span class=\"greenText\"><b>Successful harvest!</b></span><br>Your pay has increased by $0.02. Your bonus pay is now $0.04.</p>\n            ","response":0,"trial_type":"html-button-response","trial_index":100,"time_elapsed":279442,"internal_node_id":"0.0-4.0-1.46","subject_id":"602f33eb166df7c14953e825","study_id":"6197b3f67c2b5cd3b6d9596a","session_id":"619be31dbc53d924303684a1","condition":"contingent","relevant_dimensions":["antennae","wings"],"bee_group":{"antennae":"A","wings":"2","pattern":"X","legs":"X"},"bonus":0.25999999999999995},{"rt":277.7999999523163,"stimulus":"bees-with-color/bee-A1SF.svg","response":0,"trial_type":"image-button-response","trial_index":101,"time_elapsed":279721,"internal_node_id":"0.0-4.0-0.47","subject_id":"602f33eb166df7c14953e825","study_id":"6197b3f67c2b5cd3b6d9596a","session_id":"619be31dbc53d924303684a1","condition":"contingent","relevant_dimensions":["antennae","wings"],"bee_group":{"antennae":"A","wings":"2","pattern":"X","legs":"X"},"action":"harvest","summary":"good-harvest","bonus":0.25999999999999995},{"rt":374,"stimulus":"\n                    <p><b>Action: <em>harvest</em></b></p>\n                    <p>This is the bee that you just saw.</p>\n                    <img src=\"bees-with-color/bee-A1SF.svg\" width=\"200\">\n                    <p><span class=\"greenText\"><b>Successful harvest!</b></span><br>Your pay has increased by $0.02. Your bonus pay is now $0.06.</p>\n            ","response":0,"trial_type":"html-button-response","trial_index":102,"time_elapsed":280096,"internal_node_id":"0.0-4.0-1.47","subject_id":"602f33eb166df7c14953e825","study_id":"6197b3f67c2b5cd3b6d9596a","session_id":"619be31dbc53d924303684a1","condition":"contingent","relevant_dimensions":["antennae","wings"],"bee_group":{"antennae":"A","wings":"2","pattern":"X","legs":"X"},"bonus":0.25999999999999995},{"rt":283.89999997615814,"stimulus":"bees-with-color/bee-B2SF.svg","response":0,"trial_type":"image-button-response","trial_index":103,"time_elapsed":280381,"internal_node_id":"0.0-4.0-0.48","subject_id":"602f33eb166df7c14953e825","study_id":"6197b3f67c2b5cd3b6d9596a","session_id":"619be31dbc53d924303684a1","condition":"contingent","relevant_dimensions":["antennae","wings"],"bee_group":{"antennae":"A","wings":"2","pattern":"X","legs":"X"},"action":"harvest","summary":"good-harvest","bonus":0.25999999999999995},{"rt":374.10000002384186,"stimulus":"\n                    <p><b>Action: <em>harvest</em></b></p>\n                    <p>This is the bee that you just saw.</p>\n                    <img src=\"bees-with-color/bee-B2SF.svg\" width=\"200\">\n                    <p><span class=\"greenText\"><b>Successful harvest!</b></span><br>Your pay has increased by $0.02. Your bonus pay is now $0.08.</p>\n            ","response":0,"trial_type":"html-button-response","trial_index":104,"time_elapsed":280756,"internal_node_id":"0.0-4.0-1.48","subject_id":"602f33eb166df7c14953e825","study_id":"6197b3f67c2b5cd3b6d9596a","session_id":"619be31dbc53d924303684a1","condition":"contingent","relevant_dimensions":["antennae","wings"],"bee_group":{"antennae":"A","wings":"2","pattern":"X","legs":"X"},"bonus":0.25999999999999995},{"rt":332.10000002384186,"stimulus":"bees-with-color/bee-A2DF.svg","response":0,"trial_type":"image-button-response","trial_index":105,"time_elapsed":281089,"internal_node_id":"0.0-4.0-0.49","subject_id":"602f33eb166df7c14953e825","study_id":"6197b3f67c2b5cd3b6d9596a","session_id":"619be31dbc53d924303684a1","condition":"contingent","relevant_dimensions":["antennae","wings"],"bee_group":{"antennae":"A","wings":"2","pattern":"X","legs":"X"},"action":"harvest","summary":"bad-harvest","bonus":0.25999999999999995},{"rt":612.8999999761581,"stimulus":"\n                    <p><b>Action: <em>harvest</em></b></p>\n                    <p>This is the bee that you just saw.</p>\n                    <img src=\"bees-with-color/bee-A2DF.svg\" width=\"200\">\n                    <p><span class=\"redText\">Bad choice, the bee was angry.</span><br><b>You have been stung!</b><br>Your pay has been decreased by $0.10. Your bonus pay is now $0.00.</p>\n            ","response":0,"trial_type":"html-button-response","trial_index":106,"time_elapsed":281703,"internal_node_id":"0.0-4.0-1.49","subject_id":"602f33eb166df7c14953e825","study_id":"6197b3f67c2b5cd3b6d9596a","session_id":"619be31dbc53d924303684a1","condition":"contingent","relevant_dimensions":["antennae","wings"],"bee_group":{"antennae":"A","wings":"2","pattern":"X","legs":"X"},"bonus":0.25999999999999995},{"rt":372.10000002384186,"stimulus":"bees-with-color/bee-B1SM.svg","response":0,"trial_type":"image-button-response","trial_index":107,"time_elapsed":282076,"internal_node_id":"0.0-4.0-0.50","subject_id":"602f33eb166df7c14953e825","study_id":"6197b3f67c2b5cd3b6d9596a","session_id":"619be31dbc53d924303684a1","condition":"contingent","relevant_dimensions":["antennae","wings"],"bee_group":{"antennae":"A","wings":"2","pattern":"X","legs":"X"},"action":"harvest","summary":"good-harvest","bonus":0.25999999999999995},{"rt":391.6999999284744,"stimulus":"\n                    <p><b>Action: <em>harvest</em></b></p>\n                    <p>This is the bee that you just saw.</p>\n                    <img src=\"bees-with-color/bee-B1SM.svg\" width=\"200\">\n                    <p><span class=\"greenText\"><b>Successful harvest!</b></span><br>Your pay has increased by $0.02. Your bonus pay is now $0.02.</p>\n            ","response":0,"trial_type":"html-button-response","trial_index":108,"time_elapsed":282469,"internal_node_id":"0.0-4.0-1.50","subject_id":"602f33eb166df7c14953e825","study_id":"6197b3f67c2b5cd3b6d9596a","session_id":"619be31dbc53d924303684a1","condition":"contingent","relevant_dimensions":["antennae","wings"],"bee_group":{"antennae":"A","wings":"2","pattern":"X","legs":"X"},"bonus":0.25999999999999995},{"rt":244.20000004768372,"stimulus":"bees-with-color/bee-B1DF.svg","response":0,"trial_type":"image-button-response","trial_index":109,"time_elapsed":282714,"internal_node_id":"0.0-4.0-0.51","subject_id":"602f33eb166df7c14953e825","study_id":"6197b3f67c2b5cd3b6d9596a","session_id":"619be31dbc53d924303684a1","condition":"contingent","relevant_dimensions":["antennae","wings"],"bee_group":{"antennae":"A","wings":"2","pattern":"X","legs":"X"},"action":"harvest","summary":"good-harvest","bonus":0.25999999999999995},{"rt":348.60000002384186,"stimulus":"\n                    <p><b>Action: <em>harvest</em></b></p>\n                    <p>This is the bee that you just saw.</p>\n                    <img src=\"bees-with-color/bee-B1DF.svg\" width=\"200\">\n                    <p><span class=\"greenText\"><b>Successful harvest!</b></span><br>Your pay has increased by $0.02. Your bonus pay is now $0.04.</p>\n            ","response":0,"trial_type":"html-button-response","trial_index":110,"time_elapsed":283064,"internal_node_id":"0.0-4.0-1.51","subject_id":"602f33eb166df7c14953e825","study_id":"6197b3f67c2b5cd3b6d9596a","session_id":"619be31dbc53d924303684a1","condition":"contingent","relevant_dimensions":["antennae","wings"],"bee_group":{"antennae":"A","wings":"2","pattern":"X","legs":"X"},"bonus":0.25999999999999995},{"rt":273.10000002384186,"stimulus":"bees-with-color/bee-A1SF.svg","response":0,"trial_type":"image-button-response","trial_index":111,"time_elapsed":283338,"internal_node_id":"0.0-4.0-0.52","subject_id":"602f33eb166df7c14953e825","study_id":"6197b3f67c2b5cd3b6d9596a","session_id":"619be31dbc53d924303684a1","condition":"contingent","relevant_dimensions":["antennae","wings"],"bee_group":{"antennae":"A","wings":"2","pattern":"X","legs":"X"},"action":"harvest","summary":"good-harvest","bonus":0.25999999999999995},{"rt":413.89999997615814,"stimulus":"\n                    <p><b>Action: <em>harvest</em></b></p>\n                    <p>This is the bee that you just saw.</p>\n                    <img src=\"bees-with-color/bee-A1SF.svg\" width=\"200\">\n                    <p><span class=\"greenText\"><b>Successful harvest!</b></span><br>Your pay has increased by $0.02. Your bonus pay is now $0.06.</p>\n            ","response":0,"trial_type":"html-button-response","trial_index":112,"time_elapsed":283753,"internal_node_id":"0.0-4.0-1.52","subject_id":"602f33eb166df7c14953e825","study_id":"6197b3f67c2b5cd3b6d9596a","session_id":"619be31dbc53d924303684a1","condition":"contingent","relevant_dimensions":["antennae","wings"],"bee_group":{"antennae":"A","wings":"2","pattern":"X","legs":"X"},"bonus":0.25999999999999995},{"rt":284.59999990463257,"stimulus":"bees-with-color/bee-A1DF.svg","response":0,"trial_type":"image-button-response","trial_index":113,"time_elapsed":284039,"internal_node_id":"0.0-4.0-0.53","subject_id":"602f33eb166df7c14953e825","study_id":"6197b3f67c2b5cd3b6d9596a","session_id":"619be31dbc53d924303684a1","condition":"contingent","relevant_dimensions":["antennae","wings"],"bee_group":{"antennae":"A","wings":"2","pattern":"X","legs":"X"},"action":"harvest","summary":"good-harvest","bonus":0.25999999999999995},{"rt":335.8000000715256,"stimulus":"\n                    <p><b>Action: <em>harvest</em></b></p>\n                    <p>This is the bee that you just saw.</p>\n                    <img src=\"bees-with-color/bee-A1DF.svg\" width=\"200\">\n                    <p><span class=\"greenText\"><b>Successful harvest!</b></span><br>Your pay has increased by $0.02. Your bonus pay is now $0.08.</p>\n            ","response":0,"trial_type":"html-button-response","trial_index":114,"time_elapsed":284376,"internal_node_id":"0.0-4.0-1.53","subject_id":"602f33eb166df7c14953e825","study_id":"6197b3f67c2b5cd3b6d9596a","session_id":"619be31dbc53d924303684a1","condition":"contingent","relevant_dimensions":["antennae","wings"],"bee_group":{"antennae":"A","wings":"2","pattern":"X","legs":"X"},"bonus":0.25999999999999995},{"rt":465.10000002384186,"stimulus":"bees-with-color/bee-A2DM.svg","response":0,"trial_type":"image-button-response","trial_index":115,"time_elapsed":284842,"internal_node_id":"0.0-4.0-0.54","subject_id":"602f33eb166df7c14953e825","study_id":"6197b3f67c2b5cd3b6d9596a","session_id":"619be31dbc53d924303684a1","condition":"contingent","relevant_dimensions":["antennae","wings"],"bee_group":{"antennae":"A","wings":"2","pattern":"X","legs":"X"},"action":"harvest","summary":"bad-harvest","bonus":0.25999999999999995},{"rt":699,"stimulus":"\n                    <p><b>Action: <em>harvest</em></b></p>\n                    <p>This is the bee that you just saw.</p>\n                    <img src=\"bees-with-color/bee-A2DM.svg\" width=\"200\">\n                    <p><span class=\"redText\">Bad choice, the bee was angry.</span><br><b>You have been stung!</b><br>Your pay has been decreased by $0.10. Your bonus pay is now $0.00.</p>\n            ","response":0,"trial_type":"html-button-response","trial_index":116,"time_elapsed":285542,"internal_node_id":"0.0-4.0-1.54","subject_id":"602f33eb166df7c14953e825","study_id":"6197b3f67c2b5cd3b6d9596a","session_id":"619be31dbc53d924303684a1","condition":"contingent","relevant_dimensions":["antennae","wings"],"bee_group":{"antennae":"A","wings":"2","pattern":"X","legs":"X"},"bonus":0.25999999999999995},{"rt":303.7999999523163,"stimulus":"bees-with-color/bee-B2DM.svg","response":0,"trial_type":"image-button-response","trial_index":117,"time_elapsed":285847,"internal_node_id":"0.0-4.0-0.55","subject_id":"602f33eb166df7c14953e825","study_id":"6197b3f67c2b5cd3b6d9596a","session_id":"619be31dbc53d924303684a1","condition":"contingent","relevant_dimensions":["antennae","wings"],"bee_group":{"antennae":"A","wings":"2","pattern":"X","legs":"X"},"action":"harvest","summary":"good-harvest","bonus":0.25999999999999995},{"rt":451.60000002384186,"stimulus":"\n                    <p><b>Action: <em>harvest</em></b></p>\n                    <p>This is the bee that you just saw.</p>\n                    <img src=\"bees-with-color/bee-B2DM.svg\" width=\"200\">\n                    <p><span class=\"greenText\"><b>Successful harvest!</b></span><br>Your pay has increased by $0.02. Your bonus pay is now $0.02.</p>\n            ","response":0,"trial_type":"html-button-response","trial_index":118,"time_elapsed":286300,"internal_node_id":"0.0-4.0-1.55","subject_id":"602f33eb166df7c14953e825","study_id":"6197b3f67c2b5cd3b6d9596a","session_id":"619be31dbc53d924303684a1","condition":"contingent","relevant_dimensions":["antennae","wings"],"bee_group":{"antennae":"A","wings":"2","pattern":"X","legs":"X"},"bonus":0.25999999999999995},{"rt":198.60000002384186,"stimulus":"bees-with-color/bee-A2SM.svg","response":0,"trial_type":"image-button-response","trial_index":119,"time_elapsed":286500,"internal_node_id":"0.0-4.0-0.56","subject_id":"602f33eb166df7c14953e825","study_id":"6197b3f67c2b5cd3b6d9596a","session_id":"619be31dbc53d924303684a1","condition":"contingent","relevant_dimensions":["antennae","wings"],"bee_group":{"antennae":"A","wings":"2","pattern":"X","legs":"X"},"action":"harvest","summary":"bad-harvest","bonus":0.25999999999999995},{"rt":331.40000009536743,"stimulus":"\n                    <p><b>Action: <em>harvest</em></b></p>\n                    <p>This is the bee that you just saw.</p>\n                    <img src=\"bees-with-color/bee-A2SM.svg\" width=\"200\">\n                    <p><span class=\"redText\">Bad choice, the bee was angry.</span><br><b>You have been stung!</b><br>Your pay has been decreased by $0.10. Your bonus pay is now $0.00.</p>\n            ","response":0,"trial_type":"html-button-response","trial_index":120,"time_elapsed":286832,"internal_node_id":"0.0-4.0-1.56","subject_id":"602f33eb166df7c14953e825","study_id":"6197b3f67c2b5cd3b6d9596a","session_id":"619be31dbc53d924303684a1","condition":"contingent","relevant_dimensions":["antennae","wings"],"bee_group":{"antennae":"A","wings":"2","pattern":"X","legs":"X"},"bonus":0.25999999999999995},{"rt":389.7999999523163,"stimulus":"bees-with-color/bee-B1SF.svg","response":0,"trial_type":"image-button-response","trial_index":121,"time_elapsed":287223,"internal_node_id":"0.0-4.0-0.57","subject_id":"602f33eb166df7c14953e825","study_id":"6197b3f67c2b5cd3b6d9596a","session_id":"619be31dbc53d924303684a1","condition":"contingent","relevant_dimensions":["antennae","wings"],"bee_group":{"antennae":"A","wings":"2","pattern":"X","legs":"X"},"action":"harvest","summary":"good-harvest","bonus":0.25999999999999995},{"rt":303.5,"stimulus":"\n                    <p><b>Action: <em>harvest</em></b></p>\n                    <p>This is the bee that you just saw.</p>\n                    <img src=\"bees-with-color/bee-B1SF.svg\" width=\"200\">\n                    <p><span class=\"greenText\"><b>Successful harvest!</b></span><br>Your pay has increased by $0.02. Your bonus pay is now $0.02.</p>\n            ","response":0,"trial_type":"html-button-response","trial_index":122,"time_elapsed":287529,"internal_node_id":"0.0-4.0-1.57","subject_id":"602f33eb166df7c14953e825","study_id":"6197b3f67c2b5cd3b6d9596a","session_id":"619be31dbc53d924303684a1","condition":"contingent","relevant_dimensions":["antennae","wings"],"bee_group":{"antennae":"A","wings":"2","pattern":"X","legs":"X"},"bonus":0.25999999999999995},{"rt":232.39999997615814,"stimulus":"bees-with-color/bee-A1SM.svg","response":0,"trial_type":"image-button-response","trial_index":123,"time_elapsed":287762,"internal_node_id":"0.0-4.0-0.58","subject_id":"602f33eb166df7c14953e825","study_id":"6197b3f67c2b5cd3b6d9596a","session_id":"619be31dbc53d924303684a1","condition":"contingent","relevant_dimensions":["antennae","wings"],"bee_group":{"antennae":"A","wings":"2","pattern":"X","legs":"X"},"action":"harvest","summary":"good-harvest","bonus":0.25999999999999995},{"rt":325.7000000476837,"stimulus":"\n                    <p><b>Action: <em>harvest</em></b></p>\n                    <p>This is the bee that you just saw.</p>\n                    <img src=\"bees-with-color/bee-A1SM.svg\" width=\"200\">\n                    <p><span class=\"greenText\"><b>Successful harvest!</b></span><br>Your pay has increased by $0.02. Your bonus pay is now $0.04.</p>\n            ","response":0,"trial_type":"html-button-response","trial_index":124,"time_elapsed":288089,"internal_node_id":"0.0-4.0-1.58","subject_id":"602f33eb166df7c14953e825","study_id":"6197b3f67c2b5cd3b6d9596a","session_id":"619be31dbc53d924303684a1","condition":"contingent","relevant_dimensions":["antennae","wings"],"bee_group":{"antennae":"A","wings":"2","pattern":"X","legs":"X"},"bonus":0.25999999999999995},{"rt":258.10000002384186,"stimulus":"bees-with-color/bee-B1DM.svg","response":0,"trial_type":"image-button-response","trial_index":125,"time_elapsed":288348,"internal_node_id":"0.0-4.0-0.59","subject_id":"602f33eb166df7c14953e825","study_id":"6197b3f67c2b5cd3b6d9596a","session_id":"619be31dbc53d924303684a1","condition":"contingent","relevant_dimensions":["antennae","wings"],"bee_group":{"antennae":"A","wings":"2","pattern":"X","legs":"X"},"action":"harvest","summary":"good-harvest","bonus":0.25999999999999995},{"rt":333.89999997615814,"stimulus":"\n                    <p><b>Action: <em>harvest</em></b></p>\n                    <p>This is the bee that you just saw.</p>\n                    <img src=\"bees-with-color/bee-B1DM.svg\" width=\"200\">\n                    <p><span class=\"greenText\"><b>Successful harvest!</b></span><br>Your pay has increased by $0.02. Your bonus pay is now $0.06.</p>\n            ","response":0,"trial_type":"html-button-response","trial_index":126,"time_elapsed":288683,"internal_node_id":"0.0-4.0-1.59","subject_id":"602f33eb166df7c14953e825","study_id":"6197b3f67c2b5cd3b6d9596a","session_id":"619be31dbc53d924303684a1","condition":"contingent","relevant_dimensions":["antennae","wings"],"bee_group":{"antennae":"A","wings":"2","pattern":"X","legs":"X"},"bonus":0.25999999999999995},{"rt":255.79999995231628,"stimulus":"bees-with-color/bee-B2DF.svg","response":0,"trial_type":"image-button-response","trial_index":127,"time_elapsed":288940,"internal_node_id":"0.0-4.0-0.60","subject_id":"602f33eb166df7c14953e825","study_id":"6197b3f67c2b5cd3b6d9596a","session_id":"619be31dbc53d924303684a1","condition":"contingent","relevant_dimensions":["antennae","wings"],"bee_group":{"antennae":"A","wings":"2","pattern":"X","legs":"X"},"action":"harvest","summary":"good-harvest","bonus":0.25999999999999995},{"rt":399.1999999284744,"stimulus":"\n                    <p><b>Action: <em>harvest</em></b></p>\n                    <p>This is the bee that you just saw.</p>\n                    <img src=\"bees-with-color/bee-B2DF.svg\" width=\"200\">\n                    <p><span class=\"greenText\"><b>Successful harvest!</b></span><br>Your pay has increased by $0.02. Your bonus pay is now $0.08.</p>\n            ","response":0,"trial_type":"html-button-response","trial_index":128,"time_elapsed":289340,"internal_node_id":"0.0-4.0-1.60","subject_id":"602f33eb166df7c14953e825","study_id":"6197b3f67c2b5cd3b6d9596a","session_id":"619be31dbc53d924303684a1","condition":"contingent","relevant_dimensions":["antennae","wings"],"bee_group":{"antennae":"A","wings":"2","pattern":"X","legs":"X"},"bonus":0.25999999999999995},{"rt":1015.3000000715256,"stimulus":"bees-with-color/bee-A2SF.svg","response":0,"trial_type":"image-button-response","trial_index":129,"time_elapsed":290356,"internal_node_id":"0.0-4.0-0.61","subject_id":"602f33eb166df7c14953e825","study_id":"6197b3f67c2b5cd3b6d9596a","session_id":"619be31dbc53d924303684a1","condition":"contingent","relevant_dimensions":["antennae","wings"],"bee_group":{"antennae":"A","wings":"2","pattern":"X","legs":"X"},"action":"harvest","summary":"bad-harvest","bonus":0.25999999999999995},{"rt":923.3999999761581,"stimulus":"\n                    <p><b>Action: <em>harvest</em></b></p>\n                    <p>This is the bee that you just saw.</p>\n                    <img src=\"bees-with-color/bee-A2SF.svg\" width=\"200\">\n                    <p><span class=\"redText\">Bad choice, the bee was angry.</span><br><b>You have been stung!</b><br>Your pay has been decreased by $0.10. Your bonus pay is now $0.00.</p>\n            ","response":0,"trial_type":"html-button-response","trial_index":130,"time_elapsed":291281,"internal_node_id":"0.0-4.0-1.61","subject_id":"602f33eb166df7c14953e825","study_id":"6197b3f67c2b5cd3b6d9596a","session_id":"619be31dbc53d924303684a1","condition":"contingent","relevant_dimensions":["antennae","wings"],"bee_group":{"antennae":"A","wings":"2","pattern":"X","legs":"X"},"bonus":0.25999999999999995},{"rt":509.5,"stimulus":"bees-with-color/bee-A1DM.svg","response":0,"trial_type":"image-button-response","trial_index":131,"time_elapsed":291791,"internal_node_id":"0.0-4.0-0.62","subject_id":"602f33eb166df7c14953e825","study_id":"6197b3f67c2b5cd3b6d9596a","session_id":"619be31dbc53d924303684a1","condition":"contingent","relevant_dimensions":["antennae","wings"],"bee_group":{"antennae":"A","wings":"2","pattern":"X","legs":"X"},"action":"harvest","summary":"good-harvest","bonus":0.25999999999999995},{"rt":341.60000002384186,"stimulus":"\n                    <p><b>Action: <em>harvest</em></b></p>\n                    <p>This is the bee that you just saw.</p>\n                    <img src=\"bees-with-color/bee-A1DM.svg\" width=\"200\">\n                    <p><span class=\"greenText\"><b>Successful harvest!</b></span><br>Your pay has increased by $0.02. Your bonus pay is now $0.02.</p>\n            ","response":0,"trial_type":"html-button-response","trial_index":132,"time_elapsed":292134,"internal_node_id":"0.0-4.0-1.62","subject_id":"602f33eb166df7c14953e825","study_id":"6197b3f67c2b5cd3b6d9596a","session_id":"619be31dbc53d924303684a1","condition":"contingent","relevant_dimensions":["antennae","wings"],"bee_group":{"antennae":"A","wings":"2","pattern":"X","legs":"X"},"bonus":0.25999999999999995},{"rt":282.10000002384186,"stimulus":"bees-with-color/bee-B2SM.svg","response":0,"trial_type":"image-button-response","trial_index":133,"time_elapsed":292417,"internal_node_id":"0.0-4.0-0.63","subject_id":"602f33eb166df7c14953e825","study_id":"6197b3f67c2b5cd3b6d9596a","session_id":"619be31dbc53d924303684a1","condition":"contingent","relevant_dimensions":["antennae","wings"],"bee_group":{"antennae":"A","wings":"2","pattern":"X","legs":"X"},"action":"harvest","summary":"good-harvest","bonus":0.25999999999999995},{"rt":494.39999997615814,"stimulus":"\n                    <p><b>Action: <em>harvest</em></b></p>\n                    <p>This is the bee that you just saw.</p>\n                    <img src=\"bees-with-color/bee-B2SM.svg\" width=\"200\">\n                    <p><span class=\"greenText\"><b>Successful harvest!</b></span><br>Your pay has increased by $0.02. Your bonus pay is now $0.04.</p>\n            ","response":0,"trial_type":"html-button-response","trial_index":134,"time_elapsed":292912,"internal_node_id":"0.0-4.0-1.63","subject_id":"602f33eb166df7c14953e825","study_id":"6197b3f67c2b5cd3b6d9596a","session_id":"619be31dbc53d924303684a1","condition":"contingent","relevant_dimensions":["antennae","wings"],"bee_group":{"antennae":"A","wings":"2","pattern":"X","legs":"X"},"bonus":0.25999999999999995},{"rt":5543,"stimulus":"You have completed the first part of this experiment.<br><br>You will now begin a shorter second part, in which you will receive no feedback.<br>The same rules regarding bonus pay apply.<br><br>Press any key to begin.","response":" ","trial_type":"html-keyboard-response","trial_index":135,"time_elapsed":298457,"internal_node_id":"0.0-5.0","subject_id":"602f33eb166df7c14953e825","study_id":"6197b3f67c2b5cd3b6d9596a","session_id":"619be31dbc53d924303684a1","condition":"contingent","relevant_dimensions":["antennae","wings"],"bee_group":{"antennae":"A","wings":"2","pattern":"X","legs":"X"},"bonus":0.25999999999999995},{"rt":2386.5,"stimulus":"bees-with-color/bee-B1DF.svg","response":0,"trial_type":"image-button-response","trial_index":136,"time_elapsed":300853,"internal_node_id":"0.0-6.0-0.0","subject_id":"602f33eb166df7c14953e825","study_id":"6197b3f67c2b5cd3b6d9596a","session_id":"619be31dbc53d924303684a1","condition":"contingent","relevant_dimensions":["antennae","wings"],"bee_group":{"antennae":"A","wings":"2","pattern":"X","legs":"X"},"bonus":0.25999999999999995},{"rt":1321.1000000238419,"stimulus":"bees-with-color/bee-A2SF.svg","response":0,"trial_type":"image-button-response","trial_index":137,"time_elapsed":302176,"internal_node_id":"0.0-6.0-0.1","subject_id":"602f33eb166df7c14953e825","study_id":"6197b3f67c2b5cd3b6d9596a","session_id":"619be31dbc53d924303684a1","condition":"contingent","relevant_dimensions":["antennae","wings"],"bee_group":{"antennae":"A","wings":"2","pattern":"X","legs":"X"},"bonus":0.25999999999999995},{"rt":1324.1000000238419,"stimulus":"bees-with-color/bee-A2DM.svg","response":1,"trial_type":"image-button-response","trial_index":138,"time_elapsed":303502,"internal_node_id":"0.0-6.0-0.2","subject_id":"602f33eb166df7c14953e825","study_id":"6197b3f67c2b5cd3b6d9596a","session_id":"619be31dbc53d924303684a1","condition":"contingent","relevant_dimensions":["antennae","wings"],"bee_group":{"antennae":"A","wings":"2","pattern":"X","legs":"X"},"bonus":0.25999999999999995},{"rt":373,"stimulus":"bees-with-color/bee-A1SF.svg","response":0,"trial_type":"image-button-response","trial_index":139,"time_elapsed":303877,"internal_node_id":"0.0-6.0-0.3","subject_id":"602f33eb166df7c14953e825","study_id":"6197b3f67c2b5cd3b6d9596a","session_id":"619be31dbc53d924303684a1","condition":"contingent","relevant_dimensions":["antennae","wings"],"bee_group":{"antennae":"A","wings":"2","pattern":"X","legs":"X"},"bonus":0.25999999999999995},{"rt":808.6000000238419,"stimulus":"bees-with-color/bee-B2DM.svg","response":1,"trial_type":"image-button-response","trial_index":140,"time_elapsed":304687,"internal_node_id":"0.0-6.0-0.4","subject_id":"602f33eb166df7c14953e825","study_id":"6197b3f67c2b5cd3b6d9596a","session_id":"619be31dbc53d924303684a1","condition":"contingent","relevant_dimensions":["antennae","wings"],"bee_group":{"antennae":"A","wings":"2","pattern":"X","legs":"X"},"bonus":0.25999999999999995},{"rt":1117.1000000238419,"stimulus":"bees-with-color/bee-B2SF.svg","response":0,"trial_type":"image-button-response","trial_index":141,"time_elapsed":305807,"internal_node_id":"0.0-6.0-0.5","subject_id":"602f33eb166df7c14953e825","study_id":"6197b3f67c2b5cd3b6d9596a","session_id":"619be31dbc53d924303684a1","condition":"contingent","relevant_dimensions":["antennae","wings"],"bee_group":{"antennae":"A","wings":"2","pattern":"X","legs":"X"},"bonus":0.25999999999999995},{"rt":1124.8999999761581,"stimulus":"bees-with-color/bee-B1DM.svg","response":0,"trial_type":"image-button-response","trial_index":142,"time_elapsed":306933,"internal_node_id":"0.0-6.0-0.6","subject_id":"602f33eb166df7c14953e825","study_id":"6197b3f67c2b5cd3b6d9596a","session_id":"619be31dbc53d924303684a1","condition":"contingent","relevant_dimensions":["antennae","wings"],"bee_group":{"antennae":"A","wings":"2","pattern":"X","legs":"X"},"bonus":0.25999999999999995},{"rt":809.3999999761581,"stimulus":"bees-with-color/bee-B1SM.svg","response":0,"trial_type":"image-button-response","trial_index":143,"time_elapsed":307744,"internal_node_id":"0.0-6.0-0.7","subject_id":"602f33eb166df7c14953e825","study_id":"6197b3f67c2b5cd3b6d9596a","session_id":"619be31dbc53d924303684a1","condition":"contingent","relevant_dimensions":["antennae","wings"],"bee_group":{"antennae":"A","wings":"2","pattern":"X","legs":"X"},"bonus":0.25999999999999995},{"rt":595.8999999761581,"stimulus":"bees-with-color/bee-A2SM.svg","response":1,"trial_type":"image-button-response","trial_index":144,"time_elapsed":308341,"internal_node_id":"0.0-6.0-0.8","subject_id":"602f33eb166df7c14953e825","study_id":"6197b3f67c2b5cd3b6d9596a","session_id":"619be31dbc53d924303684a1","condition":"contingent","relevant_dimensions":["antennae","wings"],"bee_group":{"antennae":"A","wings":"2","pattern":"X","legs":"X"},"bonus":0.25999999999999995},{"rt":426,"stimulus":"bees-with-color/bee-B2SM.svg","response":0,"trial_type":"image-button-response","trial_index":145,"time_elapsed":308768,"internal_node_id":"0.0-6.0-0.9","subject_id":"602f33eb166df7c14953e825","study_id":"6197b3f67c2b5cd3b6d9596a","session_id":"619be31dbc53d924303684a1","condition":"contingent","relevant_dimensions":["antennae","wings"],"bee_group":{"antennae":"A","wings":"2","pattern":"X","legs":"X"},"bonus":0.25999999999999995},{"rt":833.3000000715256,"stimulus":"bees-with-color/bee-A2DF.svg","response":1,"trial_type":"image-button-response","trial_index":146,"time_elapsed":309603,"internal_node_id":"0.0-6.0-0.10","subject_id":"602f33eb166df7c14953e825","study_id":"6197b3f67c2b5cd3b6d9596a","session_id":"619be31dbc53d924303684a1","condition":"contingent","relevant_dimensions":["antennae","wings"],"bee_group":{"antennae":"A","wings":"2","pattern":"X","legs":"X"},"bonus":0.25999999999999995},{"rt":449.09999990463257,"stimulus":"bees-with-color/bee-A1SM.svg","response":0,"trial_type":"image-button-response","trial_index":147,"time_elapsed":310054,"internal_node_id":"0.0-6.0-0.11","subject_id":"602f33eb166df7c14953e825","study_id":"6197b3f67c2b5cd3b6d9596a","session_id":"619be31dbc53d924303684a1","condition":"contingent","relevant_dimensions":["antennae","wings"],"bee_group":{"antennae":"A","wings":"2","pattern":"X","legs":"X"},"bonus":0.25999999999999995},{"rt":1471.6000000238419,"stimulus":"bees-with-color/bee-B2DF.svg","response":1,"trial_type":"image-button-response","trial_index":148,"time_elapsed":311527,"internal_node_id":"0.0-6.0-0.12","subject_id":"602f33eb166df7c14953e825","study_id":"6197b3f67c2b5cd3b6d9596a","session_id":"619be31dbc53d924303684a1","condition":"contingent","relevant_dimensions":["antennae","wings"],"bee_group":{"antennae":"A","wings":"2","pattern":"X","legs":"X"},"bonus":0.25999999999999995},{"rt":852.7000000476837,"stimulus":"bees-with-color/bee-B1SF.svg","response":0,"trial_type":"image-button-response","trial_index":149,"time_elapsed":312381,"internal_node_id":"0.0-6.0-0.13","subject_id":"602f33eb166df7c14953e825","study_id":"6197b3f67c2b5cd3b6d9596a","session_id":"619be31dbc53d924303684a1","condition":"contingent","relevant_dimensions":["antennae","wings"],"bee_group":{"antennae":"A","wings":"2","pattern":"X","legs":"X"},"bonus":0.25999999999999995},{"rt":1142.1999999284744,"stimulus":"bees-with-color/bee-A1DM.svg","response":0,"trial_type":"image-button-response","trial_index":150,"time_elapsed":313525,"internal_node_id":"0.0-6.0-0.14","subject_id":"602f33eb166df7c14953e825","study_id":"6197b3f67c2b5cd3b6d9596a","session_id":"619be31dbc53d924303684a1","condition":"contingent","relevant_dimensions":["antennae","wings"],"bee_group":{"antennae":"A","wings":"2","pattern":"X","legs":"X"},"bonus":0.25999999999999995},{"rt":500,"stimulus":"bees-with-color/bee-A1DF.svg","response":1,"trial_type":"image-button-response","trial_index":151,"time_elapsed":314027,"internal_node_id":"0.0-6.0-0.15","subject_id":"602f33eb166df7c14953e825","study_id":"6197b3f67c2b5cd3b6d9596a","session_id":"619be31dbc53d924303684a1","condition":"contingent","relevant_dimensions":["antennae","wings"],"bee_group":{"antennae":"A","wings":"2","pattern":"X","legs":"X"},"bonus":0.25999999999999995},{"rt":421.7000000476837,"stimulus":"bees-with-color/bee-B2SF.svg","response":0,"trial_type":"image-button-response","trial_index":152,"time_elapsed":314450,"internal_node_id":"0.0-6.0-0.16","subject_id":"602f33eb166df7c14953e825","study_id":"6197b3f67c2b5cd3b6d9596a","session_id":"619be31dbc53d924303684a1","condition":"contingent","relevant_dimensions":["antennae","wings"],"bee_group":{"antennae":"A","wings":"2","pattern":"X","legs":"X"},"bonus":0.25999999999999995},{"rt":741.6000000238419,"stimulus":"bees-with-color/bee-A2SF.svg","response":0,"trial_type":"image-button-response","trial_index":153,"time_elapsed":315193,"internal_node_id":"0.0-6.0-0.17","subject_id":"602f33eb166df7c14953e825","study_id":"6197b3f67c2b5cd3b6d9596a","session_id":"619be31dbc53d924303684a1","condition":"contingent","relevant_dimensions":["antennae","wings"],"bee_group":{"antennae":"A","wings":"2","pattern":"X","legs":"X"},"bonus":0.25999999999999995},{"rt":579.1000000238419,"stimulus":"bees-with-color/bee-A2DF.svg","response":1,"trial_type":"image-button-response","trial_index":154,"time_elapsed":315773,"internal_node_id":"0.0-6.0-0.18","subject_id":"602f33eb166df7c14953e825","study_id":"6197b3f67c2b5cd3b6d9596a","session_id":"619be31dbc53d924303684a1","condition":"contingent","relevant_dimensions":["antennae","wings"],"bee_group":{"antennae":"A","wings":"2","pattern":"X","legs":"X"},"bonus":0.25999999999999995},{"rt":315.60000002384186,"stimulus":"bees-with-color/bee-B1DM.svg","response":0,"trial_type":"image-button-response","trial_index":155,"time_elapsed":316090,"internal_node_id":"0.0-6.0-0.19","subject_id":"602f33eb166df7c14953e825","study_id":"6197b3f67c2b5cd3b6d9596a","session_id":"619be31dbc53d924303684a1","condition":"contingent","relevant_dimensions":["antennae","wings"],"bee_group":{"antennae":"A","wings":"2","pattern":"X","legs":"X"},"bonus":0.25999999999999995},{"rt":487.7999999523163,"stimulus":"bees-with-color/bee-B2DF.svg","response":0,"trial_type":"image-button-response","trial_index":156,"time_elapsed":316579,"internal_node_id":"0.0-6.0-0.20","subject_id":"602f33eb166df7c14953e825","study_id":"6197b3f67c2b5cd3b6d9596a","session_id":"619be31dbc53d924303684a1","condition":"contingent","relevant_dimensions":["antennae","wings"],"bee_group":{"antennae":"A","wings":"2","pattern":"X","legs":"X"},"bonus":0.25999999999999995},{"rt":450.7999999523163,"stimulus":"bees-with-color/bee-A1DM.svg","response":1,"trial_type":"image-button-response","trial_index":157,"time_elapsed":317031,"internal_node_id":"0.0-6.0-0.21","subject_id":"602f33eb166df7c14953e825","study_id":"6197b3f67c2b5cd3b6d9596a","session_id":"619be31dbc53d924303684a1","condition":"contingent","relevant_dimensions":["antennae","wings"],"bee_group":{"antennae":"A","wings":"2","pattern":"X","legs":"X"},"bonus":0.25999999999999995},{"rt":647.1000000238419,"stimulus":"bees-with-color/bee-A1DF.svg","response":0,"trial_type":"image-button-response","trial_index":158,"time_elapsed":317680,"internal_node_id":"0.0-6.0-0.22","subject_id":"602f33eb166df7c14953e825","study_id":"6197b3f67c2b5cd3b6d9596a","session_id":"619be31dbc53d924303684a1","condition":"contingent","relevant_dimensions":["antennae","wings"],"bee_group