[{"success":true,"trial_type":"fullscreen","trial_index":0,"time_elapsed":21807,"internal_node_id":"0.0-0.0","subject_id":"60e03b0a759b4850df25f739","study_id":"6197b3f67c2b5cd3b6d9596a","session_id":"619be31facd4a281561ae977","condition":"contingent","relevant_dimensions":["wings","pattern"],"bee_group":{"antennae":"X","wings":"1","pattern":"S","legs":"X"},"bonus":0.7600000000000002},{"success":true,"timeout":false,"failed_images":[],"failed_audio":[],"failed_video":[],"trial_type":"preload","trial_index":1,"time_elapsed":24239,"internal_node_id":"0.0-1.0","subject_id":"60e03b0a759b4850df25f739","study_id":"6197b3f67c2b5cd3b6d9596a","session_id":"619be31facd4a281561ae977","condition":"contingent","relevant_dimensions":["wings","pattern"],"bee_group":{"antennae":"X","wings":"1","pattern":"S","legs":"X"},"bonus":0.7600000000000002},{"rt":1489.2000000178814,"stimulus":"Welcome! Press any key to begin.","response":" ","trial_type":"html-keyboard-response","trial_index":2,"time_elapsed":25729,"internal_node_id":"0.0-2.0","subject_id":"60e03b0a759b4850df25f739","study_id":"6197b3f67c2b5cd3b6d9596a","session_id":"619be31facd4a281561ae977","condition":"contingent","relevant_dimensions":["wings","pattern"],"bee_group":{"antennae":"X","wings":"1","pattern":"S","legs":"X"},"bonus":0.7600000000000002},{"view_history":[{"page_index":0,"viewing_time":3058.100000023842},{"page_index":1,"viewing_time":7002.799999982119},{"page_index":2,"viewing_time":8031},{"page_index":3,"viewing_time":5571},{"page_index":4,"viewing_time":4780.0999999940395},{"page_index":5,"viewing_time":3366.9000000059605},{"page_index":6,"viewing_time":8523.200000017881},{"page_index":7,"viewing_time":2371.7999999821186},{"page_index":6,"viewing_time":6115},{"page_index":7,"viewing_time":1800.0999999940395},{"page_index":8,"viewing_time":1766.2000000178814},{"page_index":9,"viewing_time":1178.699999988079},{"page_index":10,"viewing_time":1673.0999999940395},{"page_index":11,"viewing_time":3002.9000000059605},{"page_index":10,"viewing_time":937.9000000059605},{"page_index":9,"viewing_time":424.40000000596046},{"page_index":8,"viewing_time":586.6999999880791},{"page_index":7,"viewing_time":8561.09999999404},{"page_index":8,"viewing_time":1166.9000000059605},{"page_index":9,"viewing_time":1171},{"page_index":10,"viewing_time":1265},{"page_index":11,"viewing_time":1850.0999999940395},{"page_index":12,"viewing_time":6842.9000000059605},{"page_index":13,"viewing_time":1269},{"page_index":14,"viewing_time":1274}],"rt":83590.10000002384,"trial_type":"instructions","trial_index":3,"time_elapsed":109319,"internal_node_id":"0.0-3.0-0.0","subject_id":"60e03b0a759b4850df25f739","study_id":"6197b3f67c2b5cd3b6d9596a","session_id":"619be31facd4a281561ae977","condition":"contingent","relevant_dimensions":["wings","pattern"],"bee_group":{"antennae":"X","wings":"1","pattern":"S","legs":"X"},"bonus":0.7600000000000002},{"rt":23980.59999999404,"response":{"Q0":["Two or six legs","Stripes or spots on body","Single or double wings","Antennae or no antennae"]},"question_order":[0],"trial_type":"survey-multi-select","trial_index":4,"time_elapsed":133302,"internal_node_id":"0.0-3.0-1.0","subject_id":"60e03b0a759b4850df25f739","study_id":"6197b3f67c2b5cd3b6d9596a","session_id":"619be31facd4a281561ae977","condition":"contingent","relevant_dimensions":["wings","pattern"],"bee_group":{"antennae":"X","wings":"1","pattern":"S","legs":"X"},"correct":true,"bonus":0.7600000000000002},{"rt":12960.40000000596,"response":{"Q1":"No.","Q2":"Based on the four features of the bee.","Q3":"You do not learn if it was friendly or dangerous, and do not alter your bonus."},"question_order":[0,1,2],"trial_type":"survey-multi-choice","trial_index":5,"time_elapsed":146264,"internal_node_id":"0.0-3.0-2.0","subject_id":"60e03b0a759b4850df25f739","study_id":"6197b3f67c2b5cd3b6d9596a","session_id":"619be31facd4a281561ae977","condition":"contingent","relevant_dimensions":["wings","pattern"],"bee_group":{"antennae":"X","wings":"1","pattern":"S","legs":"X"},"correct":true,"bonus":0.7600000000000002},{"rt":3153,"stimulus":"<p>Congrats, you got everything right<br>When you're ready, click the button below to continue to the experiment.</p>","response":0,"trial_type":"html-button-response","trial_index":6,"time_elapsed":149419,"internal_node_id":"0.0-3.0-3.0","subject_id":"60e03b0a759b4850df25f739","study_id":"6197b3f67c2b5cd3b6d9596a","session_id":"619be31facd4a281561ae977","condition":"contingent","relevant_dimensions":["wings","pattern"],"bee_group":{"antennae":"X","wings":"1","pattern":"S","legs":"X"},"bonus":0.7600000000000002},{"rt":5361.199999988079,"stimulus":"bees-with-color/bee-A1DM.svg","response":0,"trial_type":"image-button-response","trial_index":7,"time_elapsed":154781,"internal_node_id":"0.0-4.0-0.0","subject_id":"60e03b0a759b4850df25f739","study_id":"6197b3f67c2b5cd3b6d9596a","session_id":"619be31facd4a281561ae977","condition":"contingent","relevant_dimensions":["wings","pattern"],"bee_group":{"antennae":"X","wings":"1","pattern":"S","legs":"X"},"action":"harvest","summary":"good-harvest","bonus":0.7600000000000002},{"rt":31378.30000001192,"stimulus":"\n                    <p><b>Action: <em>harvest</em></b></p>\n                    <p>This is the bee that you just saw.</p>\n                    <img src=\"bees-with-color/bee-A1DM.svg\" width=\"200\">\n                    <p><span class=\"greenText\"><b>Successful harvest!</b></span><br>Your pay has increased by $0.02. Your bonus pay is now $0.56.</p>\n            ","response":0,"trial_type":"html-button-response","trial_index":8,"time_elapsed":186161,"internal_node_id":"0.0-4.0-1.0","subject_id":"60e03b0a759b4850df25f739","study_id":"6197b3f67c2b5cd3b6d9596a","session_id":"619be31facd4a281561ae977","condition":"contingent","relevant_dimensions":["wings","pattern"],"bee_group":{"antennae":"X","wings":"1","pattern":"S","legs":"X"},"bonus":0.7600000000000002},{"rt":6028,"stimulus":"bees-with-color/bee-A2SF.svg","response":0,"trial_type":"image-button-response","trial_index":9,"time_elapsed":192190,"internal_node_id":"0.0-4.0-0.1","subject_id":"60e03b0a759b4850df25f739","study_id":"6197b3f67c2b5cd3b6d9596a","session_id":"619be31facd4a281561ae977","condition":"contingent","relevant_dimensions":["wings","pattern"],"bee_group":{"antennae":"X","wings":"1","pattern":"S","legs":"X"},"action":"harvest","summary":"good-harvest","bonus":0.7600000000000002},{"rt":13214.699999988079,"stimulus":"\n                    <p><b>Action: <em>harvest</em></b></p>\n                    <p>This is the bee that you just saw.</p>\n                    <img src=\"bees-with-color/bee-A2SF.svg\" width=\"200\">\n                    <p><span class=\"greenText\"><b>Successful harvest!</b></span><br>Your pay has increased by $0.02. Your bonus pay is now $0.58.</p>\n            ","response":0,"trial_type":"html-button-response","trial_index":10,"time_elapsed":205406,"internal_node_id":"0.0-4.0-1.1","subject_id":"60e03b0a759b4850df25f739","study_id":"6197b3f67c2b5cd3b6d9596a","session_id":"619be31facd4a281561ae977","condition":"contingent","relevant_dimensions":["wings","pattern"],"bee_group":{"antennae":"X","wings":"1","pattern":"S","legs":"X"},"bonus":0.7600000000000002},{"rt":1375.9000000059605,"stimulus":"bees-with-color/bee-A1SF.svg","response":1,"trial_type":"image-button-response","trial_index":11,"time_elapsed":206783,"internal_node_id":"0.0-4.0-0.2","subject_id":"60e03b0a759b4850df25f739","study_id":"6197b3f67c2b5cd3b6d9596a","session_id":"619be31facd4a281561ae977","condition":"contingent","relevant_dimensions":["wings","pattern"],"bee_group":{"antennae":"X","wings":"1","pattern":"S","legs":"X"},"action":"avoid","summary":"good-avoid","bonus":0.7600000000000002},{"rt":2864.0999999940395,"stimulus":"\n                    <p><b>Action: <em>avoid</em></b></p>\n                    <p>This is the bee that you just saw.</p>\n                    <img src=\"bees-with-color/bee-A1SF.svg\" width=\"200\">\n                    <p><br>Your bonus pay is unchanged, and remains at $0.58.</p>\n            ","response":0,"trial_type":"html-button-response","trial_index":12,"time_elapsed":209648,"internal_node_id":"0.0-4.0-1.2","subject_id":"60e03b0a759b4850df25f739","study_id":"6197b3f67c2b5cd3b6d9596a","session_id":"619be31facd4a281561ae977","condition":"contingent","relevant_dimensions":["wings","pattern"],"bee_group":{"antennae":"X","wings":"1","pattern":"S","legs":"X"},"bonus":0.7600000000000002},{"rt":1549.9000000059605,"stimulus":"bees-with-color/bee-B1DM.svg","response":1,"trial_type":"image-button-response","trial_index":13,"time_elapsed":211199,"internal_node_id":"0.0-4.0-0.3","subject_id":"60e03b0a759b4850df25f739","study_id":"6197b3f67c2b5cd3b6d9596a","session_id":"619be31facd4a281561ae977","condition":"contingent","relevant_dimensions":["wings","pattern"],"bee_group":{"antennae":"X","wings":"1","pattern":"S","legs":"X"},"action":"avoid","summary":"bad-avoid","bonus":0.7600000000000002},{"rt":522.1999999880791,"stimulus":"\n                    <p><b>Action: <em>avoid</em></b></p>\n                    <p>This is the bee that you just saw.</p>\n                    <img src=\"bees-with-color/bee-B1DM.svg\" width=\"200\">\n                    <p><br>Your bonus pay is unchanged, and remains at $0.58.</p>\n            ","response":0,"trial_type":"html-button-response","trial_index":14,"time_elapsed":211722,"internal_node_id":"0.0-4.0-1.3","subject_id":"60e03b0a759b4850df25f739","study_id":"6197b3f67c2b5cd3b6d9596a","session_id":"619be31facd4a281561ae977","condition":"contingent","relevant_dimensions":["wings","pattern"],"bee_group":{"antennae":"X","wings":"1","pattern":"S","legs":"X"},"bonus":0.7600000000000002},{"rt":2144.9000000059605,"stimulus":"bees-with-color/bee-B2SF.svg","response":1,"trial_type":"image-button-response","trial_index":15,"time_elapsed":213868,"internal_node_id":"0.0-4.0-0.4","subject_id":"60e03b0a759b4850df25f739","study_id":"6197b3f67c2b5cd3b6d9596a","session_id":"619be31facd4a281561ae977","condition":"contingent","relevant_dimensions":["wings","pattern"],"bee_group":{"antennae":"X","wings":"1","pattern":"S","legs":"X"},"action":"avoid","summary":"bad-avoid","bonus":0.7600000000000002},{"rt":567.1999999880791,"stimulus":"\n                    <p><b>Action: <em>avoid</em></b></p>\n                    <p>This is the bee that you just saw.</p>\n                    <img src=\"bees-with-color/bee-B2SF.svg\" width=\"200\">\n                    <p><br>Your bonus pay is unchanged, and remains at $0.58.</p>\n            ","response":0,"trial_type":"html-button-response","trial_index":16,"time_elapsed":214436,"internal_node_id":"0.0-4.0-1.4","subject_id":"60e03b0a759b4850df25f739","study_id":"6197b3f67c2b5cd3b6d9596a","session_id":"619be31facd4a281561ae977","condition":"contingent","relevant_dimensions":["wings","pattern"],"bee_group":{"antennae":"X","wings":"1","pattern":"S","legs":"X"},"bonus":0.7600000000000002},{"rt":1943.199999988079,"stimulus":"bees-with-color/bee-B1DF.svg","response":1,"trial_type":"image-button-response","trial_index":17,"time_elapsed":216380,"internal_node_id":"0.0-4.0-0.5","subject_id":"60e03b0a759b4850df25f739","study_id":"6197b3f67c2b5cd3b6d9596a","session_id":"619be31facd4a281561ae977","condition":"contingent","relevant_dimensions":["wings","pattern"],"bee_group":{"antennae":"X","wings":"1","pattern":"S","legs":"X"},"action":"avoid","summary":"bad-avoid","bonus":0.7600000000000002},{"rt":786,"stimulus":"\n                    <p><b>Action: <em>avoid</em></b></p>\n                    <p>This is the bee that you just saw.</p>\n                    <img src=\"bees-with-color/bee-B1DF.svg\" width=\"200\">\n                    <p><br>Your bonus pay is unchanged, and remains at $0.58.</p>\n            ","response":0,"trial_type":"html-button-response","trial_index":18,"time_elapsed":217167,"internal_node_id":"0.0-4.0-1.5","subject_id":"60e03b0a759b4850df25f739","study_id":"6197b3f67c2b5cd3b6d9596a","session_id":"619be31facd4a281561ae977","condition":"contingent","relevant_dimensions":["wings","pattern"],"bee_group":{"antennae":"X","wings":"1","pattern":"S","legs":"X"},"bonus":0.7600000000000002},{"rt":2489.199999988079,"stimulus":"bees-with-color/bee-B2SM.svg","response":1,"trial_type":"image-button-response","trial_index":19,"time_elapsed":219657,"internal_node_id":"0.0-4.0-0.6","subject_id":"60e03b0a759b4850df25f739","study_id":"6197b3f67c2b5cd3b6d9596a","session_id":"619be31facd4a281561ae977","condition":"contingent","relevant_dimensions":["wings","pattern"],"bee_group":{"antennae":"X","wings":"1","pattern":"S","legs":"X"},"action":"avoid","summary":"bad-avoid","bonus":0.7600000000000002},{"rt":497.80000001192093,"stimulus":"\n                    <p><b>Action: <em>avoid</em></b></p>\n                    <p>This is the bee that you just saw.</p>\n                    <img src=\"bees-with-color/bee-B2SM.svg\" width=\"200\">\n                    <p><br>Your bonus pay is unchanged, and remains at $0.58.</p>\n            ","response":0,"trial_type":"html-button-response","trial_index":20,"time_elapsed":220156,"internal_node_id":"0.0-4.0-1.6","subject_id":"60e03b0a759b4850df25f739","study_id":"6197b3f67c2b5cd3b6d9596a","session_id":"619be31facd4a281561ae977","condition":"contingent","relevant_dimensions":["wings","pattern"],"bee_group":{"antennae":"X","wings":"1","pattern":"S","legs":"X"},"bonus":0.7600000000000002},{"rt":867,"stimulus":"bees-with-color/bee-A1SM.svg","response":1,"trial_type":"image-button-response","trial_index":21,"time_elapsed":221024,"internal_node_id":"0.0-4.0-0.7","subject_id":"60e03b0a759b4850df25f739","study_id":"6197b3f67c2b5cd3b6d9596a","session_id":"619be31facd4a281561ae977","condition":"contingent","relevant_dimensions":["wings","pattern"],"bee_group":{"antennae":"X","wings":"1","pattern":"S","legs":"X"},"action":"avoid","summary":"good-avoid","bonus":0.7600000000000002},{"rt":445.90000000596046,"stimulus":"\n                    <p><b>Action: <em>avoid</em></b></p>\n                    <p>This is the bee that you just saw.</p>\n                    <img src=\"bees-with-color/bee-A1SM.svg\" width=\"200\">\n                    <p><br>Your bonus pay is unchanged, and remains at $0.58.</p>\n            ","response":0,"trial_type":"html-button-response","trial_index":22,"time_elapsed":221471,"internal_node_id":"0.0-4.0-1.7","subject_id":"60e03b0a759b4850df25f739","study_id":"6197b3f67c2b5cd3b6d9596a","session_id":"619be31facd4a281561ae977","condition":"contingent","relevant_dimensions":["wings","pattern"],"bee_group":{"antennae":"X","wings":"1","pattern":"S","legs":"X"},"bonus":0.7600000000000002},{"rt":1386.9000000059605,"stimulus":"bees-with-color/bee-A2DM.svg","response":1,"trial_type":"image-button-response","trial_index":23,"time_elapsed":222859,"internal_node_id":"0.0-4.0-0.8","subject_id":"60e03b0a759b4850df25f739","study_id":"6197b3f67c2b5cd3b6d9596a","session_id":"619be31facd4a281561ae977","condition":"contingent","relevant_dimensions":["wings","pattern"],"bee_group":{"antennae":"X","wings":"1","pattern":"S","legs":"X"},"action":"avoid","summary":"bad-avoid","bonus":0.7600000000000002},{"rt":437.09999999403954,"stimulus":"\n                    <p><b>Action: <em>avoid</em></b></p>\n                    <p>This is the bee that you just saw.</p>\n                    <img src=\"bees-with-color/bee-A2DM.svg\" width=\"200\">\n                    <p><br>Your bonus pay is unchanged, and remains at $0.58.</p>\n            ","response":0,"trial_type":"html-button-response","trial_index":24,"time_elapsed":223297,"internal_node_id":"0.0-4.0-1.8","subject_id":"60e03b0a759b4850df25f739","study_id":"6197b3f67c2b5cd3b6d9596a","session_id":"619be31facd4a281561ae977","condition":"contingent","relevant_dimensions":["wings","pattern"],"bee_group":{"antennae":"X","wings":"1","pattern":"S","legs":"X"},"bonus":0.7600000000000002},{"rt":3472.2999999821186,"stimulus":"bees-with-color/bee-B2DM.svg","response":1,"trial_type":"image-button-response","trial_index":25,"time_elapsed":226770,"internal_node_id":"0.0-4.0-0.9","subject_id":"60e03b0a759b4850df25f739","study_id":"6197b3f67c2b5cd3b6d9596a","session_id":"619be31facd4a281561ae977","condition":"contingent","relevant_dimensions":["wings","pattern"],"bee_group":{"antennae":"X","wings":"1","pattern":"S","legs":"X"},"action":"avoid","summary":"bad-avoid","bonus":0.7600000000000002},{"rt":538.0999999940395,"stimulus":"\n                    <p><b>Action: <em>avoid</em></b></p>\n                    <p>This is the bee that you just saw.</p>\n                    <img src=\"bees-with-color/bee-B2DM.svg\" width=\"200\">\n                    <p><br>Your bonus pay is unchanged, and remains at $0.58.</p>\n            ","response":0,"trial_type":"html-button-response","trial_index":26,"time_elapsed":227309,"internal_node_id":"0.0-4.0-1.9","subject_id":"60e03b0a759b4850df25f739","study_id":"6197b3f67c2b5cd3b6d9596a","session_id":"619be31facd4a281561ae977","condition":"contingent","relevant_dimensions":["wings","pattern"],"bee_group":{"antennae":"X","wings":"1","pattern":"S","legs":"X"},"bonus":0.7600000000000002},{"rt":1109.0999999940395,"stimulus":"bees-with-color/bee-A1DF.svg","response":1,"trial_type":"image-button-response","trial_index":27,"time_elapsed":228419,"internal_node_id":"0.0-4.0-0.10","subject_id":"60e03b0a759b4850df25f739","study_id":"6197b3f67c2b5cd3b6d9596a","session_id":"619be31facd4a281561ae977","condition":"contingent","relevant_dimensions":["wings","pattern"],"bee_group":{"antennae":"X","wings":"1","pattern":"S","legs":"X"},"action":"avoid","summary":"bad-avoid","bonus":0.7600000000000002},{"rt":543.1999999880791,"stimulus":"\n                    <p><b>Action: <em>avoid</em></b></p>\n                    <p>This is the bee that you just saw.</p>\n                    <img src=\"bees-with-color/bee-A1DF.svg\" width=\"200\">\n                    <p><br>Your bonus pay is unchanged, and remains at $0.58.</p>\n            ","response":0,"trial_type":"html-button-response","trial_index":28,"time_elapsed":228963,"internal_node_id":"0.0-4.0-1.10","subject_id":"60e03b0a759b4850df25f739","study_id":"6197b3f67c2b5cd3b6d9596a","session_id":"619be31facd4a281561ae977","condition":"contingent","relevant_dimensions":["wings","pattern"],"bee_group":{"antennae":"X","wings":"1","pattern":"S","legs":"X"},"bonus":0.7600000000000002},{"rt":1853.2999999821186,"stimulus":"bees-with-color/bee-A2SM.svg","response":1,"trial_type":"image-button-response","trial_index":29,"time_elapsed":230817,"internal_node_id":"0.0-4.0-0.11","subject_id":"60e03b0a759b4850df25f739","study_id":"6197b3f67c2b5cd3b6d9596a","session_id":"619be31facd4a281561ae977","condition":"contingent","relevant_dimensions":["wings","pattern"],"bee_group":{"antennae":"X","wings":"1","pattern":"S","legs":"X"},"action":"avoid","summary":"bad-avoid","bonus":0.7600000000000002},{"rt":569.9000000059605,"stimulus":"\n                    <p><b>Action: <em>avoid</em></b></p>\n                    <p>This is the bee that you just saw.</p>\n                    <img src=\"bees-with-color/bee-A2SM.svg\" width=\"200\">\n                    <p><br>Your bonus pay is unchanged, and remains at $0.58.</p>\n            ","response":0,"trial_type":"html-button-response","trial_index":30,"time_elapsed":231388,"internal_node_id":"0.0-4.0-1.11","subject_id":"60e03b0a759b4850df25f739","study_id":"6197b3f67c2b5cd3b6d9596a","session_id":"619be31facd4a281561ae977","condition":"contingent","relevant_dimensions":["wings","pattern"],"bee_group":{"antennae":"X","wings":"1","pattern":"S","legs":"X"},"bonus":0.7600000000000002},{"rt":742.4000000059605,"stimulus":"bees-with-color/bee-B1SM.svg","response":1,"trial_type":"image-button-response","trial_index":31,"time_elapsed":232131,"internal_node_id":"0.0-4.0-0.12","subject_id":"60e03b0a759b4850df25f739","study_id":"6197b3f67c2b5cd3b6d9596a","session_id":"619be31facd4a281561ae977","condition":"contingent","relevant_dimensions":["wings","pattern"],"bee_group":{"antennae":"X","wings":"1","pattern":"S","legs":"X"},"action":"avoid","summary":"good-avoid","bonus":0.7600000000000002},{"rt":387.09999999403954,"stimulus":"\n                    <p><b>Action: <em>avoid</em></b></p>\n                    <p>This is the bee that you just saw.</p>\n                    <img src=\"bees-with-color/bee-B1SM.svg\" width=\"200\">\n                    <p><br>Your bonus pay is unchanged, and remains at $0.58.</p>\n            ","response":0,"trial_type":"html-button-response","trial_index":32,"time_elapsed":232519,"internal_node_id":"0.0-4.0-1.12","subject_id":"60e03b0a759b4850df25f739","study_id":"6197b3f67c2b5cd3b6d9596a","session_id":"619be31facd4a281561ae977","condition":"contingent","relevant_dimensions":["wings","pattern"],"bee_group":{"antennae":"X","wings":"1","pattern":"S","legs":"X"},"bonus":0.7600000000000002},{"rt":552.5,"stimulus":"bees-with-color/bee-B1SF.svg","response":1,"trial_type":"image-button-response","trial_index":33,"time_elapsed":233073,"internal_node_id":"0.0-4.0-0.13","subject_id":"60e03b0a759b4850df25f739","study_id":"6197b3f67c2b5cd3b6d9596a","session_id":"619be31facd4a281561ae977","condition":"contingent","relevant_dimensions":["wings","pattern"],"bee_group":{"antennae":"X","wings":"1","pattern":"S","legs":"X"},"action":"avoid","summary":"good-avoid","bonus":0.7600000000000002},{"rt":334,"stimulus":"\n                    <p><b>Action: <em>avoid</em></b></p>\n                    <p>This is the bee that you just saw.</p>\n                    <img src=\"bees-with-color/bee-B1SF.svg\" width=\"200\">\n                    <p><br>Your bonus pay is unchanged, and remains at $0.58.</p>\n            ","response":0,"trial_type":"html-button-response","trial_index":34,"time_elapsed":233407,"internal_node_id":"0.0-4.0-1.13","subject_id":"60e03b0a759b4850df25f739","study_id":"6197b3f67c2b5cd3b6d9596a","session_id":"619be31facd4a281561ae977","condition":"contingent","relevant_dimensions":["wings","pattern"],"bee_group":{"antennae":"X","wings":"1","pattern":"S","legs":"X"},"bonus":0.7600000000000002},{"rt":769.2999999821186,"stimulus":"bees-with-color/bee-B2DF.svg","response":1,"trial_type":"image-button-response","trial_index":35,"time_elapsed":234177,"internal_node_id":"0.0-4.0-0.14","subject_id":"60e03b0a759b4850df25f739","study_id":"6197b3f67c2b5cd3b6d9596a","session_id":"619be31facd4a281561ae977","condition":"contingent","relevant_dimensions":["wings","pattern"],"bee_group":{"antennae":"X","wings":"1","pattern":"S","legs":"X"},"action":"avoid","summary":"bad-avoid","bonus":0.7600000000000002},{"rt":350.09999999403954,"stimulus":"\n                    <p><b>Action: <em>avoid</em></b></p>\n                    <p>This is the bee that you just saw.</p>\n                    <img src=\"bees-with-color/bee-B2DF.svg\" width=\"200\">\n                    <p><br>Your bonus pay is unchanged, and remains at $0.58.</p>\n            ","response":0,"trial_type":"html-button-response","trial_index":36,"time_elapsed":234528,"internal_node_id":"0.0-4.0-1.14","subject_id":"60e03b0a759b4850df25f739","study_id":"6197b3f67c2b5cd3b6d9596a","session_id":"619be31facd4a281561ae977","condition":"contingent","relevant_dimensions":["wings","pattern"],"bee_group":{"antennae":"X","wings":"1","pattern":"S","legs":"X"},"bonus":0.7600000000000002},{"rt":771.1999999880791,"stimulus":"bees-with-color/bee-A2DF.svg","response":1,"trial_type":"image-button-response","trial_index":37,"time_elapsed":235300,"internal_node_id":"0.0-4.0-0.15","subject_id":"60e03b0a759b4850df25f739","study_id":"6197b3f67c2b5cd3b6d9596a","session_id":"619be31facd4a281561ae977","condition":"contingent","relevant_dimensions":["wings","pattern"],"bee_group":{"antennae":"X","wings":"1","pattern":"S","legs":"X"},"action":"avoid","summary":"bad-avoid","bonus":0.7600000000000002},{"rt":325.19999998807907,"stimulus":"\n                    <p><b>Action: <em>avoid</em></b></p>\n                    <p>This is the bee that you just saw.</p>\n                    <img src=\"bees-with-color/bee-A2DF.svg\" width=\"200\">\n                    <p><br>Your bonus pay is unchanged, and remains at $0.58.</p>\n            ","response":0,"trial_type":"html-button-response","trial_index":38,"time_elapsed":235626,"internal_node_id":"0.0-4.0-1.15","subject_id":"60e03b0a759b4850df25f739","study_id":"6197b3f67c2b5cd3b6d9596a","session_id":"619be31facd4a281561ae977","condition":"contingent","relevant_dimensions":["wings","pattern"],"bee_group":{"antennae":"X","wings":"1","pattern":"S","legs":"X"},"bonus":0.7600000000000002},{"rt":1127.5,"stimulus":"bees-with-color/bee-A1DM.svg","response":1,"trial_type":"image-button-response","trial_index":39,"time_elapsed":236755,"internal_node_id":"0.0-4.0-0.16","subject_id":"60e03b0a759b4850df25f739","study_id":"6197b3f67c2b5cd3b6d9596a","session_id":"619be31facd4a281561ae977","condition":"contingent","relevant_dimensions":["wings","pattern"],"bee_group":{"antennae":"X","wings":"1","pattern":"S","legs":"X"},"action":"avoid","summary":"bad-avoid","bonus":0.7600000000000002},{"rt":2255,"stimulus":"\n                    <p><b>Action: <em>avoid</em></b></p>\n                    <p>This is the bee that you just saw.</p>\n                    <img src=\"bees-with-color/bee-A1DM.svg\" width=\"200\">\n                    <p><br>Your bonus pay is unchanged, and remains at $0.58.</p>\n            ","response":0,"trial_type":"html-button-response","trial_index":40,"time_elapsed":239010,"internal_node_id":"0.0-4.0-1.16","subject_id":"60e03b0a759b4850df25f739","study_id":"6197b3f67c2b5cd3b6d9596a","session_id":"619be31facd4a281561ae977","condition":"contingent","relevant_dimensions":["wings","pattern"],"bee_group":{"antennae":"X","wings":"1","pattern":"S","legs":"X"},"bonus":0.7600000000000002},{"rt":1185.0999999940395,"stimulus":"bees-with-color/bee-A1DF.svg","response":1,"trial_type":"image-button-response","trial_index":41,"time_elapsed":240196,"internal_node_id":"0.0-4.0-0.17","subject_id":"60e03b0a759b4850df25f739","study_id":"6197b3f67c2b5cd3b6d9596a","session_id":"619be31facd4a281561ae977","condition":"contingent","relevant_dimensions":["wings","pattern"],"bee_group":{"antennae":"X","wings":"1","pattern":"S","legs":"X"},"action":"avoid","summary":"bad-avoid","bonus":0.7600000000000002},{"rt":683.1999999880791,"stimulus":"\n                    <p><b>Action: <em>avoid</em></b></p>\n                    <p>This is the bee that you just saw.</p>\n                    <img src=\"bees-with-color/bee-A1DF.svg\" width=\"200\">\n                    <p><br>Your bonus pay is unchanged, and remains at $0.58.</p>\n            ","response":0,"trial_type":"html-button-response","trial_index":42,"time_elapsed":240880,"internal_node_id":"0.0-4.0-1.17","subject_id":"60e03b0a759b4850df25f739","study_id":"6197b3f67c2b5cd3b6d9596a","session_id":"619be31facd4a281561ae977","condition":"contingent","relevant_dimensions":["wings","pattern"],"bee_group":{"antennae":"X","wings":"1","pattern":"S","legs":"X"},"bonus":0.7600000000000002},{"rt":1143.199999988079,"stimulus":"bees-with-color/bee-A2DM.svg","response":1,"trial_type":"image-button-response","trial_index":43,"time_elapsed":242024,"internal_node_id":"0.0-4.0-0.18","subject_id":"60e03b0a759b4850df25f739","study_id":"6197b3f67c2b5cd3b6d9596a","session_id":"619be31facd4a281561ae977","condition":"contingent","relevant_dimensions":["wings","pattern"],"bee_group":{"antennae":"X","wings":"1","pattern":"S","legs":"X"},"action":"avoid","summary":"bad-avoid","bonus":0.7600000000000002},{"rt":324.09999999403954,"stimulus":"\n                    <p><b>Action: <em>avoid</em></b></p>\n                    <p>This is the bee that you just saw.</p>\n                    <img src=\"bees-with-color/bee-A2DM.svg\" width=\"200\">\n                    <p><br>Your bonus pay is unchanged, and remains at $0.58.</p>\n            ","response":0,"trial_type":"html-button-response","trial_index":44,"time_elapsed":242349,"internal_node_id":"0.0-4.0-1.18","subject_id":"60e03b0a759b4850df25f739","study_id":"6197b3f67c2b5cd3b6d9596a","session_id":"619be31facd4a281561ae977","condition":"contingent","relevant_dimensions":["wings","pattern"],"bee_group":{"antennae":"X","wings":"1","pattern":"S","legs":"X"},"bonus":0.7600000000000002},{"rt":766.1999999880791,"stimulus":"bees-with-color/bee-B2DF.svg","response":1,"trial_type":"image-button-response","trial_index":45,"time_elapsed":243116,"internal_node_id":"0.0-4.0-0.19","subject_id":"60e03b0a759b4850df25f739","study_id":"6197b3f67c2b5cd3b6d9596a","session_id":"619be31facd4a281561ae977","condition":"contingent","relevant_dimensions":["wings","pattern"],"bee_group":{"antennae":"X","wings":"1","pattern":"S","legs":"X"},"action":"avoid","summary":"bad-avoid","bonus":0.7600000000000002},{"rt":369,"stimulus":"\n                    <p><b>Action: <em>avoid</em></b></p>\n                    <p>This is the bee that you just saw.</p>\n                    <img src=\"bees-with-color/bee-B2DF.svg\" width=\"200\">\n                    <p><br>Your bonus pay is unchanged, and remains at $0.58.</p>\n            ","response":0,"trial_type":"html-button-response","trial_index":46,"time_elapsed":243486,"internal_node_id":"0.0-4.0-1.19","subject_id":"60e03b0a759b4850df25f739","study_id":"6197b3f67c2b5cd3b6d9596a","session_id":"619be31facd4a281561ae977","condition":"contingent","relevant_dimensions":["wings","pattern"],"bee_group":{"antennae":"X","wings":"1","pattern":"S","legs":"X"},"bonus":0.7600000000000002},{"rt":908.5,"stimulus":"bees-with-color/bee-A1SM.svg","response":1,"trial_type":"image-button-response","trial_index":47,"time_elapsed":244396,"internal_node_id":"0.0-4.0-0.20","subject_id":"60e03b0a759b4850df25f739","study_id":"6197b3f67c2b5cd3b6d9596a","session_id":"619be31facd4a281561ae977","condition":"contingent","relevant_dimensions":["wings","pattern"],"bee_group":{"antennae":"X","wings":"1","pattern":"S","legs":"X"},"action":"avoid","summary":"good-avoid","bonus":0.7600000000000002},{"rt":348.90000000596046,"stimulus":"\n                    <p><b>Action: <em>avoid</em></b></p>\n                    <p>This is the bee that you just saw.</p>\n                    <img src=\"bees-with-color/bee-A1SM.svg\" width=\"200\">\n                    <p><br>Your bonus pay is unchanged, and remains at $0.58.</p>\n            ","response":0,"trial_type":"html-button-response","trial_index":48,"time_elapsed":244745,"internal_node_id":"0.0-4.0-1.20","subject_id":"60e03b0a759b4850df25f739","study_id":"6197b3f67c2b5cd3b6d9596a","session_id":"619be31facd4a281561ae977","condition":"contingent","relevant_dimensions":["wings","pattern"],"bee_group":{"antennae":"X","wings":"1","pattern":"S","legs":"X"},"bonus":0.7600000000000002},{"rt":1813.300000011921,"stimulus":"bees-with-color/bee-A2DF.svg","response":1,"trial_type":"image-button-response","trial_index":49,"time_elapsed":246559,"internal_node_id":"0.0-4.0-0.21","subject_id":"60e03b0a759b4850df25f739","study_id":"6197b3f67c2b5cd3b6d9596a","session_id":"619be31facd4a281561ae977","condition":"contingent","relevant_dimensions":["wings","pattern"],"bee_group":{"antennae":"X","wings":"1","pattern":"S","legs":"X"},"action":"avoid","summary":"bad-avoid","bonus":0.7600000000000002},{"rt":920.3999999761581,"stimulus":"\n                    <p><b>Action: <em>avoid</em></b></p>\n                    <p>This is the bee that you just saw.</p>\n                    <img src=\"bees-with-color/bee-A2DF.svg\" width=\"200\">\n                    <p><br>Your bonus pay is unchanged, and remains at $0.58.</p>\n            ","response":0,"trial_type":"html-button-response","trial_index":50,"time_elapsed":247481,"internal_node_id":"0.0-4.0-1.21","subject_id":"60e03b0a759b4850df25f739","study_id":"6197b3f67c2b5cd3b6d9596a","session_id":"619be31facd4a281561ae977","condition":"contingent","relevant_dimensions":["wings","pattern"],"bee_group":{"antennae":"X","wings":"1","pattern":"S","legs":"X"},"bonus":0.7600000000000002},{"rt":1586.0999999940395,"stimulus":"bees-with-color/bee-B1SM.svg","response":1,"trial_type":"image-button-response","trial_index":51,"time_elapsed":249067,"internal_node_id":"0.0-4.0-0.22","subject_id":"60e03b0a759b4850df25f739","study_id":"6197b3f67c2b5cd3b6d9596a","session_id":"619be31facd4a281561ae977","condition":"contingent","relevant_dimensions":["wings","pattern"],"bee_group":{"antennae":"X","wings":"1","pattern":"S","legs":"X"},"action":"avoid","summary":"good-avoid","bonus":0.7600000000000002},{"rt":364.09999999403954,"stimulus":"\n                    <p><b>Action: <em>avoid</em></b></p>\n                    <p>This is the bee that you just saw.</p>\n                    <img src=\"bees-with-color/bee-B1SM.svg\" width=\"200\">\n                    <p><br>Your bonus pay is unchanged, and remains at $0.58.</p>\n            ","response":0,"trial_type":"html-button-response","trial_index":52,"time_elapsed":249432,"internal_node_id":"0.0-4.0-1.22","subject_id":"60e03b0a759b4850df25f739","study_id":"6197b3f67c2b5cd3b6d9596a","session_id":"619be31facd4a281561ae977","condition":"contingent","relevant_dimensions":["wings","pattern"],"bee_group":{"antennae":"X","wings":"1","pattern":"S","legs":"X"},"bonus":0.7600000000000002},{"rt":7821.199999988079,"stimulus":"bees-with-color/bee-B2SM.svg","response":1,"trial_type":"image-button-response","trial_index":53,"time_elapsed":257254,"internal_node_id":"0.0-4.0-0.23","subject_id":"60e03b0a759b4850df25f739","study_id":"6197b3f67c2b5cd3b6d9596a","session_id":"619be31facd4a281561ae977","condition":"contingent","relevant_dimensions":["wings","pattern"],"bee_group":{"antennae":"X","wings":"1","pattern":"S","legs":"X"},"action":"avoid","summary":"bad-avoid","bonus":0.7600000000000002},{"rt":555.0999999940395,"stimulus":"\n                    <p><b>Action: <em>avoid</em></b></p>\n                    <p>This is the bee that you just saw.</p>\n                    <img src=\"bees-with-color/bee-B2SM.svg\" width=\"200\">\n                    <p><br>Your bonus pay is unchanged, and remains at $0.58.</p>\n            ","response":0,"trial_type":"html-button-response","trial_index":54,"time_elapsed":257810,"internal_node_id":"0.0-4.0-1.23","subject_id":"60e03b0a759b4850df25f739","study_id":"6197b3f67c2b5cd3b6d9596a","session_id":"619be31facd4a281561ae977","condition":"contingent","relevant_dimensions":["wings","pattern"],"bee_group":{"antennae":"X","wings":"1","pattern":"S","legs":"X"},"bonus":0.7600000000000002},{"rt":1017,"stimulus":"bees-with-color/bee-A1SF.svg","response":1,"trial_type":"image-button-response","trial_index":55,"time_elapsed":258828,"internal_node_id":"0.0-4.0-0.24","subject_id":"60e03b0a759b4850df25f739","study_id":"6197b3f67c2b5cd3b6d9596a","session_id":"619be31facd4a281561ae977","condition":"contingent","relevant_dimensions":["wings","pattern"],"bee_group":{"antennae":"X","wings":"1","pattern":"S","legs":"X"},"action":"avoid","summary":"good-avoid","bonus":0.7600000000000002},{"rt":421,"stimulus":"\n                    <p><b>Action: <em>avoid</em></b></p>\n                    <p>This is the bee that you just saw.</p>\n                    <img src=\"bees-with-color/bee-A1SF.svg\" width=\"200\">\n                    <p><br>Your bonus pay is unchanged, and remains at $0.58.</p>\n            ","response":0,"trial_type":"html-button-response","trial_index":56,"time_elapsed":259250,"internal_node_id":"0.0-4.0-1.24","subject_id":"60e03b0a759b4850df25f739","study_id":"6197b3f67c2b5cd3b6d9596a","session_id":"619be31facd4a281561ae977","condition":"contingent","relevant_dimensions":["wings","pattern"],"bee_group":{"antennae":"X","wings":"1","pattern":"S","legs":"X"},"bonus":0.7600000000000002},{"rt":1905.5,"stimulus":"bees-with-color/bee-B1DM.svg","response":1,"trial_type":"image-button-response","trial_index":57,"time_elapsed":261157,"internal_node_id":"0.0-4.0-0.25","subject_id":"60e03b0a759b4850df25f739","study_id":"6197b3f67c2b5cd3b6d9596a","session_id":"619be31facd4a281561ae977","condition":"contingent","relevant_dimensions":["wings","pattern"],"bee_group":{"antennae":"X","wings":"1","pattern":"S","legs":"X"},"action":"avoid","summary":"bad-avoid","bonus":0.7600000000000002},{"rt":361.80000001192093,"stimulus":"\n                    <p><b>Action: <em>avoid</em></b></p>\n                    <p>This is the bee that you just saw.</p>\n                    <img src=\"bees-with-color/bee-B1DM.svg\" width=\"200\">\n                    <p><br>Your bonus pay is unchanged, and remains at $0.58.</p>\n            ","response":0,"trial_type":"html-button-response","trial_index":58,"time_elapsed":261519,"internal_node_id":"0.0-4.0-1.25","subject_id":"60e03b0a759b4850df25f739","study_id":"6197b3f67c2b5cd3b6d9596a","session_id":"619be31facd4a281561ae977","condition":"contingent","relevant_dimensions":["wings","pattern"],"bee_group":{"antennae":"X","wings":"1","pattern":"S","legs":"X"},"bonus":0.7600000000000002},{"rt":3567.0999999940395,"stimulus":"bees-with-color/bee-A2SF.svg","response":0,"trial_type":"image-button-response","trial_index":59,"time_elapsed":265087,"internal_node_id":"0.0-4.0-0.26","subject_id":"60e03b0a759b4850df25f739","study_id":"6197b3f67c2b5cd3b6d9596a","session_id":"619be31facd4a281561ae977","condition":"contingent","relevant_dimensions":["wings","pattern"],"bee_group":{"antennae":"X","wings":"1","pattern":"S","legs":"X"},"action":"harvest","summary":"good-harvest","bonus":0.7600000000000002},{"rt":689.1999999880791,"stimulus":"\n                    <p><b>Action: <em>harvest</em></b></p>\n                    <p>This is the bee that you just saw.</p>\n                    <img src=\"bees-with-color/bee-A2SF.svg\" width=\"200\">\n                    <p><span class=\"greenText\"><b>Successful harvest!</b></span><br>Your pay has increased by $0.02. Your bonus pay is now $0.60.</p>\n            ","response":0,"trial_type":"html-button-response","trial_index":60,"time_elapsed":265777,"internal_node_id":"0.0-4.0-1.26","subject_id":"60e03b0a759b4850df25f739","study_id":"6197b3f67c2b5cd3b6d9596a","session_id":"619be31facd4a281561ae977","condition":"contingent","relevant_dimensions":["wings","pattern"],"bee_group":{"antennae":"X","wings":"1","pattern":"S","legs":"X"},"bonus":0.7600000000000002},{"rt":1045,"stimulus":"bees-with-color/bee-B1DF.svg","response":1,"trial_type":"image-button-response","trial_index":61,"time_elapsed":266823,"internal_node_id":"0.0-4.0-0.27","subject_id":"60e03b0a759b4850df25f739","study_id":"6197b3f67c2b5cd3b6d9596a","session_id":"619be31facd4a281561ae977","condition":"contingent","relevant_dimensions":["wings","pattern"],"bee_group":{"antennae":"X","wings":"1","pattern":"S","legs":"X"},"action":"avoid","summary":"bad-avoid","bonus":0.7600000000000002},{"rt":459.09999999403954,"stimulus":"\n                    <p><b>Action: <em>avoid</em></b></p>\n                    <p>This is the bee that you just saw.</p>\n                    <img src=\"bees-with-color/bee-B1DF.svg\" width=\"200\">\n                    <p><br>Your bonus pay is unchanged, and remains at $0.60.</p>\n            ","response":0,"trial_type":"html-button-response","trial_index":62,"time_elapsed":267283,"internal_node_id":"0.0-4.0-1.27","subject_id":"60e03b0a759b4850df25f739","study_id":"6197b3f67c2b5cd3b6d9596a","session_id":"619be31facd4a281561ae977","condition":"contingent","relevant_dimensions":["wings","pattern"],"bee_group":{"antennae":"X","wings":"1","pattern":"S","legs":"X"},"bonus":0.7600000000000002},{"rt":2226.199999988079,"stimulus":"bees-with-color/bee-B2DM.svg","response":1,"trial_type":"image-button-response","trial_index":63,"time_elapsed":269510,"internal_node_id":"0.0-4.0-0.28","subject_id":"60e03b0a759b4850df25f739","study_id":"6197b3f67c2b5cd3b6d9596a","session_id":"619be31facd4a281561ae977","condition":"contingent","relevant_dimensions":["wings","pattern"],"bee_group":{"antennae":"X","wings":"1","pattern":"S","legs":"X"},"action":"avoid","summary":"bad-avoid","bonus":0.7600000000000002},{"rt":434.19999998807907,"stimulus":"\n                    <p><b>Action: <em>avoid</em></b></p>\n                    <p>This is the bee that you just saw.</p>\n                    <img src=\"bees-with-color/bee-B2DM.svg\" width=\"200\">\n                    <p><br>Your bonus pay is unchanged, and remains at $0.60.</p>\n            ","response":0,"trial_type":"html-button-response","trial_index":64,"time_elapsed":269945,"internal_node_id":"0.0-4.0-1.28","subject_id":"60e03b0a759b4850df25f739","study_id":"6197b3f67c2b5cd3b6d9596a","session_id":"619be31facd4a281561ae977","condition":"contingent","relevant_dimensions":["wings","pattern"],"bee_group":{"antennae":"X","wings":"1","pattern":"S","legs":"X"},"bonus":0.7600000000000002},{"rt":819,"stimulus":"bees-with-color/bee-B1SF.svg","response":1,"trial_type":"image-button-response","trial_index":65,"time_elapsed":270765,"internal_node_id":"0.0-4.0-0.29","subject_id":"60e03b0a759b4850df25f739","study_id":"6197b3f67c2b5cd3b6d9596a","session_id":"619be31facd4a281561ae977","condition":"contingent","relevant_dimensions":["wings","pattern"],"bee_group":{"antennae":"X","wings":"1","pattern":"S","legs":"X"},"action":"avoid","summary":"good-avoid","bonus":0.7600000000000002},{"rt":730.0999999940395,"stimulus":"\n                    <p><b>Action: <em>avoid</em></b></p>\n                    <p>This is the bee that you just saw.</p>\n                    <img src=\"bees-with-color/bee-B1SF.svg\" width=\"200\">\n                    <p><br>Your bonus pay is unchanged, and remains at $0.60.</p>\n            ","response":0,"trial_type":"html-button-response","trial_index":66,"time_elapsed":271496,"internal_node_id":"0.0-4.0-1.29","subject_id":"60e03b0a759b4850df25f739","study_id":"6197b3f67c2b5cd3b6d9596a","session_id":"619be31facd4a281561ae977","condition":"contingent","relevant_dimensions":["wings","pattern"],"bee_group":{"antennae":"X","wings":"1","pattern":"S","legs":"X"},"bonus":0.7600000000000002},{"rt":1713.199999988079,"stimulus":"bees-with-color/bee-A2SM.svg","response":1,"trial_type":"image-button-response","trial_index":67,"time_elapsed":273210,"internal_node_id":"0.0-4.0-0.30","subject_id":"60e03b0a759b4850df25f739","study_id":"6197b3f67c2b5cd3b6d9596a","session_id":"619be31facd4a281561ae977","condition":"contingent","relevant_dimensions":["wings","pattern"],"bee_group":{"antennae":"X","wings":"1","pattern":"S","legs":"X"},"action":"avoid","summary":"bad-avoid","bonus":0.7600000000000002},{"rt":536.1999999880791,"stimulus":"\n                    <p><b>Action: <em>avoid</em></b></p>\n                    <p>This is the bee that you just saw.</p>\n                    <img src=\"bees-with-color/bee-A2SM.svg\" width=\"200\">\n                    <p><br>Your bonus pay is unchanged, and remains at $0.60.</p>\n            ","response":0,"trial_type":"html-button-response","trial_index":68,"time_elapsed":273747,"internal_node_id":"0.0-4.0-1.30","subject_id":"60e03b0a759b4850df25f739","study_id":"6197b3f67c2b5cd3b6d9596a","session_id":"619be31facd4a281561ae977","condition":"contingent","relevant_dimensions":["wings","pattern"],"bee_group":{"antennae":"X","wings":"1","pattern":"S","legs":"X"},"bonus":0.7600000000000002},{"rt":1177.199999988079,"stimulus":"bees-with-color/bee-B2SF.svg","response":1,"trial_type":"image-button-response","trial_index":69,"time_elapsed":274925,"internal_node_id":"0.0-4.0-0.31","subject_id":"60e03b0a759b4850df25f739","study_id":"6197b3f67c2b5cd3b6d9596a","session_id":"619be31facd4a281561ae977","condition":"contingent","relevant_dimensions":["wings","pattern"],"bee_group":{"antennae":"X","wings":"1","pattern":"S","legs":"X"},"action":"avoid","summary":"bad-avoid","bonus":0.7600000000000002},{"rt":397.19999998807907,"stimulus":"\n                    <p><b>Action: <em>avoid</em></b></p>\n                    <p>This is the bee that you just saw.</p>\n                    <img src=\"bees-with-color/bee-B2SF.svg\" width=\"200\">\n                    <p><br>Your bonus pay is unchanged, and remains at $0.60.</p>\n            ","response":0,"trial_type":"html-button-response","trial_index":70,"time_elapsed":275323,"internal_node_id":"0.0-4.0-1.31","subject_id":"60e03b0a759b4850df25f739","study_id":"6197b3f67c2b5cd3b6d9596a","session_id":"619be31facd4a281561ae977","condition":"contingent","relevant_dimensions":["wings","pattern"],"bee_group":{"antennae":"X","wings":"1","pattern":"S","legs":"X"},"bonus":0.7600000000000002},{"rt":1287.4000000059605,"stimulus":"bees-with-color/bee-A2DF.svg","response":1,"trial_type":"image-button-response","trial_index":71,"time_elapsed":276611,"internal_node_id":"0.0-4.0-0.32","subject_id":"60e03b0a759b4850df25f739","study_id":"6197b3f67c2b5cd3b6d9596a","session_id":"619be31facd4a281561ae977","condition":"contingent","relevant_dimensions":["wings","pattern"],"bee_group":{"antennae":"X","wings":"1","pattern":"S","legs":"X"},"action":"avoid","summary":"bad-avoid","bonus":0.7600000000000002},{"rt":372.30000001192093,"stimulus":"\n                    <p><b>Action: <em>avoid</em></b></p>\n                    <p>This is the bee that you just saw.</p>\n                    <img src=\"bees-with-color/bee-A2DF.svg\" width=\"200\">\n                    <p><br>Your bonus pay is unchanged, and remains at $0.60.</p>\n            ","response":0,"trial_type":"html-button-response","trial_index":72,"time_elapsed":276984,"internal_node_id":"0.0-4.0-1.32","subject_id":"60e03b0a759b4850df25f739","study_id":"6197b3f67c2b5cd3b6d9596a","session_id":"619be31facd4a281561ae977","condition":"contingent","relevant_dimensions":["wings","pattern"],"bee_group":{"antennae":"X","wings":"1","pattern":"S","legs":"X"},"bonus":0.7600000000000002},{"rt":2055.4000000059605,"stimulus":"bees-with-color/bee-A2DM.svg","response":0,"trial_type":"image-button-response","trial_index":73,"time_elapsed":279040,"internal_node_id":"0.0-4.0-0.33","subject_id":"60e03b0a759b4850df25f739","study_id":"6197b3f67c2b5cd3b6d9596a","session_id":"619be31facd4a281561ae977","condition":"contingent","relevant_dimensions":["wings","pattern"],"bee_group":{"antennae":"X","wings":"1","pattern":"S","legs":"X"},"action":"harvest","summary":"good-harvest","bonus":0.7600000000000002},{"rt":549.1999999880791,"stimulus":"\n                    <p><b>Action: <em>harvest</em></b></p>\n                    <p>This is the bee that you just saw.</p>\n                    <img src=\"bees-with-color/bee-A2DM.svg\" width=\"200\">\n                    <p><span class=\"greenText\"><b>Successful harvest!</b></span><br>Your pay has increased by $0.02. Your bonus pay is now $0.62.</p>\n            ","response":0,"trial_type":"html-button-response","trial_index":74,"time_elapsed":279590,"internal_node_id":"0.0-4.0-1.33","subject_id":"60e03b0a759b4850df25f739","study_id":"6197b3f67c2b5cd3b6d9596a","session_id":"619be31facd4a281561ae977","condition":"contingent","relevant_dimensions":["wings","pattern"],"bee_group":{"antennae":"X","wings":"1","pattern":"S","legs":"X"},"bonus":0.7600000000000002},{"rt":1209.199999988079,"stimulus":"bees-with-color/bee-A1SF.svg","response":1,"trial_type":"image-button-response","trial_index":75,"time_elapsed":280800,"internal_node_id":"0.0-4.0-0.34","subject_id":"60e03b0a759b4850df25f739","study_id":"6197b3f67c2b5cd3b6d9596a","session_id":"619be31facd4a281561ae977","condition":"contingent","relevant_dimensions":["wings","pattern"],"bee_group":{"antennae":"X","wings":"1","pattern":"S","legs":"X"},"action":"avoid","summary":"good-avoid","bonus":0.7600000000000002},{"rt":2354.399999976158,"stimulus":"\n                    <p><b>Action: <em>avoid</em></b></p>\n                    <p>This is the bee that you just saw.</p>\n                    <img src=\"bees-with-color/bee-A1SF.svg\" width=\"200\">\n                    <p><br>Your bonus pay is unchanged, and remains at $0.62.</p>\n            ","response":0,"trial_type":"html-button-response","trial_index":76,"time_elapsed":283156,"internal_node_id":"0.0-4.0-1.34","subject_id":"60e03b0a759b4850df25f739","study_id":"6197b3f67c2b5cd3b6d9596a","session_id":"619be31facd4a281561ae977","condition":"contingent","relevant_dimensions":["wings","pattern"],"bee_group":{"antennae":"X","wings":"1","pattern":"S","legs":"X"},"bonus":0.7600000000000002},{"rt":7000.0999999940395,"stimulus":"bees-with-color/bee-B2SF.svg","response":1,"trial_type":"image-button-response","trial_index":77,"time_elapsed":290157,"internal_node_id":"0.0-4.0-0.35","subject_id":"60e03b0a759b4850df25f739","study_id":"6197b3f67c2b5cd3b6d9596a","session_id":"619be31facd4a281561ae977","condition":"contingent","relevant_dimensions":["wings","pattern"],"bee_group":{"antennae":"X","wings":"1","pattern":"S","legs":"X"},"action":"avoid","summary":"bad-avoid","bonus":0.7600000000000002},{"rt":506.80000001192093,"stimulus":"\n                    <p><b>Action: <em>avoid</em></b></p>\n                    <p>This is the bee that you just saw.</p>\n                    <img src=\"bees-with-color/bee-B2SF.svg\" width=\"200\">\n                    <p><br>Your bonus pay is unchanged, and remains at $0.62.</p>\n            ","response":0,"trial_type":"html-button-response","trial_index":78,"time_elapsed":290664,"internal_node_id":"0.0-4.0-1.35","subject_id":"60e03b0a759b4850df25f739","study_id":"6197b3f67c2b5cd3b6d9596a","session_id":"619be31facd4a281561ae977","condition":"contingent","relevant_dimensions":["wings","pattern"],"bee_group":{"antennae":"X","wings":"1","pattern":"S","legs":"X"},"bonus":0.7600000000000002},{"rt":813.1999999880791,"stimulus":"bees-with-color/bee-B1DF.svg","response":1,"trial_type":"image-button-response","trial_index":79,"time_elapsed":291478,"internal_node_id":"0.0-4.0-0.36","subject_id":"60e03b0a759b4850df25f739","study_id":"6197b3f67c2b5cd3b6d9596a","session_id":"619be31facd4a281561ae977","condition":"contingent","relevant_dimensions":["wings","pattern"],"bee_group":{"antennae":"X","wings":"1","pattern":"S","legs":"X"},"action":"avoid","summary":"bad-avoid","bonus":0.7600000000000002},{"rt":572.0999999940395,"stimulus":"\n                    <p><b>Action: <em>avoid</em></b></p>\n                    <p>This is the bee that you just saw.</p>\n                    <img src=\"bees-with-color/bee-B1DF.svg\" width=\"200\">\n                    <p><br>Your bonus pay is unchanged, and remains at $0.62.</p>\n            ","response":0,"trial_type":"html-button-response","trial_index":80,"time_elapsed":292051,"internal_node_id":"0.0-4.0-1.36","subject_id":"60e03b0a759b4850df25f739","study_id":"6197b3f67c2b5cd3b6d9596a","session_id":"619be31facd4a281561ae977","condition":"contingent","relevant_dimensions":["wings","pattern"],"bee_group":{"antennae":"X","wings":"1","pattern":"S","legs":"X"},"bonus":0.7600000000000002},{"rt":3047.0999999940395,"stimulus":"bees-with-color/bee-A2SF.svg","response":0,"trial_type":"image-button-response","trial_index":81,"time_elapsed":295099,"internal_node_id":"0.0-4.0-0.37","subject_id":"60e03b0a759b4850df25f739","study_id":"6197b3f67c2b5cd3b6d9596a","session_id":"619be31facd4a281561ae977","condition":"contingent","relevant_dimensions":["wings","pattern"],"bee_group":{"antennae":"X","wings":"1","pattern":"S","legs":"X"},"action":"harvest","summary":"good-harvest","bonus":0.7600000000000002},{"rt":982.4000000059605,"stimulus":"\n                    <p><b>Action: <em>harvest</em></b></p>\n                    <p>This is the bee that you just saw.</p>\n                    <img src=\"bees-with-color/bee-A2SF.svg\" width=\"200\">\n                    <p><span class=\"greenText\"><b>Successful harvest!</b></span><br>Your pay has increased by $0.02. Your bonus pay is now $0.64.</p>\n            ","response":0,"trial_type":"html-button-response","trial_index":82,"time_elapsed":296083,"internal_node_id":"0.0-4.0-1.37","subject_id":"60e03b0a759b4850df25f739","study_id":"6197b3f67c2b5cd3b6d9596a","session_id":"619be31facd4a281561ae977","condition":"contingent","relevant_dimensions":["wings","pattern"],"bee_group":{"antennae":"X","wings":"1","pattern":"S","legs":"X"},"bonus":0.7600000000000002},{"rt":1693.8999999761581,"stimulus":"bees-with-color/bee-B2DF.svg","response":1,"trial_type":"image-button-response","trial_index":83,"time_elapsed":297778,"internal_node_id":"0.0-4.0-0.38","subject_id":"60e03b0a759b4850df25f739","study_id":"6197b3f67c2b5cd3b6d9596a","session_id":"619be31facd4a281561ae977","condition":"contingent","relevant_dimensions":["wings","pattern"],"bee_group":{"antennae":"X","wings":"1","pattern":"S","legs":"X"},"action":"avoid","summary":"bad-avoid","bonus":0.7600000000000002},{"rt":728.9000000059605,"stimulus":"\n                    <p><b>Action: <em>avoid</em></b></p>\n                    <p>This is the bee that you just saw.</p>\n                    <img src=\"bees-with-color/bee-B2DF.svg\" width=\"200\">\n                    <p><br>Your bonus pay is unchanged, and remains at $0.64.</p>\n            ","response":0,"trial_type":"html-button-response","trial_index":84,"time_elapsed":298507,"internal_node_id":"0.0-4.0-1.38","subject_id":"60e03b0a759b4850df25f739","study_id":"6197b3f67c2b5cd3b6d9596a","session_id":"619be31facd4a281561ae977","condition":"contingent","relevant_dimensions":["wings","pattern"],"bee_group":{"antennae":"X","wings":"1","pattern":"S","legs":"X"},"bonus":0.7600000000000002},{"rt":1494.5,"stimulus":"bees-with-color/bee-B1SF.svg","response":1,"trial_type":"image-button-response","trial_index":85,"time_elapsed":300003,"internal_node_id":"0.0-4.0-0.39","subject_id":"60e03b0a759b4850df25f739","study_id":"6197b3f67c2b5cd3b6d9596a","session_id":"619be31facd4a281561ae977","condition":"contingent","relevant_dimensions":["wings","pattern"],"bee_group":{"antennae":"X","wings":"1","pattern":"S","legs":"X"},"action":"avoid","summary":"good-avoid","bonus":0.7600000000000002},{"rt":389.90000000596046,"stimulus":"\n                    <p><b>Action: <em>avoid</em></b></p>\n                    <p>This is the bee that you just saw.</p>\n                    <img src=\"bees-with-color/bee-B1SF.svg\" width=\"200\">\n                    <p><br>Your bonus pay is unchanged, and remains at $0.64.</p>\n            ","response":0,"trial_type":"html-button-response","trial_index":86,"time_elapsed":300393,"internal_node_id":"0.0-4.0-1.39","subject_id":"60e03b0a759b4850df25f739","study_id":"6197b3f67c2b5cd3b6d9596a","session_id":"619be31facd4a281561ae977","condition":"contingent","relevant_dimensions":["wings","pattern"],"bee_group":{"antennae":"X","wings":"1","pattern":"S","legs":"X"},"bonus":0.7600000000000002},{"rt":755.1999999880791,"stimulus":"bees-with-color/bee-A1DF.svg","response":1,"trial_type":"image-button-response","trial_index":87,"time_elapsed":301149,"internal_node_id":"0.0-4.0-0.40","subject_id":"60e03b0a759b4850df25f739","study_id":"6197b3f67c2b5cd3b6d9596a","session_id":"619be31facd4a281561ae977","condition":"contingent","relevant_dimensions":["wings","pattern"],"bee_group":{"antennae":"X","wings":"1","pattern":"S","legs":"X"},"action":"avoid","summary":"bad-avoid","bonus":0.7600000000000002},{"rt":1777.2999999821186,"stimulus":"\n                    <p><b>Action: <em>avoid</em></b></p>\n                    <p>This is the bee that you just saw.</p>\n                    <img src=\"bees-with-color/bee-A1DF.svg\" width=\"200\">\n                    <p><br>Your bonus pay is unchanged, and remains at $0.64.</p>\n            ","response":0,"trial_type":"html-button-response","trial_index":88,"time_elapsed":302928,"internal_node_id":"0.0-4.0-1.40","subject_id":"60e03b0a759b4850df25f739","study_id":"6197b3f67c2b5cd3b6d9596a","session_id":"619be31facd4a281561ae977","condition":"contingent","relevant_dimensions":["wings","pattern"],"bee_group":{"antennae":"X","wings":"1","pattern":"S","legs":"X"},"bonus":0.7600000000000002},{"rt":1682.9000000059605,"stimulus":"bees-with-color/bee-A1SM.svg","response":1,"trial_type":"image-button-response","trial_index":89,"time_elapsed":304611,"internal_node_id":"0.0-4.0-0.41","subject_id":"60e03b0a759b4850df25f739","study_id":"6197b3f67c2b5cd3b6d9596a","session_id":"619be31facd4a281561ae977","condition":"contingent","relevant_dimensions":["wings","pattern"],"bee_group":{"antennae":"X","wings":"1","pattern":"S","legs":"X"},"action":"avoid","summary":"good-avoid","bonus":0.7600000000000002},{"rt":368.09999999403954,"stimulus":"\n                    <p><b>Action: <em>avoid</em></b></p>\n                    <p>This is the bee that you just saw.</p>\n                    <img src=\"bees-with-color/bee-A1SM.svg\" width=\"200\">\n                    <p><br>Your bonus pay is unchanged, and remains at $0.64.</p>\n            ","response":0,"trial_type":"html-button-response","trial_index":90,"time_elapsed":304980,"internal_node_id":"0.0-4.0-1.41","subject_id":"60e03b0a759b4850df25f739","study_id":"6197b3f67c2b5cd3b6d9596a","session_id":"619be31facd4a281561ae977","condition":"contingent","relevant_dimensions":["wings","pattern"],"bee_group":{"antennae":"X","wings":"1","pattern":"S","legs":"X"},"bonus":0.7600000000000002},{"rt":894.2999999821186,"stimulus":"bees-with-color/bee-B1SM.svg","response":1,"trial_type":"image-button-response","trial_index":91,"time_elapsed":305876,"internal_node_id":"0.0-4.0-0.42","subject_id":"60e03b0a759b4850df25f739","study_id":"6197b3f67c2b5cd3b6d9596a","session_id":"619be31facd4a281561ae977","condition":"contingent","relevant_dimensions":["wings","pattern"],"bee_group":{"antennae":"X","wings":"1","pattern":"S","legs":"X"},"action":"avoid","summary":"good-avoid","bonus":0.7600000000000002},{"rt":484.80000001192093,"stimulus":"\n                    <p><b>Action: <em>avoid</em></b></p>\n                    <p>This is the bee that you just saw.</p>\n                    <img src=\"bees-with-color/bee-B1SM.svg\" width=\"200\">\n                    <p><br>Your bonus pay is unchanged, and remains at $0.64.</p>\n            ","response":0,"trial_type":"html-button-response","trial_index":92,"time_elapsed":306361,"internal_node_id":"0.0-4.0-1.42","subject_id":"60e03b0a759b4850df25f739","study_id":"6197b3f67c2b5cd3b6d9596a","session_id":"619be31facd4a281561ae977","condition":"contingent","relevant_dimensions":["wings","pattern"],"bee_group":{"antennae":"X","wings":"1","pattern":"S","legs":"X"},"bonus":0.7600000000000002},{"rt":2419.399999976158,"stimulus":"bees-with-color/bee-B1DM.svg","response":1,"trial_type":"image-button-response","trial_index":93,"time_elapsed":308781,"internal_node_id":"0.0-4.0-0.43","subject_id":"60e03b0a759b4850df25f739","study_id":"6197b3f67c2b5cd3b6d9596a","session_id":"619be31facd4a281561ae977","condition":"contingent","relevant_dimensions":["wings","pattern"],"bee_group":{"antennae":"X","wings":"1","pattern":"S","legs":"X"},"action":"avoid","summary":"bad-avoid","bonus":0.7600000000000002},{"rt":606.9000000059605,"stimulus":"\n                    <p><b>Action: <em>avoid</em></b></p>\n                    <p>This is the bee that you just saw.</p>\n                    <img src=\"bees-with-color/bee-B1DM.svg\" width=\"200\">\n                    <p><br>Your bonus pay is unchanged, and remains at $0.64.</p>\n            ","response":0,"trial_type":"html-button-response","trial_index":94,"time_elapsed":309389,"internal_node_id":"0.0-4.0-1.43","subject_id":"60e03b0a759b4850df25f739","study_id":"6197b3f67c2b5cd3b6d9596a","session_id":"619be31facd4a281561ae977","condition":"contingent","relevant_dimensions":["wings","pattern"],"bee_group":{"antennae":"X","wings":"1","pattern":"S","legs":"X"},"bonus":0.7600000000000002},{"rt":1146.4000000059605,"stimulus":"bees-with-color/bee-B2DM.svg","response":1,"trial_type":"image-button-response","trial_index":95,"time_elapsed":310536,"internal_node_id":"0.0-4.0-0.44","subject_id":"60e03b0a759b4850df25f739","study_id":"6197b3f67c2b5cd3b6d9596a","session_id":"619be31facd4a281561ae977","condition":"contingent","relevant_dimensions":["wings","pattern"],"bee_group":{"antennae":"X","wings":"1","pattern":"S","legs":"X"},"action":"avoid","summary":"bad-avoid","bonus":0.7600000000000002},{"rt":326.19999998807907,"stimulus":"\n                    <p><b>Action: <em>avoid</em></b></p>\n                    <p>This is the bee that you just saw.</p>\n                    <img src=\"bees-with-color/bee-B2DM.svg\" width=\"200\">\n                    <p><br>Your bonus pay is unchanged, and remains at $0.64.</p>\n            ","response":0,"trial_type":"html-button-response","trial_index":96,"time_elapsed":310863,"internal_node_id":"0.0-4.0-1.44","subject_id":"60e03b0a759b4850df25f739","study_id":"6197b3f67c2b5cd3b6d9596a","session_id":"619be31facd4a281561ae977","condition":"contingent","relevant_dimensions":["wings","pattern"],"bee_group":{"antennae":"X","wings":"1","pattern":"S","legs":"X"},"bonus":0.7600000000000002},{"rt":2006.0999999940395,"stimulus":"bees-with-color/bee-A1DM.svg","response":0,"trial_type":"image-button-response","trial_index":97,"time_elapsed":312870,"internal_node_id":"0.0-4.0-0.45","subject_id":"60e03b0a759b4850df25f739","study_id":"6197b3f67c2b5cd3b6d9596a","session_id":"619be31facd4a281561ae977","condition":"contingent","relevant_dimensions":["wings","pattern"],"bee_group":{"antennae":"X","wings":"1","pattern":"S","legs":"X"},"action":"harvest","summary":"good-harvest","bonus":0.7600000000000002},{"rt":1581.199999988079,"stimulus":"\n                    <p><b>Action: <em>harvest</em></b></p>\n                    <p>This is the bee that you just saw.</p>\n                    <img src=\"bees-with-color/bee-A1DM.svg\" width=\"200\">\n                    <p><span class=\"greenText\"><b>Successful harvest!</b></span><br>Your pay has increased by $0.02. Your bonus pay is now $0.66.</p>\n            ","response":0,"trial_type":"html-button-response","trial_index":98,"time_elapsed":314452,"internal_node_id":"0.0-4.0-1.45","subject_id":"60e03b0a759b4850df25f739","study_id":"6197b3f67c2b5cd3b6d9596a","session_id":"619be31facd4a281561ae977","condition":"contingent","relevant_dimensions":["wings","pattern"],"bee_group":{"antennae":"X","wings":"1","pattern":"S","legs":"X"},"bonus":0.7600000000000002},{"rt":1695,"stimulus":"bees-with-color/bee-A2SM.svg","response":1,"trial_type":"image-button-response","trial_index":99,"time_elapsed":316148,"internal_node_id":"0.0-4.0-0.46","subject_id":"60e03b0a759b4850df25f739","study_id":"6197b3f67c2b5cd3b6d9596a","session_id":"619be31facd4a281561ae977","condition":"contingent","relevant_dimensions":["wings","pattern"],"bee_group":{"antennae":"X","wings":"1","pattern":"S","legs":"X"},"action":"avoid","summary":"bad-avoid","bonus":0.7600000000000002},{"rt":336.09999999403954,"stimulus":"\n                    <p><b>Action: <em>avoid</em></b></p>\n                    <p>This is the bee that you just saw.</p>\n                    <img src=\"bees-with-color/bee-A2SM.svg\" width=\"200\">\n                    <p><br>Your bonus pay is unchanged, and remains at $0.66.</p>\n            ","response":0,"trial_type":"html-button-response","trial_index":100,"time_elapsed":316485,"internal_node_id":"0.0-4.0-1.46","subject_id":"60e03b0a759b4850df25f739","study_id":"6197b3f67c2b5cd3b6d9596a","session_id":"619be31facd4a281561ae977","condition":"contingent","relevant_dimensions":["wings","pattern"],"bee_group":{"antennae":"X","wings":"1","pattern":"S","legs":"X"},"bonus":0.7600000000000002},{"rt":1291.199999988079,"stimulus":"bees-with-color/bee-B2SM.svg","response":1,"trial_type":"image-button-response","trial_index":101,"time_elapsed":317777,"internal_node_id":"0.0-4.0-0.47","subject_id":"60e03b0a759b4850df25f739","study_id":"6197b3f67c2b5cd3b6d9596a","session_id":"619be31facd4a281561ae977","condition":"contingent","relevant_dimensions":["wings","pattern"],"bee_group":{"antennae":"X","wings":"1","pattern":"S","legs":"X"},"action":"avoid","summary":"bad-avoid","bonus":0.7600000000000002},{"rt":288.09999999403954,"stimulus":"\n                    <p><b>Action: <em>avoid</em></b></p>\n                    <p>This is the bee that you just saw.</p>\n                    <img src=\"bees-with-color/bee-B2SM.svg\" width=\"200\">\n                    <p><br>Your bonus pay is unchanged, and remains at $0.66.</p>\n            ","response":0,"trial_type":"html-button-response","trial_index":102,"time_elapsed":318066,"internal_node_id":"0.0-4.0-1.47","subject_id":"60e03b0a759b4850df25f739","study_id":"6197b3f67c2b5cd3b6d9596a","session_id":"619be31facd4a281561ae977","condition":"contingent","relevant_dimensions":["wings","pattern"],"bee_group":{"antennae":"X","wings":"1","pattern":"S","legs":"X"},"bonus":0.7600000000000002},{"rt":1599.4000000059605,"stimulus":"bees-with-color/bee-A2DF.svg","response":1,"trial_type":"image-button-response","trial_index":103,"time_elapsed":319666,"internal_node_id":"0.0-4.0-0.48","subject_id":"60e03b0a759b4850df25f739","study_id":"6197b3f67c2b5cd3b6d9596a","session_id":"619be31facd4a281561ae977","condition":"contingent","relevant_dimensions":["wings","pattern"],"bee_group":{"antennae":"X","wings":"1","pattern":"S","legs":"X"},"action":"avoid","summary":"bad-avoid","bonus":0.7600000000000002},{"rt":309.90000000596046,"stimulus":"\n                    <p><b>Action: <em>avoid</em></b></p>\n                    <p>This is the bee that you just saw.</p>\n                    <img src=\"bees-with-color/bee-A2DF.svg\" width=\"200\">\n                    <p><br>Your bonus pay is unchanged, and remains at $0.66.</p>\n            ","response":0,"trial_type":"html-button-response","trial_index":104,"time_elapsed":319977,"internal_node_id":"0.0-4.0-1.48","subject_id":"60e03b0a759b4850df25f739","study_id":"6197b3f67c2b5cd3b6d9596a","session_id":"619be31facd4a281561ae977","condition":"contingent","relevant_dimensions":["wings","pattern"],"bee_group":{"antennae":"X","wings":"1","pattern":"S","legs":"X"},"bonus":0.7600000000000002},{"rt":1518.5,"stimulus":"bees-with-color/bee-B2SM.svg","response":1,"trial_type":"image-button-response","trial_index":105,"time_elapsed":321496,"internal_node_id":"0.0-4.0-0.49","subject_id":"60e03b0a759b4850df25f739","study_id":"6197b3f67c2b5cd3b6d9596a","session_id":"619be31facd4a281561ae977","condition":"contingent","relevant_dimensions":["wings","pattern"],"bee_group":{"antennae":"X","wings":"1","pattern":"S","legs":"X"},"action":"avoid","summary":"bad-avoid","bonus":0.7600000000000002},{"rt":323.09999999403954,"stimulus":"\n                    <p><b>Action: <em>avoid</em></b></p>\n                    <p>This is the bee that you just saw.</p>\n                    <img src=\"bees-with-color/bee-B2SM.svg\" width=\"200\">\n                    <p><br>Your bonus pay is unchanged, and remains at $0.66.</p>\n            ","response":0,"trial_type":"html-button-response","trial_index":106,"time_elapsed":321820,"internal_node_id":"0.0-4.0-1.49","subject_id":"60e03b0a759b4850df25f739","study_id":"6197b3f67c2b5cd3b6d9596a","session_id":"619be31facd4a281561ae977","condition":"contingent","relevant_dimensions":["wings","pattern"],"bee_group":{"antennae":"X","wings":"1","pattern":"S","legs":"X"},"bonus":0.7600000000000002},{"rt":1332.0999999940395,"stimulus":"bees-with-color/bee-A1SF.svg","response":1,"trial_type":"image-button-response","trial_index":107,"time_elapsed":323153,"internal_node_id":"0.0-4.0-0.50","subject_id":"60e03b0a759b4850df25f739","study_id":"6197b3f67c2b5cd3b6d9596a","session_id":"619be31facd4a281561ae977","condition":"contingent","relevant_dimensions":["wings","pattern"],"bee_group":{"antennae":"X","wings":"1","pattern":"S","legs":"X"},"action":"avoid","summary":"good-avoid","bonus":0.7600000000000002},{"rt":322,"stimulus":"\n                    <p><b>Action: <em>avoid</em></b></p>\n                    <p>This is the bee that you just saw.</p>\n                    <img src=\"bees-with-color/bee-A1SF.svg\" width=\"200\">\n                    <p><br>Your bonus pay is unchanged, and remains at $0.66.</p>\n            ","response":0,"trial_type":"html-button-response","trial_index":108,"time_elapsed":323476,"internal_node_id":"0.0-4.0-1.50","subject_id":"60e03b0a759b4850df25f739","study_id":"6197b3f67c2b5cd3b6d9596a","session_id":"619be31facd4a281561ae977","condition":"contingent","relevant_dimensions":["wings","pattern"],"bee_group":{"antennae":"X","wings":"1","pattern":"S","legs":"X"},"bonus":0.7600000000000002},{"rt":2054.300000011921,"stimulus":"bees-with-color/bee-A2SF.svg","response":0,"trial_type":"image-button-response","trial_index":109,"time_elapsed":325531,"internal_node_id":"0.0-4.0-0.51","subject_id":"60e03b0a759b4850df25f739","study_id":"6197b3f67c2b5cd3b6d9596a","session_id":"619be31facd4a281561ae977","condition":"contingent","relevant_dimensions":["wings","pattern"],"bee_group":{"antennae":"X","wings":"1","pattern":"S","legs":"X"},"action":"harvest","summary":"good-harvest","bonus":0.7600000000000002},{"rt":491.09999999403954,"stimulus":"\n                    <p><b>Action: <em>harvest</em></b></p>\n                    <p>This is the bee that you just saw.</p>\n                    <img src=\"bees-with-color/bee-A2SF.svg\" width=\"200\">\n                    <p><span class=\"greenText\"><b>Successful harvest!</b></span><br>Your pay has increased by $0.02. Your bonus pay is now $0.68.</p>\n            ","response":0,"trial_type":"html-button-response","trial_index":110,"time_elapsed":326023,"internal_node_id":"0.0-4.0-1.51","subject_id":"60e03b0a759b4850df25f739","study_id":"6197b3f67c2b5cd3b6d9596a","session_id":"619be31facd4a281561ae977","condition":"contingent","relevant_dimensions":["wings","pattern"],"bee_group":{"antennae":"X","wings":"1","pattern":"S","legs":"X"},"bonus":0.7600000000000002},{"rt":4388,"stimulus":"bees-with-color/bee-B1DM.svg","response":1,"trial_type":"image-button-response","trial_index":111,"time_elapsed":330412,"internal_node_id":"0.0-4.0-0.52","subject_id":"60e03b0a759b4850df25f739","study_id":"6197b3f67c2b5cd3b6d9596a","session_id":"619be31facd4a281561ae977","condition":"contingent","relevant_dimensions":["wings","pattern"],"bee_group":{"antennae":"X","wings":"1","pattern":"S","legs":"X"},"action":"avoid","summary":"bad-avoid","bonus":0.7600000000000002},{"rt":543.0999999940395,"stimulus":"\n                    <p><b>Action: <em>avoid</em></b></p>\n                    <p>This is the bee that you just saw.</p>\n                    <img src=\"bees-with-color/bee-B1DM.svg\" width=\"200\">\n                    <p><br>Your bonus pay is unchanged, and remains at $0.68.</p>\n            ","response":0,"trial_type":"html-button-response","trial_index":112,"time_elapsed":330956,"internal_node_id":"0.0-4.0-1.52","subject_id":"60e03b0a759b4850df25f739","study_id":"6197b3f67c2b5cd3b6d9596a","session_id":"619be31facd4a281561ae977","condition":"contingent","relevant_dimensions":["wings","pattern"],"bee_group":{"antennae":"X","wings":"1","pattern":"S","legs":"X"},"bonus":0.7600000000000002},{"rt":1815,"stimulus":"bees-with-color/bee-B1SM.svg","response":1,"trial_type":"image-button-response","trial_index":113,"time_elapsed":332772,"internal_node_id":"0.0-4.0-0.53","subject_id":"60e03b0a759b4850df25f739","study_id":"6197b3f67c2b5cd3b6d9596a","session_id":"619be31facd4a281561ae977","condition":"contingent","relevant_dimensions":["wings","pattern"],"bee_group":{"antennae":"X","wings":"1","pattern":"S","legs":"X"},"action":"avoid","summary":"good-avoid","bonus":0.7600000000000002},{"rt":733.9000000059605,"stimulus":"\n                    <p><b>Action: <em>avoid</em></b></p>\n                    <p>This is the bee that you just saw.</p>\n                    <img src=\"bees-with-color/bee-B1SM.svg\" width=\"200\">\n                    <p><br>Your bonus pay is unchanged, and remains at $0.68.</p>\n            ","response":0,"trial_type":"html-button-response","trial_index":114,"time_elapsed":333507,"internal_node_id":"0.0-4.0-1.53","subject_id":"60e03b0a759b4850df25f739","study_id":"6197b3f67c2b5cd3b6d9596a","session_id":"619be31facd4a281561ae977","condition":"contingent","relevant_dimensions":["wings","pattern"],"bee_group":{"antennae":"X","wings":"1","pattern":"S","legs":"X"},"bonus":0.7600000000000002},{"rt":12867.09999999404,"stimulus":"bees-with-color/bee-A2DM.svg","response":1,"trial_type":"image-button-response","trial_index":115,"time_elapsed":346375,"internal_node_id":"0.0-4.0-0.54","subject_id":"60e03b0a759b4850df25f739","study_id":"6197b3f67c2b5cd3b6d9596a","session_id":"619be31facd4a281561ae977","condition":"contingent","relevant_dimensions":["wings","pattern"],"bee_group":{"antennae":"X","wings":"1","pattern":"S","legs":"X"},"action":"avoid","summary":"bad-avoid","bonus":0.7600000000000002},{"rt":1172.199999988079,"stimulus":"\n                    <p><b>Action: <em>avoid</em></b></p>\n                    <p>This is the bee that you just saw.</p>\n                    <img src=\"bees-with-color/bee-A2DM.svg\" width=\"200\">\n                    <p><br>Your bonus pay is unchanged, and remains at $0.68.</p>\n            ","response":0,"trial_type":"html-button-response","trial_index":116,"time_elapsed":347548,"internal_node_id":"0.0-4.0-1.54","subject_id":"60e03b0a759b4850df25f739","study_id":"6197b3f67c2b5cd3b6d9596a","session_id":"619be31facd4a281561ae977","condition":"contingent","relevant_dimensions":["wings","pattern"],"bee_group":{"antennae":"X","wings":"1","pattern":"S","legs":"X"},"bonus":0.7600000000000002},{"rt":2630.199999988079,"stimulus":"bees-with-color/bee-A1DF.svg","response":1,"trial_type":"image-button-response","trial_index":117,"time_elapsed":350179,"internal_node_id":"0.0-4.0-0.55","subject_id":"60e03b0a759b4850df25f739","study_id":"6197b3f67c2b5cd3b6d9596a","session_id":"619be31facd4a281561ae977","condition":"contingent","relevant_dimensions":["wings","pattern"],"bee_group":{"antennae":"X","wings":"1","pattern":"S","legs":"X"},"action":"avoid","summary":"bad-avoid","bonus":0.7600000000000002},{"rt":401,"stimulus":"\n                    <p><b>Action: <em>avoid</em></b></p>\n                    <p>This is the bee that you just saw.</p>\n                    <img src=\"bees-with-color/bee-A1DF.svg\" width=\"200\">\n                    <p><br>Your bonus pay is unchanged, and remains at $0.68.</p>\n            ","response":0,"trial_type":"html-button-response","trial_index":118,"time_elapsed":350581,"internal_node_id":"0.0-4.0-1.55","subject_id":"60e03b0a759b4850df25f739","study_id":"6197b3f67c2b5cd3b6d9596a","session_id":"619be31facd4a281561ae977","condition":"contingent","relevant_dimensions":["wings","pattern"],"bee_group":{"antennae":"X","wings":"1","pattern":"S","legs":"X"},"bonus":0.7600000000000002},{"rt":876.3000000119209,"stimulus":"bees-with-color/bee-B1SF.svg","response":1,"trial_type":"image-button-response","trial_index":119,"time_elapsed":351458,"internal_node_id":"0.0-4.0-0.56","subject_id":"60e03b0a759b4850df25f739","study_id":"6197b3f67c2b5cd3b6d9596a","session_id":"619be31facd4a281561ae977","condition":"contingent","relevant_dimensions":["wings","pattern"],"bee_group":{"antennae":"X","wings":"1","pattern":"S","legs":"X"},"action":"avoid","summary":"good-avoid","bonus":0.7600000000000002},{"rt":538.1999999880791,"stimulus":"\n                    <p><b>Action: <em>avoid</em></b></p>\n                    <p>This is the bee that you just saw.</p>\n                    <img src=\"bees-with-color/bee-B1SF.svg\" width=\"200\">\n                    <p><br>Your bonus pay is unchanged, and remains at $0.68.</p>\n            ","response":0,"trial_type":"html-button-response","trial_index":120,"time_elapsed":351997,"internal_node_id":"0.0-4.0-1.56","subject_id":"60e03b0a759b4850df25f739","study_id":"6197b3f67c2b5cd3b6d9596a","session_id":"619be31facd4a281561ae977","condition":"contingent","relevant_dimensions":["wings","pattern"],"bee_group":{"antennae":"X","wings":"1","pattern":"S","legs":"X"},"bonus":0.7600000000000002},{"rt":1166.199999988079,"stimulus":"bees-with-color/bee-B1DF.svg","response":1,"trial_type":"image-button-response","trial_index":121,"time_elapsed":353164,"internal_node_id":"0.0-4.0-0.57","subject_id":"60e03b0a759b4850df25f739","study_id":"6197b3f67c2b5cd3b6d9596a","session_id":"619be31facd4a281561ae977","condition":"contingent","relevant_dimensions":["wings","pattern"],"bee_group":{"antennae":"X","wings":"1","pattern":"S","legs":"X"},"action":"avoid","summary":"bad-avoid","bonus":0.7600000000000002},{"rt":408.09999999403954,"stimulus":"\n                    <p><b>Action: <em>avoid</em></b></p>\n                    <p>This is the bee that you just saw.</p>\n                    <img src=\"bees-with-color/bee-B1DF.svg\" width=\"200\">\n                    <p><br>Your bonus pay is unchanged, and remains at $0.68.</p>\n            ","response":0,"trial_type":"html-button-response","trial_index":122,"time_elapsed":353573,"internal_node_id":"0.0-4.0-1.57","subject_id":"60e03b0a759b4850df25f739","study_id":"6197b3f67c2b5cd3b6d9596a","session_id":"619be31facd4a281561ae977","condition":"contingent","relevant_dimensions":["wings","pattern"],"bee_group":{"antennae":"X","wings":"1","pattern":"S","legs":"X"},"bonus":0.7600000000000002},{"rt":1623.6000000238419,"stimulus":"bees-with-color/bee-B2SF.svg","response":1,"trial_type":"image-button-response","trial_index":123,"time_elapsed":355197,"internal_node_id":"0.0-4.0-0.58","subject_id":"60e03b0a759b4850df25f739","study_id":"6197b3f67c2b5cd3b6d9596a","session_id":"619be31facd4a281561ae977","condition":"contingent","relevant_dimensions":["wings","pattern"],"bee_group":{"antennae":"X","wings":"1","pattern":"S","legs":"X"},"action":"avoid","summary":"bad-avoid","bonus":0.7600000000000002},{"rt":352.80000001192093,"stimulus":"\n                    <p><b>Action: <em>avoid</em></b></p>\n                    <p>This is the bee that you just saw.</p>\n                    <img src=\"bees-with-color/bee-B2SF.svg\" width=\"200\">\n                    <p><br>Your bonus pay is unchanged, and remains at $0.68.</p>\n            ","response":0,"trial_type":"html-button-response","trial_index":124,"time_elapsed":355551,"internal_node_id":"0.0-4.0-1.58","subject_id":"60e03b0a759b4850df25f739","study_id":"6197b3f67c2b5cd3b6d9596a","session_id":"619be31facd4a281561ae977","condition":"contingent","relevant_dimensions":["wings","pattern"],"bee_group":{"antennae":"X","wings":"1","pattern":"S","legs":"X"},"bonus":0.7600000000000002},{"rt":764.3000000119209,"stimulus":"bees-with-color/bee-B2DF.svg","response":1,"trial_type":"image-button-response","trial_index":125,"time_elapsed":356316,"internal_node_id":"0.0-4.0-0.59","subject_id":"60e03b0a759b4850df25f739","study_id":"6197b3f67c2b5cd3b6d9596a","session_id":"619be31facd4a281561ae977","condition":"contingent","relevant_dimensions":["wings","pattern"],"bee_group":{"antennae":"X","wings":"1","pattern":"S","legs":"X"},"action":"avoid","summary":"bad-avoid","bonus":0.7600000000000002},{"rt":644,"stimulus":"\n                    <p><b>Action: <em>avoid</em></b></p>\n                    <p>This is the bee that you just saw.</p>\n                    <img src=\"bees-with-color/bee-B2DF.svg\" width=\"200\">\n                    <p><br>Your bonus pay is unchanged, and remains at $0.68.</p>\n            ","response":0,"trial_type":"html-button-response","trial_index":126,"time_elapsed":356961,"internal_node_id":"0.0-4.0-1.59","subject_id":"60e03b0a759b4850df25f739","study_id":"6197b3f67c2b5cd3b6d9596a","session_id":"619be31facd4a281561ae977","condition":"contingent","relevant_dimensions":["wings","pattern"],"bee_group":{"antennae":"X","wings":"1","pattern":"S","legs":"X"},"bonus":0.7600000000000002},{"rt":1426.5999999940395,"stimulus":"bees-with-color/bee-A1DM.svg","response":1,"trial_type":"image-button-response","trial_index":127,"time_elapsed":358388,"internal_node_id":"0.0-4.0-0.60","subject_id":"60e03b0a759b4850df25f739","study_id":"6197b3f67c2b5cd3b6d9596a","session_id":"619be31facd4a281561ae977","condition":"contingent","relevant_dimensions":["wings","pattern"],"bee_group":{"antennae":"X","wings":"1","pattern":"S","legs":"X"},"action":"avoid","summary":"bad-avoid","bonus":0.7600000000000002},{"rt":546,"stimulus":"\n                    <p><b>Action: <em>avoid</em></b></p>\n                    <p>This is the bee that you just saw.</p>\n                    <img src=\"bees-with-color/bee-A1DM.svg\" width=\"200\">\n                    <p><br>Your bonus pay is unchanged, and remains at $0.68.</p>\n            ","response":0,"trial_type":"html-button-response","trial_index":128,"time_elapsed":358935,"internal_node_id":"0.0-4.0-1.60","subject_id":"60e03b0a759b4850df25f739","study_id":"6197b3f67c2b5cd3b6d9596a","session_id":"619be31facd4a281561ae977","condition":"contingent","relevant_dimensions":["wings","pattern"],"bee_group":{"antennae":"X","wings":"1","pattern":"S","legs":"X"},"bonus":0.7600000000000002},{"rt":1661.3999999761581,"stimulus":"bees-with-color/bee-A2SM.svg","response":1,"trial_type":"image-button-response","trial_index":129,"time_elapsed":360597,"internal_node_id":"0.0-4.0-0.61","subject_id":"60e03b0a759b4850df25f739","study_id":"6197b3f67c2b5cd3b6d9596a","session_id":"619be31facd4a281561ae977","condition":"contingent","relevant_dimensions":["wings","pattern"],"bee_group":{"antennae":"X","wings":"1","pattern":"S","legs":"X"},"action":"avoid","summary":"bad-avoid","bonus":0.7600000000000002},{"rt":803.8000000119209,"stimulus":"\n                    <p><b>Action: <em>avoid</em></b></p>\n                    <p>This is the bee that you just saw.</p>\n                    <img src=\"bees-with-color/bee-A2SM.svg\" width=\"200\">\n                    <p><br>Your bonus pay is unchanged, and remains at $0.68.</p>\n            ","response":0,"trial_type":"html-button-response","trial_index":130,"time_elapsed":361402,"internal_node_id":"0.0-4.0-1.61","subject_id":"60e03b0a759b4850df25f739","study_id":"6197b3f67c2b5cd3b6d9596a","session_id":"619be31facd4a281561ae977","condition":"contingent","relevant_dimensions":["wings","pattern"],"bee_group":{"antennae":"X","wings":"1","pattern":"S","legs":"X"},"bonus":0.7600000000000002},{"rt":3609.600000023842,"stimulus":"bees-with-color/bee-A1SM.svg","response":1,"trial_type":"image-button-response","trial_index":131,"time_elapsed":365012,"internal_node_id":"0.0-4.0-0.62","subject_id":"60e03b0a759b4850df25f739","study_id":"6197b3f67c2b5cd3b6d9596a","session_id":"619be31facd4a281561ae977","condition":"contingent","relevant_dimensions":["wings","pattern"],"bee_group":{"antennae":"X","wings":"1","pattern":"S","legs":"X"},"action":"avoid","summary":"good-avoid","bonus":0.7600000000000002},{"rt":449.7000000178814,"stimulus":"\n                    <p><b>Action: <em>avoid</em></b></p>\n                    <p>This is the bee that you just saw.</p>\n                    <img src=\"bees-with-color/bee-A1SM.svg\" width=\"200\">\n                    <p><br>Your bonus pay is unchanged, and remains at $0.68.</p>\n            ","response":0,"trial_type":"html-button-response","trial_index":132,"time_elapsed":365463,"internal_node_id":"0.0-4.0-1.62","subject_id":"60e03b0a759b4850df25f739","study_id":"6197b3f67c2b5cd3b6d9596a","session_id":"619be31facd4a281561ae977","condition":"contingent","relevant_dimensions":["wings","pattern"],"bee_group":{"antennae":"X","wings":"1","pattern":"S","legs":"X"},"bonus":0.7600000000000002},{"rt":3186.199999988079,"stimulus":"bees-with-color/bee-B2DM.svg","response":1,"trial_type":"image-button-response","trial_index":133,"time_elapsed":368651,"internal_node_id":"0.0-4.0-0.63","subject_id":"60e03b0a759b4850df25f739","study_id":"6197b3f67c2b5cd3b6d9596a","session_id":"619be31facd4a281561ae977","condition":"contingent","relevant_dimensions":["wings","pattern"],"bee_group":{"antennae":"X","wings":"1","pattern":"S","legs":"X"},"action":"avoid","summary":"bad-avoid","bonus":0.7600000000000002},{"rt":912.8000000119209,"stimulus":"\n                    <p><b>Action: <em>avoid</em></b></p>\n                    <p>This is the bee that you just saw.</p>\n                    <img src=\"bees-with-color/bee-B2DM.svg\" width=\"200\">\n                    <p><br>Your bonus pay is unchanged, and remains at $0.68.</p>\n            ","response":0,"trial_type":"html-button-response","trial_index":134,"time_elapsed":369565,"internal_node_id":"0.0-4.0-1.63","subject_id":"60e03b0a759b4850df25f739","study_id":"6197b3f67c2b5cd3b6d9596a","session_id":"619be31facd4a281561ae977","condition":"contingent","relevant_dimensions":["wings","pattern"],"bee_group":{"antennae":"X","wings":"1","pattern":"S","legs":"X"},"bonus":0.7600000000000002},{"rt":3883.4000000059605,"stimulus":"You have completed the first part of this experiment.<br><br>You will now begin a shorter second part, in which you will receive no feedback.<br>The same rules regarding bonus pay apply.<br><br>Press any key to begin.","response":" ","trial_type":"html-keyboard-response","trial_index":135,"time_elapsed":373449,"internal_node_id":"0.0-5.0","subject_id":"60e03b0a759b4850df25f739","study_id":"6197b3f67c2b5cd3b6d9596a","session_id":"619be31facd4a281561ae977","condition":"contingent","relevant_dimensions":["wings","pattern"],"bee_group":{"antennae":"X","wings":"1","pattern":"S","legs":"X"},"bonus":0.7600000000000002},{"rt":6819.5,"stimulus":"bees-with-color/bee-B1SM.svg","response":1,"trial_type":"image-button-response","trial_index":136,"time_elapsed":380274,"internal_node_id":"0.0-6.0-0.0","subject_id":"60e03b0a759b4850df25f739","study_id":"6197b3f67c2b5cd3b6d9596a","session_id":"619be31facd4a281561ae977","condition":"contingent","relevant_dimensions":["wings","pattern"],"bee_group":{"antennae":"X","wings":"1","pattern":"S","legs":"X"},"bonus":0.7600000000000002},{"rt":3466.699999988079,"stimulus":"bees-with-color/bee-A2SF.svg","response":0,"trial_type":"image-button-response","trial_index":137,"time_elapsed":383742,"internal_node_id":"0.0-6.0-0.1","subject_id":"60e03b0a759b4850df25f739","study_id":"6197b3f67c2b5cd3b6d9596a","session_id":"619be31facd4a281561ae977","condition":"contingent","relevant_dimensions":["wings","pattern"],"bee_group":{"antennae":"X","wings":"1","pattern":"S","legs":"X"},"bonus":0.7600000000000002},{"rt":1060.5,"stimulus":"bees-with-color/bee-A1SM.svg","response":1,"trial_type":"image-button-response","trial_index":138,"time_elapsed":384804,"internal_node_id":"0.0-6.0-0.2","subject_id":"60e03b0a759b4850df25f739","study_id":"6197b3f67c2b5cd3b6d9596a","session_id":"619be31facd4a281561ae977","condition":"contingent","relevant_dimensions":["wings","pattern"],"bee_group":{"antennae":"X","wings":"1","pattern":"S","legs":"X"},"bonus":0.7600000000000002},{"rt":673.9000000059605,"stimulus":"bees-with-color/bee-B2SM.svg","response":1,"trial_type":"image-button-response","trial_index":139,"time_elapsed":385479,"internal_node_id":"0.0-6.0-0.3","subject_id":"60e03b0a759b4850df25f739","study_id":"6197b3f67c2b5cd3b6d9596a","session_id":"619be31facd4a281561ae977","condition":"contingent","relevant_dimensions":["wings","pattern"],"bee_group":{"antennae":"X","wings":"1","pattern":"S","legs":"X"},"bonus":0.7600000000000002},{"rt":467.09999999403954,"stimulus":"bees-with-color/bee-A2SM.svg","response":1,"trial_type":"image-button-response","trial_index":140,"time_elapsed":385947,"internal_node_id":"0.0-6.0-0.4","subject_id":"60e03b0a759b4850df25f739","study_id":"6197b3f67c2b5cd3b6d9596a","session_id":"619be31facd4a281561ae977","condition":"contingent","relevant_dimensions":["wings","pattern"],"bee_group":{"antennae":"X","wings":"1","pattern":"S","legs":"X"},"bonus":0.7600000000000002},{"rt":1819.8999999761581,"stimulus":"bees-with-color/bee-B1DM.svg","response":1,"trial_type":"image-button-response","trial_index":141,"time_elapsed":387768,"internal_node_id":"0.0-6.0-0.5","subject_id":"60e03b0a759b4850df25f739","study_id":"6197b3f67c2b5cd3b6d9596a","session_id":"619be31facd4a281561ae977","condition":"contingent","relevant_dimensions":["wings","pattern"],"bee_group":{"antennae":"X","wings":"1","pattern":"S","legs":"X"},"bonus":0.7600000000000002},{"rt":2134.5999999940395,"stimulus":"bees-with-color/bee-B2SF.svg","response":1,"trial_type":"image-button-response","trial_index":142,"time_elapsed":389904,"internal_node_id":"0.0-6.0-0.6","subject_id":"60e03b0a759b4850df25f739","study_id":"6197b3f67c2b5cd3b6d9596a","session_id":"619be31facd4a281561ae977","condition":"contingent","relevant_dimensions":["wings","pattern"],"bee_group":{"antennae":"X","wings":"1","pattern":"S","legs":"X"},"bonus":0.7600000000000002},{"rt":4967,"stimulus":"bees-with-color/bee-A2DM.svg","response":1,"trial_type":"image-button-response","trial_index":143,"time_elapsed":394872,"internal_node_id":"0.0-6.0-0.7","subject_id":"60e03b0a759b4850df25f739","study_id":"6197b3f67c2b5cd3b6d9596a","session_id":"619be31facd4a281561ae977","condition":"contingent","relevant_dimensions":["wings","pattern"],"bee_group":{"antennae":"X","wings":"1","pattern":"S","legs":"X"},"bonus":0.7600000000000002},{"rt":2222.5,"stimulus":"bees-with-color/bee-A1SF.svg","response":1,"trial_type":"image-button-response","trial_index":144,"time_elapsed":397096,"internal_node_id":"0.0-6.0-0.8","subject_id":"60e03b0a759b4850df25f739","study_id":"6197b3f67c2b5cd3b6d9596a","session_id":"619be31facd4a281561ae977","condition":"contingent","relevant_dimensions":["wings","pattern"],"bee_group":{"antennae":"X","wings":"1","pattern":"S","legs":"X"},"bonus":0.7600000000000002},{"rt":1813.699999988079,"stimulus":"bees-with-color/bee-A1DF.svg","response":1,"trial_type":"image-button-response","trial_index":145,"time_elapsed":398911,"internal_node_id":"0.0-6.0-0.9","subject_id":"60e03b0a759b4850df25f739","study_id":"6197b3f67c2b5cd3b6d9596a","session_id":"619be31facd4a281561ae977","condition":"contingent","relevant_dimensions":["wings","pattern"],"bee_group":{"antennae":"X","wings":"1","pattern":"S","legs":"X"},"bonus":0.7600000000000002},{"rt":3493,"stimulus":"bees-with-color/bee-B2DF.svg","response":1,"trial_type":"image-button-response","trial_index":146,"time_elapsed":402405,"internal_node_id":"0.0-6.0-0.10","subject_id":"60e03b0a759b4850df25f739","study_id":"6197b3f67c2b5cd3b6d9596a","session_id":"619be31facd4a281561ae977","condition":"contingent","relevant_dimensions":["wings","pattern"],"bee_group":{"antennae":"X","wings":"1","pattern":"S","legs":"X"},"bonus":0.7600000000000002},{"rt":2246.7000000178814,"stimulus":"bees-with-color/bee-B2DM.svg","response":1,"trial_type":"image-button-response","trial_index":147,"time_elapsed":404653,"internal_node_id":"0.0-6.0-0.11","subject_id":"60e03b0a759b4850df25f739","study_id":"6197b3f67c2b5cd3b6d9596a","session_id":"619be31facd4a281561ae977","condition":"contingent","relevant_dimensions":["wings","pattern"],"bee_group":{"antennae":"X","wings":"1","pattern":"S","legs":"X"},"bonus":0.7600000000000002},{"rt":1687.5,"stimulus":"bees-with-color/bee-B1DF.svg","response":1,"trial_type":"image-button-response","trial_index":148,"time_elapsed":406342,"internal_node_id":"0.0-6.0-0.12","subject_id":"60e03b0a759b4850df25f739","study_id":"6197b3f67c2b5cd3b6d9596a","session_id":"619be31facd4a281561ae977","condition":"contingent","relevant_dimensions":["wings","pattern"],"bee_group":{"antennae":"X","wings":"1","pattern":"S","legs":"X"},"bonus":0.7600000000000002},{"rt":1256,"stimulus":"bees-with-color/bee-B1SF.svg","response":1,"trial_type":"image-button-response","trial_index":149,"time_elapsed":407599,"internal_node_id":"0.0-6.0-0.13","subject_id":"60e03b0a759b4850df25f739","study_id":"6197b3f67c2b5cd3b6d9596a","session_id":"619be31facd4a281561ae977","condition":"contingent","relevant_dimensions":["wings","pattern"],"bee_group":{"antennae":"X","wings":"1","pattern":"S","legs":"X"},"bonus":0.7600000000000002},{"rt":2039.9000000059605,"stimulus":"bees-with-color/bee-A2DF.svg","response":1,"trial_type":"image-button-response","trial_index":150,"time_elapsed":409640,"internal_node_id":"0.0-6.0-0.14","subject_id":"60e03b0a759b4850df25f739","study_id":"6197b3f67c2b5cd3b6d9596a","session_id":"619be31facd4a281561ae977","condition":"contingent","relevant_dimensions":["wings","pattern"],"bee_group":{"antennae":"X","wings":"1","pattern":"S","legs":"X"},"bonus":0.7600000000000002},{"rt":1879.699999988079,"stimulus":"bees-with-color/bee-A1DM.svg","response":0,"trial_type":"image-button-response","trial_index":151,"time_elapsed":411521,"internal_node_id":"0.0-6.0-0.15","subject_id":"60e03b0a759b4850df25f739","study_id":"6197b3f67c2b5cd3b6d9596a","session_id":"619be31facd4a281561ae977","condition":"contingent","relevant_dimensions":["wings","pattern"],"bee_group":{"antennae":"X","wings":"1","pattern":"S","legs":"X"},"bonus":0.7600000000000002},{"rt":2815,"stimulus":"bees-with-color/bee-A2DF.svg","response":1,"trial_type":"image-button-response","trial_index":152,"time_elapsed":414337,"internal_node_id":"0.0-6.0-0.16","subject_id":"60e03b0a759b4850df25f739","study_id":"6197b3f67c2b5cd3b6d9596a","session_id":"619be31facd4a281561ae977","condition":"contingent","relevant_dimensions":["wings","pattern"],"bee_group":{"antennae":"X","wings":"1","pattern":"S","legs":"X"},"bonus":0.7600000000000002},{"rt":543.7999999821186,"stimulus":"bees-with-color/bee-A2DM.svg","response":1,"trial_type":"image-button-response","trial_index":153,"time_elapsed":414882,"internal_node_id":"0.0-6.0-0.17","subject_id":"60e03b0a759b4850df25f739","study_id":"6197b3f67c2b5cd3b6d9596a","session_id":"619be31facd4a281561ae977","condition":"contingent","relevant_dimensions":["wings","pattern"],"bee_group":{"antennae":"X","wings":"1","pattern":"S","legs":"X"},"bonus":0.7600000000000002},{"rt":477.19999998807907,"stimulus":"bees-with-color/bee-B1DF.svg","response":1,"trial_type":"image-button-response","trial_index":154,"time_elapsed":415360,"internal_node_id":"0.0-6.0-0.18","subject_id":"60e03b0a759b4850df25f739","study_id":"6197b3f67c2b5cd3b6d9596a","session_id":"619be31facd4a281561ae977","condition":"contingent","relevant_dimensions":["wings","pattern"],"bee_group":{"antennae":"X","wings":"1","pattern":"S","legs":"X"},"bonus":0.7600000000000002},{"rt":2267.9000000059605,"stimulus":"bees-with-color/bee-A2SF.svg","response":0,"trial_type":"image-button-response","trial_index":155,"time_elapsed":417629,"internal_node_id":"0.0-6.0-0.19","subject_id":"60e03b0a759b4850df25f739","study_id":"6197b3f67c2b5cd3b6d9596a","session_id":"619be31facd4a281561ae977","condition":"contingent","relevant_dimensions":["wings","pattern"],"bee_group":{"antennae":"X","wings":"1","pattern":"S","legs":"X"},"bonus":0.7600000000000002},{"rt":563.8000000119209,"stimulus":"bees-with-color/bee-B1SF.svg","response":1,"trial_type":"image-button-response","trial_index":156,"time_elapsed":418194,"internal_node_id":"0.0-6.0-0.20","subject_id":"60e03b0a759b4850df25f739","study_id":"6197b3f67c2b5cd3b6d9596a","session_id":"619be31facd4a281561ae977","condition":"contingent","relevant_dimensions":["wings","pattern"],"bee_group":{"antennae":"X","wings":"1","pattern":"S","legs":"X"},"bonus":0.7600000000000002},{"rt":2672.2999999821186,"stimulus":"bees-with-color/bee-B2DF.svg","response":1,"trial_type":"image-button-response","trial_index":157,"time_elapsed":420867,"internal_node_id":"0.0-6.0-0.21","subject_id":"60e03b0a759b4850df25f739","study_id":"6197b3f67c2b5cd3b6d9596a","session_id":"619be31facd4a281561ae977","condition":"contingent","relevant_dimensions":["wings","pattern"],"bee_group":{"antennae":"X","wings":"1","pattern":"S","legs":"X"},"bonus":0.7600000000000002},{"rt":1275.9000000059605,"stimulus":"bees-with-color/bee-B2DM.svg","response":1,"trial_type":"image-button-response","trial_index":158,"time_elapsed":422144,"internal_node_id":"0.0-6.0-0.22","subject_id":"60e03b0a759b4850df25f739","study_id":"6197b3f67c2b5cd3b6d9596a","session_id":"619be31facd4a281561ae977","condition":"contingent","relevant_dimensions":["wings","pattern"],"bee_group":{"antennae":"X","wings":"1","pattern":"S","legs":"X"},"bonus":0.7600000000000002},{"rt":1613.199999988079,"stimulus":"bees-with-color/bee-A1SM.svg","response":1,"trial_type":"image-button-response","trial_index":159,"time_elapsed":423758,"internal_node_id":"0.0-6.0-0.23","subject_id":"60e03b0a759b4850df25f739","study_id":"6197b3f67c2b5cd3b6d9596a","session_id":"619be31facd4a281561ae977","condition":"contingent","relevant_dimensions":["wings","pattern"],"bee_group":{"antennae":"X","wings":"1","pattern":"S","legs":"X"},"bonus":0.7600000000000002},{"rt":1621.0999999940395,"stimulus":"bees-with-color/bee-A1DF.svg","response":1,"trial_type":"image-button-response","trial_index":160,"time_elapsed":425380,"internal_node_id":"0.0-6.0-0.24","subject_id":"60e03b0a759b4850df25f739","study_id":"6197b3f67c2b5cd3b6d9596a","session_id":"619be31facd4a281561ae977","condition":"contingent","relevant_dimensions":["wings","pattern"],"bee_group":{"antennae":"X","wings":"1","pattern":"S","legs":"X"},"bonus":0.7600000000000002},{"rt":2006.699999988079,"stimulus":"bees-with-color/bee-A1DM.svg","response":0,"trial_type":"image-button-response","trial_index":161,"time_elapsed":427388,"internal_node_id":"0.0-6.0-0.25","subject_id":"60e03b0a759b4850df25f739","study_id":"6197b3f67c2b5cd3b6d9596a","session_id":"619be31facd4a281561ae977","condition":"contingent","relevant_dimensions":["wings","pattern"],"bee_group":{"antennae":"X","wings":"1","pattern":"S","legs":"X"},"bonus":0.7600000000000002},{"rt":740,"stimulus":"bees-with-color/bee-A1SF.svg","response":1,"trial_type":"image-button-response","trial_index":162,"time_elapsed":428129,"internal_node_id":"0.0-6.0-0.26","subject_id":"60e03b0a759b4850df25f739","study_id":"6197b3f67c2b5cd3b6d9596a","session_id":"619be31facd4a281561ae977","condition":"contingent","relevant_dimensions":["wings","pattern"],"bee_group":{"antennae":"X","wings":"1","pattern":"S","legs":"X"},"bonus":0.7600000000000002},{"rt":893.3000000119209,"stimulus":"bees-with-color/bee-B1SM.svg","response":1,"trial_type":"image-button-response","trial_index":163,"time_elapsed":429023,"internal_node_id":"0.0-6.0-0.27","subject_id":"60e03b0a759b4850df25f739","study_id":"6197b3f67c2b5cd3b6d9596a","session_id":"619be31facd4a281561ae977","condition":"contingent","relevant_dimensions":["wings","pattern"],"bee_group":{"antennae":"X","wings":"1","pattern":"S","legs":"X"},"bonus":0.7600000000000002},{"rt":1793.4000000059605,"stimulus":"bees-with-color/bee-A2SM.svg","response":1,"trial_type":"image-button-response","trial_index":164,"time_elapsed":430818,"internal_node_id":"0.0-6.0-0.28","subject_id":"60e03b0a759b4850df25f739","study_id":"6197b3f67c2b5cd3b6d9596a","session_id":"619be31facd4a281561ae977","condition":"contingent","relevant_dimensions":["wings","pattern"],"bee_group":{"antennae":"X","wings":"1","pattern":"S","legs":"X"},"bonus":0.7600000000000002},{"rt":1430,"stimulus":"bees-with-color/bee-B2SF.svg","response":1,"trial_type":"image-button-response","trial_index":165,"time_elapsed":432249,"internal_node_id":"0.0-6.0-0.29","subject_id":"60e03b0a759b4850df25f739","study_id":"6197b3f67c2b5cd3b6d9596a","session_id":"619be31facd4a281561ae977","condition":"contingent","relevant_dimensions":["wings","pattern"],"bee_group":{"antennae":"X","wings":"1","pattern":"S","legs":"X"},"bonus":0.7600000000000002},{"rt":571.3000000119209,"stimulus":"bees-with-color/bee-B1DM.svg","response":1,"trial_type":"image-button-response","trial_index":166,"time_elapsed":432821,"internal_node_id":"0.0-6.0-0.30","subject_id":"60e03b0a759b4850df25f739","study_id":"6197b3f67c2b5cd3b6d9596a","session_id":"619be31facd4a281561ae977","condition":"contingent","relevant_dimensions":["wings","pattern"],"bee_group":{"antennae":"X","wings":"1","pattern":"S","legs":"X"},"bonus":0.7600000000000002},{"rt":1339.9000000059605,"stimulus":"bees-with-color/bee-B2SM.svg","response":1,"trial_type":"image-button-response","trial_index":167,"time_elapsed":434162,"internal_node_id":"0.0-6.0-0.31","subject_id":"60e03b0a759b4850df25f739","study_id":"6197b3f67c2b5cd3b6d9596a","session_id":"619be31facd4a281561ae977","condition":"contingent","relevant_dimensions":["wings","pattern"],"bee_group":{"antennae":"X","wings":"1","pattern":"S","legs":"X"},"bonus":0.7600000000000002},{"rt":3403.199999988079,"stimulus