[{"success":true,"trial_type":"fullscreen","trial_index":0,"time_elapsed":6887,"internal_node_id":"0.0-0.0","subject_id":"61756ff5df68820d0e08e246","study_id":"6197b3f67c2b5cd3b6d9596a","session_id":"619be58f15b84150b5d65f20","condition":"full-information","relevant_dimensions":["pattern","legs"],"bee_group":{"antennae":"X","wings":"X","pattern":"S","legs":"M"},"bonus":0.9200000000000012},{"success":true,"timeout":false,"failed_images":[],"failed_audio":[],"failed_video":[],"trial_type":"preload","trial_index":1,"time_elapsed":12721,"internal_node_id":"0.0-1.0","subject_id":"61756ff5df68820d0e08e246","study_id":"6197b3f67c2b5cd3b6d9596a","session_id":"619be58f15b84150b5d65f20","condition":"full-information","relevant_dimensions":["pattern","legs"],"bee_group":{"antennae":"X","wings":"X","pattern":"S","legs":"M"},"bonus":0.9200000000000012},{"rt":9227.70000000298,"stimulus":"Welcome! Press any key to begin.","response":"h","trial_type":"html-keyboard-response","trial_index":2,"time_elapsed":21952,"internal_node_id":"0.0-2.0","subject_id":"61756ff5df68820d0e08e246","study_id":"6197b3f67c2b5cd3b6d9596a","session_id":"619be58f15b84150b5d65f20","condition":"full-information","relevant_dimensions":["pattern","legs"],"bee_group":{"antennae":"X","wings":"X","pattern":"S","legs":"M"},"bonus":0.9200000000000012},{"view_history":[{"page_index":0,"viewing_time":10968.29999999702},{"page_index":1,"viewing_time":17964.80000001192},{"page_index":2,"viewing_time":14986},{"page_index":3,"viewing_time":22496.69999998808},{"page_index":4,"viewing_time":9787.5},{"page_index":5,"viewing_time":18945.20000000298},{"page_index":6,"viewing_time":8436.20000000298},{"page_index":7,"viewing_time":12695},{"page_index":8,"viewing_time":12996.20000000298},{"page_index":9,"viewing_time":5271.5999999940395},{"page_index":10,"viewing_time":3583.1000000089407},{"page_index":11,"viewing_time":11829.89999999106},{"page_index":12,"viewing_time":23125},{"page_index":13,"viewing_time":3090.5},{"page_index":14,"viewing_time":4590.9000000059605}],"rt":180767.40000000596,"trial_type":"instructions","trial_index":3,"time_elapsed":202723,"internal_node_id":"0.0-3.0-0.0","subject_id":"61756ff5df68820d0e08e246","study_id":"6197b3f67c2b5cd3b6d9596a","session_id":"619be58f15b84150b5d65f20","condition":"full-information","relevant_dimensions":["pattern","legs"],"bee_group":{"antennae":"X","wings":"X","pattern":"S","legs":"M"},"bonus":0.9200000000000012},{"rt":26396.39999999106,"response":{"Q0":["Two or six legs","Stripes or spots on body","Stinger or no stinger","Single or double wings","Antennae or no antennae"]},"question_order":[0],"trial_type":"survey-multi-select","trial_index":4,"time_elapsed":229125,"internal_node_id":"0.0-3.0-1.0","subject_id":"61756ff5df68820d0e08e246","study_id":"6197b3f67c2b5cd3b6d9596a","session_id":"619be58f15b84150b5d65f20","condition":"full-information","relevant_dimensions":["pattern","legs"],"bee_group":{"antennae":"X","wings":"X","pattern":"S","legs":"M"},"correct":false,"bonus":0.9200000000000012},{"rt":35898.90000000596,"response":{"Q1":"No.","Q2":"Based on the four features of the bee.","Q3":"You learn if it was friendly or dangerous, but do not alter your bonus."},"question_order":[0,1,2],"trial_type":"survey-multi-choice","trial_index":5,"time_elapsed":265029,"internal_node_id":"0.0-3.0-2.0","subject_id":"61756ff5df68820d0e08e246","study_id":"6197b3f67c2b5cd3b6d9596a","session_id":"619be58f15b84150b5d65f20","condition":"full-information","relevant_dimensions":["pattern","legs"],"bee_group":{"antennae":"X","wings":"X","pattern":"S","legs":"M"},"correct":true,"bonus":0.9200000000000012},{"rt":6114.9000000059605,"stimulus":"<p>You did not answer all comprehension questions correctly.<br>Press <b>continue</b> to review the instructions again.</p>","response":0,"trial_type":"html-button-response","trial_index":6,"time_elapsed":271146,"internal_node_id":"0.0-3.0-3.0","subject_id":"61756ff5df68820d0e08e246","study_id":"6197b3f67c2b5cd3b6d9596a","session_id":"619be58f15b84150b5d65f20","condition":"full-information","relevant_dimensions":["pattern","legs"],"bee_group":{"antennae":"X","wings":"X","pattern":"S","legs":"M"},"bonus":0.9200000000000012},{"view_history":[{"page_index":0,"viewing_time":2959.3999999910593},{"page_index":1,"viewing_time":12238.60000000894},{"page_index":2,"viewing_time":10720.89999999106},{"page_index":3,"viewing_time":16518.60000000894},{"page_index":4,"viewing_time":13235.79999999702},{"page_index":5,"viewing_time":6330.79999999702},{"page_index":6,"viewing_time":8422.10000000894},{"page_index":7,"viewing_time":4525.5999999940395},{"page_index":8,"viewing_time":1844.5},{"page_index":9,"viewing_time":1280.2999999970198},{"page_index":10,"viewing_time":1650.7000000029802},{"page_index":11,"viewing_time":9889.79999999702},{"page_index":12,"viewing_time":6240.20000000298},{"page_index":13,"viewing_time":2390.9000000059605},{"page_index":14,"viewing_time":1048.0999999940395}],"rt":99296.59999999404,"trial_type":"instructions","trial_index":7,"time_elapsed":370445,"internal_node_id":"0.0-3.0-4.0-0.0","subject_id":"61756ff5df68820d0e08e246","study_id":"6197b3f67c2b5cd3b6d9596a","session_id":"619be58f15b84150b5d65f20","condition":"full-information","relevant_dimensions":["pattern","legs"],"bee_group":{"antennae":"X","wings":"X","pattern":"S","legs":"M"},"bonus":0.9200000000000012},{"rt":15923.79999999702,"response":{"Q0":["Two or six legs","Stripes or spots on body","Single or double wings","Antennae or no antennae"]},"question_order":[0],"trial_type":"survey-multi-select","trial_index":8,"time_elapsed":386375,"internal_node_id":"0.0-3.0-4.0-1.0","subject_id":"61756ff5df68820d0e08e246","study_id":"6197b3f67c2b5cd3b6d9596a","session_id":"619be58f15b84150b5d65f20","condition":"full-information","relevant_dimensions":["pattern","legs"],"bee_group":{"antennae":"X","wings":"X","pattern":"S","legs":"M"},"correct":true,"bonus":0.9200000000000012},{"rt":26213.20000000298,"response":{"Q1":"No.","Q2":"Based on the four features of the bee.","Q3":"You learn if it was friendly or dangerous, but do not alter your bonus."},"question_order":[0,1,2],"trial_type":"survey-multi-choice","trial_index":9,"time_elapsed":412591,"internal_node_id":"0.0-3.0-4.0-2.0","subject_id":"61756ff5df68820d0e08e246","study_id":"6197b3f67c2b5cd3b6d9596a","session_id":"619be58f15b84150b5d65f20","condition":"full-information","relevant_dimensions":["pattern","legs"],"bee_group":{"antennae":"X","wings":"X","pattern":"S","legs":"M"},"correct":true,"bonus":0.9200000000000012},{"rt":4864.5999999940395,"stimulus":"<p>Congrats, you got everything right<br>When you're ready, click the button below to continue to the experiment.</p>","response":0,"trial_type":"html-button-response","trial_index":10,"time_elapsed":417457,"internal_node_id":"0.0-3.0-4.0-3.0","subject_id":"61756ff5df68820d0e08e246","study_id":"6197b3f67c2b5cd3b6d9596a","session_id":"619be58f15b84150b5d65f20","condition":"full-information","relevant_dimensions":["pattern","legs"],"bee_group":{"antennae":"X","wings":"X","pattern":"S","legs":"M"},"bonus":0.9200000000000012},{"rt":14248.20000000298,"stimulus":"bees-with-color/bee-B1SF.svg","response":1,"trial_type":"image-button-response","trial_index":11,"time_elapsed":431710,"internal_node_id":"0.0-4.0-0.0","subject_id":"61756ff5df68820d0e08e246","study_id":"6197b3f67c2b5cd3b6d9596a","session_id":"619be58f15b84150b5d65f20","condition":"full-information","relevant_dimensions":["pattern","legs"],"bee_group":{"antennae":"X","wings":"X","pattern":"S","legs":"M"},"action":"avoid","summary":"bad-avoid","bonus":0.9200000000000012},{"rt":9997.79999999702,"stimulus":"\n                    <p><b>Action: <em>avoid</em></b></p>\n                    <p>This is the bee that you just saw.</p>\n                    <img src=\"bees-with-color/bee-B1SF.svg\" width=\"200\">\n                    <p><span class=\"redText\">Bad choice,</span> the bee was friendly.<br>Your bonus pay is unchanged, and remains at $0.54.</p>\n            ","response":0,"trial_type":"html-button-response","trial_index":12,"time_elapsed":441712,"internal_node_id":"0.0-4.0-1.0","subject_id":"61756ff5df68820d0e08e246","study_id":"6197b3f67c2b5cd3b6d9596a","session_id":"619be58f15b84150b5d65f20","condition":"full-information","relevant_dimensions":["pattern","legs"],"bee_group":{"antennae":"X","wings":"X","pattern":"S","legs":"M"},"bonus":0.9200000000000012},{"rt":3067.9000000059605,"stimulus":"bees-with-color/bee-A1SF.svg","response":0,"trial_type":"image-button-response","trial_index":13,"time_elapsed":444782,"internal_node_id":"0.0-4.0-0.1","subject_id":"61756ff5df68820d0e08e246","study_id":"6197b3f67c2b5cd3b6d9596a","session_id":"619be58f15b84150b5d65f20","condition":"full-information","relevant_dimensions":["pattern","legs"],"bee_group":{"antennae":"X","wings":"X","pattern":"S","legs":"M"},"action":"harvest","summary":"good-harvest","bonus":0.9200000000000012},{"rt":4110.20000000298,"stimulus":"\n                    <p><b>Action: <em>harvest</em></b></p>\n                    <p>This is the bee that you just saw.</p>\n                    <img src=\"bees-with-color/bee-A1SF.svg\" width=\"200\">\n                    <p><span class=\"greenText\"><b>Successful harvest!</b></span><br>Your pay has increased by $0.02. Your bonus pay is now $0.56.</p>\n            ","response":0,"trial_type":"html-button-response","trial_index":14,"time_elapsed":448895,"internal_node_id":"0.0-4.0-1.1","subject_id":"61756ff5df68820d0e08e246","study_id":"6197b3f67c2b5cd3b6d9596a","session_id":"619be58f15b84150b5d65f20","condition":"full-information","relevant_dimensions":["pattern","legs"],"bee_group":{"antennae":"X","wings":"X","pattern":"S","legs":"M"},"bonus":0.9200000000000012},{"rt":3515.0999999940395,"stimulus":"bees-with-color/bee-A2DF.svg","response":1,"trial_type":"image-button-response","trial_index":15,"time_elapsed":452413,"internal_node_id":"0.0-4.0-0.2","subject_id":"61756ff5df68820d0e08e246","study_id":"6197b3f67c2b5cd3b6d9596a","session_id":"619be58f15b84150b5d65f20","condition":"full-information","relevant_dimensions":["pattern","legs"],"bee_group":{"antennae":"X","wings":"X","pattern":"S","legs":"M"},"action":"avoid","summary":"bad-avoid","bonus":0.9200000000000012},{"rt":3520.6000000089407,"stimulus":"\n                    <p><b>Action: <em>avoid</em></b></p>\n                    <p>This is the bee that you just saw.</p>\n                    <img src=\"bees-with-color/bee-A2DF.svg\" width=\"200\">\n                    <p><span class=\"redText\">Bad choice,</span> the bee was friendly.<br>Your bonus pay is unchanged, and remains at $0.56.</p>\n            ","response":0,"trial_type":"html-button-response","trial_index":16,"time_elapsed":455936,"internal_node_id":"0.0-4.0-1.2","subject_id":"61756ff5df68820d0e08e246","study_id":"6197b3f67c2b5cd3b6d9596a","session_id":"619be58f15b84150b5d65f20","condition":"full-information","relevant_dimensions":["pattern","legs"],"bee_group":{"antennae":"X","wings":"X","pattern":"S","legs":"M"},"bonus":0.9200000000000012},{"rt":1684.2000000029802,"stimulus":"bees-with-color/bee-A2DM.svg","response":0,"trial_type":"image-button-response","trial_index":17,"time_elapsed":457622,"internal_node_id":"0.0-4.0-0.3","subject_id":"61756ff5df68820d0e08e246","study_id":"6197b3f67c2b5cd3b6d9596a","session_id":"619be58f15b84150b5d65f20","condition":"full-information","relevant_dimensions":["pattern","legs"],"bee_group":{"antennae":"X","wings":"X","pattern":"S","legs":"M"},"action":"harvest","summary":"good-harvest","bonus":0.9200000000000012},{"rt":2327.5,"stimulus":"\n                    <p><b>Action: <em>harvest</em></b></p>\n                    <p>This is the bee that you just saw.</p>\n                    <img src=\"bees-with-color/bee-A2DM.svg\" width=\"200\">\n                    <p><span class=\"greenText\"><b>Successful harvest!</b></span><br>Your pay has increased by $0.02. Your bonus pay is now $0.58.</p>\n            ","response":0,"trial_type":"html-button-response","trial_index":18,"time_elapsed":459952,"internal_node_id":"0.0-4.0-1.3","subject_id":"61756ff5df68820d0e08e246","study_id":"6197b3f67c2b5cd3b6d9596a","session_id":"619be58f15b84150b5d65f20","condition":"full-information","relevant_dimensions":["pattern","legs"],"bee_group":{"antennae":"X","wings":"X","pattern":"S","legs":"M"},"bonus":0.9200000000000012},{"rt":1525,"stimulus":"bees-with-color/bee-B1DF.svg","response":0,"trial_type":"image-button-response","trial_index":19,"time_elapsed":461479,"internal_node_id":"0.0-4.0-0.4","subject_id":"61756ff5df68820d0e08e246","study_id":"6197b3f67c2b5cd3b6d9596a","session_id":"619be58f15b84150b5d65f20","condition":"full-information","relevant_dimensions":["pattern","legs"],"bee_group":{"antennae":"X","wings":"X","pattern":"S","legs":"M"},"action":"harvest","summary":"good-harvest","bonus":0.9200000000000012},{"rt":2475.300000011921,"stimulus":"\n                    <p><b>Action: <em>harvest</em></b></p>\n                    <p>This is the bee that you just saw.</p>\n                    <img src=\"bees-with-color/bee-B1DF.svg\" width=\"200\">\n                    <p><span class=\"greenText\"><b>Successful harvest!</b></span><br>Your pay has increased by $0.02. Your bonus pay is now $0.60.</p>\n            ","response":0,"trial_type":"html-button-response","trial_index":20,"time_elapsed":463957,"internal_node_id":"0.0-4.0-1.4","subject_id":"61756ff5df68820d0e08e246","study_id":"6197b3f67c2b5cd3b6d9596a","session_id":"619be58f15b84150b5d65f20","condition":"full-information","relevant_dimensions":["pattern","legs"],"bee_group":{"antennae":"X","wings":"X","pattern":"S","legs":"M"},"bonus":0.9200000000000012},{"rt":1952.7999999970198,"stimulus":"bees-with-color/bee-B1DM.svg","response":0,"trial_type":"image-button-response","trial_index":21,"time_elapsed":465912,"internal_node_id":"0.0-4.0-0.5","subject_id":"61756ff5df68820d0e08e246","study_id":"6197b3f67c2b5cd3b6d9596a","session_id":"619be58f15b84150b5d65f20","condition":"full-information","relevant_dimensions":["pattern","legs"],"bee_group":{"antennae":"X","wings":"X","pattern":"S","legs":"M"},"action":"harvest","summary":"good-harvest","bonus":0.9200000000000012},{"rt":1915.7999999970198,"stimulus":"\n                    <p><b>Action: <em>harvest</em></b></p>\n                    <p>This is the bee that you just saw.</p>\n                    <img src=\"bees-with-color/bee-B1DM.svg\" width=\"200\">\n                    <p><span class=\"greenText\"><b>Successful harvest!</b></span><br>Your pay has increased by $0.02. Your bonus pay is now $0.62.</p>\n            ","response":0,"trial_type":"html-button-response","trial_index":22,"time_elapsed":467830,"internal_node_id":"0.0-4.0-1.5","subject_id":"61756ff5df68820d0e08e246","study_id":"6197b3f67c2b5cd3b6d9596a","session_id":"619be58f15b84150b5d65f20","condition":"full-information","relevant_dimensions":["pattern","legs"],"bee_group":{"antennae":"X","wings":"X","pattern":"S","legs":"M"},"bonus":0.9200000000000012},{"rt":1569.4000000059605,"stimulus":"bees-with-color/bee-B2SM.svg","response":0,"trial_type":"image-button-response","trial_index":23,"time_elapsed":469401,"internal_node_id":"0.0-4.0-0.6","subject_id":"61756ff5df68820d0e08e246","study_id":"6197b3f67c2b5cd3b6d9596a","session_id":"619be58f15b84150b5d65f20","condition":"full-information","relevant_dimensions":["pattern","legs"],"bee_group":{"antennae":"X","wings":"X","pattern":"S","legs":"M"},"action":"harvest","summary":"bad-harvest","bonus":0.9200000000000012},{"rt":10038.20000000298,"stimulus":"\n                    <p><b>Action: <em>harvest</em></b></p>\n                    <p>This is the bee that you just saw.</p>\n                    <img src=\"bees-with-color/bee-B2SM.svg\" width=\"200\">\n                    <p><span class=\"redText\">Bad choice, the bee was angry.</span><br><b>You have been stung!</b><br>Your pay has been decreased by $0.10. Your bonus pay is now $0.52.</p>\n            ","response":0,"trial_type":"html-button-response","trial_index":24,"time_elapsed":479442,"internal_node_id":"0.0-4.0-1.6","subject_id":"61756ff5df68820d0e08e246","study_id":"6197b3f67c2b5cd3b6d9596a","session_id":"619be58f15b84150b5d65f20","condition":"full-information","relevant_dimensions":["pattern","legs"],"bee_group":{"antennae":"X","wings":"X","pattern":"S","legs":"M"},"bonus":0.9200000000000012},{"rt":6200.79999999702,"stimulus":"bees-with-color/bee-A1SM.svg","response":1,"trial_type":"image-button-response","trial_index":25,"time_elapsed":485645,"internal_node_id":"0.0-4.0-0.7","subject_id":"61756ff5df68820d0e08e246","study_id":"6197b3f67c2b5cd3b6d9596a","session_id":"619be58f15b84150b5d65f20","condition":"full-information","relevant_dimensions":["pattern","legs"],"bee_group":{"antennae":"X","wings":"X","pattern":"S","legs":"M"},"action":"avoid","summary":"good-avoid","bonus":0.9200000000000012},{"rt":7144.70000000298,"stimulus":"\n                    <p><b>Action: <em>avoid</em></b></p>\n                    <p>This is the bee that you just saw.</p>\n                    <img src=\"bees-with-color/bee-A1SM.svg\" width=\"200\">\n                    <p><span class=\"greenText\">Good choice!</span>  This bee would have stung you.<br>Your bonus pay is unchanged, and remains at $0.52.</p>\n            ","response":0,"trial_type":"html-button-response","trial_index":26,"time_elapsed":492792,"internal_node_id":"0.0-4.0-1.7","subject_id":"61756ff5df68820d0e08e246","study_id":"6197b3f67c2b5cd3b6d9596a","session_id":"619be58f15b84150b5d65f20","condition":"full-information","relevant_dimensions":["pattern","legs"],"bee_group":{"antennae":"X","wings":"X","pattern":"S","legs":"M"},"bonus":0.9200000000000012},{"rt":3155,"stimulus":"bees-with-color/bee-B2DF.svg","response":1,"trial_type":"image-button-response","trial_index":27,"time_elapsed":495950,"internal_node_id":"0.0-4.0-0.8","subject_id":"61756ff5df68820d0e08e246","study_id":"6197b3f67c2b5cd3b6d9596a","session_id":"619be58f15b84150b5d65f20","condition":"full-information","relevant_dimensions":["pattern","legs"],"bee_group":{"antennae":"X","wings":"X","pattern":"S","legs":"M"},"action":"avoid","summary":"bad-avoid","bonus":0.9200000000000012},{"rt":5325.0999999940395,"stimulus":"\n                    <p><b>Action: <em>avoid</em></b></p>\n                    <p>This is the bee that you just saw.</p>\n                    <img src=\"bees-with-color/bee-B2DF.svg\" width=\"200\">\n                    <p><span class=\"redText\">Bad choice,</span> the bee was friendly.<br>Your bonus pay is unchanged, and remains at $0.52.</p>\n            ","response":0,"trial_type":"html-button-response","trial_index":28,"time_elapsed":501277,"internal_node_id":"0.0-4.0-1.8","subject_id":"61756ff5df68820d0e08e246","study_id":"6197b3f67c2b5cd3b6d9596a","session_id":"619be58f15b84150b5d65f20","condition":"full-information","relevant_dimensions":["pattern","legs"],"bee_group":{"antennae":"X","wings":"X","pattern":"S","legs":"M"},"bonus":0.9200000000000012},{"rt":2460,"stimulus":"bees-with-color/bee-B2DM.svg","response":0,"trial_type":"image-button-response","trial_index":29,"time_elapsed":503741,"internal_node_id":"0.0-4.0-0.9","subject_id":"61756ff5df68820d0e08e246","study_id":"6197b3f67c2b5cd3b6d9596a","session_id":"619be58f15b84150b5d65f20","condition":"full-information","relevant_dimensions":["pattern","legs"],"bee_group":{"antennae":"X","wings":"X","pattern":"S","legs":"M"},"action":"harvest","summary":"good-harvest","bonus":0.9200000000000012},{"rt":1882.7000000029802,"stimulus":"\n                    <p><b>Action: <em>harvest</em></b></p>\n                    <p>This is the bee that you just saw.</p>\n                    <img src=\"bees-with-color/bee-B2DM.svg\" width=\"200\">\n                    <p><span class=\"greenText\"><b>Successful harvest!</b></span><br>Your pay has increased by $0.02. Your bonus pay is now $0.54.</p>\n            ","response":0,"trial_type":"html-button-response","trial_index":30,"time_elapsed":505626,"internal_node_id":"0.0-4.0-1.9","subject_id":"61756ff5df68820d0e08e246","study_id":"6197b3f67c2b5cd3b6d9596a","session_id":"619be58f15b84150b5d65f20","condition":"full-information","relevant_dimensions":["pattern","legs"],"bee_group":{"antennae":"X","wings":"X","pattern":"S","legs":"M"},"bonus":0.9200000000000012},{"rt":3138.5,"stimulus":"bees-with-color/bee-A1DF.svg","response":1,"trial_type":"image-button-response","trial_index":31,"time_elapsed":508768,"internal_node_id":"0.0-4.0-0.10","subject_id":"61756ff5df68820d0e08e246","study_id":"6197b3f67c2b5cd3b6d9596a","session_id":"619be58f15b84150b5d65f20","condition":"full-information","relevant_dimensions":["pattern","legs"],"bee_group":{"antennae":"X","wings":"X","pattern":"S","legs":"M"},"action":"avoid","summary":"bad-avoid","bonus":0.9200000000000012},{"rt":2277,"stimulus":"\n                    <p><b>Action: <em>avoid</em></b></p>\n                    <p>This is the bee that you just saw.</p>\n                    <img src=\"bees-with-color/bee-A1DF.svg\" width=\"200\">\n                    <p><span class=\"redText\">Bad choice,</span> the bee was friendly.<br>Your bonus pay is unchanged, and remains at $0.54.</p>\n            ","response":0,"trial_type":"html-button-response","trial_index":32,"time_elapsed":511048,"internal_node_id":"0.0-4.0-1.10","subject_id":"61756ff5df68820d0e08e246","study_id":"6197b3f67c2b5cd3b6d9596a","session_id":"619be58f15b84150b5d65f20","condition":"full-information","relevant_dimensions":["pattern","legs"],"bee_group":{"antennae":"X","wings":"X","pattern":"S","legs":"M"},"bonus":0.9200000000000012},{"rt":6727,"stimulus":"bees-with-color/bee-B1SM.svg","response":1,"trial_type":"image-button-response","trial_index":33,"time_elapsed":517777,"internal_node_id":"0.0-4.0-0.11","subject_id":"61756ff5df68820d0e08e246","study_id":"6197b3f67c2b5cd3b6d9596a","session_id":"619be58f15b84150b5d65f20","condition":"full-information","relevant_dimensions":["pattern","legs"],"bee_group":{"antennae":"X","wings":"X","pattern":"S","legs":"M"},"action":"avoid","summary":"good-avoid","bonus":0.9200000000000012},{"rt":2573.7999999970198,"stimulus":"\n                    <p><b>Action: <em>avoid</em></b></p>\n                    <p>This is the bee that you just saw.</p>\n                    <img src=\"bees-with-color/bee-B1SM.svg\" width=\"200\">\n                    <p><span class=\"greenText\">Good choice!</span>  This bee would have stung you.<br>Your bonus pay is unchanged, and remains at $0.54.</p>\n            ","response":0,"trial_type":"html-button-response","trial_index":34,"time_elapsed":520352,"internal_node_id":"0.0-4.0-1.11","subject_id":"61756ff5df68820d0e08e246","study_id":"6197b3f67c2b5cd3b6d9596a","session_id":"619be58f15b84150b5d65f20","condition":"full-information","relevant_dimensions":["pattern","legs"],"bee_group":{"antennae":"X","wings":"X","pattern":"S","legs":"M"},"bonus":0.9200000000000012},{"rt":3228.5,"stimulus":"bees-with-color/bee-A2SM.svg","response":1,"trial_type":"image-button-response","trial_index":35,"time_elapsed":523583,"internal_node_id":"0.0-4.0-0.12","subject_id":"61756ff5df68820d0e08e246","study_id":"6197b3f67c2b5cd3b6d9596a","session_id":"619be58f15b84150b5d65f20","condition":"full-information","relevant_dimensions":["pattern","legs"],"bee_group":{"antennae":"X","wings":"X","pattern":"S","legs":"M"},"action":"avoid","summary":"good-avoid","bonus":0.9200000000000012},{"rt":1882.9000000059605,"stimulus":"\n                    <p><b>Action: <em>avoid</em></b></p>\n                    <p>This is the bee that you just saw.</p>\n                    <img src=\"bees-with-color/bee-A2SM.svg\" width=\"200\">\n                    <p><span class=\"greenText\">Good choice!</span>  This bee would have stung you.<br>Your bonus pay is unchanged, and remains at $0.54.</p>\n            ","response":0,"trial_type":"html-button-response","trial_index":36,"time_elapsed":525468,"internal_node_id":"0.0-4.0-1.12","subject_id":"61756ff5df68820d0e08e246","study_id":"6197b3f67c2b5cd3b6d9596a","session_id":"619be58f15b84150b5d65f20","condition":"full-information","relevant_dimensions":["pattern","legs"],"bee_group":{"antennae":"X","wings":"X","pattern":"S","legs":"M"},"bonus":0.9200000000000012},{"rt":3329.5,"stimulus":"bees-with-color/bee-B2SF.svg","response":0,"trial_type":"image-button-response","trial_index":37,"time_elapsed":528799,"internal_node_id":"0.0-4.0-0.13","subject_id":"61756ff5df68820d0e08e246","study_id":"6197b3f67c2b5cd3b6d9596a","session_id":"619be58f15b84150b5d65f20","condition":"full-information","relevant_dimensions":["pattern","legs"],"bee_group":{"antennae":"X","wings":"X","pattern":"S","legs":"M"},"action":"harvest","summary":"good-harvest","bonus":0.9200000000000012},{"rt":2193.2999999970198,"stimulus":"\n                    <p><b>Action: <em>harvest</em></b></p>\n                    <p>This is the bee that you just saw.</p>\n                    <img src=\"bees-with-color/bee-B2SF.svg\" width=\"200\">\n                    <p><span class=\"greenText\"><b>Successful harvest!</b></span><br>Your pay has increased by $0.02. Your bonus pay is now $0.56.</p>\n            ","response":0,"trial_type":"html-button-response","trial_index":38,"time_elapsed":530994,"internal_node_id":"0.0-4.0-1.13","subject_id":"61756ff5df68820d0e08e246","study_id":"6197b3f67c2b5cd3b6d9596a","session_id":"619be58f15b84150b5d65f20","condition":"full-information","relevant_dimensions":["pattern","legs"],"bee_group":{"antennae":"X","wings":"X","pattern":"S","legs":"M"},"bonus":0.9200000000000012},{"rt":6449.0999999940395,"stimulus":"bees-with-color/bee-A1DM.svg","response":0,"trial_type":"image-button-response","trial_index":39,"time_elapsed":537445,"internal_node_id":"0.0-4.0-0.14","subject_id":"61756ff5df68820d0e08e246","study_id":"6197b3f67c2b5cd3b6d9596a","session_id":"619be58f15b84150b5d65f20","condition":"full-information","relevant_dimensions":["pattern","legs"],"bee_group":{"antennae":"X","wings":"X","pattern":"S","legs":"M"},"action":"harvest","summary":"good-harvest","bonus":0.9200000000000012},{"rt":1858.5999999940395,"stimulus":"\n                    <p><b>Action: <em>harvest</em></b></p>\n                    <p>This is the bee that you just saw.</p>\n                    <img src=\"bees-with-color/bee-A1DM.svg\" width=\"200\">\n                    <p><span class=\"greenText\"><b>Successful harvest!</b></span><br>Your pay has increased by $0.02. Your bonus pay is now $0.58.</p>\n            ","response":0,"trial_type":"html-button-response","trial_index":40,"time_elapsed":539305,"internal_node_id":"0.0-4.0-1.14","subject_id":"61756ff5df68820d0e08e246","study_id":"6197b3f67c2b5cd3b6d9596a","session_id":"619be58f15b84150b5d65f20","condition":"full-information","relevant_dimensions":["pattern","legs"],"bee_group":{"antennae":"X","wings":"X","pattern":"S","legs":"M"},"bonus":0.9200000000000012},{"rt":2042.7000000029802,"stimulus":"bees-with-color/bee-A2SF.svg","response":1,"trial_type":"image-button-response","trial_index":41,"time_elapsed":541350,"internal_node_id":"0.0-4.0-0.15","subject_id":"61756ff5df68820d0e08e246","study_id":"6197b3f67c2b5cd3b6d9596a","session_id":"619be58f15b84150b5d65f20","condition":"full-information","relevant_dimensions":["pattern","legs"],"bee_group":{"antennae":"X","wings":"X","pattern":"S","legs":"M"},"action":"avoid","summary":"bad-avoid","bonus":0.9200000000000012},{"rt":1787.5,"stimulus":"\n                    <p><b>Action: <em>avoid</em></b></p>\n                    <p>This is the bee that you just saw.</p>\n                    <img src=\"bees-with-color/bee-A2SF.svg\" width=\"200\">\n                    <p><span class=\"redText\">Bad choice,</span> the bee was friendly.<br>Your bonus pay is unchanged, and remains at $0.58.</p>\n            ","response":0,"trial_type":"html-button-response","trial_index":42,"time_elapsed":543140,"internal_node_id":"0.0-4.0-1.15","subject_id":"61756ff5df68820d0e08e246","study_id":"6197b3f67c2b5cd3b6d9596a","session_id":"619be58f15b84150b5d65f20","condition":"full-information","relevant_dimensions":["pattern","legs"],"bee_group":{"antennae":"X","wings":"X","pattern":"S","legs":"M"},"bonus":0.9200000000000012},{"rt":3056.5,"stimulus":"bees-with-color/bee-A2SM.svg","response":1,"trial_type":"image-button-response","trial_index":43,"time_elapsed":546198,"internal_node_id":"0.0-4.0-0.16","subject_id":"61756ff5df68820d0e08e246","study_id":"6197b3f67c2b5cd3b6d9596a","session_id":"619be58f15b84150b5d65f20","condition":"full-information","relevant_dimensions":["pattern","legs"],"bee_group":{"antennae":"X","wings":"X","pattern":"S","legs":"M"},"action":"avoid","summary":"good-avoid","bonus":0.9200000000000012},{"rt":1859.0999999940395,"stimulus":"\n                    <p><b>Action: <em>avoid</em></b></p>\n                    <p>This is the bee that you just saw.</p>\n                    <img src=\"bees-with-color/bee-A2SM.svg\" width=\"200\">\n                    <p><span class=\"greenText\">Good choice!</span>  This bee would have stung you.<br>Your bonus pay is unchanged, and remains at $0.58.</p>\n            ","response":0,"trial_type":"html-button-response","trial_index":44,"time_elapsed":548059,"internal_node_id":"0.0-4.0-1.16","subject_id":"61756ff5df68820d0e08e246","study_id":"6197b3f67c2b5cd3b6d9596a","session_id":"619be58f15b84150b5d65f20","condition":"full-information","relevant_dimensions":["pattern","legs"],"bee_group":{"antennae":"X","wings":"X","pattern":"S","legs":"M"},"bonus":0.9200000000000012},{"rt":4289.0999999940395,"stimulus":"bees-with-color/bee-B1SM.svg","response":1,"trial_type":"image-button-response","trial_index":45,"time_elapsed":552350,"internal_node_id":"0.0-4.0-0.17","subject_id":"61756ff5df68820d0e08e246","study_id":"6197b3f67c2b5cd3b6d9596a","session_id":"619be58f15b84150b5d65f20","condition":"full-information","relevant_dimensions":["pattern","legs"],"bee_group":{"antennae":"X","wings":"X","pattern":"S","legs":"M"},"action":"avoid","summary":"good-avoid","bonus":0.9200000000000012},{"rt":2056.800000011921,"stimulus":"\n                    <p><b>Action: <em>avoid</em></b></p>\n                    <p>This is the bee that you just saw.</p>\n                    <img src=\"bees-with-color/bee-B1SM.svg\" width=\"200\">\n                    <p><span class=\"greenText\">Good choice!</span>  This bee would have stung you.<br>Your bonus pay is unchanged, and remains at $0.58.</p>\n            ","response":0,"trial_type":"html-button-response","trial_index":46,"time_elapsed":554409,"internal_node_id":"0.0-4.0-1.17","subject_id":"61756ff5df68820d0e08e246","study_id":"6197b3f67c2b5cd3b6d9596a","session_id":"619be58f15b84150b5d65f20","condition":"full-information","relevant_dimensions":["pattern","legs"],"bee_group":{"antennae":"X","wings":"X","pattern":"S","legs":"M"},"bonus":0.9200000000000012},{"rt":2336.9000000059605,"stimulus":"bees-with-color/bee-A1DF.svg","response":0,"trial_type":"image-button-response","trial_index":47,"time_elapsed":556748,"internal_node_id":"0.0-4.0-0.18","subject_id":"61756ff5df68820d0e08e246","study_id":"6197b3f67c2b5cd3b6d9596a","session_id":"619be58f15b84150b5d65f20","condition":"full-information","relevant_dimensions":["pattern","legs"],"bee_group":{"antennae":"X","wings":"X","pattern":"S","legs":"M"},"action":"harvest","summary":"good-harvest","bonus":0.9200000000000012},{"rt":1565.2999999970198,"stimulus":"\n                    <p><b>Action: <em>harvest</em></b></p>\n                    <p>This is the bee that you just saw.</p>\n                    <img src=\"bees-with-color/bee-A1DF.svg\" width=\"200\">\n                    <p><span class=\"greenText\"><b>Successful harvest!</b></span><br>Your pay has increased by $0.02. Your bonus pay is now $0.60.</p>\n            ","response":0,"trial_type":"html-button-response","trial_index":48,"time_elapsed":558315,"internal_node_id":"0.0-4.0-1.18","subject_id":"61756ff5df68820d0e08e246","study_id":"6197b3f67c2b5cd3b6d9596a","session_id":"619be58f15b84150b5d65f20","condition":"full-information","relevant_dimensions":["pattern","legs"],"bee_group":{"antennae":"X","wings":"X","pattern":"S","legs":"M"},"bonus":0.9200000000000012},{"rt":1833.2999999970198,"stimulus":"bees-with-color/bee-B2DM.svg","response":0,"trial_type":"image-button-response","trial_index":49,"time_elapsed":560151,"internal_node_id":"0.0-4.0-0.19","subject_id":"61756ff5df68820d0e08e246","study_id":"6197b3f67c2b5cd3b6d9596a","session_id":"619be58f15b84150b5d65f20","condition":"full-information","relevant_dimensions":["pattern","legs"],"bee_group":{"antennae":"X","wings":"X","pattern":"S","legs":"M"},"action":"harvest","summary":"good-harvest","bonus":0.9200000000000012},{"rt":1674.0999999940395,"stimulus":"\n                    <p><b>Action: <em>harvest</em></b></p>\n                    <p>This is the bee that you just saw.</p>\n                    <img src=\"bees-with-color/bee-B2DM.svg\" width=\"200\">\n                    <p><span class=\"greenText\"><b>Successful harvest!</b></span><br>Your pay has increased by $0.02. Your bonus pay is now $0.62.</p>\n            ","response":0,"trial_type":"html-button-response","trial_index":50,"time_elapsed":561827,"internal_node_id":"0.0-4.0-1.19","subject_id":"61756ff5df68820d0e08e246","study_id":"6197b3f67c2b5cd3b6d9596a","session_id":"619be58f15b84150b5d65f20","condition":"full-information","relevant_dimensions":["pattern","legs"],"bee_group":{"antennae":"X","wings":"X","pattern":"S","legs":"M"},"bonus":0.9200000000000012},{"rt":1777,"stimulus":"bees-with-color/bee-A2DM.svg","response":0,"trial_type":"image-button-response","trial_index":51,"time_elapsed":563607,"internal_node_id":"0.0-4.0-0.20","subject_id":"61756ff5df68820d0e08e246","study_id":"6197b3f67c2b5cd3b6d9596a","session_id":"619be58f15b84150b5d65f20","condition":"full-information","relevant_dimensions":["pattern","legs"],"bee_group":{"antennae":"X","wings":"X","pattern":"S","legs":"M"},"action":"harvest","summary":"good-harvest","bonus":0.9200000000000012},{"rt":1472.7999999970198,"stimulus":"\n                    <p><b>Action: <em>harvest</em></b></p>\n                    <p>This is the bee that you just saw.</p>\n                    <img src=\"bees-with-color/bee-A2DM.svg\" width=\"200\">\n                    <p><span class=\"greenText\"><b>Successful harvest!</b></span><br>Your pay has increased by $0.02. Your bonus pay is now $0.64.</p>\n            ","response":0,"trial_type":"html-button-response","trial_index":52,"time_elapsed":565081,"internal_node_id":"0.0-4.0-1.20","subject_id":"61756ff5df68820d0e08e246","study_id":"6197b3f67c2b5cd3b6d9596a","session_id":"619be58f15b84150b5d65f20","condition":"full-information","relevant_dimensions":["pattern","legs"],"bee_group":{"antennae":"X","wings":"X","pattern":"S","legs":"M"},"bonus":0.9200000000000012},{"rt":4212.300000011921,"stimulus":"bees-with-color/bee-B2SF.svg","response":1,"trial_type":"image-button-response","trial_index":53,"time_elapsed":569296,"internal_node_id":"0.0-4.0-0.21","subject_id":"61756ff5df68820d0e08e246","study_id":"6197b3f67c2b5cd3b6d9596a","session_id":"619be58f15b84150b5d65f20","condition":"full-information","relevant_dimensions":["pattern","legs"],"bee_group":{"antennae":"X","wings":"X","pattern":"S","legs":"M"},"action":"avoid","summary":"bad-avoid","bonus":0.9200000000000012},{"rt":1586.7999999970198,"stimulus":"\n                    <p><b>Action: <em>avoid</em></b></p>\n                    <p>This is the bee that you just saw.</p>\n                    <img src=\"bees-with-color/bee-B2SF.svg\" width=\"200\">\n                    <p><span class=\"redText\">Bad choice,</span> the bee was friendly.<br>Your bonus pay is unchanged, and remains at $0.64.</p>\n            ","response":0,"trial_type":"html-button-response","trial_index":54,"time_elapsed":570885,"internal_node_id":"0.0-4.0-1.21","subject_id":"61756ff5df68820d0e08e246","study_id":"6197b3f67c2b5cd3b6d9596a","session_id":"619be58f15b84150b5d65f20","condition":"full-information","relevant_dimensions":["pattern","legs"],"bee_group":{"antennae":"X","wings":"X","pattern":"S","legs":"M"},"bonus":0.9200000000000012},{"rt":4003,"stimulus":"bees-with-color/bee-B1DF.svg","response":0,"trial_type":"image-button-response","trial_index":55,"time_elapsed":574891,"internal_node_id":"0.0-4.0-0.22","subject_id":"61756ff5df68820d0e08e246","study_id":"6197b3f67c2b5cd3b6d9596a","session_id":"619be58f15b84150b5d65f20","condition":"full-information","relevant_dimensions":["pattern","legs"],"bee_group":{"antennae":"X","wings":"X","pattern":"S","legs":"M"},"action":"harvest","summary":"good-harvest","bonus":0.9200000000000012},{"rt":1813.5,"stimulus":"\n                    <p><b>Action: <em>harvest</em></b></p>\n                    <p>This is the bee that you just saw.</p>\n                    <img src=\"bees-with-color/bee-B1DF.svg\" width=\"200\">\n                    <p><span class=\"greenText\"><b>Successful harvest!</b></span><br>Your pay has increased by $0.02. Your bonus pay is now $0.66.</p>\n            ","response":0,"trial_type":"html-button-response","trial_index":56,"time_elapsed":576706,"internal_node_id":"0.0-4.0-1.22","subject_id":"61756ff5df68820d0e08e246","study_id":"6197b3f67c2b5cd3b6d9596a","session_id":"619be58f15b84150b5d65f20","condition":"full-information","relevant_dimensions":["pattern","legs"],"bee_group":{"antennae":"X","wings":"X","pattern":"S","legs":"M"},"bonus":0.9200000000000012},{"rt":3616.2999999970198,"stimulus":"bees-with-color/bee-A1SF.svg","response":0,"trial_type":"image-button-response","trial_index":57,"time_elapsed":580325,"internal_node_id":"0.0-4.0-0.23","subject_id":"61756ff5df68820d0e08e246","study_id":"6197b3f67c2b5cd3b6d9596a","session_id":"619be58f15b84150b5d65f20","condition":"full-information","relevant_dimensions":["pattern","legs"],"bee_group":{"antennae":"X","wings":"X","pattern":"S","legs":"M"},"action":"harvest","summary":"good-harvest","bonus":0.9200000000000012},{"rt":2216.7000000029802,"stimulus":"\n                    <p><b>Action: <em>harvest</em></b></p>\n                    <p>This is the bee that you just saw.</p>\n                    <img src=\"bees-with-color/bee-A1SF.svg\" width=\"200\">\n                    <p><span class=\"greenText\"><b>Successful harvest!</b></span><br>Your pay has increased by $0.02. Your bonus pay is now $0.68.</p>\n            ","response":0,"trial_type":"html-button-response","trial_index":58,"time_elapsed":582543,"internal_node_id":"0.0-4.0-1.23","subject_id":"61756ff5df68820d0e08e246","study_id":"6197b3f67c2b5cd3b6d9596a","session_id":"619be58f15b84150b5d65f20","condition":"full-information","relevant_dimensions":["pattern","legs"],"bee_group":{"antennae":"X","wings":"X","pattern":"S","legs":"M"},"bonus":0.9200000000000012},{"rt":2403.0999999940395,"stimulus":"bees-with-color/bee-A1SM.svg","response":1,"trial_type":"image-button-response","trial_index":59,"time_elapsed":584949,"internal_node_id":"0.0-4.0-0.24","subject_id":"61756ff5df68820d0e08e246","study_id":"6197b3f67c2b5cd3b6d9596a","session_id":"619be58f15b84150b5d65f20","condition":"full-information","relevant_dimensions":["pattern","legs"],"bee_group":{"antennae":"X","wings":"X","pattern":"S","legs":"M"},"action":"avoid","summary":"good-avoid","bonus":0.9200000000000012},{"rt":1857.5,"stimulus":"\n                    <p><b>Action: <em>avoid</em></b></p>\n                    <p>This is the bee that you just saw.</p>\n                    <img src=\"bees-with-color/bee-A1SM.svg\" width=\"200\">\n                    <p><span class=\"greenText\">Good choice!</span>  This bee would have stung you.<br>Your bonus pay is unchanged, and remains at $0.68.</p>\n            ","response":0,"trial_type":"html-button-response","trial_index":60,"time_elapsed":586808,"internal_node_id":"0.0-4.0-1.24","subject_id":"61756ff5df68820d0e08e246","study_id":"6197b3f67c2b5cd3b6d9596a","session_id":"619be58f15b84150b5d65f20","condition":"full-information","relevant_dimensions":["pattern","legs"],"bee_group":{"antennae":"X","wings":"X","pattern":"S","legs":"M"},"bonus":0.9200000000000012},{"rt":4625.5999999940395,"stimulus":"bees-with-color/bee-B1DM.svg","response":0,"trial_type":"image-button-response","trial_index":61,"time_elapsed":591436,"internal_node_id":"0.0-4.0-0.25","subject_id":"61756ff5df68820d0e08e246","study_id":"6197b3f67c2b5cd3b6d9596a","session_id":"619be58f15b84150b5d65f20","condition":"full-information","relevant_dimensions":["pattern","legs"],"bee_group":{"antennae":"X","wings":"X","pattern":"S","legs":"M"},"action":"harvest","summary":"good-harvest","bonus":0.9200000000000012},{"rt":1403.5999999940395,"stimulus":"\n                    <p><b>Action: <em>harvest</em></b></p>\n                    <p>This is the bee that you just saw.</p>\n                    <img src=\"bees-with-color/bee-B1DM.svg\" width=\"200\">\n                    <p><span class=\"greenText\"><b>Successful harvest!</b></span><br>Your pay has increased by $0.02. Your bonus pay is now $0.70.</p>\n            ","response":0,"trial_type":"html-button-response","trial_index":62,"time_elapsed":592842,"internal_node_id":"0.0-4.0-1.25","subject_id":"61756ff5df68820d0e08e246","study_id":"6197b3f67c2b5cd3b6d9596a","session_id":"619be58f15b84150b5d65f20","condition":"full-information","relevant_dimensions":["pattern","legs"],"bee_group":{"antennae":"X","wings":"X","pattern":"S","legs":"M"},"bonus":0.9200000000000012},{"rt":2371.7000000029802,"stimulus":"bees-with-color/bee-A1DM.svg","response":0,"trial_type":"image-button-response","trial_index":63,"time_elapsed":595216,"internal_node_id":"0.0-4.0-0.26","subject_id":"61756ff5df68820d0e08e246","study_id":"6197b3f67c2b5cd3b6d9596a","session_id":"619be58f15b84150b5d65f20","condition":"full-information","relevant_dimensions":["pattern","legs"],"bee_group":{"antennae":"X","wings":"X","pattern":"S","legs":"M"},"action":"harvest","summary":"good-harvest","bonus":0.9200000000000012},{"rt":2374.2000000029802,"stimulus":"\n                    <p><b>Action: <em>harvest</em></b></p>\n                    <p>This is the bee that you just saw.</p>\n                    <img src=\"bees-with-color/bee-A1DM.svg\" width=\"200\">\n                    <p><span class=\"greenText\"><b>Successful harvest!</b></span><br>Your pay has increased by $0.02. Your bonus pay is now $0.72.</p>\n            ","response":0,"trial_type":"html-button-response","trial_index":64,"time_elapsed":597593,"internal_node_id":"0.0-4.0-1.26","subject_id":"61756ff5df68820d0e08e246","study_id":"6197b3f67c2b5cd3b6d9596a","session_id":"619be58f15b84150b5d65f20","condition":"full-information","relevant_dimensions":["pattern","legs"],"bee_group":{"antennae":"X","wings":"X","pattern":"S","legs":"M"},"bonus":0.9200000000000012},{"rt":2905.2999999970198,"stimulus":"bees-with-color/bee-B1SF.svg","response":0,"trial_type":"image-button-response","trial_index":65,"time_elapsed":600501,"internal_node_id":"0.0-4.0-0.27","subject_id":"61756ff5df68820d0e08e246","study_id":"6197b3f67c2b5cd3b6d9596a","session_id":"619be58f15b84150b5d65f20","condition":"full-information","relevant_dimensions":["pattern","legs"],"bee_group":{"antennae":"X","wings":"X","pattern":"S","legs":"M"},"action":"harvest","summary":"good-harvest","bonus":0.9200000000000012},{"rt":1864.5,"stimulus":"\n                    <p><b>Action: <em>harvest</em></b></p>\n                    <p>This is the bee that you just saw.</p>\n                    <img src=\"bees-with-color/bee-B1SF.svg\" width=\"200\">\n                    <p><span class=\"greenText\"><b>Successful harvest!</b></span><br>Your pay has increased by $0.02. Your bonus pay is now $0.74.</p>\n            ","response":0,"trial_type":"html-button-response","trial_index":66,"time_elapsed":602368,"internal_node_id":"0.0-4.0-1.27","subject_id":"61756ff5df68820d0e08e246","study_id":"6197b3f67c2b5cd3b6d9596a","session_id":"619be58f15b84150b5d65f20","condition":"full-information","relevant_dimensions":["pattern","legs"],"bee_group":{"antennae":"X","wings":"X","pattern":"S","legs":"M"},"bonus":0.9200000000000012},{"rt":3805.7999999970198,"stimulus":"bees-with-color/bee-A2DF.svg","response":0,"trial_type":"image-button-response","trial_index":67,"time_elapsed":606176,"internal_node_id":"0.0-4.0-0.28","subject_id":"61756ff5df68820d0e08e246","study_id":"6197b3f67c2b5cd3b6d9596a","session_id":"619be58f15b84150b5d65f20","condition":"full-information","relevant_dimensions":["pattern","legs"],"bee_group":{"antennae":"X","wings":"X","pattern":"S","legs":"M"},"action":"harvest","summary":"good-harvest","bonus":0.9200000000000012},{"rt":1571.0999999940395,"stimulus":"\n                    <p><b>Action: <em>harvest</em></b></p>\n                    <p>This is the bee that you just saw.</p>\n                    <img src=\"bees-with-color/bee-A2DF.svg\" width=\"200\">\n                    <p><span class=\"greenText\"><b>Successful harvest!</b></span><br>Your pay has increased by $0.02. Your bonus pay is now $0.76.</p>\n            ","response":0,"trial_type":"html-button-response","trial_index":68,"time_elapsed":607749,"internal_node_id":"0.0-4.0-1.28","subject_id":"61756ff5df68820d0e08e246","study_id":"6197b3f67c2b5cd3b6d9596a","session_id":"619be58f15b84150b5d65f20","condition":"full-information","relevant_dimensions":["pattern","legs"],"bee_group":{"antennae":"X","wings":"X","pattern":"S","legs":"M"},"bonus":0.9200000000000012},{"rt":3316.7999999970198,"stimulus":"bees-with-color/bee-B2DF.svg","response":0,"trial_type":"image-button-response","trial_index":69,"time_elapsed":611068,"internal_node_id":"0.0-4.0-0.29","subject_id":"61756ff5df68820d0e08e246","study_id":"6197b3f67c2b5cd3b6d9596a","session_id":"619be58f15b84150b5d65f20","condition":"full-information","relevant_dimensions":["pattern","legs"],"bee_group":{"antennae":"X","wings":"X","pattern":"S","legs":"M"},"action":"harvest","summary":"good-harvest","bonus":0.9200000000000012},{"rt":1500.4000000059605,"stimulus":"\n                    <p><b>Action: <em>harvest</em></b></p>\n                    <p>This is the bee that you just saw.</p>\n                    <img src=\"bees-with-color/bee-B2DF.svg\" width=\"200\">\n                    <p><span class=\"greenText\"><b>Successful harvest!</b></span><br>Your pay has increased by $0.02. Your bonus pay is now $0.78.</p>\n            ","response":0,"trial_type":"html-button-response","trial_index":70,"time_elapsed":612571,"internal_node_id":"0.0-4.0-1.29","subject_id":"61756ff5df68820d0e08e246","study_id":"6197b3f67c2b5cd3b6d9596a","session_id":"619be58f15b84150b5d65f20","condition":"full-information","relevant_dimensions":["pattern","legs"],"bee_group":{"antennae":"X","wings":"X","pattern":"S","legs":"M"},"bonus":0.9200000000000012},{"rt":5905,"stimulus":"bees-with-color/bee-A2SF.svg","response":0,"trial_type":"image-button-response","trial_index":71,"time_elapsed":618478,"internal_node_id":"0.0-4.0-0.30","subject_id":"61756ff5df68820d0e08e246","study_id":"6197b3f67c2b5cd3b6d9596a","session_id":"619be58f15b84150b5d65f20","condition":"full-information","relevant_dimensions":["pattern","legs"],"bee_group":{"antennae":"X","wings":"X","pattern":"S","legs":"M"},"action":"harvest","summary":"good-harvest","bonus":0.9200000000000012},{"rt":1846.2000000029802,"stimulus":"\n                    <p><b>Action: <em>harvest</em></b></p>\n                    <p>This is the bee that you just saw.</p>\n                    <img src=\"bees-with-color/bee-A2SF.svg\" width=\"200\">\n                    <p><span class=\"greenText\"><b>Successful harvest!</b></span><br>Your pay has increased by $0.02. Your bonus pay is now $0.80.</p>\n            ","response":0,"trial_type":"html-button-response","trial_index":72,"time_elapsed":620327,"internal_node_id":"0.0-4.0-1.30","subject_id":"61756ff5df68820d0e08e246","study_id":"6197b3f67c2b5cd3b6d9596a","session_id":"619be58f15b84150b5d65f20","condition":"full-information","relevant_dimensions":["pattern","legs"],"bee_group":{"antennae":"X","wings":"X","pattern":"S","legs":"M"},"bonus":0.9200000000000012},{"rt":2959.9000000059605,"stimulus":"bees-with-color/bee-B2SM.svg","response":1,"trial_type":"image-button-response","trial_index":73,"time_elapsed":623291,"internal_node_id":"0.0-4.0-0.31","subject_id":"61756ff5df68820d0e08e246","study_id":"6197b3f67c2b5cd3b6d9596a","session_id":"619be58f15b84150b5d65f20","condition":"full-information","relevant_dimensions":["pattern","legs"],"bee_group":{"antennae":"X","wings":"X","pattern":"S","legs":"M"},"action":"avoid","summary":"good-avoid","bonus":0.9200000000000012},{"rt":1812.5,"stimulus":"\n                    <p><b>Action: <em>avoid</em></b></p>\n                    <p>This is the bee that you just saw.</p>\n                    <img src=\"bees-with-color/bee-B2SM.svg\" width=\"200\">\n                    <p><span class=\"greenText\">Good choice!</span>  This bee would have stung you.<br>Your bonus pay is unchanged, and remains at $0.80.</p>\n            ","response":0,"trial_type":"html-button-response","trial_index":74,"time_elapsed":625105,"internal_node_id":"0.0-4.0-1.31","subject_id":"61756ff5df68820d0e08e246","study_id":"6197b3f67c2b5cd3b6d9596a","session_id":"619be58f15b84150b5d65f20","condition":"full-information","relevant_dimensions":["pattern","legs"],"bee_group":{"antennae":"X","wings":"X","pattern":"S","legs":"M"},"bonus":0.9200000000000012},{"rt":2741.8999999910593,"stimulus":"bees-with-color/bee-B2DM.svg","response":1,"trial_type":"image-button-response","trial_index":75,"time_elapsed":627849,"internal_node_id":"0.0-4.0-0.32","subject_id":"61756ff5df68820d0e08e246","study_id":"6197b3f67c2b5cd3b6d9596a","session_id":"619be58f15b84150b5d65f20","condition":"full-information","relevant_dimensions":["pattern","legs"],"bee_group":{"antennae":"X","wings":"X","pattern":"S","legs":"M"},"action":"avoid","summary":"bad-avoid","bonus":0.9200000000000012},{"rt":1726,"stimulus":"\n                    <p><b>Action: <em>avoid</em></b></p>\n                    <p>This is the bee that you just saw.</p>\n                    <img src=\"bees-with-color/bee-B2DM.svg\" width=\"200\">\n                    <p><span class=\"redText\">Bad choice,</span> the bee was friendly.<br>Your bonus pay is unchanged, and remains at $0.80.</p>\n            ","response":0,"trial_type":"html-button-response","trial_index":76,"time_elapsed":629577,"internal_node_id":"0.0-4.0-1.32","subject_id":"61756ff5df68820d0e08e246","study_id":"6197b3f67c2b5cd3b6d9596a","session_id":"619be58f15b84150b5d65f20","condition":"full-information","relevant_dimensions":["pattern","legs"],"bee_group":{"antennae":"X","wings":"X","pattern":"S","legs":"M"},"bonus":0.9200000000000012},{"rt":2128.5,"stimulus":"bees-with-color/bee-B2SF.svg","response":0,"trial_type":"image-button-response","trial_index":77,"time_elapsed":631707,"internal_node_id":"0.0-4.0-0.33","subject_id":"61756ff5df68820d0e08e246","study_id":"6197b3f67c2b5cd3b6d9596a","session_id":"619be58f15b84150b5d65f20","condition":"full-information","relevant_dimensions":["pattern","legs"],"bee_group":{"antennae":"X","wings":"X","pattern":"S","legs":"M"},"action":"harvest","summary":"good-harvest","bonus":0.9200000000000012},{"rt":1443.1000000089407,"stimulus":"\n                    <p><b>Action: <em>harvest</em></b></p>\n                    <p>This is the bee that you just saw.</p>\n                    <img src=\"bees-with-color/bee-B2SF.svg\" width=\"200\">\n                    <p><span class=\"greenText\"><b>Successful harvest!</b></span><br>Your pay has increased by $0.02. Your bonus pay is now $0.82.</p>\n            ","response":0,"trial_type":"html-button-response","trial_index":78,"time_elapsed":633152,"internal_node_id":"0.0-4.0-1.33","subject_id":"61756ff5df68820d0e08e246","study_id":"6197b3f67c2b5cd3b6d9596a","session_id":"619be58f15b84150b5d65f20","condition":"full-information","relevant_dimensions":["pattern","legs"],"bee_group":{"antennae":"X","wings":"X","pattern":"S","legs":"M"},"bonus":0.9200000000000012},{"rt":3298.2000000029802,"stimulus":"bees-with-color/bee-A1DM.svg","response":0,"trial_type":"image-button-response","trial_index":79,"time_elapsed":636452,"internal_node_id":"0.0-4.0-0.34","subject_id":"61756ff5df68820d0e08e246","study_id":"6197b3f67c2b5cd3b6d9596a","session_id":"619be58f15b84150b5d65f20","condition":"full-information","relevant_dimensions":["pattern","legs"],"bee_group":{"antennae":"X","wings":"X","pattern":"S","legs":"M"},"action":"harvest","summary":"good-harvest","bonus":0.9200000000000012},{"rt":1761.2000000029802,"stimulus":"\n                    <p><b>Action: <em>harvest</em></b></p>\n                    <p>This is the bee that you just saw.</p>\n                    <img src=\"bees-with-color/bee-A1DM.svg\" width=\"200\">\n                    <p><span class=\"greenText\"><b>Successful harvest!</b></span><br>Your pay has increased by $0.02. Your bonus pay is now $0.84.</p>\n            ","response":0,"trial_type":"html-button-response","trial_index":80,"time_elapsed":638215,"internal_node_id":"0.0-4.0-1.34","subject_id":"61756ff5df68820d0e08e246","study_id":"6197b3f67c2b5cd3b6d9596a","session_id":"619be58f15b84150b5d65f20","condition":"full-information","relevant_dimensions":["pattern","legs"],"bee_group":{"antennae":"X","wings":"X","pattern":"S","legs":"M"},"bonus":0.9200000000000012},{"rt":3350.2999999970198,"stimulus":"bees-with-color/bee-A2DM.svg","response":0,"trial_type":"image-button-response","trial_index":81,"time_elapsed":641567,"internal_node_id":"0.0-4.0-0.35","subject_id":"61756ff5df68820d0e08e246","study_id":"6197b3f67c2b5cd3b6d9596a","session_id":"619be58f15b84150b5d65f20","condition":"full-information","relevant_dimensions":["pattern","legs"],"bee_group":{"antennae":"X","wings":"X","pattern":"S","legs":"M"},"action":"harvest","summary":"good-harvest","bonus":0.9200000000000012},{"rt":1722.6000000089407,"stimulus":"\n                    <p><b>Action: <em>harvest</em></b></p>\n                    <p>This is the bee that you just saw.</p>\n                    <img src=\"bees-with-color/bee-A2DM.svg\" width=\"200\">\n                    <p><span class=\"greenText\"><b>Successful harvest!</b></span><br>Your pay has increased by $0.02. Your bonus pay is now $0.86.</p>\n            ","response":0,"trial_type":"html-button-response","trial_index":82,"time_elapsed":643292,"internal_node_id":"0.0-4.0-1.35","subject_id":"61756ff5df68820d0e08e246","study_id":"6197b3f67c2b5cd3b6d9596a","session_id":"619be58f15b84150b5d65f20","condition":"full-information","relevant_dimensions":["pattern","legs"],"bee_group":{"antennae":"X","wings":"X","pattern":"S","legs":"M"},"bonus":0.9200000000000012},{"rt":3400.7000000029802,"stimulus":"bees-with-color/bee-B2SM.svg","response":1,"trial_type":"image-button-response","trial_index":83,"time_elapsed":646695,"internal_node_id":"0.0-4.0-0.36","subject_id":"61756ff5df68820d0e08e246","study_id":"6197b3f67c2b5cd3b6d9596a","session_id":"619be58f15b84150b5d65f20","condition":"full-information","relevant_dimensions":["pattern","legs"],"bee_group":{"antennae":"X","wings":"X","pattern":"S","legs":"M"},"action":"avoid","summary":"good-avoid","bonus":0.9200000000000012},{"rt":1647,"stimulus":"\n                    <p><b>Action: <em>avoid</em></b></p>\n                    <p>This is the bee that you just saw.</p>\n                    <img src=\"bees-with-color/bee-B2SM.svg\" width=\"200\">\n                    <p><span class=\"greenText\">Good choice!</span>  This bee would have stung you.<br>Your bonus pay is unchanged, and remains at $0.86.</p>\n            ","response":0,"trial_type":"html-button-response","trial_index":84,"time_elapsed":648343,"internal_node_id":"0.0-4.0-1.36","subject_id":"61756ff5df68820d0e08e246","study_id":"6197b3f67c2b5cd3b6d9596a","session_id":"619be58f15b84150b5d65f20","condition":"full-information","relevant_dimensions":["pattern","legs"],"bee_group":{"antennae":"X","wings":"X","pattern":"S","legs":"M"},"bonus":0.9200000000000012},{"rt":3265.300000011921,"stimulus":"bees-with-color/bee-B1SM.svg","response":0,"trial_type":"image-button-response","trial_index":85,"time_elapsed":651610,"internal_node_id":"0.0-4.0-0.37","subject_id":"61756ff5df68820d0e08e246","study_id":"6197b3f67c2b5cd3b6d9596a","session_id":"619be58f15b84150b5d65f20","condition":"full-information","relevant_dimensions":["pattern","legs"],"bee_group":{"antennae":"X","wings":"X","pattern":"S","legs":"M"},"action":"harvest","summary":"bad-harvest","bonus":0.9200000000000012},{"rt":2069.5,"stimulus":"\n                    <p><b>Action: <em>harvest</em></b></p>\n                    <p>This is the bee that you just saw.</p>\n                    <img src=\"bees-with-color/bee-B1SM.svg\" width=\"200\">\n                    <p><span class=\"redText\">Bad choice, the bee was angry.</span><br><b>You have been stung!</b><br>Your pay has been decreased by $0.10. Your bonus pay is now $0.76.</p>\n            ","response":0,"trial_type":"html-button-response","trial_index":86,"time_elapsed":653682,"internal_node_id":"0.0-4.0-1.37","subject_id":"61756ff5df68820d0e08e246","study_id":"6197b3f67c2b5cd3b6d9596a","session_id":"619be58f15b84150b5d65f20","condition":"full-information","relevant_dimensions":["pattern","legs"],"bee_group":{"antennae":"X","wings":"X","pattern":"S","legs":"M"},"bonus":0.9200000000000012},{"rt":1562.0999999940395,"stimulus":"bees-with-color/bee-B2DF.svg","response":0,"trial_type":"image-button-response","trial_index":87,"time_elapsed":655246,"internal_node_id":"0.0-4.0-0.38","subject_id":"61756ff5df68820d0e08e246","study_id":"6197b3f67c2b5cd3b6d9596a","session_id":"619be58f15b84150b5d65f20","condition":"full-information","relevant_dimensions":["pattern","legs"],"bee_group":{"antennae":"X","wings":"X","pattern":"S","legs":"M"},"action":"harvest","summary":"good-harvest","bonus":0.9200000000000012},{"rt":1894.5,"stimulus":"\n                    <p><b>Action: <em>harvest</em></b></p>\n                    <p>This is the bee that you just saw.</p>\n                    <img src=\"bees-with-color/bee-B2DF.svg\" width=\"200\">\n                    <p><span class=\"greenText\"><b>Successful harvest!</b></span><br>Your pay has increased by $0.02. Your bonus pay is now $0.78.</p>\n            ","response":0,"trial_type":"html-button-response","trial_index":88,"time_elapsed":657142,"internal_node_id":"0.0-4.0-1.38","subject_id":"61756ff5df68820d0e08e246","study_id":"6197b3f67c2b5cd3b6d9596a","session_id":"619be58f15b84150b5d65f20","condition":"full-information","relevant_dimensions":["pattern","legs"],"bee_group":{"antennae":"X","wings":"X","pattern":"S","legs":"M"},"bonus":0.9200000000000012},{"rt":10217.5,"stimulus":"bees-with-color/bee-B1DM.svg","response":0,"trial_type":"image-button-response","trial_index":89,"time_elapsed":667362,"internal_node_id":"0.0-4.0-0.39","subject_id":"61756ff5df68820d0e08e246","study_id":"6197b3f67c2b5cd3b6d9596a","session_id":"619be58f15b84150b5d65f20","condition":"full-information","relevant_dimensions":["pattern","legs"],"bee_group":{"antennae":"X","wings":"X","pattern":"S","legs":"M"},"action":"harvest","summary":"good-harvest","bonus":0.9200000000000012},{"rt":1477.0999999940395,"stimulus":"\n                    <p><b>Action: <em>harvest</em></b></p>\n                    <p>This is the bee that you just saw.</p>\n                    <img src=\"bees-with-color/bee-B1DM.svg\" width=\"200\">\n                    <p><span class=\"greenText\"><b>Successful harvest!</b></span><br>Your pay has increased by $0.02. Your bonus pay is now $0.80.</p>\n            ","response":0,"trial_type":"html-button-response","trial_index":90,"time_elapsed":668841,"internal_node_id":"0.0-4.0-1.39","subject_id":"61756ff5df68820d0e08e246","study_id":"6197b3f67c2b5cd3b6d9596a","session_id":"619be58f15b84150b5d65f20","condition":"full-information","relevant_dimensions":["pattern","legs"],"bee_group":{"antennae":"X","wings":"X","pattern":"S","legs":"M"},"bonus":0.9200000000000012},{"rt":3015.3999999910593,"stimulus":"bees-with-color/bee-A1SM.svg","response":0,"trial_type":"image-button-response","trial_index":91,"time_elapsed":671858,"internal_node_id":"0.0-4.0-0.40","subject_id":"61756ff5df68820d0e08e246","study_id":"6197b3f67c2b5cd3b6d9596a","session_id":"619be58f15b84150b5d65f20","condition":"full-information","relevant_dimensions":["pattern","legs"],"bee_group":{"antennae":"X","wings":"X","pattern":"S","legs":"M"},"action":"harvest","summary":"bad-harvest","bonus":0.9200000000000012},{"rt":1674.5,"stimulus":"\n                    <p><b>Action: <em>harvest</em></b></p>\n                    <p>This is the bee that you just saw.</p>\n                    <img src=\"bees-with-color/bee-A1SM.svg\" width=\"200\">\n                    <p><span class=\"redText\">Bad choice, the bee was angry.</span><br><b>You have been stung!</b><br>Your pay has been decreased by $0.10. Your bonus pay is now $0.70.</p>\n            ","response":0,"trial_type":"html-button-response","trial_index":92,"time_elapsed":673535,"internal_node_id":"0.0-4.0-1.40","subject_id":"61756ff5df68820d0e08e246","study_id":"6197b3f67c2b5cd3b6d9596a","session_id":"619be58f15b84150b5d65f20","condition":"full-information","relevant_dimensions":["pattern","legs"],"bee_group":{"antennae":"X","wings":"X","pattern":"S","legs":"M"},"bonus":0.9200000000000012},{"rt":2734.800000011921,"stimulus":"bees-with-color/bee-B1SF.svg","response":0,"trial_type":"image-button-response","trial_index":93,"time_elapsed":676272,"internal_node_id":"0.0-4.0-0.41","subject_id":"61756ff5df68820d0e08e246","study_id":"6197b3f67c2b5cd3b6d9596a","session_id":"619be58f15b84150b5d65f20","condition":"full-information","relevant_dimensions":["pattern","legs"],"bee_group":{"antennae":"X","wings":"X","pattern":"S","legs":"M"},"action":"harvest","summary":"good-harvest","bonus":0.9200000000000012},{"rt":1735.9000000059605,"stimulus":"\n                    <p><b>Action: <em>harvest</em></b></p>\n                    <p>This is the bee that you just saw.</p>\n                    <img src=\"bees-with-color/bee-B1SF.svg\" width=\"200\">\n                    <p><span class=\"greenText\"><b>Successful harvest!</b></span><br>Your pay has increased by $0.02. Your bonus pay is now $0.72.</p>\n            ","response":0,"trial_type":"html-button-response","trial_index":94,"time_elapsed":678009,"internal_node_id":"0.0-4.0-1.41","subject_id":"61756ff5df68820d0e08e246","study_id":"6197b3f67c2b5cd3b6d9596a","session_id":"619be58f15b84150b5d65f20","condition":"full-information","relevant_dimensions":["pattern","legs"],"bee_group":{"antennae":"X","wings":"X","pattern":"S","legs":"M"},"bonus":0.9200000000000012},{"rt":4157,"stimulus":"bees-with-color/bee-B1DF.svg","response":0,"trial_type":"image-button-response","trial_index":95,"time_elapsed":682168,"internal_node_id":"0.0-4.0-0.42","subject_id":"61756ff5df68820d0e08e246","study_id":"6197b3f67c2b5cd3b6d9596a","session_id":"619be58f15b84150b5d65f20","condition":"full-information","relevant_dimensions":["pattern","legs"],"bee_group":{"antennae":"X","wings":"X","pattern":"S","legs":"M"},"action":"harvest","summary":"good-harvest","bonus":0.9200000000000012},{"rt":1573.7999999970198,"stimulus":"\n                    <p><b>Action: <em>harvest</em></b></p>\n                    <p>This is the bee that you just saw.</p>\n                    <img src=\"bees-with-color/bee-B1DF.svg\" width=\"200\">\n                    <p><span class=\"greenText\"><b>Successful harvest!</b></span><br>Your pay has increased by $0.02. Your bonus pay is now $0.74.</p>\n            ","response":0,"trial_type":"html-button-response","trial_index":96,"time_elapsed":683745,"internal_node_id":"0.0-4.0-1.42","subject_id":"61756ff5df68820d0e08e246","study_id":"6197b3f67c2b5cd3b6d9596a","session_id":"619be58f15b84150b5d65f20","condition":"full-information","relevant_dimensions":["pattern","legs"],"bee_group":{"antennae":"X","wings":"X","pattern":"S","legs":"M"},"bonus":0.9200000000000012},{"rt":2406,"stimulus":"bees-with-color/bee-A1SF.svg","response":0,"trial_type":"image-button-response","trial_index":97,"time_elapsed":686153,"internal_node_id":"0.0-4.0-0.43","subject_id":"61756ff5df68820d0e08e246","study_id":"6197b3f67c2b5cd3b6d9596a","session_id":"619be58f15b84150b5d65f20","condition":"full-information","relevant_dimensions":["pattern","legs"],"bee_group":{"antennae":"X","wings":"X","pattern":"S","legs":"M"},"action":"harvest","summary":"good-harvest","bonus":0.9200000000000012},{"rt":1460.3999999910593,"stimulus":"\n                    <p><b>Action: <em>harvest</em></b></p>\n                    <p>This is the bee that you just saw.</p>\n                    <img src=\"bees-with-color/bee-A1SF.svg\" width=\"200\">\n                    <p><span class=\"greenText\"><b>Successful harvest!</b></span><br>Your pay has increased by $0.02. Your bonus pay is now $0.76.</p>\n            ","response":0,"trial_type":"html-button-response","trial_index":98,"time_elapsed":687615,"internal_node_id":"0.0-4.0-1.43","subject_id":"61756ff5df68820d0e08e246","study_id":"6197b3f67c2b5cd3b6d9596a","session_id":"619be58f15b84150b5d65f20","condition":"full-information","relevant_dimensions":["pattern","legs"],"bee_group":{"antennae":"X","wings":"X","pattern":"S","legs":"M"},"bonus":0.9200000000000012},{"rt":4555.9000000059605,"stimulus":"bees-with-color/bee-A2SF.svg","response":0,"trial_type":"image-button-response","trial_index":99,"time_elapsed":692173,"internal_node_id":"0.0-4.0-0.44","subject_id":"61756ff5df68820d0e08e246","study_id":"6197b3f67c2b5cd3b6d9596a","session_id":"619be58f15b84150b5d65f20","condition":"full-information","relevant_dimensions":["pattern","legs"],"bee_group":{"antennae":"X","wings":"X","pattern":"S","legs":"M"},"action":"harvest","summary":"good-harvest","bonus":0.9200000000000012},{"rt":1415.9000000059605,"stimulus":"\n                    <p><b>Action: <em>harvest</em></b></p>\n                    <p>This is the bee that you just saw.</p>\n                    <img src=\"bees-with-color/bee-A2SF.svg\" width=\"200\">\n                    <p><span class=\"greenText\"><b>Successful harvest!</b></span><br>Your pay has increased by $0.02. Your bonus pay is now $0.78.</p>\n            ","response":0,"trial_type":"html-button-response","trial_index":100,"time_elapsed":693591,"internal_node_id":"0.0-4.0-1.44","subject_id":"61756ff5df68820d0e08e246","study_id":"6197b3f67c2b5cd3b6d9596a","session_id":"619be58f15b84150b5d65f20","condition":"full-information","relevant_dimensions":["pattern","legs"],"bee_group":{"antennae":"X","wings":"X","pattern":"S","legs":"M"},"bonus":0.9200000000000012},{"rt":2854,"stimulus":"bees-with-color/bee-A1DF.svg","response":0,"trial_type":"image-button-response","trial_index":101,"time_elapsed":696447,"internal_node_id":"0.0-4.0-0.45","subject_id":"61756ff5df68820d0e08e246","study_id":"6197b3f67c2b5cd3b6d9596a","session_id":"619be58f15b84150b5d65f20","condition":"full-information","relevant_dimensions":["pattern","legs"],"bee_group":{"antennae":"X","wings":"X","pattern":"S","legs":"M"},"action":"harvest","summary":"good-harvest","bonus":0.9200000000000012},{"rt":1663.4000000059605,"stimulus":"\n                    <p><b>Action: <em>harvest</em></b></p>\n                    <p>This is the bee that you just saw.</p>\n                    <img src=\"bees-with-color/bee-A1DF.svg\" width=\"200\">\n                    <p><span class=\"greenText\"><b>Successful harvest!</b></span><br>Your pay has increased by $0.02. Your bonus pay is now $0.80.</p>\n            ","response":0,"trial_type":"html-button-response","trial_index":102,"time_elapsed":698113,"internal_node_id":"0.0-4.0-1.45","subject_id":"61756ff5df68820d0e08e246","study_id":"6197b3f67c2b5cd3b6d9596a","session_id":"619be58f15b84150b5d65f20","condition":"full-information","relevant_dimensions":["pattern","legs"],"bee_group":{"antennae":"X","wings":"X","pattern":"S","legs":"M"},"bonus":0.9200000000000012},{"rt":2350.5,"stimulus":"bees-with-color/bee-A2SM.svg","response":1,"trial_type":"image-button-response","trial_index":103,"time_elapsed":700465,"internal_node_id":"0.0-4.0-0.46","subject_id":"61756ff5df68820d0e08e246","study_id":"6197b3f67c2b5cd3b6d9596a","session_id":"619be58f15b84150b5d65f20","condition":"full-information","relevant_dimensions":["pattern","legs"],"bee_group":{"antennae":"X","wings":"X","pattern":"S","legs":"M"},"action":"avoid","summary":"good-avoid","bonus":0.9200000000000012},{"rt":2171.8999999910593,"stimulus":"\n                    <p><b>Action: <em>avoid</em></b></p>\n                    <p>This is the bee that you just saw.</p>\n                    <img src=\"bees-with-color/bee-A2SM.svg\" width=\"200\">\n                    <p><span class=\"greenText\">Good choice!</span>  This bee would have stung you.<br>Your bonus pay is unchanged, and remains at $0.80.</p>\n            ","response":0,"trial_type":"html-button-response","trial_index":104,"time_elapsed":702640,"internal_node_id":"0.0-4.0-1.46","subject_id":"61756ff5df68820d0e08e246","study_id":"6197b3f67c2b5cd3b6d9596a","session_id":"619be58f15b84150b5d65f20","condition":"full-information","relevant_dimensions":["pattern","legs"],"bee_group":{"antennae":"X","wings":"X","pattern":"S","legs":"M"},"bonus":0.9200000000000012},{"rt":4991.70000000298,"stimulus":"bees-with-color/bee-A2DF.svg","response":1,"trial_type":"image-button-response","trial_index":105,"time_elapsed":707634,"internal_node_id":"0.0-4.0-0.47","subject_id":"61756ff5df68820d0e08e246","study_id":"6197b3f67c2b5cd3b6d9596a","session_id":"619be58f15b84150b5d65f20","condition":"full-information","relevant_dimensions":["pattern","legs"],"bee_group":{"antennae":"X","wings":"X","pattern":"S","legs":"M"},"action":"avoid","summary":"bad-avoid","bonus":0.9200000000000012},{"rt":2758.9000000059605,"stimulus":"\n                    <p><b>Action: <em>avoid</em></b></p>\n                    <p>This is the bee that you just saw.</p>\n                    <img src=\"bees-with-color/bee-A2DF.svg\" width=\"200\">\n                    <p><span class=\"redText\">Bad choice,</span> the bee was friendly.<br>Your bonus pay is unchanged, and remains at $0.80.</p>\n            ","response":0,"trial_type":"html-button-response","trial_index":106,"time_elapsed":710395,"internal_node_id":"0.0-4.0-1.47","subject_id":"61756ff5df68820d0e08e246","study_id":"6197b3f67c2b5cd3b6d9596a","session_id":"619be58f15b84150b5d65f20","condition":"full-information","relevant_dimensions":["pattern","legs"],"bee_group":{"antennae":"X","wings":"X","pattern":"S","legs":"M"},"bonus":0.9200000000000012},{"rt":2043.5,"stimulus":"bees-with-color/bee-A1DF.svg","response":0,"trial_type":"image-button-response","trial_index":107,"time_elapsed":712441,"internal_node_id":"0.0-4.0-0.48","subject_id":"61756ff5df68820d0e08e246","study_id":"6197b3f67c2b5cd3b6d9596a","session_id":"619be58f15b84150b5d65f20","condition":"full-information","relevant_dimensions":["pattern","legs"],"bee_group":{"antennae":"X","wings":"X","pattern":"S","legs":"M"},"action":"harvest","summary":"good-harvest","bonus":0.9200000000000012},{"rt":1539.2999999970198,"stimulus":"\n                    <p><b>Action: <em>harvest</em></b></p>\n                    <p>This is the bee that you just saw.</p>\n                    <img src=\"bees-with-color/bee-A1DF.svg\" width=\"200\">\n                    <p><span class=\"greenText\"><b>Successful harvest!</b></span><br>Your pay has increased by $0.02. Your bonus pay is now $0.82.</p>\n            ","response":0,"trial_type":"html-button-response","trial_index":108,"time_elapsed":713982,"internal_node_id":"0.0-4.0-1.48","subject_id":"61756ff5df68820d0e08e246","study_id":"6197b3f67c2b5cd3b6d9596a","session_id":"619be58f15b84150b5d65f20","condition":"full-information","relevant_dimensions":["pattern","legs"],"bee_group":{"antennae":"X","wings":"X","pattern":"S","legs":"M"},"bonus":0.9200000000000012},{"rt":2627.2000000029802,"stimulus":"bees-with-color/bee-B2DM.svg","response":0,"trial_type":"image-button-response","trial_index":109,"time_elapsed":716611,"internal_node_id":"0.0-4.0-0.49","subject_id":"61756ff5df68820d0e08e246","study_id":"6197b3f67c2b5cd3b6d9596a","session_id":"619be58f15b84150b5d65f20","condition":"full-information","relevant_dimensions":["pattern","legs"],"bee_group":{"antennae":"X","wings":"X","pattern":"S","legs":"M"},"action":"harvest","summary":"good-harvest","bonus":0.9200000000000012},{"rt":1506.2000000029802,"stimulus":"\n                    <p><b>Action: <em>harvest</em></b></p>\n                    <p>This is the bee that you just saw.</p>\n                    <img src=\"bees-with-color/bee-B2DM.svg\" width=\"200\">\n                    <p><span class=\"greenText\"><b>Successful harvest!</b></span><br>Your pay has increased by $0.02. Your bonus pay is now $0.84.</p>\n            ","response":0,"trial_type":"html-button-response","trial_index":110,"time_elapsed":718121,"internal_node_id":"0.0-4.0-1.49","subject_id":"61756ff5df68820d0e08e246","study_id":"6197b3f67c2b5cd3b6d9596a","session_id":"619be58f15b84150b5d65f20","condition":"full-information","relevant_dimensions":["pattern","legs"],"bee_group":{"antennae":"X","wings":"X","pattern":"S","legs":"M"},"bonus":0.9200000000000012},{"rt":5773,"stimulus":"bees-with-color/bee-A2SM.svg","response":0,"trial_type":"image-button-response","trial_index":111,"time_elapsed":723896,"internal_node_id":"0.0-4.0-0.50","subject_id":"61756ff5df68820d0e08e246","study_id":"6197b3f67c2b5cd3b6d9596a","session_id":"619be58f15b84150b5d65f20","condition":"full-information","relevant_dimensions":["pattern","legs"],"bee_group":{"antennae":"X","wings":"X","pattern":"S","legs":"M"},"action":"harvest","summary":"bad-harvest","bonus":0.9200000000000012},{"rt":1656.6000000089407,"stimulus":"\n                    <p><b>Action: <em>harvest</em></b></p>\n                    <p>This is the bee that you just saw.</p>\n                    <img src=\"bees-with-color/bee-A2SM.svg\" width=\"200\">\n                    <p><span class=\"redText\">Bad choice, the bee was angry.</span><br><b>You have been stung!</b><br>Your pay has been decreased by $0.10. Your bonus pay is now $0.74.</p>\n            ","response":0,"trial_type":"html-button-response","trial_index":112,"time_elapsed":725555,"internal_node_id":"0.0-4.0-1.50","subject_id":"61756ff5df68820d0e08e246","study_id":"6197b3f67c2b5cd3b6d9596a","session_id":"619be58f15b84150b5d65f20","condition":"full-information","relevant_dimensions":["pattern","legs"],"bee_group":{"antennae":"X","wings":"X","pattern":"S","legs":"M"},"bonus":0.9200000000000012},{"rt":3464.8999999910593,"stimulus":"bees-with-color/bee-B1SF.svg","response":0,"trial_type":"image-button-response","trial_index":113,"time_elapsed":729023,"internal_node_id":"0.0-4.0-0.51","subject_id":"61756ff5df68820d0e08e246","study_id":"6197b3f67c2b5cd3b6d9596a","session_id":"619be58f15b84150b5d65f20","condition":"full-information","relevant_dimensions":["pattern","legs"],"bee_group":{"antennae":"X","wings":"X","pattern":"S","legs":"M"},"action":"harvest","summary":"good-harvest","bonus":0.9200000000000012},{"rt":2153.0999999940395,"stimulus":"\n                    <p><b>Action: <em>harvest</em></b></p>\n                    <p>This is the bee that you just saw.</p>\n                    <img src=\"bees-with-color/bee-B1SF.svg\" width=\"200\">\n                    <p><span class=\"greenText\"><b>Successful harvest!</b></span><br>Your pay has increased by $0.02. Your bonus pay is now $0.76.</p>\n            ","response":0,"trial_type":"html-button-response","trial_index":114,"time_elapsed":731178,"internal_node_id":"0.0-4.0-1.51","subject_id":"61756ff5df68820d0e08e246","study_id":"6197b3f67c2b5cd3b6d9596a","session_id":"619be58f15b84150b5d65f20","condition":"full-information","relevant_dimensions":["pattern","legs"],"bee_group":{"antennae":"X","wings":"X","pattern":"S","legs":"M"},"bonus":0.9200000000000012},{"rt":2254.0999999940395,"stimulus":"bees-with-color/bee-B1DF.svg","response":0,"trial_type":"image-button-response","trial_index":115,"time_elapsed":733434,"internal_node_id":"0.0-4.0-0.52","subject_id":"61756ff5df68820d0e08e246","study_id":"6197b3f67c2b5cd3b6d9596a","session_id":"619be58f15b84150b5d65f20","condition":"full-information","relevant_dimensions":["pattern","legs"],"bee_group":{"antennae":"X","wings":"X","pattern":"S","legs":"M"},"action":"harvest","summary":"good-harvest","bonus":0.9200000000000012},{"rt":1648.4000000059605,"stimulus":"\n                    <p><b>Action: <em>harvest</em></b></p>\n                    <p>This is the bee that you just saw.</p>\n                    <img src=\"bees-with-color/bee-B1DF.svg\" width=\"200\">\n                    <p><span class=\"greenText\"><b>Successful harvest!</b></span><br>Your pay has increased by $0.02. Your bonus pay is now $0.78.</p>\n            ","response":0,"trial_type":"html-button-response","trial_index":116,"time_elapsed":735085,"internal_node_id":"0.0-4.0-1.52","subject_id":"61756ff5df68820d0e08e246","study_id":"6197b3f67c2b5cd3b6d9596a","session_id":"619be58f15b84150b5d65f20","condition":"full-information","relevant_dimensions":["pattern","legs"],"bee_group":{"antennae":"X","wings":"X","pattern":"S","legs":"M"},"bonus":0.9200000000000012},{"rt":6357.100000008941,"stimulus":"bees-with-color/bee-B2DF.svg","response":0,"trial_type":"image-button-response","trial_index":117,"time_elapsed":741444,"internal_node_id":"0.0-4.0-0.53","subject_id":"61756ff5df68820d0e08e246","study_id":"6197b3f67c2b5cd3b6d9596a","session_id":"619be58f15b84150b5d65f20","condition":"full-information","relevant_dimensions":["pattern","legs"],"bee_group":{"antennae":"X","wings":"X","pattern":"S","legs":"M"},"action":"harvest","summary":"good-harvest","bonus":0.9200000000000012},{"rt":2009.1000000089407,"stimulus":"\n                    <p><b>Action: <em>harvest</em></b></p>\n                    <p>This is the bee that you just saw.</p>\n                    <img src=\"bees-with-color/bee-B2DF.svg\" width=\"200\">\n                    <p><span class=\"greenText\"><b>Successful harvest!</b></span><br>Your pay has increased by $0.02. Your bonus pay is now $0.80.</p>\n            ","response":0,"trial_type":"html-button-response","trial_index":118,"time_elapsed":743455,"internal_node_id":"0.0-4.0-1.53","subject_id":"61756ff5df68820d0e08e246","study_id":"6197b3f67c2b5cd3b6d9596a","session_id":"619be58f15b84150b5d65f20","condition":"full-information","relevant_dimensions":["pattern","legs"],"bee_group":{"antennae":"X","wings":"X","pattern":"S","legs":"M"},"bonus":0.9200000000000012},{"rt":3379,"stimulus":"bees-with-color/bee-A1SM.svg","response":1,"trial_type":"image-button-response","trial_index":119,"time_elapsed":746836,"internal_node_id":"0.0-4.0-0.54","subject_id":"61756ff5df68820d0e08e246","study_id":"6197b3f67c2b5cd3b6d9596a","session_id":"619be58f15b84150b5d65f20","condition":"full-information","relevant_dimensions":["pattern","legs"],"bee_group":{"antennae":"X","wings":"X","pattern":"S","legs":"M"},"action":"avoid","summary":"good-avoid","bonus":0.9200000000000012},{"rt":2269.2999999970198,"stimulus":"\n                    <p><b>Action: <em>avoid</em></b></p>\n                    <p>This is the bee that you just saw.</p>\n                    <img src=\"bees-with-color/bee-A1SM.svg\" width=\"200\">\n                    <p><span class=\"greenText\">Good choice!</span>  This bee would have stung you.<br>Your bonus pay is unchanged, and remains at $0.80.</p>\n            ","response":0,"trial_type":"html-button-response","trial_index":120,"time_elapsed":749107,"internal_node_id":"0.0-4.0-1.54","subject_id":"61756ff5df68820d0e08e246","study_id":"6197b3f67c2b5cd3b6d9596a","session_id":"619be58f15b84150b5d65f20","condition":"full-information","relevant_dimensions":["pattern","legs"],"bee_group":{"antennae":"X","wings":"X","pattern":"S","legs":"M"},"bonus":0.9200000000000012},{"rt":1945,"stimulus":"bees-with-color/bee-A1DM.svg","response":0,"trial_type":"image-button-response","trial_index":121,"time_elapsed":751054,"internal_node_id":"0.0-4.0-0.55","subject_id":"61756ff5df68820d0e08e246","study_id":"6197b3f67c2b5cd3b6d9596a","session_id":"619be58f15b84150b5d65f20","condition":"full-information","relevant_dimensions":["pattern","legs"],"bee_group":{"antennae":"X","wings":"X","pattern":"S","legs":"M"},"action":"harvest","summary":"good-harvest","bonus":0.9200000000000012},{"rt":1722.5,"stimulus":"\n                    <p><b>Action: <em>harvest</em></b></p>\n                    <p>This is the bee that you just saw.</p>\n                    <img src=\"bees-with-color/bee-A1DM.svg\" width=\"200\">\n                    <p><span class=\"greenText\"><b>Successful harvest!</b></span><br>Your pay has increased by $0.02. Your bonus pay is now $0.82.</p>\n            ","response":0,"trial_type":"html-button-response","trial_index":122,"time_elapsed":752778,"internal_node_id":"0.0-4.0-1.55","subject_id":"61756ff5df68820d0e08e246","study_id":"6197b3f67c2b5cd3b6d9596a","session_id":"619be58f15b84150b5d65f20","condition":"full-information","relevant_dimensions":["pattern","legs"],"bee_group":{"antennae":"X","wings":"X","pattern":"S","legs":"M"},"bonus":0.9200000000000012},{"rt":3290.800000011921,"stimulus":"bees-with-color/bee-B2SM.svg","response":0,"trial_type":"image-button-response","trial_index":123,"time_elapsed":756070,"internal_node_id":"0.0-4.0-0.56","subject_id":"61756ff5df68820d0e08e246","study_id":"6197b3f67c2b5cd3b6d9596a","session_id":"619be58f15b84150b5d65f20","condition":"full-information","relevant_dimensions":["pattern","legs"],"bee_group":{"antennae":"X","wings":"X","pattern":"S","legs":"M"},"action":"harvest","summary":"bad-harvest","bonus":0.9200000000000012},{"rt":1439.9000000059605,"stimulus":"\n                    <p><b>Action: <em>harvest</em></b></p>\n                    <p>This is the bee that you just saw.</p>\n                    <img src=\"bees-with-color/bee-B2SM.svg\" width=\"200\">\n                    <p><span class=\"redText\">Bad choice, the bee was angry.</span><br><b>You have been stung!</b><br>Your pay has been decreased by $0.10. Your bonus pay is now $0.72.</p>\n            ","response":0,"trial_type":"html-button-response","trial_index":124,"time_elapsed":757512,"internal_node_id":"0.0-4.0-1.56","subject_id":"61756ff5df68820d0e08e246","study_id":"6197b3f67c2b5cd3b6d9596a","session_id":"619be58f15b84150b5d65f20","condition":"full-information","relevant_dimensions":["pattern","legs"],"bee_group":{"antennae":"X","wings":"X","pattern":"S","legs":"M"},"bonus":0.9200000000000012},{"rt":2573.9000000059605,"stimulus":"bees-with-color/bee-A2DM.svg","response":0,"trial_type":"image-button-response","trial_index":125,"time_elapsed":760088,"internal_node_id":"0.0-4.0-0.57","subject_id":"61756ff5df68820d0e08e246","study_id":"6197b3f67c2b5cd3b6d9596a","session_id":"619be58f15b84150b5d65f20","condition":"full-information","relevant_dimensions":["pattern","legs"],"bee_group":{"antennae":"X","wings":"X","pattern":"S","legs":"M"},"action":"harvest","summary":"good-harvest","bonus":0.9200000000000012},{"rt":1599,"stimulus":"\n                    <p><b>Action: <em>harvest</em></b></p>\n                    <p>This is the bee that you just saw.</p>\n                    <img src=\"bees-with-color/bee-A2DM.svg\" width=\"200\">\n                    <p><span class=\"greenText\"><b>Successful harvest!</b></span><br>Your pay has increased by $0.02. Your bonus pay is now $0.74.</p>\n            ","response":0,"trial_type":"html-button-response","trial_index":126,"time_elapsed":761689,"internal_node_id":"0.0-4.0-1.57","subject_id":"61756ff5df68820d0e08e246","study_id":"6197b3f67c2b5cd3b6d9596a","session_id":"619be58f15b84150b5d65f20","condition":"full-information","relevant_dimensions":["pattern","legs"],"bee_group":{"antennae":"X","wings":"X","pattern":"S","legs":"M"},"bonus":0.9200000000000012},{"rt":1712.8999999910593,"stimulus":"bees-with-color/bee-A2DF.svg","response":0,"trial_type":"image-button-response","trial_index":127,"time_elapsed":763403,"internal_node_id":"0.0-4.0-0.58","subject_id":"61756ff5df68820d0e08e246","study_id":"6197b3f67c2b5cd3b6d9596a","session_id":"619be58f15b84150b5d65f20","condition":"full-information","relevant_dimensions":["pattern","legs"],"bee_group":{"antennae":"X","wings":"X","pattern":"S","legs":"M"},"action":"harvest","summary":"good-harvest","bonus":0.9200000000000012},{"rt":1394.1000000089407,"stimulus":"\n                    <p><b>Action: <em>harvest</em></b></p>\n                    <p>This is the bee that you just saw.</p>\n                    <img src=\"bees-with-color/bee-A2DF.svg\" width=\"200\">\n                    <p><span class=\"greenText\"><b>Successful harvest!</b></span><br>Your pay has increased by $0.02. Your bonus pay is now $0.76.</p>\n            ","response":0,"trial_type":"html-button-response","trial_index":128,"time_elapsed":764799,"internal_node_id":"0.0-4.0-1.58","subject_id":"61756ff5df68820d0e08e246","study_id":"6197b3f67c2b5cd3b6d9596a","session_id":"619be58f15b84150b5d65f20","condition":"full-information","relevant_dimensions":["pattern","legs"],"bee_group":{"antennae":"X","wings":"X","pattern":"S","legs":"M"},"bonus":0.9200000000000012},{"rt":3049.7999999970198,"stimulus":"bees-with-color/bee-A1SF.svg","response":0,"trial_type":"image-button-response","trial_index":129,"time_elapsed":767851,"internal_node_id":"0.0-4.0-0.59","subject_id":"61756ff5df68820d0e08e246","study_id":"6197b3f67c2b5cd3b6d9596a","session_id":"619be58f15b84150b5d65f20","condition":"full-information","relevant_dimensions":["pattern","legs"],"bee_group":{"antennae":"X","wings":"X","pattern":"S","legs":"M"},"action":"harvest","summary":"good-harvest","bonus":0.9200000000000012},{"rt":1870.7000000029802,"stimulus":"\n                    <p><b>Action: <em>harvest</em></b></p>\n                    <p>This is the bee that you just saw.</p>\n                    <img src=\"bees-with-color/bee-A1SF.svg\" width=\"200\">\n                    <p><span class=\"greenText\"><b>Successful harvest!</b></span><br>Your pay has increased by $0.02. Your bonus pay is now $0.78.</p>\n            ","response":0,"trial_type":"html-button-response","trial_index":130,"time_elapsed":769723,"internal_node_id":"0.0-4.0-1.59","subject_id":"61756ff5df68820d0e08e246","study_id":"6197b3f67c2b5cd3b6d9596a","session_id":"619be58f15b84150b5d65f20","condition":"full-information","relevant_dimensions":["pattern","legs"],"bee_group":{"antennae":"X","wings":"X","pattern":"S","legs":"M"},"bonus":0.9200000000000012},{"rt":3221.9000000059605,"stimulus":"bees-with-color/bee-B1DM.svg","response":1,"trial_type":"image-button-response","trial_index":131,"time_elapsed":772947,"internal_node_id":"0.0-4.0-0.60","subject_id":"61756ff5df68820d0e08e246","study_id":"6197b3f67c2b5cd3b6d9596a","session_id":"619be58f15b84150b5d65f20","condition":"full-information","relevant_dimensions":["pattern","legs"],"bee_group":{"antennae":"X","wings":"X","pattern":"S","legs":"M"},"action":"avoid","summary":"bad-avoid","bonus":0.9200000000000012},{"rt":1969.2000000029802,"stimulus":"\n                    <p><b>Action: <em>avoid</em></b></p>\n                    <p>This is the bee that you just saw.</p>\n                    <img src=\"bees-with-color/bee-B1DM.svg\" width=\"200\">\n                    <p><span class=\"redText\">Bad choice,</span> the bee was friendly.<br>Your bonus pay is unchanged, and remains at $0.78.</p>\n            ","response":0,"trial_type":"html-button-response","trial_index":132,"time_elapsed":774918,"internal_node_id":"0.0-4.0-1.60","subject_id":"61756ff5df68820d0e08e246","study_id":"6197b3f67c2b5cd3b6d9596a","session_id":"619be58f15b84150b5d65f20","condition":"full-information","relevant_dimensions":["pattern","legs"],"bee_group":{"antennae":"X","wings":"X","pattern":"S","legs":"M"},"bonus":0.9200000000000012},{"rt":2005,"stimulus":"bees-with-color/bee-B2SF.svg","response":0,"trial_type":"image-button-response","trial_index":133,"time_elapsed":776925,"internal_node_id":"0.0-4.0-0.61","subject_id":"61756ff5df68820d0e08e246","study_id":"6197b3f67c2b5cd3b6d9596a","session_id":"619be58f15b84150b5d65f20","condition":"full-information","relevant_dimensions":["pattern","legs"],"bee_group":{"antennae":"X","wings":"X","pattern":"S","legs":"M"},"action":"harvest","summary":"good-harvest","bonus":0.9200000000000012},{"rt":1519.9000000059605,"stimulus":"\n                    <p><b>Action: <em>harvest</em></b></p>\n                    <p>This is the bee that you just saw.</p>\n                    <img src=\"bees-with-color/bee-B2SF.svg\" width=\"200\">\n                    <p><span class=\"greenText\"><b>Successful harvest!</b></span><br>Your pay has increased by $0.02. Your bonus pay is now $0.80.</p>\n            ","response":0,"trial_type":"html-button-response","trial_index":134,"time_elapsed":778447,"internal_node_id":"0.0-4.0-1.61","subject_id":"61756ff5df68820d0e08e246","study_id":"6197b3f67c2b5cd3b6d9596a","session_id":"619be58f15b84150b5d65f20","condition":"full-information","relevant_dimensions":["pattern","legs"],"bee_group":{"antennae":"X","wings":"X","pattern":"S","legs":"M"},"bonus":0.9200000000000012},{"rt":1982.9000000059605,"stimulus":"bees-with-color/bee-B1SM.svg","response":0,"trial_type":"image-button-response","trial_index":135,"time_elapsed":780432,"internal_node_id":"0.0-4.0-0.62","subject_id":"61756ff5df68820d0e08e246","study_id":"6197b3f67c2b5cd3b6d9596a","session_id":"619be58f15b84150b5d65f20","condition":"full-information","relevant_dimensions":["pattern","legs"],"bee_group":{"antennae":"X","wings":"X","pattern":"S","legs":"M"},"action":"harvest","summary":"bad-harvest","bonus":0.9200000000000012},{"rt":3602.0999999940395,"stimulus":"\n                    <p><b>Action: <em>harvest</em></b></p>\n                    <p>This is the bee that you just saw.</p>\n                    <img src=\"bees-with-color/bee-B1SM.svg\" width=\"200\">\n                    <p><span class=\"redText\">Bad choice, the bee was angry.</span><br><b>You have been stung!</b><br>Your pay has been decreased by $0.10. Your bonus pay is now $0.70.</p>\n            ","response":0,"trial_type":"html-button-response","trial_index":136,"time_elapsed":784036,"internal_node_id":"0.0-4.0-1.62","subject_id":"61756ff5df68820d0e08e246","study_id":"6197b3f67c2b5cd3b6d9596a","session_id":"619be58f15b84150b5d65f20","condition":"full-information","relevant_dimensions":["pattern","legs"],"bee_group":{"antennae":"X","wings":"X","pattern":"S","legs":"M"},"bonus":0.9200000000000012},{"rt":3535.7000000029802,"stimulus":"bees-with-color/bee-A2SF.svg","response":0,"trial_type":"image-button-response","trial_index":137,"time_elapsed":787574,"internal_node_id":"0.0-4.0-0.63","subject_id":"61756ff5df68820d0e08e246","study_id":"6197b3f67c2b5cd3b6d9596a","session_id":"619be58f15b84150b5d65f20","condition":"full-information","relevant_dimensions":["pattern","legs"],"bee_group":{"antennae":"X","wings":"X","pattern":"S","legs":"M"},"action":"harvest","summary":"good-harvest","bonus":0.9200000000000012},{"rt":2055.2000000029802,"stimulus":"\n                    <p><b>Action: <em>harvest</em></b></p>\n                    <p>This is the bee that you just saw.</p>\n                    <img src=\"bees-with-color/bee-A2SF.svg\" width=\"200\">\n                    <p><span class=\"greenText\"><b>Successful harvest!</b></span><br>Your pay has increased by $0.02. Your bonus pay is now $0.72.</p>\n            ","response":0,"trial_type":"html-button-response","trial_index":138,"time_elapsed":789631,"internal_node_id":"0.0-4.0-1.63","subject_id":"61756ff5df68820d0e08e246","study_id":"6197b3f67c2b5cd3b6d9596a","session_id":"619be58f15b84150b5d65f20","condition":"full-information","relevant_dimensions":["pattern","legs"],"bee_group":{"antennae":"X","wings":"X","pattern":"S","legs":"M"},"bonus":0.9200000000000012},{"rt":6613,"stimulus":"You have completed the first part of this experiment.<br><br>You will now begin a shorter second part, in which you will receive no feedback.<br>The same rules regarding bonus pay apply.<br><br>Press any key to begin.","response":"k","trial_type":"html-keyboard-response","trial_index":139,"time_elapsed":796247,"internal_node_id":"0.0-5.0","subject_id":"61756ff5df68820d0e08e246","study_id":"6197b3f67c2b5cd3b6d9596a","session_id":"619be58f15b84150b5d65f20","condition":"full-information","relevant_dimensions":["pattern","legs"],"bee_group":{"antennae":"X","wings":"X","pattern":"S","legs":"M"},"bonus":0.9200000000000012},{"rt":6567.300000011921,"stimulus":"bees-with-color/bee-B1SM.svg","response":1,"trial_type":"image-button-response","trial_index":140,"time_elapsed":802833,"internal_node_id":"0.0-6.0-0.0","subject_id":"61756ff5df68820d0e08e246","study_id":"6197b3f67c2b5cd3b6d9596a","session_id":"619be58f15b84150b5d65f20","condition":"full-information","relevant_dimensions":["pattern","legs"],"bee_group":{"antennae":"X","wings":"X","pattern":"S","legs":"M"},"bonus":0.9200000000000012},{"rt":2372,"stimulus":"bees-with-color/bee-B2SF.svg","response":0,"trial_type":"image-button-response","trial_index":141,"time_elapsed":805209,"internal_node_id":"0.0-6.0-0.1","subject_id":"61756ff5df68820d0e08e246","study_id":"6197b3f67c2b5cd3b6d9596a","session_id":"619be58f15b84150b5d65f20","condition":"full-information","relevant_dimensions":["pattern","legs"],"bee_group":{"antennae":"X","wings":"X","pattern":"S","legs":"M"},"bonus":0.9200000000000012},{"rt":1439.5999999940395,"stimulus":"bees-with-color/bee-A1SF.svg","response":0,"trial_type":"image-button-response","trial_index":142,"time_elapsed":806652,"internal_node_id":"0.0-6.0-0.2","subject_id":"61756ff5df68820d0e08e246","study_id":"6197b3f67c2b5cd3b6d9596a","session_id":"619be58f15b84150b5d65f20","condition":"full-information","relevant_dimensions":["pattern","legs"],"bee_group":{"antennae":"X","wings":"X","pattern":"S","legs":"M"},"bonus":0.9200000000000012},{"rt":1389.699999988079,"stimulus":"bees-with-color/bee-B1DM.svg","response":0,"trial_type":"image-button-response","trial_index":143,"time_elapsed":808044,"internal_node_id":"0.0-6.0-0.3","subject_id":"61756ff5df68820d0e08e246","study_id":"6197b3f67c2b5cd3b6d9596a","session_id":"619be58f15b84150b5d65f20","condition":"full-information","relevant_dimensions":["pattern","legs"],"bee_group":{"antennae":"X","wings":"X","pattern":"S","legs":"M"},"bonus":0.9200000000000012},{"rt":4524.199999988079,"stimulus":"bees-with-color/bee-A2DM.svg","response":1,"trial_type":"image-button-response","trial_index":144,"time_elapsed":812571,"internal_node_id":"0.0-6.0-0.4","subject_id":"61756ff5df68820d0e08e246","study_id":"6197b3f67c2b5cd3b6d9596a","session_id":"619be58f15b84150b5d65f20","condition":"full-information","relevant_dimensions":["pattern","legs"],"bee_group":{"antennae":"X","wings":"X","pattern":"S","legs":"M"},"bonus":0.9200000000000012},{"rt":1427.2000000029802,"stimulus":"bees-with-color/bee-A1SM.svg","response":1,"trial_type":"image-button-response","trial_index":145,"time_elapsed":814001,"internal_node_id":"0.0-6.0-0.5","subject_id":"61756ff5df68820d0e08e246","study_id":"6197b3f67c2b5cd3b6d9596a","session_id":"619be58f15b84150b5d65f20","condition":"full-information","relevant_dimensions":["pattern","legs"],"bee_group":{"antennae":"X","wings":"X","pattern":"S","legs":"M"},"bonus":0.9200000000000012},{"rt":2473.9000000059605,"stimulus":"bees-with-color/bee-B2DM.svg","response":0,"trial_type":"image-button-response","trial_index":146,"time_elapsed":816478,"internal_node_id":"0.0-6.0-0.6","subject_id":"61756ff5df68820d0e08e246","study_id":"6197b3f67c2b5cd3b6d9596a","session_id":"619be58f15b84150b5d65f20","condition":"full-information","relevant_dimensions":["pattern","legs"],"bee_group":{"antennae":"X","wings":"X","pattern":"S","legs":"M"},"bonus":0.9200000000000012},{"rt":1734.0999999940395,"stimulus":"bees-with-color/bee-A1DM.svg","response":1,"trial_type":"image-button-response","trial_index":147,"time_elapsed":818215,"internal_node_id":"0.0-6.0-0.7","subject_id":"61756ff5df68820d0e08e246","study_id":"6197b3f67c2b5cd3b6d9596a","session_id":"619be58f15b84150b5d65f20","condition":"full-information","relevant_dimensions":["pattern","legs"],"bee_group":{"antennae":"X","wings":"X","pattern":"S","legs":"M"},"bonus":0.9200000000000012},{"rt":3053.5,"stimulus":"bees-with-color/bee-A2SM.svg","response":1,"trial_type":"image-button-response","trial_index":148,"time_elapsed":821271,"internal_node_id":"0.0-6.0-0.8","subject_id":"61756ff5df68820d0e08e246","study_id":"6197b3f67c2b5cd3b6d9596a","session_id":"619be58f15b84150b5d65f20","condition":"full-information","relevant_dimensions":["pattern","legs"],"bee_group":{"antennae":"X","wings":"X","pattern":"S","legs":"M"},"bonus":0.9200000000000012},{"rt":1575.5,"stimulus":"bees-with-color/bee-B2SM.svg","response":0,"trial_type":"image-button-response","trial_index":149,"time_elapsed":822849,"internal_node_id":"0.0-6.0-0.9","subject_id":"61756ff5df68820d0e08e246","study_id":"6197b3f67c2b5cd3b6d9596a","session_id":"619be58f15b84150b5d65f20","condition":"full-information","relevant_dimensions":["pattern","legs"],"bee_group":{"antennae":"X","wings":"X","pattern":"S","legs":"M"},"bonus":0.9200000000000012},{"rt":1119,"stimulus":"bees-with-color/bee-A1DF.svg","response":0,"trial_type":"image-button-response","trial_index":150,"time_elapsed":823970,"internal_node_id":"0.0-6.0-0.10","subject_id":"61756ff5df68820d0e08e246","study_id":"6197b3f67c2b5cd3b6d9596a","session_id":"619be58f15b84150b5d65f20","condition":"full-information","relevant_dimensions":["pattern","legs"],"bee_group":{"antennae":"X","wings":"X","pattern":"S","legs":"M"},"bonus":0.9200000000000012},{"rt":2218.6000000089407,"stimulus":"bees-with-color/bee-A2SF.svg","response":0,"trial_type":"image-button-response","trial_index":151,"time_elapsed":826191,"internal_node_id":"0.0-6.0-0.11","subject_id":"61756ff5df68820d0e08e246","study_id":"6197b3f67c2b5cd3b6d9596a","session_id":"619be58f15b84150b5d65f20","condition":"full-information","relevant_dimensions":["pattern","legs"],"bee_group":{"antennae":"X","wings":"X","pattern":"S","legs":"M"},"bonus":0.9200000000000012},{"rt":1329,"stimulus":"bees-with-color/bee-A2DF.svg","response":0,"trial_type":"image-button-response","trial_index":152,"time_elapsed":827523,"internal_node_id":"0.0-6.0-0.12","subject_id":"61756ff5df68820d0e08e246","study_id":"6197b3f67c2b5cd3b6d9596a","session_id":"619be58f15b84150b5d65f20","condition":"full-information","relevant_dimensions":["pattern","legs"],"bee_group":{"antennae":"X","wings":"X","pattern":"S","legs":"M"},"bonus":0.9200000000000012},{"rt":1057,"stimulus":"bees-with-color/bee-B1SF.svg","response":0,"trial_type":"image-button-response","trial_index":153,"time_elapsed":828583,"internal_node_id":"0.0-6.0-0.13","subject_id":"61756ff5df68820d0e08e246","study_id":"6197b3f67c2b5cd3b6d9596a","session_id":"619be58f15b84150b5d65f20","condition":"full-information","relevant_dimensions":["pattern","legs"],"bee_group":{"antennae":"X","wings":"X","pattern":"S","legs":"M"},"bonus":0.9200000000000012},{"rt":1326.2999999970198,"stimulus":"bees-with-color/bee-B1DF.svg","response":0,"trial_type":"image-button-response","trial_index":154,"time_elapsed":829911,"internal_node_id":"0.0-6.0-0.14","subject_id":"61756ff5df68820d0e08e246","study_id":"6197b3f67c2b5cd3b6d9596a","session_id":"619be58f15b84150b5d65f20","condition":"full-information","relevant_dimensions":["pattern","legs"],"bee_group":{"antennae":"X","wings":"X","pattern":"S","legs":"M"},"bonus":0.9200000000000012},{"rt":428.90000000596046,"stimulus":"bees-with-color/bee-B2DF.svg","response":0,"trial_type":"image-button-response","trial_index":155,"time_elapsed":830342,"internal_node_id":"0.0-6.0-0.15","subject_id":"61756ff5df68820d0e08e246","study_id":"6197b3f67c2b5cd3b6d9596a","session_id":"619be58f15b84150b5d65f20","condition":"full-information","relevant_dimensions":["