[{"success":true,"trial_type":"fullscreen","trial_index":0,"time_elapsed":3984,"internal_node_id":"0.0-0.0","subject_id":"613210155c55065e24e31c4b","study_id":"6197b3f67c2b5cd3b6d9596a","session_id":"619be3215eed6421cff40f5e","condition":"contingent","relevant_dimensions":["antennae","legs"],"bee_group":{"antennae":"A","wings":"X","pattern":"X","legs":"F"},"bonus":1.280000000000001},{"success":true,"timeout":false,"failed_images":[],"failed_audio":[],"failed_video":[],"trial_type":"preload","trial_index":1,"time_elapsed":5644,"internal_node_id":"0.0-1.0","subject_id":"613210155c55065e24e31c4b","study_id":"6197b3f67c2b5cd3b6d9596a","session_id":"619be3215eed6421cff40f5e","condition":"contingent","relevant_dimensions":["antennae","legs"],"bee_group":{"antennae":"A","wings":"X","pattern":"X","legs":"F"},"bonus":1.280000000000001},{"rt":2112.399999999441,"stimulus":"Welcome! Press any key to begin.","response":"enter","trial_type":"html-keyboard-response","trial_index":2,"time_elapsed":7757,"internal_node_id":"0.0-2.0","subject_id":"613210155c55065e24e31c4b","study_id":"6197b3f67c2b5cd3b6d9596a","session_id":"619be3215eed6421cff40f5e","condition":"contingent","relevant_dimensions":["antennae","legs"],"bee_group":{"antennae":"A","wings":"X","pattern":"X","legs":"F"},"bonus":1.280000000000001},{"view_history":[{"page_index":0,"viewing_time":4386.700000000186},{"page_index":1,"viewing_time":12492.099999999627},{"page_index":2,"viewing_time":16957.800000000745},{"page_index":3,"viewing_time":25855.599999999627},{"page_index":4,"viewing_time":5296.299999999814},{"page_index":5,"viewing_time":6137},{"page_index":6,"viewing_time":11102.700000000186},{"page_index":7,"viewing_time":4768.200000000186},{"page_index":8,"viewing_time":3817.7999999998137},{"page_index":9,"viewing_time":5804.5},{"page_index":10,"viewing_time":2250.9000000003725},{"page_index":11,"viewing_time":11076.599999999627},{"page_index":12,"viewing_time":5771.4000000003725},{"page_index":13,"viewing_time":1407.5999999996275},{"page_index":14,"viewing_time":2904.0999999996275}],"rt":120029.60000000056,"trial_type":"instructions","trial_index":3,"time_elapsed":127788,"internal_node_id":"0.0-3.0-0.0","subject_id":"613210155c55065e24e31c4b","study_id":"6197b3f67c2b5cd3b6d9596a","session_id":"619be3215eed6421cff40f5e","condition":"contingent","relevant_dimensions":["antennae","legs"],"bee_group":{"antennae":"A","wings":"X","pattern":"X","legs":"F"},"bonus":1.280000000000001},{"rt":11046.700000000186,"response":{"Q0":["Two or six legs","Stripes or spots on body","Single or double wings","Antennae or no antennae"]},"question_order":[0],"trial_type":"survey-multi-select","trial_index":4,"time_elapsed":138838,"internal_node_id":"0.0-3.0-1.0","subject_id":"613210155c55065e24e31c4b","study_id":"6197b3f67c2b5cd3b6d9596a","session_id":"619be3215eed6421cff40f5e","condition":"contingent","relevant_dimensions":["antennae","legs"],"bee_group":{"antennae":"A","wings":"X","pattern":"X","legs":"F"},"correct":true,"bonus":1.280000000000001},{"rt":14884.899999999441,"response":{"Q1":"No.","Q2":"Based on the four features of the bee.","Q3":"You do not learn if it was friendly or dangerous, and do not alter your bonus."},"question_order":[0,1,2],"trial_type":"survey-multi-choice","trial_index":5,"time_elapsed":153728,"internal_node_id":"0.0-3.0-2.0","subject_id":"613210155c55065e24e31c4b","study_id":"6197b3f67c2b5cd3b6d9596a","session_id":"619be3215eed6421cff40f5e","condition":"contingent","relevant_dimensions":["antennae","legs"],"bee_group":{"antennae":"A","wings":"X","pattern":"X","legs":"F"},"correct":true,"bonus":1.280000000000001},{"rt":3088.7000000001863,"stimulus":"<p>Congrats, you got everything right<br>When you're ready, click the button below to continue to the experiment.</p>","response":0,"trial_type":"html-button-response","trial_index":6,"time_elapsed":156822,"internal_node_id":"0.0-3.0-3.0","subject_id":"613210155c55065e24e31c4b","study_id":"6197b3f67c2b5cd3b6d9596a","session_id":"619be3215eed6421cff40f5e","condition":"contingent","relevant_dimensions":["antennae","legs"],"bee_group":{"antennae":"A","wings":"X","pattern":"X","legs":"F"},"bonus":1.280000000000001},{"rt":7293.5999999996275,"stimulus":"bees-with-color/bee-B1SM.svg","response":0,"trial_type":"image-button-response","trial_index":7,"time_elapsed":164118,"internal_node_id":"0.0-4.0-0.0","subject_id":"613210155c55065e24e31c4b","study_id":"6197b3f67c2b5cd3b6d9596a","session_id":"619be3215eed6421cff40f5e","condition":"contingent","relevant_dimensions":["antennae","legs"],"bee_group":{"antennae":"A","wings":"X","pattern":"X","legs":"F"},"action":"harvest","summary":"good-harvest","bonus":1.280000000000001},{"rt":11495.199999999255,"stimulus":"\n                    <p><b>Action: <em>harvest</em></b></p>\n                    <p>This is the bee that you just saw.</p>\n                    <img src=\"bees-with-color/bee-B1SM.svg\" width=\"200\">\n                    <p><span class=\"greenText\"><b>Successful harvest!</b></span><br>Your pay has increased by $0.02. Your bonus pay is now $0.56.</p>\n            ","response":0,"trial_type":"html-button-response","trial_index":8,"time_elapsed":175616,"internal_node_id":"0.0-4.0-1.0","subject_id":"613210155c55065e24e31c4b","study_id":"6197b3f67c2b5cd3b6d9596a","session_id":"619be3215eed6421cff40f5e","condition":"contingent","relevant_dimensions":["antennae","legs"],"bee_group":{"antennae":"A","wings":"X","pattern":"X","legs":"F"},"bonus":1.280000000000001},{"rt":4335.299999999814,"stimulus":"bees-with-color/bee-B1DM.svg","response":0,"trial_type":"image-button-response","trial_index":9,"time_elapsed":179954,"internal_node_id":"0.0-4.0-0.1","subject_id":"613210155c55065e24e31c4b","study_id":"6197b3f67c2b5cd3b6d9596a","session_id":"619be3215eed6421cff40f5e","condition":"contingent","relevant_dimensions":["antennae","legs"],"bee_group":{"antennae":"A","wings":"X","pattern":"X","legs":"F"},"action":"harvest","summary":"good-harvest","bonus":1.280000000000001},{"rt":6590.0999999996275,"stimulus":"\n                    <p><b>Action: <em>harvest</em></b></p>\n                    <p>This is the bee that you just saw.</p>\n                    <img src=\"bees-with-color/bee-B1DM.svg\" width=\"200\">\n                    <p><span class=\"greenText\"><b>Successful harvest!</b></span><br>Your pay has increased by $0.02. Your bonus pay is now $0.58.</p>\n            ","response":0,"trial_type":"html-button-response","trial_index":10,"time_elapsed":186546,"internal_node_id":"0.0-4.0-1.1","subject_id":"613210155c55065e24e31c4b","study_id":"6197b3f67c2b5cd3b6d9596a","session_id":"619be3215eed6421cff40f5e","condition":"contingent","relevant_dimensions":["antennae","legs"],"bee_group":{"antennae":"A","wings":"X","pattern":"X","legs":"F"},"bonus":1.280000000000001},{"rt":5906.299999999814,"stimulus":"bees-with-color/bee-A2SM.svg","response":0,"trial_type":"image-button-response","trial_index":11,"time_elapsed":192454,"internal_node_id":"0.0-4.0-0.2","subject_id":"613210155c55065e24e31c4b","study_id":"6197b3f67c2b5cd3b6d9596a","session_id":"619be3215eed6421cff40f5e","condition":"contingent","relevant_dimensions":["antennae","legs"],"bee_group":{"antennae":"A","wings":"X","pattern":"X","legs":"F"},"action":"harvest","summary":"good-harvest","bonus":1.280000000000001},{"rt":4159,"stimulus":"\n                    <p><b>Action: <em>harvest</em></b></p>\n                    <p>This is the bee that you just saw.</p>\n                    <img src=\"bees-with-color/bee-A2SM.svg\" width=\"200\">\n                    <p><span class=\"greenText\"><b>Successful harvest!</b></span><br>Your pay has increased by $0.02. Your bonus pay is now $0.60.</p>\n            ","response":0,"trial_type":"html-button-response","trial_index":12,"time_elapsed":196614,"internal_node_id":"0.0-4.0-1.2","subject_id":"613210155c55065e24e31c4b","study_id":"6197b3f67c2b5cd3b6d9596a","session_id":"619be3215eed6421cff40f5e","condition":"contingent","relevant_dimensions":["antennae","legs"],"bee_group":{"antennae":"A","wings":"X","pattern":"X","legs":"F"},"bonus":1.280000000000001},{"rt":4813.299999999814,"stimulus":"bees-with-color/bee-A1SM.svg","response":1,"trial_type":"image-button-response","trial_index":13,"time_elapsed":201429,"internal_node_id":"0.0-4.0-0.3","subject_id":"613210155c55065e24e31c4b","study_id":"6197b3f67c2b5cd3b6d9596a","session_id":"619be3215eed6421cff40f5e","condition":"contingent","relevant_dimensions":["antennae","legs"],"bee_group":{"antennae":"A","wings":"X","pattern":"X","legs":"F"},"action":"avoid","summary":"bad-avoid","bonus":1.280000000000001},{"rt":2796.0999999996275,"stimulus":"\n                    <p><b>Action: <em>avoid</em></b></p>\n                    <p>This is the bee that you just saw.</p>\n                    <img src=\"bees-with-color/bee-A1SM.svg\" width=\"200\">\n                    <p><br>Your bonus pay is unchanged, and remains at $0.60.</p>\n            ","response":0,"trial_type":"html-button-response","trial_index":14,"time_elapsed":204227,"internal_node_id":"0.0-4.0-1.3","subject_id":"613210155c55065e24e31c4b","study_id":"6197b3f67c2b5cd3b6d9596a","session_id":"619be3215eed6421cff40f5e","condition":"contingent","relevant_dimensions":["antennae","legs"],"bee_group":{"antennae":"A","wings":"X","pattern":"X","legs":"F"},"bonus":1.280000000000001},{"rt":3189.9000000003725,"stimulus":"bees-with-color/bee-A1SF.svg","response":0,"trial_type":"image-button-response","trial_index":15,"time_elapsed":207418,"internal_node_id":"0.0-4.0-0.4","subject_id":"613210155c55065e24e31c4b","study_id":"6197b3f67c2b5cd3b6d9596a","session_id":"619be3215eed6421cff40f5e","condition":"contingent","relevant_dimensions":["antennae","legs"],"bee_group":{"antennae":"A","wings":"X","pattern":"X","legs":"F"},"action":"harvest","summary":"bad-harvest","bonus":1.280000000000001},{"rt":3290.5,"stimulus":"\n                    <p><b>Action: <em>harvest</em></b></p>\n                    <p>This is the bee that you just saw.</p>\n                    <img src=\"bees-with-color/bee-A1SF.svg\" width=\"200\">\n                    <p><span class=\"redText\">Bad choice, the bee was angry.</span><br><b>You have been stung!</b><br>Your pay has been decreased by $0.10. Your bonus pay is now $0.50.</p>\n            ","response":0,"trial_type":"html-button-response","trial_index":16,"time_elapsed":210710,"internal_node_id":"0.0-4.0-1.4","subject_id":"613210155c55065e24e31c4b","study_id":"6197b3f67c2b5cd3b6d9596a","session_id":"619be3215eed6421cff40f5e","condition":"contingent","relevant_dimensions":["antennae","legs"],"bee_group":{"antennae":"A","wings":"X","pattern":"X","legs":"F"},"bonus":1.280000000000001},{"rt":3437.699999999255,"stimulus":"bees-with-color/bee-A2DM.svg","response":0,"trial_type":"image-button-response","trial_index":17,"time_elapsed":214150,"internal_node_id":"0.0-4.0-0.5","subject_id":"613210155c55065e24e31c4b","study_id":"6197b3f67c2b5cd3b6d9596a","session_id":"619be3215eed6421cff40f5e","condition":"contingent","relevant_dimensions":["antennae","legs"],"bee_group":{"antennae":"A","wings":"X","pattern":"X","legs":"F"},"action":"harvest","summary":"good-harvest","bonus":1.280000000000001},{"rt":1149.199999999255,"stimulus":"\n                    <p><b>Action: <em>harvest</em></b></p>\n                    <p>This is the bee that you just saw.</p>\n                    <img src=\"bees-with-color/bee-A2DM.svg\" width=\"200\">\n                    <p><span class=\"greenText\"><b>Successful harvest!</b></span><br>Your pay has increased by $0.02. Your bonus pay is now $0.52.</p>\n            ","response":0,"trial_type":"html-button-response","trial_index":18,"time_elapsed":215301,"internal_node_id":"0.0-4.0-1.5","subject_id":"613210155c55065e24e31c4b","study_id":"6197b3f67c2b5cd3b6d9596a","session_id":"619be3215eed6421cff40f5e","condition":"contingent","relevant_dimensions":["antennae","legs"],"bee_group":{"antennae":"A","wings":"X","pattern":"X","legs":"F"},"bonus":1.280000000000001},{"rt":2194.5,"stimulus":"bees-with-color/bee-B2DF.svg","response":1,"trial_type":"image-button-response","trial_index":19,"time_elapsed":217497,"internal_node_id":"0.0-4.0-0.6","subject_id":"613210155c55065e24e31c4b","study_id":"6197b3f67c2b5cd3b6d9596a","session_id":"619be3215eed6421cff40f5e","condition":"contingent","relevant_dimensions":["antennae","legs"],"bee_group":{"antennae":"A","wings":"X","pattern":"X","legs":"F"},"action":"avoid","summary":"bad-avoid","bonus":1.280000000000001},{"rt":952.2000000001863,"stimulus":"\n                    <p><b>Action: <em>avoid</em></b></p>\n                    <p>This is the bee that you just saw.</p>\n                    <img src=\"bees-with-color/bee-B2DF.svg\" width=\"200\">\n                    <p><br>Your bonus pay is unchanged, and remains at $0.52.</p>\n            ","response":0,"trial_type":"html-button-response","trial_index":20,"time_elapsed":218451,"internal_node_id":"0.0-4.0-1.6","subject_id":"613210155c55065e24e31c4b","study_id":"6197b3f67c2b5cd3b6d9596a","session_id":"619be3215eed6421cff40f5e","condition":"contingent","relevant_dimensions":["antennae","legs"],"bee_group":{"antennae":"A","wings":"X","pattern":"X","legs":"F"},"bonus":1.280000000000001},{"rt":2559.2000000001863,"stimulus":"bees-with-color/bee-A1DF.svg","response":1,"trial_type":"image-button-response","trial_index":21,"time_elapsed":221011,"internal_node_id":"0.0-4.0-0.7","subject_id":"613210155c55065e24e31c4b","study_id":"6197b3f67c2b5cd3b6d9596a","session_id":"619be3215eed6421cff40f5e","condition":"contingent","relevant_dimensions":["antennae","legs"],"bee_group":{"antennae":"A","wings":"X","pattern":"X","legs":"F"},"action":"avoid","summary":"good-avoid","bonus":1.280000000000001},{"rt":760.7999999998137,"stimulus":"\n                    <p><b>Action: <em>avoid</em></b></p>\n                    <p>This is the bee that you just saw.</p>\n                    <img src=\"bees-with-color/bee-A1DF.svg\" width=\"200\">\n                    <p><br>Your bonus pay is unchanged, and remains at $0.52.</p>\n            ","response":0,"trial_type":"html-button-response","trial_index":22,"time_elapsed":221773,"internal_node_id":"0.0-4.0-1.7","subject_id":"613210155c55065e24e31c4b","study_id":"6197b3f67c2b5cd3b6d9596a","session_id":"619be3215eed6421cff40f5e","condition":"contingent","relevant_dimensions":["antennae","legs"],"bee_group":{"antennae":"A","wings":"X","pattern":"X","legs":"F"},"bonus":1.280000000000001},{"rt":1590.0999999996275,"stimulus":"bees-with-color/bee-B1DF.svg","response":1,"trial_type":"image-button-response","trial_index":23,"time_elapsed":223365,"internal_node_id":"0.0-4.0-0.8","subject_id":"613210155c55065e24e31c4b","study_id":"6197b3f67c2b5cd3b6d9596a","session_id":"619be3215eed6421cff40f5e","condition":"contingent","relevant_dimensions":["antennae","legs"],"bee_group":{"antennae":"A","wings":"X","pattern":"X","legs":"F"},"action":"avoid","summary":"bad-avoid","bonus":1.280000000000001},{"rt":923.9000000003725,"stimulus":"\n                    <p><b>Action: <em>avoid</em></b></p>\n                    <p>This is the bee that you just saw.</p>\n                    <img src=\"bees-with-color/bee-B1DF.svg\" width=\"200\">\n                    <p><br>Your bonus pay is unchanged, and remains at $0.52.</p>\n            ","response":0,"trial_type":"html-button-response","trial_index":24,"time_elapsed":224290,"internal_node_id":"0.0-4.0-1.8","subject_id":"613210155c55065e24e31c4b","study_id":"6197b3f67c2b5cd3b6d9596a","session_id":"619be3215eed6421cff40f5e","condition":"contingent","relevant_dimensions":["antennae","legs"],"bee_group":{"antennae":"A","wings":"X","pattern":"X","legs":"F"},"bonus":1.280000000000001},{"rt":1813.5999999996275,"stimulus":"bees-with-color/bee-B2DM.svg","response":0,"trial_type":"image-button-response","trial_index":25,"time_elapsed":226105,"internal_node_id":"0.0-4.0-0.9","subject_id":"613210155c55065e24e31c4b","study_id":"6197b3f67c2b5cd3b6d9596a","session_id":"619be3215eed6421cff40f5e","condition":"contingent","relevant_dimensions":["antennae","legs"],"bee_group":{"antennae":"A","wings":"X","pattern":"X","legs":"F"},"action":"harvest","summary":"good-harvest","bonus":1.280000000000001},{"rt":1045.5999999996275,"stimulus":"\n                    <p><b>Action: <em>harvest</em></b></p>\n                    <p>This is the bee that you just saw.</p>\n                    <img src=\"bees-with-color/bee-B2DM.svg\" width=\"200\">\n                    <p><span class=\"greenText\"><b>Successful harvest!</b></span><br>Your pay has increased by $0.02. Your bonus pay is now $0.54.</p>\n            ","response":0,"trial_type":"html-button-response","trial_index":26,"time_elapsed":227152,"internal_node_id":"0.0-4.0-1.9","subject_id":"613210155c55065e24e31c4b","study_id":"6197b3f67c2b5cd3b6d9596a","session_id":"619be3215eed6421cff40f5e","condition":"contingent","relevant_dimensions":["antennae","legs"],"bee_group":{"antennae":"A","wings":"X","pattern":"X","legs":"F"},"bonus":1.280000000000001},{"rt":5124.5999999996275,"stimulus":"bees-with-color/bee-A2DF.svg","response":0,"trial_type":"image-button-response","trial_index":27,"time_elapsed":232278,"internal_node_id":"0.0-4.0-0.10","subject_id":"613210155c55065e24e31c4b","study_id":"6197b3f67c2b5cd3b6d9596a","session_id":"619be3215eed6421cff40f5e","condition":"contingent","relevant_dimensions":["antennae","legs"],"bee_group":{"antennae":"A","wings":"X","pattern":"X","legs":"F"},"action":"harvest","summary":"bad-harvest","bonus":1.280000000000001},{"rt":4207.5,"stimulus":"\n                    <p><b>Action: <em>harvest</em></b></p>\n                    <p>This is the bee that you just saw.</p>\n                    <img src=\"bees-with-color/bee-A2DF.svg\" width=\"200\">\n                    <p><span class=\"redText\">Bad choice, the bee was angry.</span><br><b>You have been stung!</b><br>Your pay has been decreased by $0.10. Your bonus pay is now $0.44.</p>\n            ","response":0,"trial_type":"html-button-response","trial_index":28,"time_elapsed":236487,"internal_node_id":"0.0-4.0-1.10","subject_id":"613210155c55065e24e31c4b","study_id":"6197b3f67c2b5cd3b6d9596a","session_id":"619be3215eed6421cff40f5e","condition":"contingent","relevant_dimensions":["antennae","legs"],"bee_group":{"antennae":"A","wings":"X","pattern":"X","legs":"F"},"bonus":1.280000000000001},{"rt":1029.699999999255,"stimulus":"bees-with-color/bee-A1DM.svg","response":0,"trial_type":"image-button-response","trial_index":29,"time_elapsed":237519,"internal_node_id":"0.0-4.0-0.11","subject_id":"613210155c55065e24e31c4b","study_id":"6197b3f67c2b5cd3b6d9596a","session_id":"619be3215eed6421cff40f5e","condition":"contingent","relevant_dimensions":["antennae","legs"],"bee_group":{"antennae":"A","wings":"X","pattern":"X","legs":"F"},"action":"harvest","summary":"good-harvest","bonus":1.280000000000001},{"rt":698.2999999998137,"stimulus":"\n                    <p><b>Action: <em>harvest</em></b></p>\n                    <p>This is the bee that you just saw.</p>\n                    <img src=\"bees-with-color/bee-A1DM.svg\" width=\"200\">\n                    <p><span class=\"greenText\"><b>Successful harvest!</b></span><br>Your pay has increased by $0.02. Your bonus pay is now $0.46.</p>\n            ","response":0,"trial_type":"html-button-response","trial_index":30,"time_elapsed":238219,"internal_node_id":"0.0-4.0-1.11","subject_id":"613210155c55065e24e31c4b","study_id":"6197b3f67c2b5cd3b6d9596a","session_id":"619be3215eed6421cff40f5e","condition":"contingent","relevant_dimensions":["antennae","legs"],"bee_group":{"antennae":"A","wings":"X","pattern":"X","legs":"F"},"bonus":1.280000000000001},{"rt":1260,"stimulus":"bees-with-color/bee-B2SM.svg","response":0,"trial_type":"image-button-response","trial_index":31,"time_elapsed":239480,"internal_node_id":"0.0-4.0-0.12","subject_id":"613210155c55065e24e31c4b","study_id":"6197b3f67c2b5cd3b6d9596a","session_id":"619be3215eed6421cff40f5e","condition":"contingent","relevant_dimensions":["antennae","legs"],"bee_group":{"antennae":"A","wings":"X","pattern":"X","legs":"F"},"action":"harvest","summary":"good-harvest","bonus":1.280000000000001},{"rt":736.1000000005588,"stimulus":"\n                    <p><b>Action: <em>harvest</em></b></p>\n                    <p>This is the bee that you just saw.</p>\n                    <img src=\"bees-with-color/bee-B2SM.svg\" width=\"200\">\n                    <p><span class=\"greenText\"><b>Successful harvest!</b></span><br>Your pay has increased by $0.02. Your bonus pay is now $0.48.</p>\n            ","response":0,"trial_type":"html-button-response","trial_index":32,"time_elapsed":240217,"internal_node_id":"0.0-4.0-1.12","subject_id":"613210155c55065e24e31c4b","study_id":"6197b3f67c2b5cd3b6d9596a","session_id":"619be3215eed6421cff40f5e","condition":"contingent","relevant_dimensions":["antennae","legs"],"bee_group":{"antennae":"A","wings":"X","pattern":"X","legs":"F"},"bonus":1.280000000000001},{"rt":1067.5999999996275,"stimulus":"bees-with-color/bee-A2SF.svg","response":1,"trial_type":"image-button-response","trial_index":33,"time_elapsed":241286,"internal_node_id":"0.0-4.0-0.13","subject_id":"613210155c55065e24e31c4b","study_id":"6197b3f67c2b5cd3b6d9596a","session_id":"619be3215eed6421cff40f5e","condition":"contingent","relevant_dimensions":["antennae","legs"],"bee_group":{"antennae":"A","wings":"X","pattern":"X","legs":"F"},"action":"avoid","summary":"good-avoid","bonus":1.280000000000001},{"rt":937.8999999994412,"stimulus":"\n                    <p><b>Action: <em>avoid</em></b></p>\n                    <p>This is the bee that you just saw.</p>\n                    <img src=\"bees-with-color/bee-A2SF.svg\" width=\"200\">\n                    <p><br>Your bonus pay is unchanged, and remains at $0.48.</p>\n            ","response":0,"trial_type":"html-button-response","trial_index":34,"time_elapsed":242225,"internal_node_id":"0.0-4.0-1.13","subject_id":"613210155c55065e24e31c4b","study_id":"6197b3f67c2b5cd3b6d9596a","session_id":"619be3215eed6421cff40f5e","condition":"contingent","relevant_dimensions":["antennae","legs"],"bee_group":{"antennae":"A","wings":"X","pattern":"X","legs":"F"},"bonus":1.280000000000001},{"rt":847.2000000001863,"stimulus":"bees-with-color/bee-B1SF.svg","response":1,"trial_type":"image-button-response","trial_index":35,"time_elapsed":243073,"internal_node_id":"0.0-4.0-0.14","subject_id":"613210155c55065e24e31c4b","study_id":"6197b3f67c2b5cd3b6d9596a","session_id":"619be3215eed6421cff40f5e","condition":"contingent","relevant_dimensions":["antennae","legs"],"bee_group":{"antennae":"A","wings":"X","pattern":"X","legs":"F"},"action":"avoid","summary":"bad-avoid","bonus":1.280000000000001},{"rt":687.2000000001863,"stimulus":"\n                    <p><b>Action: <em>avoid</em></b></p>\n                    <p>This is the bee that you just saw.</p>\n                    <img src=\"bees-with-color/bee-B1SF.svg\" width=\"200\">\n                    <p><br>Your bonus pay is unchanged, and remains at $0.48.</p>\n            ","response":0,"trial_type":"html-button-response","trial_index":36,"time_elapsed":243762,"internal_node_id":"0.0-4.0-1.14","subject_id":"613210155c55065e24e31c4b","study_id":"6197b3f67c2b5cd3b6d9596a","session_id":"619be3215eed6421cff40f5e","condition":"contingent","relevant_dimensions":["antennae","legs"],"bee_group":{"antennae":"A","wings":"X","pattern":"X","legs":"F"},"bonus":1.280000000000001},{"rt":930.6999999992549,"stimulus":"bees-with-color/bee-B2SF.svg","response":1,"trial_type":"image-button-response","trial_index":37,"time_elapsed":244694,"internal_node_id":"0.0-4.0-0.15","subject_id":"613210155c55065e24e31c4b","study_id":"6197b3f67c2b5cd3b6d9596a","session_id":"619be3215eed6421cff40f5e","condition":"contingent","relevant_dimensions":["antennae","legs"],"bee_group":{"antennae":"A","wings":"X","pattern":"X","legs":"F"},"action":"avoid","summary":"bad-avoid","bonus":1.280000000000001},{"rt":715.4000000003725,"stimulus":"\n                    <p><b>Action: <em>avoid</em></b></p>\n                    <p>This is the bee that you just saw.</p>\n                    <img src=\"bees-with-color/bee-B2SF.svg\" width=\"200\">\n                    <p><br>Your bonus pay is unchanged, and remains at $0.48.</p>\n            ","response":0,"trial_type":"html-button-response","trial_index":38,"time_elapsed":245410,"internal_node_id":"0.0-4.0-1.15","subject_id":"613210155c55065e24e31c4b","study_id":"6197b3f67c2b5cd3b6d9596a","session_id":"619be3215eed6421cff40f5e","condition":"contingent","relevant_dimensions":["antennae","legs"],"bee_group":{"antennae":"A","wings":"X","pattern":"X","legs":"F"},"bonus":1.280000000000001},{"rt":1132.2999999998137,"stimulus":"bees-with-color/bee-A2SM.svg","response":0,"trial_type":"image-button-response","trial_index":39,"time_elapsed":246544,"internal_node_id":"0.0-4.0-0.16","subject_id":"613210155c55065e24e31c4b","study_id":"6197b3f67c2b5cd3b6d9596a","session_id":"619be3215eed6421cff40f5e","condition":"contingent","relevant_dimensions":["antennae","legs"],"bee_group":{"antennae":"A","wings":"X","pattern":"X","legs":"F"},"action":"harvest","summary":"good-harvest","bonus":1.280000000000001},{"rt":1199.7000000001863,"stimulus":"\n                    <p><b>Action: <em>harvest</em></b></p>\n                    <p>This is the bee that you just saw.</p>\n                    <img src=\"bees-with-color/bee-A2SM.svg\" width=\"200\">\n                    <p><span class=\"greenText\"><b>Successful harvest!</b></span><br>Your pay has increased by $0.02. Your bonus pay is now $0.50.</p>\n            ","response":0,"trial_type":"html-button-response","trial_index":40,"time_elapsed":247745,"internal_node_id":"0.0-4.0-1.16","subject_id":"613210155c55065e24e31c4b","study_id":"6197b3f67c2b5cd3b6d9596a","session_id":"619be3215eed6421cff40f5e","condition":"contingent","relevant_dimensions":["antennae","legs"],"bee_group":{"antennae":"A","wings":"X","pattern":"X","legs":"F"},"bonus":1.280000000000001},{"rt":1624,"stimulus":"bees-with-color/bee-A1SF.svg","response":1,"trial_type":"image-button-response","trial_index":41,"time_elapsed":249370,"internal_node_id":"0.0-4.0-0.17","subject_id":"613210155c55065e24e31c4b","study_id":"6197b3f67c2b5cd3b6d9596a","session_id":"619be3215eed6421cff40f5e","condition":"contingent","relevant_dimensions":["antennae","legs"],"bee_group":{"antennae":"A","wings":"X","pattern":"X","legs":"F"},"action":"avoid","summary":"good-avoid","bonus":1.280000000000001},{"rt":778.7999999998137,"stimulus":"\n                    <p><b>Action: <em>avoid</em></b></p>\n                    <p>This is the bee that you just saw.</p>\n                    <img src=\"bees-with-color/bee-A1SF.svg\" width=\"200\">\n                    <p><br>Your bonus pay is unchanged, and remains at $0.50.</p>\n            ","response":0,"trial_type":"html-button-response","trial_index":42,"time_elapsed":250150,"internal_node_id":"0.0-4.0-1.17","subject_id":"613210155c55065e24e31c4b","study_id":"6197b3f67c2b5cd3b6d9596a","session_id":"619be3215eed6421cff40f5e","condition":"contingent","relevant_dimensions":["antennae","legs"],"bee_group":{"antennae":"A","wings":"X","pattern":"X","legs":"F"},"bonus":1.280000000000001},{"rt":943.5999999996275,"stimulus":"bees-with-color/bee-B1DM.svg","response":0,"trial_type":"image-button-response","trial_index":43,"time_elapsed":251095,"internal_node_id":"0.0-4.0-0.18","subject_id":"613210155c55065e24e31c4b","study_id":"6197b3f67c2b5cd3b6d9596a","session_id":"619be3215eed6421cff40f5e","condition":"contingent","relevant_dimensions":["antennae","legs"],"bee_group":{"antennae":"A","wings":"X","pattern":"X","legs":"F"},"action":"harvest","summary":"good-harvest","bonus":1.280000000000001},{"rt":900.5999999996275,"stimulus":"\n                    <p><b>Action: <em>harvest</em></b></p>\n                    <p>This is the bee that you just saw.</p>\n                    <img src=\"bees-with-color/bee-B1DM.svg\" width=\"200\">\n                    <p><span class=\"greenText\"><b>Successful harvest!</b></span><br>Your pay has increased by $0.02. Your bonus pay is now $0.52.</p>\n            ","response":0,"trial_type":"html-button-response","trial_index":44,"time_elapsed":251997,"internal_node_id":"0.0-4.0-1.18","subject_id":"613210155c55065e24e31c4b","study_id":"6197b3f67c2b5cd3b6d9596a","session_id":"619be3215eed6421cff40f5e","condition":"contingent","relevant_dimensions":["antennae","legs"],"bee_group":{"antennae":"A","wings":"X","pattern":"X","legs":"F"},"bonus":1.280000000000001},{"rt":1260.7999999998137,"stimulus":"bees-with-color/bee-B2DF.svg","response":1,"trial_type":"image-button-response","trial_index":45,"time_elapsed":253259,"internal_node_id":"0.0-4.0-0.19","subject_id":"613210155c55065e24e31c4b","study_id":"6197b3f67c2b5cd3b6d9596a","session_id":"619be3215eed6421cff40f5e","condition":"contingent","relevant_dimensions":["antennae","legs"],"bee_group":{"antennae":"A","wings":"X","pattern":"X","legs":"F"},"action":"avoid","summary":"bad-avoid","bonus":1.280000000000001},{"rt":622.4000000003725,"stimulus":"\n                    <p><b>Action: <em>avoid</em></b></p>\n                    <p>This is the bee that you just saw.</p>\n                    <img src=\"bees-with-color/bee-B2DF.svg\" width=\"200\">\n                    <p><br>Your bonus pay is unchanged, and remains at $0.52.</p>\n            ","response":0,"trial_type":"html-button-response","trial_index":46,"time_elapsed":253883,"internal_node_id":"0.0-4.0-1.19","subject_id":"613210155c55065e24e31c4b","study_id":"6197b3f67c2b5cd3b6d9596a","session_id":"619be3215eed6421cff40f5e","condition":"contingent","relevant_dimensions":["antennae","legs"],"bee_group":{"antennae":"A","wings":"X","pattern":"X","legs":"F"},"bonus":1.280000000000001},{"rt":1067.4000000003725,"stimulus":"bees-with-color/bee-A1DM.svg","response":0,"trial_type":"image-button-response","trial_index":47,"time_elapsed":254952,"internal_node_id":"0.0-4.0-0.20","subject_id":"613210155c55065e24e31c4b","study_id":"6197b3f67c2b5cd3b6d9596a","session_id":"619be3215eed6421cff40f5e","condition":"contingent","relevant_dimensions":["antennae","legs"],"bee_group":{"antennae":"A","wings":"X","pattern":"X","legs":"F"},"action":"harvest","summary":"good-harvest","bonus":1.280000000000001},{"rt":969.5,"stimulus":"\n                    <p><b>Action: <em>harvest</em></b></p>\n                    <p>This is the bee that you just saw.</p>\n                    <img src=\"bees-with-color/bee-A1DM.svg\" width=\"200\">\n                    <p><span class=\"greenText\"><b>Successful harvest!</b></span><br>Your pay has increased by $0.02. Your bonus pay is now $0.54.</p>\n            ","response":0,"trial_type":"html-button-response","trial_index":48,"time_elapsed":255923,"internal_node_id":"0.0-4.0-1.20","subject_id":"613210155c55065e24e31c4b","study_id":"6197b3f67c2b5cd3b6d9596a","session_id":"619be3215eed6421cff40f5e","condition":"contingent","relevant_dimensions":["antennae","legs"],"bee_group":{"antennae":"A","wings":"X","pattern":"X","legs":"F"},"bonus":1.280000000000001},{"rt":1433.699999999255,"stimulus":"bees-with-color/bee-B1SF.svg","response":1,"trial_type":"image-button-response","trial_index":49,"time_elapsed":257358,"internal_node_id":"0.0-4.0-0.21","subject_id":"613210155c55065e24e31c4b","study_id":"6197b3f67c2b5cd3b6d9596a","session_id":"619be3215eed6421cff40f5e","condition":"contingent","relevant_dimensions":["antennae","legs"],"bee_group":{"antennae":"A","wings":"X","pattern":"X","legs":"F"},"action":"avoid","summary":"bad-avoid","bonus":1.280000000000001},{"rt":605.9000000003725,"stimulus":"\n                    <p><b>Action: <em>avoid</em></b></p>\n                    <p>This is the bee that you just saw.</p>\n                    <img src=\"bees-with-color/bee-B1SF.svg\" width=\"200\">\n                    <p><br>Your bonus pay is unchanged, and remains at $0.54.</p>\n            ","response":0,"trial_type":"html-button-response","trial_index":50,"time_elapsed":257965,"internal_node_id":"0.0-4.0-1.21","subject_id":"613210155c55065e24e31c4b","study_id":"6197b3f67c2b5cd3b6d9596a","session_id":"619be3215eed6421cff40f5e","condition":"contingent","relevant_dimensions":["antennae","legs"],"bee_group":{"antennae":"A","wings":"X","pattern":"X","legs":"F"},"bonus":1.280000000000001},{"rt":1388.2000000001863,"stimulus":"bees-with-color/bee-A1DF.svg","response":1,"trial_type":"image-button-response","trial_index":51,"time_elapsed":259355,"internal_node_id":"0.0-4.0-0.22","subject_id":"613210155c55065e24e31c4b","study_id":"6197b3f67c2b5cd3b6d9596a","session_id":"619be3215eed6421cff40f5e","condition":"contingent","relevant_dimensions":["antennae","legs"],"bee_group":{"antennae":"A","wings":"X","pattern":"X","legs":"F"},"action":"avoid","summary":"good-avoid","bonus":1.280000000000001},{"rt":717.3000000007451,"stimulus":"\n                    <p><b>Action: <em>avoid</em></b></p>\n                    <p>This is the bee that you just saw.</p>\n                    <img src=\"bees-with-color/bee-A1DF.svg\" width=\"200\">\n                    <p><br>Your bonus pay is unchanged, and remains at $0.54.</p>\n            ","response":0,"trial_type":"html-button-response","trial_index":52,"time_elapsed":260074,"internal_node_id":"0.0-4.0-1.22","subject_id":"613210155c55065e24e31c4b","study_id":"6197b3f67c2b5cd3b6d9596a","session_id":"619be3215eed6421cff40f5e","condition":"contingent","relevant_dimensions":["antennae","legs"],"bee_group":{"antennae":"A","wings":"X","pattern":"X","legs":"F"},"bonus":1.280000000000001},{"rt":1816.7999999998137,"stimulus":"bees-with-color/bee-B2SF.svg","response":1,"trial_type":"image-button-response","trial_index":53,"time_elapsed":261892,"internal_node_id":"0.0-4.0-0.23","subject_id":"613210155c55065e24e31c4b","study_id":"6197b3f67c2b5cd3b6d9596a","session_id":"619be3215eed6421cff40f5e","condition":"contingent","relevant_dimensions":["antennae","legs"],"bee_group":{"antennae":"A","wings":"X","pattern":"X","legs":"F"},"action":"avoid","summary":"bad-avoid","bonus":1.280000000000001},{"rt":525.9000000003725,"stimulus":"\n                    <p><b>Action: <em>avoid</em></b></p>\n                    <p>This is the bee that you just saw.</p>\n                    <img src=\"bees-with-color/bee-B2SF.svg\" width=\"200\">\n                    <p><br>Your bonus pay is unchanged, and remains at $0.54.</p>\n            ","response":0,"trial_type":"html-button-response","trial_index":54,"time_elapsed":262419,"internal_node_id":"0.0-4.0-1.23","subject_id":"613210155c55065e24e31c4b","study_id":"6197b3f67c2b5cd3b6d9596a","session_id":"619be3215eed6421cff40f5e","condition":"contingent","relevant_dimensions":["antennae","legs"],"bee_group":{"antennae":"A","wings":"X","pattern":"X","legs":"F"},"bonus":1.280000000000001},{"rt":1105.1000000005588,"stimulus":"bees-with-color/bee-B1DF.svg","response":1,"trial_type":"image-button-response","trial_index":55,"time_elapsed":263525,"internal_node_id":"0.0-4.0-0.24","subject_id":"613210155c55065e24e31c4b","study_id":"6197b3f67c2b5cd3b6d9596a","session_id":"619be3215eed6421cff40f5e","condition":"contingent","relevant_dimensions":["antennae","legs"],"bee_group":{"antennae":"A","wings":"X","pattern":"X","legs":"F"},"action":"avoid","summary":"bad-avoid","bonus":1.280000000000001},{"rt":587.5,"stimulus":"\n                    <p><b>Action: <em>avoid</em></b></p>\n                    <p>This is the bee that you just saw.</p>\n                    <img src=\"bees-with-color/bee-B1DF.svg\" width=\"200\">\n                    <p><br>Your bonus pay is unchanged, and remains at $0.54.</p>\n            ","response":0,"trial_type":"html-button-response","trial_index":56,"time_elapsed":264114,"internal_node_id":"0.0-4.0-1.24","subject_id":"613210155c55065e24e31c4b","study_id":"6197b3f67c2b5cd3b6d9596a","session_id":"619be3215eed6421cff40f5e","condition":"contingent","relevant_dimensions":["antennae","legs"],"bee_group":{"antennae":"A","wings":"X","pattern":"X","legs":"F"},"bonus":1.280000000000001},{"rt":844.9000000003725,"stimulus":"bees-with-color/bee-A2DF.svg","response":1,"trial_type":"image-button-response","trial_index":57,"time_elapsed":264960,"internal_node_id":"0.0-4.0-0.25","subject_id":"613210155c55065e24e31c4b","study_id":"6197b3f67c2b5cd3b6d9596a","session_id":"619be3215eed6421cff40f5e","condition":"contingent","relevant_dimensions":["antennae","legs"],"bee_group":{"antennae":"A","wings":"X","pattern":"X","legs":"F"},"action":"avoid","summary":"good-avoid","bonus":1.280000000000001},{"rt":620.2999999998137,"stimulus":"\n                    <p><b>Action: <em>avoid</em></b></p>\n                    <p>This is the bee that you just saw.</p>\n                    <img src=\"bees-with-color/bee-A2DF.svg\" width=\"200\">\n                    <p><br>Your bonus pay is unchanged, and remains at $0.54.</p>\n            ","response":0,"trial_type":"html-button-response","trial_index":58,"time_elapsed":265581,"internal_node_id":"0.0-4.0-1.25","subject_id":"613210155c55065e24e31c4b","study_id":"6197b3f67c2b5cd3b6d9596a","session_id":"619be3215eed6421cff40f5e","condition":"contingent","relevant_dimensions":["antennae","legs"],"bee_group":{"antennae":"A","wings":"X","pattern":"X","legs":"F"},"bonus":1.280000000000001},{"rt":932.6999999992549,"stimulus":"bees-with-color/bee-A2SF.svg","response":1,"trial_type":"image-button-response","trial_index":59,"time_elapsed":266515,"internal_node_id":"0.0-4.0-0.26","subject_id":"613210155c55065e24e31c4b","study_id":"6197b3f67c2b5cd3b6d9596a","session_id":"619be3215eed6421cff40f5e","condition":"contingent","relevant_dimensions":["antennae","legs"],"bee_group":{"antennae":"A","wings":"X","pattern":"X","legs":"F"},"action":"avoid","summary":"good-avoid","bonus":1.280000000000001},{"rt":887.8999999994412,"stimulus":"\n                    <p><b>Action: <em>avoid</em></b></p>\n                    <p>This is the bee that you just saw.</p>\n                    <img src=\"bees-with-color/bee-A2SF.svg\" width=\"200\">\n                    <p><br>Your bonus pay is unchanged, and remains at $0.54.</p>\n            ","response":0,"trial_type":"html-button-response","trial_index":60,"time_elapsed":267404,"internal_node_id":"0.0-4.0-1.26","subject_id":"613210155c55065e24e31c4b","study_id":"6197b3f67c2b5cd3b6d9596a","session_id":"619be3215eed6421cff40f5e","condition":"contingent","relevant_dimensions":["antennae","legs"],"bee_group":{"antennae":"A","wings":"X","pattern":"X","legs":"F"},"bonus":1.280000000000001},{"rt":1843.2999999998137,"stimulus":"bees-with-color/bee-A1SM.svg","response":0,"trial_type":"image-button-response","trial_index":61,"time_elapsed":269249,"internal_node_id":"0.0-4.0-0.27","subject_id":"613210155c55065e24e31c4b","study_id":"6197b3f67c2b5cd3b6d9596a","session_id":"619be3215eed6421cff40f5e","condition":"contingent","relevant_dimensions":["antennae","legs"],"bee_group":{"antennae":"A","wings":"X","pattern":"X","legs":"F"},"action":"harvest","summary":"good-harvest","bonus":1.280000000000001},{"rt":999.7999999998137,"stimulus":"\n                    <p><b>Action: <em>harvest</em></b></p>\n                    <p>This is the bee that you just saw.</p>\n                    <img src=\"bees-with-color/bee-A1SM.svg\" width=\"200\">\n                    <p><span class=\"greenText\"><b>Successful harvest!</b></span><br>Your pay has increased by $0.02. Your bonus pay is now $0.56.</p>\n            ","response":0,"trial_type":"html-button-response","trial_index":62,"time_elapsed":270250,"internal_node_id":"0.0-4.0-1.27","subject_id":"613210155c55065e24e31c4b","study_id":"6197b3f67c2b5cd3b6d9596a","session_id":"619be3215eed6421cff40f5e","condition":"contingent","relevant_dimensions":["antennae","legs"],"bee_group":{"antennae":"A","wings":"X","pattern":"X","legs":"F"},"bonus":1.280000000000001},{"rt":838.6999999992549,"stimulus":"bees-with-color/bee-B2SM.svg","response":0,"trial_type":"image-button-response","trial_index":63,"time_elapsed":271090,"internal_node_id":"0.0-4.0-0.28","subject_id":"613210155c55065e24e31c4b","study_id":"6197b3f67c2b5cd3b6d9596a","session_id":"619be3215eed6421cff40f5e","condition":"contingent","relevant_dimensions":["antennae","legs"],"bee_group":{"antennae":"A","wings":"X","pattern":"X","legs":"F"},"action":"harvest","summary":"good-harvest","bonus":1.280000000000001},{"rt":566.5,"stimulus":"\n                    <p><b>Action: <em>harvest</em></b></p>\n                    <p>This is the bee that you just saw.</p>\n                    <img src=\"bees-with-color/bee-B2SM.svg\" width=\"200\">\n                    <p><span class=\"greenText\"><b>Successful harvest!</b></span><br>Your pay has increased by $0.02. Your bonus pay is now $0.58.</p>\n            ","response":0,"trial_type":"html-button-response","trial_index":64,"time_elapsed":271658,"internal_node_id":"0.0-4.0-1.28","subject_id":"613210155c55065e24e31c4b","study_id":"6197b3f67c2b5cd3b6d9596a","session_id":"619be3215eed6421cff40f5e","condition":"contingent","relevant_dimensions":["antennae","legs"],"bee_group":{"antennae":"A","wings":"X","pattern":"X","legs":"F"},"bonus":1.280000000000001},{"rt":847.1000000005588,"stimulus":"bees-with-color/bee-B1SM.svg","response":0,"trial_type":"image-button-response","trial_index":65,"time_elapsed":272507,"internal_node_id":"0.0-4.0-0.29","subject_id":"613210155c55065e24e31c4b","study_id":"6197b3f67c2b5cd3b6d9596a","session_id":"619be3215eed6421cff40f5e","condition":"contingent","relevant_dimensions":["antennae","legs"],"bee_group":{"antennae":"A","wings":"X","pattern":"X","legs":"F"},"action":"harvest","summary":"good-harvest","bonus":1.280000000000001},{"rt":733.5,"stimulus":"\n                    <p><b>Action: <em>harvest</em></b></p>\n                    <p>This is the bee that you just saw.</p>\n                    <img src=\"bees-with-color/bee-B1SM.svg\" width=\"200\">\n                    <p><span class=\"greenText\"><b>Successful harvest!</b></span><br>Your pay has increased by $0.02. Your bonus pay is now $0.60.</p>\n            ","response":0,"trial_type":"html-button-response","trial_index":66,"time_elapsed":273242,"internal_node_id":"0.0-4.0-1.29","subject_id":"613210155c55065e24e31c4b","study_id":"6197b3f67c2b5cd3b6d9596a","session_id":"619be3215eed6421cff40f5e","condition":"contingent","relevant_dimensions":["antennae","legs"],"bee_group":{"antennae":"A","wings":"X","pattern":"X","legs":"F"},"bonus":1.280000000000001},{"rt":1578.4000000003725,"stimulus":"bees-with-color/bee-A2DM.svg","response":0,"trial_type":"image-button-response","trial_index":67,"time_elapsed":274822,"internal_node_id":"0.0-4.0-0.30","subject_id":"613210155c55065e24e31c4b","study_id":"6197b3f67c2b5cd3b6d9596a","session_id":"619be3215eed6421cff40f5e","condition":"contingent","relevant_dimensions":["antennae","legs"],"bee_group":{"antennae":"A","wings":"X","pattern":"X","legs":"F"},"action":"harvest","summary":"good-harvest","bonus":1.280000000000001},{"rt":1091,"stimulus":"\n                    <p><b>Action: <em>harvest</em></b></p>\n                    <p>This is the bee that you just saw.</p>\n                    <img src=\"bees-with-color/bee-A2DM.svg\" width=\"200\">\n                    <p><span class=\"greenText\"><b>Successful harvest!</b></span><br>Your pay has increased by $0.02. Your bonus pay is now $0.62.</p>\n            ","response":0,"trial_type":"html-button-response","trial_index":68,"time_elapsed":275914,"internal_node_id":"0.0-4.0-1.30","subject_id":"613210155c55065e24e31c4b","study_id":"6197b3f67c2b5cd3b6d9596a","session_id":"619be3215eed6421cff40f5e","condition":"contingent","relevant_dimensions":["antennae","legs"],"bee_group":{"antennae":"A","wings":"X","pattern":"X","legs":"F"},"bonus":1.280000000000001},{"rt":1085.5,"stimulus":"bees-with-color/bee-B2DM.svg","response":0,"trial_type":"image-button-response","trial_index":69,"time_elapsed":277001,"internal_node_id":"0.0-4.0-0.31","subject_id":"613210155c55065e24e31c4b","study_id":"6197b3f67c2b5cd3b6d9596a","session_id":"619be3215eed6421cff40f5e","condition":"contingent","relevant_dimensions":["antennae","legs"],"bee_group":{"antennae":"A","wings":"X","pattern":"X","legs":"F"},"action":"harvest","summary":"good-harvest","bonus":1.280000000000001},{"rt":1003.3000000007451,"stimulus":"\n                    <p><b>Action: <em>harvest</em></b></p>\n                    <p>This is the bee that you just saw.</p>\n                    <img src=\"bees-with-color/bee-B2DM.svg\" width=\"200\">\n                    <p><span class=\"greenText\"><b>Successful harvest!</b></span><br>Your pay has increased by $0.02. Your bonus pay is now $0.64.</p>\n            ","response":0,"trial_type":"html-button-response","trial_index":70,"time_elapsed":278006,"internal_node_id":"0.0-4.0-1.31","subject_id":"613210155c55065e24e31c4b","study_id":"6197b3f67c2b5cd3b6d9596a","session_id":"619be3215eed6421cff40f5e","condition":"contingent","relevant_dimensions":["antennae","legs"],"bee_group":{"antennae":"A","wings":"X","pattern":"X","legs":"F"},"bonus":1.280000000000001},{"rt":1453.7999999998137,"stimulus":"bees-with-color/bee-B2SM.svg","response":0,"trial_type":"image-button-response","trial_index":71,"time_elapsed":279461,"internal_node_id":"0.0-4.0-0.32","subject_id":"613210155c55065e24e31c4b","study_id":"6197b3f67c2b5cd3b6d9596a","session_id":"619be3215eed6421cff40f5e","condition":"contingent","relevant_dimensions":["antennae","legs"],"bee_group":{"antennae":"A","wings":"X","pattern":"X","legs":"F"},"action":"harvest","summary":"good-harvest","bonus":1.280000000000001},{"rt":809.1999999992549,"stimulus":"\n                    <p><b>Action: <em>harvest</em></b></p>\n                    <p>This is the bee that you just saw.</p>\n                    <img src=\"bees-with-color/bee-B2SM.svg\" width=\"200\">\n                    <p><span class=\"greenText\"><b>Successful harvest!</b></span><br>Your pay has increased by $0.02. Your bonus pay is now $0.66.</p>\n            ","response":0,"trial_type":"html-button-response","trial_index":72,"time_elapsed":280271,"internal_node_id":"0.0-4.0-1.32","subject_id":"613210155c55065e24e31c4b","study_id":"6197b3f67c2b5cd3b6d9596a","session_id":"619be3215eed6421cff40f5e","condition":"contingent","relevant_dimensions":["antennae","legs"],"bee_group":{"antennae":"A","wings":"X","pattern":"X","legs":"F"},"bonus":1.280000000000001},{"rt":1176.6000000005588,"stimulus":"bees-with-color/bee-B1SF.svg","response":1,"trial_type":"image-button-response","trial_index":73,"time_elapsed":281449,"internal_node_id":"0.0-4.0-0.33","subject_id":"613210155c55065e24e31c4b","study_id":"6197b3f67c2b5cd3b6d9596a","session_id":"619be3215eed6421cff40f5e","condition":"contingent","relevant_dimensions":["antennae","legs"],"bee_group":{"antennae":"A","wings":"X","pattern":"X","legs":"F"},"action":"avoid","summary":"bad-avoid","bonus":1.280000000000001},{"rt":551.1000000005588,"stimulus":"\n                    <p><b>Action: <em>avoid</em></b></p>\n                    <p>This is the bee that you just saw.</p>\n                    <img src=\"bees-with-color/bee-B1SF.svg\" width=\"200\">\n                    <p><br>Your bonus pay is unchanged, and remains at $0.66.</p>\n            ","response":0,"trial_type":"html-button-response","trial_index":74,"time_elapsed":282002,"internal_node_id":"0.0-4.0-1.33","subject_id":"613210155c55065e24e31c4b","study_id":"6197b3f67c2b5cd3b6d9596a","session_id":"619be3215eed6421cff40f5e","condition":"contingent","relevant_dimensions":["antennae","legs"],"bee_group":{"antennae":"A","wings":"X","pattern":"X","legs":"F"},"bonus":1.280000000000001},{"rt":1129.3999999994412,"stimulus":"bees-with-color/bee-A2DF.svg","response":1,"trial_type":"image-button-response","trial_index":75,"time_elapsed":283133,"internal_node_id":"0.0-4.0-0.34","subject_id":"613210155c55065e24e31c4b","study_id":"6197b3f67c2b5cd3b6d9596a","session_id":"619be3215eed6421cff40f5e","condition":"contingent","relevant_dimensions":["antennae","legs"],"bee_group":{"antennae":"A","wings":"X","pattern":"X","legs":"F"},"action":"avoid","summary":"good-avoid","bonus":1.280000000000001},{"rt":795.5,"stimulus":"\n                    <p><b>Action: <em>avoid</em></b></p>\n                    <p>This is the bee that you just saw.</p>\n                    <img src=\"bees-with-color/bee-A2DF.svg\" width=\"200\">\n                    <p><br>Your bonus pay is unchanged, and remains at $0.66.</p>\n            ","response":0,"trial_type":"html-button-response","trial_index":76,"time_elapsed":283930,"internal_node_id":"0.0-4.0-1.34","subject_id":"613210155c55065e24e31c4b","study_id":"6197b3f67c2b5cd3b6d9596a","session_id":"619be3215eed6421cff40f5e","condition":"contingent","relevant_dimensions":["antennae","legs"],"bee_group":{"antennae":"A","wings":"X","pattern":"X","legs":"F"},"bonus":1.280000000000001},{"rt":883.0999999996275,"stimulus":"bees-with-color/bee-A1SF.svg","response":1,"trial_type":"image-button-response","trial_index":77,"time_elapsed":284814,"internal_node_id":"0.0-4.0-0.35","subject_id":"613210155c55065e24e31c4b","study_id":"6197b3f67c2b5cd3b6d9596a","session_id":"619be3215eed6421cff40f5e","condition":"contingent","relevant_dimensions":["antennae","legs"],"bee_group":{"antennae":"A","wings":"X","pattern":"X","legs":"F"},"action":"avoid","summary":"good-avoid","bonus":1.280000000000001},{"rt":622.2000000001863,"stimulus":"\n                    <p><b>Action: <em>avoid</em></b></p>\n                    <p>This is the bee that you just saw.</p>\n                    <img src=\"bees-with-color/bee-A1SF.svg\" width=\"200\">\n                    <p><br>Your bonus pay is unchanged, and remains at $0.66.</p>\n            ","response":0,"trial_type":"html-button-response","trial_index":78,"time_elapsed":285437,"internal_node_id":"0.0-4.0-1.35","subject_id":"613210155c55065e24e31c4b","study_id":"6197b3f67c2b5cd3b6d9596a","session_id":"619be3215eed6421cff40f5e","condition":"contingent","relevant_dimensions":["antennae","legs"],"bee_group":{"antennae":"A","wings":"X","pattern":"X","legs":"F"},"bonus":1.280000000000001},{"rt":1256,"stimulus":"bees-with-color/bee-B1DF.svg","response":1,"trial_type":"image-button-response","trial_index":79,"time_elapsed":286695,"internal_node_id":"0.0-4.0-0.36","subject_id":"613210155c55065e24e31c4b","study_id":"6197b3f67c2b5cd3b6d9596a","session_id":"619be3215eed6421cff40f5e","condition":"contingent","relevant_dimensions":["antennae","legs"],"bee_group":{"antennae":"A","wings":"X","pattern":"X","legs":"F"},"action":"avoid","summary":"bad-avoid","bonus":1.280000000000001},{"rt":631.5,"stimulus":"\n                    <p><b>Action: <em>avoid</em></b></p>\n                    <p>This is the bee that you just saw.</p>\n                    <img src=\"bees-with-color/bee-B1DF.svg\" width=\"200\">\n                    <p><br>Your bonus pay is unchanged, and remains at $0.66.</p>\n            ","response":0,"trial_type":"html-button-response","trial_index":80,"time_elapsed":287328,"internal_node_id":"0.0-4.0-1.36","subject_id":"613210155c55065e24e31c4b","study_id":"6197b3f67c2b5cd3b6d9596a","session_id":"619be3215eed6421cff40f5e","condition":"contingent","relevant_dimensions":["antennae","legs"],"bee_group":{"antennae":"A","wings":"X","pattern":"X","legs":"F"},"bonus":1.280000000000001},{"rt":928.5,"stimulus":"bees-with-color/bee-B2DM.svg","response":0,"trial_type":"image-button-response","trial_index":81,"time_elapsed":288257,"internal_node_id":"0.0-4.0-0.37","subject_id":"613210155c55065e24e31c4b","study_id":"6197b3f67c2b5cd3b6d9596a","session_id":"619be3215eed6421cff40f5e","condition":"contingent","relevant_dimensions":["antennae","legs"],"bee_group":{"antennae":"A","wings":"X","pattern":"X","legs":"F"},"action":"harvest","summary":"good-harvest","bonus":1.280000000000001},{"rt":1162.7000000001863,"stimulus":"\n                    <p><b>Action: <em>harvest</em></b></p>\n                    <p>This is the bee that you just saw.</p>\n                    <img src=\"bees-with-color/bee-B2DM.svg\" width=\"200\">\n                    <p><span class=\"greenText\"><b>Successful harvest!</b></span><br>Your pay has increased by $0.02. Your bonus pay is now $0.68.</p>\n            ","response":0,"trial_type":"html-button-response","trial_index":82,"time_elapsed":289421,"internal_node_id":"0.0-4.0-1.37","subject_id":"613210155c55065e24e31c4b","study_id":"6197b3f67c2b5cd3b6d9596a","session_id":"619be3215eed6421cff40f5e","condition":"contingent","relevant_dimensions":["antennae","legs"],"bee_group":{"antennae":"A","wings":"X","pattern":"X","legs":"F"},"bonus":1.280000000000001},{"rt":908.7999999998137,"stimulus":"bees-with-color/bee-A2DM.svg","response":0,"trial_type":"image-button-response","trial_index":83,"time_elapsed":290331,"internal_node_id":"0.0-4.0-0.38","subject_id":"613210155c55065e24e31c4b","study_id":"6197b3f67c2b5cd3b6d9596a","session_id":"619be3215eed6421cff40f5e","condition":"contingent","relevant_dimensions":["antennae","legs"],"bee_group":{"antennae":"A","wings":"X","pattern":"X","legs":"F"},"action":"harvest","summary":"good-harvest","bonus":1.280000000000001},{"rt":721.4000000003725,"stimulus":"\n                    <p><b>Action: <em>harvest</em></b></p>\n                    <p>This is the bee that you just saw.</p>\n                    <img src=\"bees-with-color/bee-A2DM.svg\" width=\"200\">\n                    <p><span class=\"greenText\"><b>Successful harvest!</b></span><br>Your pay has increased by $0.02. Your bonus pay is now $0.70.</p>\n            ","response":0,"trial_type":"html-button-response","trial_index":84,"time_elapsed":291054,"internal_node_id":"0.0-4.0-1.38","subject_id":"613210155c55065e24e31c4b","study_id":"6197b3f67c2b5cd3b6d9596a","session_id":"619be3215eed6421cff40f5e","condition":"contingent","relevant_dimensions":["antennae","legs"],"bee_group":{"antennae":"A","wings":"X","pattern":"X","legs":"F"},"bonus":1.280000000000001},{"rt":1134.9000000003725,"stimulus":"bees-with-color/bee-A1DM.svg","response":0,"trial_type":"image-button-response","trial_index":85,"time_elapsed":292190,"internal_node_id":"0.0-4.0-0.39","subject_id":"613210155c55065e24e31c4b","study_id":"6197b3f67c2b5cd3b6d9596a","session_id":"619be3215eed6421cff40f5e","condition":"contingent","relevant_dimensions":["antennae","legs"],"bee_group":{"antennae":"A","wings":"X","pattern":"X","legs":"F"},"action":"harvest","summary":"good-harvest","bonus":1.280000000000001},{"rt":622.8999999994412,"stimulus":"\n                    <p><b>Action: <em>harvest</em></b></p>\n                    <p>This is the bee that you just saw.</p>\n                    <img src=\"bees-with-color/bee-A1DM.svg\" width=\"200\">\n                    <p><span class=\"greenText\"><b>Successful harvest!</b></span><br>Your pay has increased by $0.02. Your bonus pay is now $0.72.</p>\n            ","response":0,"trial_type":"html-button-response","trial_index":86,"time_elapsed":292814,"internal_node_id":"0.0-4.0-1.39","subject_id":"613210155c55065e24e31c4b","study_id":"6197b3f67c2b5cd3b6d9596a","session_id":"619be3215eed6421cff40f5e","condition":"contingent","relevant_dimensions":["antennae","legs"],"bee_group":{"antennae":"A","wings":"X","pattern":"X","legs":"F"},"bonus":1.280000000000001},{"rt":885,"stimulus":"bees-with-color/bee-A2SM.svg","response":0,"trial_type":"image-button-response","trial_index":87,"time_elapsed":293700,"internal_node_id":"0.0-4.0-0.40","subject_id":"613210155c55065e24e31c4b","study_id":"6197b3f67c2b5cd3b6d9596a","session_id":"619be3215eed6421cff40f5e","condition":"contingent","relevant_dimensions":["antennae","legs"],"bee_group":{"antennae":"A","wings":"X","pattern":"X","legs":"F"},"action":"harvest","summary":"good-harvest","bonus":1.280000000000001},{"rt":765.4000000003725,"stimulus":"\n                    <p><b>Action: <em>harvest</em></b></p>\n                    <p>This is the bee that you just saw.</p>\n                    <img src=\"bees-with-color/bee-A2SM.svg\" width=\"200\">\n                    <p><span class=\"greenText\"><b>Successful harvest!</b></span><br>Your pay has increased by $0.02. Your bonus pay is now $0.74.</p>\n            ","response":0,"trial_type":"html-button-response","trial_index":88,"time_elapsed":294467,"internal_node_id":"0.0-4.0-1.40","subject_id":"613210155c55065e24e31c4b","study_id":"6197b3f67c2b5cd3b6d9596a","session_id":"619be3215eed6421cff40f5e","condition":"contingent","relevant_dimensions":["antennae","legs"],"bee_group":{"antennae":"A","wings":"X","pattern":"X","legs":"F"},"bonus":1.280000000000001},{"rt":1841.6000000005588,"stimulus":"bees-with-color/bee-B1DM.svg","response":0,"trial_type":"image-button-response","trial_index":89,"time_elapsed":296310,"internal_node_id":"0.0-4.0-0.41","subject_id":"613210155c55065e24e31c4b","study_id":"6197b3f67c2b5cd3b6d9596a","session_id":"619be3215eed6421cff40f5e","condition":"contingent","relevant_dimensions":["antennae","legs"],"bee_group":{"antennae":"A","wings":"X","pattern":"X","legs":"F"},"action":"harvest","summary":"good-harvest","bonus":1.280000000000001},{"rt":1011.0999999996275,"stimulus":"\n                    <p><b>Action: <em>harvest</em></b></p>\n                    <p>This is the bee that you just saw.</p>\n                    <img src=\"bees-with-color/bee-B1DM.svg\" width=\"200\">\n                    <p><span class=\"greenText\"><b>Successful harvest!</b></span><br>Your pay has increased by $0.02. Your bonus pay is now $0.76.</p>\n            ","response":0,"trial_type":"html-button-response","trial_index":90,"time_elapsed":297322,"internal_node_id":"0.0-4.0-1.41","subject_id":"613210155c55065e24e31c4b","study_id":"6197b3f67c2b5cd3b6d9596a","session_id":"619be3215eed6421cff40f5e","condition":"contingent","relevant_dimensions":["antennae","legs"],"bee_group":{"antennae":"A","wings":"X","pattern":"X","legs":"F"},"bonus":1.280000000000001},{"rt":978,"stimulus":"bees-with-color/bee-A1SM.svg","response":0,"trial_type":"image-button-response","trial_index":91,"time_elapsed":298303,"internal_node_id":"0.0-4.0-0.42","subject_id":"613210155c55065e24e31c4b","study_id":"6197b3f67c2b5cd3b6d9596a","session_id":"619be3215eed6421cff40f5e","condition":"contingent","relevant_dimensions":["antennae","legs"],"bee_group":{"antennae":"A","wings":"X","pattern":"X","legs":"F"},"action":"harvest","summary":"good-harvest","bonus":1.280000000000001},{"rt":655.3999999994412,"stimulus":"\n                    <p><b>Action: <em>harvest</em></b></p>\n                    <p>This is the bee that you just saw.</p>\n                    <img src=\"bees-with-color/bee-A1SM.svg\" width=\"200\">\n                    <p><span class=\"greenText\"><b>Successful harvest!</b></span><br>Your pay has increased by $0.02. Your bonus pay is now $0.78.</p>\n            ","response":0,"trial_type":"html-button-response","trial_index":92,"time_elapsed":298959,"internal_node_id":"0.0-4.0-1.42","subject_id":"613210155c55065e24e31c4b","study_id":"6197b3f67c2b5cd3b6d9596a","session_id":"619be3215eed6421cff40f5e","condition":"contingent","relevant_dimensions":["antennae","legs"],"bee_group":{"antennae":"A","wings":"X","pattern":"X","legs":"F"},"bonus":1.280000000000001},{"rt":1483,"stimulus":"bees-with-color/bee-B2DF.svg","response":1,"trial_type":"image-button-response","trial_index":93,"time_elapsed":300444,"internal_node_id":"0.0-4.0-0.43","subject_id":"613210155c55065e24e31c4b","study_id":"6197b3f67c2b5cd3b6d9596a","session_id":"619be3215eed6421cff40f5e","condition":"contingent","relevant_dimensions":["antennae","legs"],"bee_group":{"antennae":"A","wings":"X","pattern":"X","legs":"F"},"action":"avoid","summary":"bad-avoid","bonus":1.280000000000001},{"rt":1198.6000000005588,"stimulus":"\n                    <p><b>Action: <em>avoid</em></b></p>\n                    <p>This is the bee that you just saw.</p>\n                    <img src=\"bees-with-color/bee-B2DF.svg\" width=\"200\">\n                    <p><br>Your bonus pay is unchanged, and remains at $0.78.</p>\n            ","response":0,"trial_type":"html-button-response","trial_index":94,"time_elapsed":301644,"internal_node_id":"0.0-4.0-1.43","subject_id":"613210155c55065e24e31c4b","study_id":"6197b3f67c2b5cd3b6d9596a","session_id":"619be3215eed6421cff40f5e","condition":"contingent","relevant_dimensions":["antennae","legs"],"bee_group":{"antennae":"A","wings":"X","pattern":"X","legs":"F"},"bonus":1.280000000000001},{"rt":905.1999999992549,"stimulus":"bees-with-color/bee-B2SF.svg","response":1,"trial_type":"image-button-response","trial_index":95,"time_elapsed":302550,"internal_node_id":"0.0-4.0-0.44","subject_id":"613210155c55065e24e31c4b","study_id":"6197b3f67c2b5cd3b6d9596a","session_id":"619be3215eed6421cff40f5e","condition":"contingent","relevant_dimensions":["antennae","legs"],"bee_group":{"antennae":"A","wings":"X","pattern":"X","legs":"F"},"action":"avoid","summary":"bad-avoid","bonus":1.280000000000001},{"rt":594.6999999992549,"stimulus":"\n                    <p><b>Action: <em>avoid</em></b></p>\n                    <p>This is the bee that you just saw.</p>\n                    <img src=\"bees-with-color/bee-B2SF.svg\" width=\"200\">\n                    <p><br>Your bonus pay is unchanged, and remains at $0.78.</p>\n            ","response":0,"trial_type":"html-button-response","trial_index":96,"time_elapsed":303146,"internal_node_id":"0.0-4.0-1.44","subject_id":"613210155c55065e24e31c4b","study_id":"6197b3f67c2b5cd3b6d9596a","session_id":"619be3215eed6421cff40f5e","condition":"contingent","relevant_dimensions":["antennae","legs"],"bee_group":{"antennae":"A","wings":"X","pattern":"X","legs":"F"},"bonus":1.280000000000001},{"rt":765.5999999996275,"stimulus":"bees-with-color/bee-A2SF.svg","response":1,"trial_type":"image-button-response","trial_index":97,"time_elapsed":303913,"internal_node_id":"0.0-4.0-0.45","subject_id":"613210155c55065e24e31c4b","study_id":"6197b3f67c2b5cd3b6d9596a","session_id":"619be3215eed6421cff40f5e","condition":"contingent","relevant_dimensions":["antennae","legs"],"bee_group":{"antennae":"A","wings":"X","pattern":"X","legs":"F"},"action":"avoid","summary":"good-avoid","bonus":1.280000000000001},{"rt":627.7000000001863,"stimulus":"\n                    <p><b>Action: <em>avoid</em></b></p>\n                    <p>This is the bee that you just saw.</p>\n                    <img src=\"bees-with-color/bee-A2SF.svg\" width=\"200\">\n                    <p><br>Your bonus pay is unchanged, and remains at $0.78.</p>\n            ","response":0,"trial_type":"html-button-response","trial_index":98,"time_elapsed":304543,"internal_node_id":"0.0-4.0-1.45","subject_id":"613210155c55065e24e31c4b","study_id":"6197b3f67c2b5cd3b6d9596a","session_id":"619be3215eed6421cff40f5e","condition":"contingent","relevant_dimensions":["antennae","legs"],"bee_group":{"antennae":"A","wings":"X","pattern":"X","legs":"F"},"bonus":1.280000000000001},{"rt":1509.7999999998137,"stimulus":"bees-with-color/bee-B1SM.svg","response":0,"trial_type":"image-button-response","trial_index":99,"time_elapsed":306053,"internal_node_id":"0.0-4.0-0.46","subject_id":"613210155c55065e24e31c4b","study_id":"6197b3f67c2b5cd3b6d9596a","session_id":"619be3215eed6421cff40f5e","condition":"contingent","relevant_dimensions":["antennae","legs"],"bee_group":{"antennae":"A","wings":"X","pattern":"X","legs":"F"},"action":"harvest","summary":"good-harvest","bonus":1.280000000000001},{"rt":909.7999999998137,"stimulus":"\n                    <p><b>Action: <em>harvest</em></b></p>\n                    <p>This is the bee that you just saw.</p>\n                    <img src=\"bees-with-color/bee-B1SM.svg\" width=\"200\">\n                    <p><span class=\"greenText\"><b>Successful harvest!</b></span><br>Your pay has increased by $0.02. Your bonus pay is now $0.80.</p>\n            ","response":0,"trial_type":"html-button-response","trial_index":100,"time_elapsed":306964,"internal_node_id":"0.0-4.0-1.46","subject_id":"613210155c55065e24e31c4b","study_id":"6197b3f67c2b5cd3b6d9596a","session_id":"619be3215eed6421cff40f5e","condition":"contingent","relevant_dimensions":["antennae","legs"],"bee_group":{"antennae":"A","wings":"X","pattern":"X","legs":"F"},"bonus":1.280000000000001},{"rt":1776.300000000745,"stimulus":"bees-with-color/bee-A1DF.svg","response":1,"trial_type":"image-button-response","trial_index":101,"time_elapsed":308742,"internal_node_id":"0.0-4.0-0.47","subject_id":"613210155c55065e24e31c4b","study_id":"6197b3f67c2b5cd3b6d9596a","session_id":"619be3215eed6421cff40f5e","condition":"contingent","relevant_dimensions":["antennae","legs"],"bee_group":{"antennae":"A","wings":"X","pattern":"X","legs":"F"},"action":"avoid","summary":"good-avoid","bonus":1.280000000000001},{"rt":2028,"stimulus":"\n                    <p><b>Action: <em>avoid</em></b></p>\n                    <p>This is the bee that you just saw.</p>\n                    <img src=\"bees-with-color/bee-A1DF.svg\" width=\"200\">\n                    <p><br>Your bonus pay is unchanged, and remains at $0.80.</p>\n            ","response":0,"trial_type":"html-button-response","trial_index":102,"time_elapsed":310771,"internal_node_id":"0.0-4.0-1.47","subject_id":"613210155c55065e24e31c4b","study_id":"6197b3f67c2b5cd3b6d9596a","session_id":"619be3215eed6421cff40f5e","condition":"contingent","relevant_dimensions":["antennae","legs"],"bee_group":{"antennae":"A","wings":"X","pattern":"X","legs":"F"},"bonus":1.280000000000001},{"rt":1202.2000000001863,"stimulus":"bees-with-color/bee-A2DM.svg","response":0,"trial_type":"image-button-response","trial_index":103,"time_elapsed":311974,"internal_node_id":"0.0-4.0-0.48","subject_id":"613210155c55065e24e31c4b","study_id":"6197b3f67c2b5cd3b6d9596a","session_id":"619be3215eed6421cff40f5e","condition":"contingent","relevant_dimensions":["antennae","legs"],"bee_group":{"antennae":"A","wings":"X","pattern":"X","legs":"F"},"action":"harvest","summary":"good-harvest","bonus":1.280000000000001},{"rt":802.2999999998137,"stimulus":"\n                    <p><b>Action: <em>harvest</em></b></p>\n                    <p>This is the bee that you just saw.</p>\n                    <img src=\"bees-with-color/bee-A2DM.svg\" width=\"200\">\n                    <p><span class=\"greenText\"><b>Successful harvest!</b></span><br>Your pay has increased by $0.02. Your bonus pay is now $0.82.</p>\n            ","response":0,"trial_type":"html-button-response","trial_index":104,"time_elapsed":312778,"internal_node_id":"0.0-4.0-1.48","subject_id":"613210155c55065e24e31c4b","study_id":"6197b3f67c2b5cd3b6d9596a","session_id":"619be3215eed6421cff40f5e","condition":"contingent","relevant_dimensions":["antennae","legs"],"bee_group":{"antennae":"A","wings":"X","pattern":"X","legs":"F"},"bonus":1.280000000000001},{"rt":1132.7000000001863,"stimulus":"bees-with-color/bee-A1DM.svg","response":0,"trial_type":"image-button-response","trial_index":105,"time_elapsed":313912,"internal_node_id":"0.0-4.0-0.49","subject_id":"613210155c55065e24e31c4b","study_id":"6197b3f67c2b5cd3b6d9596a","session_id":"619be3215eed6421cff40f5e","condition":"contingent","relevant_dimensions":["antennae","legs"],"bee_group":{"antennae":"A","wings":"X","pattern":"X","legs":"F"},"action":"harvest","summary":"good-harvest","bonus":1.280000000000001},{"rt":602.7999999998137,"stimulus":"\n                    <p><b>Action: <em>harvest</em></b></p>\n                    <p>This is the bee that you just saw.</p>\n                    <img src=\"bees-with-color/bee-A1DM.svg\" width=\"200\">\n                    <p><span class=\"greenText\"><b>Successful harvest!</b></span><br>Your pay has increased by $0.02. Your bonus pay is now $0.84.</p>\n            ","response":0,"trial_type":"html-button-response","trial_index":106,"time_elapsed":314516,"internal_node_id":"0.0-4.0-1.49","subject_id":"613210155c55065e24e31c4b","study_id":"6197b3f67c2b5cd3b6d9596a","session_id":"619be3215eed6421cff40f5e","condition":"contingent","relevant_dimensions":["antennae","legs"],"bee_group":{"antennae":"A","wings":"X","pattern":"X","legs":"F"},"bonus":1.280000000000001},{"rt":1130.0999999996275,"stimulus":"bees-with-color/bee-A1DF.svg","response":1,"trial_type":"image-button-response","trial_index":107,"time_elapsed":315647,"internal_node_id":"0.0-4.0-0.50","subject_id":"613210155c55065e24e31c4b","study_id":"6197b3f67c2b5cd3b6d9596a","session_id":"619be3215eed6421cff40f5e","condition":"contingent","relevant_dimensions":["antennae","legs"],"bee_group":{"antennae":"A","wings":"X","pattern":"X","legs":"F"},"action":"avoid","summary":"good-avoid","bonus":1.280000000000001},{"rt":701.5999999996275,"stimulus":"\n                    <p><b>Action: <em>avoid</em></b></p>\n                    <p>This is the bee that you just saw.</p>\n                    <img src=\"bees-with-color/bee-A1DF.svg\" width=\"200\">\n                    <p><br>Your bonus pay is unchanged, and remains at $0.84.</p>\n            ","response":0,"trial_type":"html-button-response","trial_index":108,"time_elapsed":316350,"internal_node_id":"0.0-4.0-1.50","subject_id":"613210155c55065e24e31c4b","study_id":"6197b3f67c2b5cd3b6d9596a","session_id":"619be3215eed6421cff40f5e","condition":"contingent","relevant_dimensions":["antennae","legs"],"bee_group":{"antennae":"A","wings":"X","pattern":"X","legs":"F"},"bonus":1.280000000000001},{"rt":796.9000000003725,"stimulus":"bees-with-color/bee-B2SM.svg","response":0,"trial_type":"image-button-response","trial_index":109,"time_elapsed":317148,"internal_node_id":"0.0-4.0-0.51","subject_id":"613210155c55065e24e31c4b","study_id":"6197b3f67c2b5cd3b6d9596a","session_id":"619be3215eed6421cff40f5e","condition":"contingent","relevant_dimensions":["antennae","legs"],"bee_group":{"antennae":"A","wings":"X","pattern":"X","legs":"F"},"action":"harvest","summary":"good-harvest","bonus":1.280000000000001},{"rt":614.5,"stimulus":"\n                    <p><b>Action: <em>harvest</em></b></p>\n                    <p>This is the bee that you just saw.</p>\n                    <img src=\"bees-with-color/bee-B2SM.svg\" width=\"200\">\n                    <p><span class=\"greenText\"><b>Successful harvest!</b></span><br>Your pay has increased by $0.02. Your bonus pay is now $0.86.</p>\n            ","response":0,"trial_type":"html-button-response","trial_index":110,"time_elapsed":317764,"internal_node_id":"0.0-4.0-1.51","subject_id":"613210155c55065e24e31c4b","study_id":"6197b3f67c2b5cd3b6d9596a","session_id":"619be3215eed6421cff40f5e","condition":"contingent","relevant_dimensions":["antennae","legs"],"bee_group":{"antennae":"A","wings":"X","pattern":"X","legs":"F"},"bonus":1.280000000000001},{"rt":1211.8999999994412,"stimulus":"bees-with-color/bee-A1SF.svg","response":1,"trial_type":"image-button-response","trial_index":111,"time_elapsed":318977,"internal_node_id":"0.0-4.0-0.52","subject_id":"613210155c55065e24e31c4b","study_id":"6197b3f67c2b5cd3b6d9596a","session_id":"619be3215eed6421cff40f5e","condition":"contingent","relevant_dimensions":["antennae","legs"],"bee_group":{"antennae":"A","wings":"X","pattern":"X","legs":"F"},"action":"avoid","summary":"good-avoid","bonus":1.280000000000001},{"rt":767.7999999998137,"stimulus":"\n                    <p><b>Action: <em>avoid</em></b></p>\n                    <p>This is the bee that you just saw.</p>\n                    <img src=\"bees-with-color/bee-A1SF.svg\" width=\"200\">\n                    <p><br>Your bonus pay is unchanged, and remains at $0.86.</p>\n            ","response":0,"trial_type":"html-button-response","trial_index":112,"time_elapsed":319747,"internal_node_id":"0.0-4.0-1.52","subject_id":"613210155c55065e24e31c4b","study_id":"6197b3f67c2b5cd3b6d9596a","session_id":"619be3215eed6421cff40f5e","condition":"contingent","relevant_dimensions":["antennae","legs"],"bee_group":{"antennae":"A","wings":"X","pattern":"X","legs":"F"},"bonus":1.280000000000001},{"rt":895.7999999998137,"stimulus":"bees-with-color/bee-B1SM.svg","response":0,"trial_type":"image-button-response","trial_index":113,"time_elapsed":320644,"internal_node_id":"0.0-4.0-0.53","subject_id":"613210155c55065e24e31c4b","study_id":"6197b3f67c2b5cd3b6d9596a","session_id":"619be3215eed6421cff40f5e","condition":"contingent","relevant_dimensions":["antennae","legs"],"bee_group":{"antennae":"A","wings":"X","pattern":"X","legs":"F"},"action":"harvest","summary":"good-harvest","bonus":1.280000000000001},{"rt":619.1999999992549,"stimulus":"\n                    <p><b>Action: <em>harvest</em></b></p>\n                    <p>This is the bee that you just saw.</p>\n                    <img src=\"bees-with-color/bee-B1SM.svg\" width=\"200\">\n                    <p><span class=\"greenText\"><b>Successful harvest!</b></span><br>Your pay has increased by $0.02. Your bonus pay is now $0.88.</p>\n            ","response":0,"trial_type":"html-button-response","trial_index":114,"time_elapsed":321264,"internal_node_id":"0.0-4.0-1.53","subject_id":"613210155c55065e24e31c4b","study_id":"6197b3f67c2b5cd3b6d9596a","session_id":"619be3215eed6421cff40f5e","condition":"contingent","relevant_dimensions":["antennae","legs"],"bee_group":{"antennae":"A","wings":"X","pattern":"X","legs":"F"},"bonus":1.280000000000001},{"rt":1335,"stimulus":"bees-with-color/bee-B2DM.svg","response":0,"trial_type":"image-button-response","trial_index":115,"time_elapsed":322601,"internal_node_id":"0.0-4.0-0.54","subject_id":"613210155c55065e24e31c4b","study_id":"6197b3f67c2b5cd3b6d9596a","session_id":"619be3215eed6421cff40f5e","condition":"contingent","relevant_dimensions":["antennae","legs"],"bee_group":{"antennae":"A","wings":"X","pattern":"X","legs":"F"},"action":"harvest","summary":"good-harvest","bonus":1.280000000000001},{"rt":657.7999999998137,"stimulus":"\n                    <p><b>Action: <em>harvest</em></b></p>\n                    <p>This is the bee that you just saw.</p>\n                    <img src=\"bees-with-color/bee-B2DM.svg\" width=\"200\">\n                    <p><span class=\"greenText\"><b>Successful harvest!</b></span><br>Your pay has increased by $0.02. Your bonus pay is now $0.90.</p>\n            ","response":0,"trial_type":"html-button-response","trial_index":116,"time_elapsed":323260,"internal_node_id":"0.0-4.0-1.54","subject_id":"613210155c55065e24e31c4b","study_id":"6197b3f67c2b5cd3b6d9596a","session_id":"619be3215eed6421cff40f5e","condition":"contingent","relevant_dimensions":["antennae","legs"],"bee_group":{"antennae":"A","wings":"X","pattern":"X","legs":"F"},"bonus":1.280000000000001},{"rt":1054.1000000005588,"stimulus":"bees-with-color/bee-B1DM.svg","response":0,"trial_type":"image-button-response","trial_index":117,"time_elapsed":324316,"internal_node_id":"0.0-4.0-0.55","subject_id":"613210155c55065e24e31c4b","study_id":"6197b3f67c2b5cd3b6d9596a","session_id":"619be3215eed6421cff40f5e","condition":"contingent","relevant_dimensions":["antennae","legs"],"bee_group":{"antennae":"A","wings":"X","pattern":"X","legs":"F"},"action":"harvest","summary":"good-harvest","bonus":1.280000000000001},{"rt":695.5,"stimulus":"\n                    <p><b>Action: <em>harvest</em></b></p>\n                    <p>This is the bee that you just saw.</p>\n                    <img src=\"bees-with-color/bee-B1DM.svg\" width=\"200\">\n                    <p><span class=\"greenText\"><b>Successful harvest!</b></span><br>Your pay has increased by $0.02. Your bonus pay is now $0.92.</p>\n            ","response":0,"trial_type":"html-button-response","trial_index":118,"time_elapsed":325013,"internal_node_id":"0.0-4.0-1.55","subject_id":"613210155c55065e24e31c4b","study_id":"6197b3f67c2b5cd3b6d9596a","session_id":"619be3215eed6421cff40f5e","condition":"contingent","relevant_dimensions":["antennae","legs"],"bee_group":{"antennae":"A","wings":"X","pattern":"X","legs":"F"},"bonus":1.280000000000001},{"rt":1148.4000000003725,"stimulus":"bees-with-color/bee-B1SF.svg","response":1,"trial_type":"image-button-response","trial_index":119,"time_elapsed":326163,"internal_node_id":"0.0-4.0-0.56","subject_id":"613210155c55065e24e31c4b","study_id":"6197b3f67c2b5cd3b6d9596a","session_id":"619be3215eed6421cff40f5e","condition":"contingent","relevant_dimensions":["antennae","legs"],"bee_group":{"antennae":"A","wings":"X","pattern":"X","legs":"F"},"action":"avoid","summary":"bad-avoid","bonus":1.280000000000001},{"rt":795,"stimulus":"\n                    <p><b>Action: <em>avoid</em></b></p>\n                    <p>This is the bee that you just saw.</p>\n                    <img src=\"bees-with-color/bee-B1SF.svg\" width=\"200\">\n                    <p><br>Your bonus pay is unchanged, and remains at $0.92.</p>\n            ","response":0,"trial_type":"html-button-response","trial_index":120,"time_elapsed":326959,"internal_node_id":"0.0-4.0-1.56","subject_id":"613210155c55065e24e31c4b","study_id":"6197b3f67c2b5cd3b6d9596a","session_id":"619be3215eed6421cff40f5e","condition":"contingent","relevant_dimensions":["antennae","legs"],"bee_group":{"antennae":"A","wings":"X","pattern":"X","legs":"F"},"bonus":1.280000000000001},{"rt":986.1000000005588,"stimulus":"bees-with-color/bee-A2DF.svg","response":1,"trial_type":"image-button-response","trial_index":121,"time_elapsed":327946,"internal_node_id":"0.0-4.0-0.57","subject_id":"613210155c55065e24e31c4b","study_id":"6197b3f67c2b5cd3b6d9596a","session_id":"619be3215eed6421cff40f5e","condition":"contingent","relevant_dimensions":["antennae","legs"],"bee_group":{"antennae":"A","wings":"X","pattern":"X","legs":"F"},"action":"avoid","summary":"good-avoid","bonus":1.280000000000001},{"rt":517.0999999996275,"stimulus":"\n                    <p><b>Action: <em>avoid</em></b></p>\n                    <p>This is the bee that you just saw.</p>\n                    <img src=\"bees-with-color/bee-A2DF.svg\" width=\"200\">\n                    <p><br>Your bonus pay is unchanged, and remains at $0.92.</p>\n            ","response":0,"trial_type":"html-button-response","trial_index":122,"time_elapsed":328465,"internal_node_id":"0.0-4.0-1.57","subject_id":"613210155c55065e24e31c4b","study_id":"6197b3f67c2b5cd3b6d9596a","session_id":"619be3215eed6421cff40f5e","condition":"contingent","relevant_dimensions":["antennae","legs"],"bee_group":{"antennae":"A","wings":"X","pattern":"X","legs":"F"},"bonus":1.280000000000001},{"rt":979.9000000003725,"stimulus":"bees-with-color/bee-A2SF.svg","response":1,"trial_type":"image-button-response","trial_index":123,"time_elapsed":329445,"internal_node_id":"0.0-4.0-0.58","subject_id":"613210155c55065e24e31c4b","study_id":"6197b3f67c2b5cd3b6d9596a","session_id":"619be3215eed6421cff40f5e","condition":"contingent","relevant_dimensions":["antennae","legs"],"bee_group":{"antennae":"A","wings":"X","pattern":"X","legs":"F"},"action":"avoid","summary":"good-avoid","bonus":1.280000000000001},{"rt":536.9000000003725,"stimulus":"\n                    <p><b>Action: <em>avoid</em></b></p>\n                    <p>This is the bee that you just saw.</p>\n                    <img src=\"bees-with-color/bee-A2SF.svg\" width=\"200\">\n                    <p><br>Your bonus pay is unchanged, and remains at $0.92.</p>\n            ","response":0,"trial_type":"html-button-response","trial_index":124,"time_elapsed":329984,"internal_node_id":"0.0-4.0-1.58","subject_id":"613210155c55065e24e31c4b","study_id":"6197b3f67c2b5cd3b6d9596a","session_id":"619be3215eed6421cff40f5e","condition":"contingent","relevant_dimensions":["antennae","legs"],"bee_group":{"antennae":"A","wings":"X","pattern":"X","legs":"F"},"bonus":1.280000000000001},{"rt":842,"stimulus":"bees-with-color/bee-A2SM.svg","response":0,"trial_type":"image-button-response","trial_index":125,"time_elapsed":330827,"internal_node_id":"0.0-4.0-0.59","subject_id":"613210155c55065e24e31c4b","study_id":"6197b3f67c2b5cd3b6d9596a","session_id":"619be3215eed6421cff40f5e","condition":"contingent","relevant_dimensions":["antennae","legs"],"bee_group":{"antennae":"A","wings":"X","pattern":"X","legs":"F"},"action":"harvest","summary":"good-harvest","bonus":1.280000000000001},{"rt":685.8999999994412,"stimulus":"\n                    <p><b>Action: <em>harvest</em></b></p>\n                    <p>This is the bee that you just saw.</p>\n                    <img src=\"bees-with-color/bee-A2SM.svg\" width=\"200\">\n                    <p><span class=\"greenText\"><b>Successful harvest!</b></span><br>Your pay has increased by $0.02. Your bonus pay is now $0.94.</p>\n            ","response":0,"trial_type":"html-button-response","trial_index":126,"time_elapsed":331514,"internal_node_id":"0.0-4.0-1.59","subject_id":"613210155c55065e24e31c4b","study_id":"6197b3f67c2b5cd3b6d9596a","session_id":"619be3215eed6421cff40f5e","condition":"contingent","relevant_dimensions":["antennae","legs"],"bee_group":{"antennae":"A","wings":"X","pattern":"X","legs":"F"},"bonus":1.280000000000001},{"rt":1515.5,"stimulus":"bees-with-color/bee-B2SF.svg","response":1,"trial_type":"image-button-response","trial_index":127,"time_elapsed":333030,"internal_node_id":"0.0-4.0-0.60","subject_id":"613210155c55065e24e31c4b","study_id":"6197b3f67c2b5cd3b6d9596a","session_id":"619be3215eed6421cff40f5e","condition":"contingent","relevant_dimensions":["antennae","legs"],"bee_group":{"antennae":"A","wings":"X","pattern":"X","legs":"F"},"action":"avoid","summary":"bad-avoid","bonus":1.280000000000001},{"rt":622.4000000003725,"stimulus":"\n                    <p><b>Action: <em>avoid</em></b></p>\n                    <p>This is the bee that you just saw.</p>\n                    <img src=\"bees-with-color/bee-B2SF.svg\" width=\"200\">\n                    <p><br>Your bonus pay is unchanged, and remains at $0.94.</p>\n            ","response":0,"trial_type":"html-button-response","trial_index":128,"time_elapsed":333654,"internal_node_id":"0.0-4.0-1.60","subject_id":"613210155c55065e24e31c4b","study_id":"6197b3f67c2b5cd3b6d9596a","session_id":"619be3215eed6421cff40f5e","condition":"contingent","relevant_dimensions":["antennae","legs"],"bee_group":{"antennae":"A","wings":"X","pattern":"X","legs":"F"},"bonus":1.280000000000001},{"rt":1402.7999999998137,"stimulus":"bees-with-color/bee-B2DF.svg","response":1,"trial_type":"image-button-response","trial_index":129,"time_elapsed":335058,"internal_node_id":"0.0-4.0-0.61","subject_id":"613210155c55065e24e31c4b","study_id":"6197b3f67c2b5cd3b6d9596a","session_id":"619be3215eed6421cff40f5e","condition":"contingent","relevant_dimensions":["antennae","legs"],"bee_group":{"antennae":"A","wings":"X","pattern":"X","legs":"F"},"action":"avoid","summary":"bad-avoid","bonus":1.280000000000001},{"rt":517.1000000005588,"stimulus":"\n                    <p><b>Action: <em>avoid</em></b></p>\n                    <p>This is the bee that you just saw.</p>\n                    <img src=\"bees-with-color/bee-B2DF.svg\" width=\"200\">\n                    <p><br>Your bonus pay is unchanged, and remains at $0.94.</p>\n            ","response":0,"trial_type":"html-button-response","trial_index":130,"time_elapsed":335577,"internal_node_id":"0.0-4.0-1.61","subject_id":"613210155c55065e24e31c4b","study_id":"6197b3f67c2b5cd3b6d9596a","session_id":"619be3215eed6421cff40f5e","condition":"contingent","relevant_dimensions":["antennae","legs"],"bee_group":{"antennae":"A","wings":"X","pattern":"X","legs":"F"},"bonus":1.280000000000001},{"rt":1059.7999999998137,"stimulus":"bees-with-color/bee-A1SM.svg","response":0,"trial_type":"image-button-response","trial_index":131,"time_elapsed":336638,"internal_node_id":"0.0-4.0-0.62","subject_id":"613210155c55065e24e31c4b","study_id":"6197b3f67c2b5cd3b6d9596a","session_id":"619be3215eed6421cff40f5e","condition":"contingent","relevant_dimensions":["antennae","legs"],"bee_group":{"antennae":"A","wings":"X","pattern":"X","legs":"F"},"action":"harvest","summary":"good-harvest","bonus":1.280000000000001},{"rt":863.5999999996275,"stimulus":"\n                    <p><b>Action: <em>harvest</em></b></p>\n                    <p>This is the bee that you just saw.</p>\n                    <img src=\"bees-with-color/bee-A1SM.svg\" width=\"200\">\n                    <p><span class=\"greenText\"><b>Successful harvest!</b></span><br>Your pay has increased by $0.02. Your bonus pay is now $0.96.</p>\n            ","response":0,"trial_type":"html-button-response","trial_index":132,"time_elapsed":337503,"internal_node_id":"0.0-4.0-1.62","subject_id":"613210155c55065e24e31c4b","study_id":"6197b3f67c2b5cd3b6d9596a","session_id":"619be3215eed6421cff40f5e","condition":"contingent","relevant_dimensions":["antennae","legs"],"bee_group":{"antennae":"A","wings":"X","pattern":"X","legs":"F"},"bonus":1.280000000000001},{"rt":2124.5,"stimulus":"bees-with-color/bee-B1DF.svg","response":1,"trial_type":"image-button-response","trial_index":133,"time_elapsed":339629,"internal_node_id":"0.0-4.0-0.63","subject_id":"613210155c55065e24e31c4b","study_id":"6197b3f67c2b5cd3b6d9596a","session_id":"619be3215eed6421cff40f5e","condition":"contingent","relevant_dimensions":["antennae","legs"],"bee_group":{"antennae":"A","wings":"X","pattern":"X","legs":"F"},"action":"avoid","summary":"bad-avoid","bonus":1.280000000000001},{"rt":728.7000000001863,"stimulus":"\n                    <p><b>Action: <em>avoid</em></b></p>\n                    <p>This is the bee that you just saw.</p>\n                    <img src=\"bees-with-color/bee-B1DF.svg\" width=\"200\">\n                    <p><br>Your bonus pay is unchanged, and remains at $0.96.</p>\n            ","response":0,"trial_type":"html-button-response","trial_index":134,"time_elapsed":340359,"internal_node_id":"0.0-4.0-1.63","subject_id":"613210155c55065e24e31c4b","study_id":"6197b3f67c2b5cd3b6d9596a","session_id":"619be3215eed6421cff40f5e","condition":"contingent","relevant_dimensions":["antennae","legs"],"bee_group":{"antennae":"A","wings":"X","pattern":"X","legs":"F"},"bonus":1.280000000000001},{"rt":7605.199999999255,"stimulus":"You have completed the first part of this experiment.<br><br>You will now begin a shorter second part, in which you will receive no feedback.<br>The same rules regarding bonus pay apply.<br><br>Press any key to begin.","response":" ","trial_type":"html-keyboard-response","trial_index":135,"time_elapsed":347965,"internal_node_id":"0.0-5.0","subject_id":"613210155c55065e24e31c4b","study_id":"6197b3f67c2b5cd3b6d9596a","session_id":"619be3215eed6421cff40f5e","condition":"contingent","relevant_dimensions":["antennae","legs"],"bee_group":{"antennae":"A","wings":"X","pattern":"X","legs":"F"},"bonus":1.280000000000001},{"rt":2679.800000000745,"stimulus":"bees-with-color/bee-A2DM.svg","response":0,"trial_type":"image-button-response","trial_index":136,"time_elapsed":350928,"internal_node_id":"0.0-6.0-0.0","subject_id":"613210155c55065e24e31c4b","study_id":"6197b3f67c2b5cd3b6d9596a","session_id":"619be3215eed6421cff40f5e","condition":"contingent","relevant_dimensions":["antennae","legs"],"bee_group":{"antennae":"A","wings":"X","pattern":"X","legs":"F"},"bonus":1.280000000000001},{"rt":2477.0999999996275,"stimulus":"bees-with-color/bee-A2DF.svg","response":1,"trial_type":"image-button-response","trial_index":137,"time_elapsed":353407,"internal_node_id":"0.0-6.0-0.1","subject_id":"613210155c55065e24e31c4b","study_id":"6197b3f67c2b5cd3b6d9596a","session_id":"619be3215eed6421cff40f5e","condition":"contingent","relevant_dimensions":["antennae","legs"],"bee_group":{"antennae":"A","wings":"X","pattern":"X","legs":"F"},"bonus":1.280000000000001},{"rt":906.4000000003725,"stimulus":"bees-with-color/bee-A2SM.svg","response":0,"trial_type":"image-button-response","trial_index":138,"time_elapsed":354315,"internal_node_id":"0.0-6.0-0.2","subject_id":"613210155c55065e24e31c4b","study_id":"6197b3f67c2b5cd3b6d9596a","session_id":"619be3215eed6421cff40f5e","condition":"contingent","relevant_dimensions":["antennae","legs"],"bee_group":{"antennae":"A","wings":"X","pattern":"X","legs":"F"},"bonus":1.280000000000001},{"rt":878,"stimulus":"bees-with-color/bee-A2SF.svg","response":1,"trial_type":"image-button-response","trial_index":139,"time_elapsed":355196,"internal_node_id":"0.0-6.0-0.3","subject_id":"613210155c55065e24e31c4b","study_id":"6197b3f67c2b5cd3b6d9596a","session_id":"619be3215eed6421cff40f5e","condition":"contingent","relevant_dimensions":["antennae","legs"],"bee_group":{"antennae":"A","wings":"X","pattern":"X","legs":"F"},"bonus":1.280000000000001},{"rt":849.0999999996275,"stimulus":"bees-with-color/bee-A1SM.svg","response":0,"trial_type":"image-button-response","trial_index":140,"time_elapsed":356047,"internal_node_id":"0.0-6.0-0.4","subject_id":"613210155c55065e24e31c4b","study_id":"6197b3f67c2b5cd3b6d9596a","session_id":"619be3215eed6421cff40f5e","condition":"contingent","relevant_dimensions":["antennae","legs"],"bee_group":{"antennae":"A","wings":"X","pattern":"X","legs":"F"},"bonus":1.280000000000001},{"rt":934.3999999994412,"stimulus":"bees-with-color/bee-B2SF.svg","response":1,"trial_type":"image-button-response","trial_index":141,"time_elapsed":356983,"internal_node_id":"0.0-6.0-0.5","subject_id":"613210155c55065e24e31c4b","study_id":"6197b3f67c2b5cd3b6d9596a","session_id":"619be3215eed6421cff40f5e","condition":"contingent","relevant_dimensions":["antennae","legs"],"bee_group":{"antennae":"A","wings":"X","pattern":"X","legs":"F"},"bonus":1.280000000000001},{"rt":2657.5999999996275,"stimulus":"bees-with-color/bee-B1DF.svg","response":1,"trial_type":"image-button-response","trial_index":142,"time_elapsed":359642,"internal_node_id":"0.0-6.0-0.6","subject_id":"613210155c55065e24e31c4b","study_id":"6197b3f67c2b5cd3b6d9596a","session_id":"619be3215eed6421cff40f5e","condition":"contingent","relevant_dimensions":["antennae","legs"],"bee_group":{"antennae":"A","wings":"X","pattern":"X","legs":"F"},"bonus":1.280000000000001},{"rt":830.0999999996275,"stimulus":"bees-with-color/bee-B1SM.svg","response":0,"trial_type":"image-button-response","trial_index":143,"time_elapsed":360474,"internal_node_id":"0.0-6.0-0.7","subject_id":"613210155c55065e24e31c4b","study_id":"6197b3f67c2b5cd3b6d9596a","session_id":"619be3215eed6421cff40f5e","condition":"contingent","relevant_dimensions":["antennae","legs"],"bee_group":{"antennae":"A","wings":"X","pattern":"X","legs":"F"},"bonus":1.280000000000001},{"rt":773.4000000003725,"stimulus":"bees-with-color/bee-B2DM.svg","response":0,"trial_type":"image-button-response","trial_index":144,"time_elapsed":361250,"internal_node_id":"0.0-6.0-0.8","subject_id":"613210155c55065e24e31c4b","study_id":"6197b3f67c2b5cd3b6d9596a","session_id":"619be3215eed6421cff40f5e","condition":"contingent","relevant_dimensions":["antennae","legs"],"bee_group":{"antennae":"A","wings":"X","pattern":"X","legs":"F"},"bonus":1.280000000000001},{"rt":698.3999999994412,"stimulus":"bees-with-color/bee-B1DM.svg","response":0,"trial_type":"image-button-response","trial_index":145,"time_elapsed":361950,"internal_node_id":"0.0-6.0-0.9","subject_id":"613210155c55065e24e31c4b","study_id":"6197b3f67c2b5cd3b6d9596a","session_id":"619be3215eed6421cff40f5e","condition":"contingent","relevant_dimensions":["antennae","legs"],"bee_group":{"antennae":"A","wings":"X","pattern":"X","legs":"F"},"bonus":1.280000000000001},{"rt":674.9000000003725,"stimulus":"bees-with-color/bee-A1DM.svg","response":0,"trial_type":"image-button-response","trial_index":146,"time_elapsed":362627,"internal_node_id":"0.0-6.0-0.10","subject_id":"613210155c55065e24e31c4b","study_id":"6197b3f67c2b5cd3b6d9596a","session_id":"619be3215eed6421cff40f5e","condition":"contingent","relevant_dimensions":["antennae","legs"],"bee_group":{"antennae":"A","wings":"X","pattern":"X","legs":"F"},"bonus":1.280000000000001},{"rt":2557.5999999996275,"stimulus":"bees-with-color/bee-A1SF.svg","response":1,"trial_type":"image-button-response","trial_index":147,"time_elapsed":365187,"internal_node_id":"0.0-6.0-0.11","subject_id":"613210155c55065e24e31c4b","study_id":"6197b3f67c2b5cd3b6d9596a","session_id":"619be3215eed6421cff40f5e","condition":"contingent","relevant_dimensions":["antennae","legs"],"bee_group":{"antennae":"A","wings":"X","pattern":"X","legs":"F"},"bonus":1.280000000000001},{"rt":899.4000000003725,"stimulus":"bees-with-color/bee-B2DF.svg","response":1,"trial_type":"image-button-response","trial_index":148,"time_elapsed":366089,"internal_node_id":"0.0-6.0-0.12","subject_id":"613210155c55065e24e31c4b","study_id":"6197b3f67c2b5cd3b6d9596a","session_id":"619be3215eed6421cff40f5e","condition":"contingent","relevant_dimensions":["antennae","legs"],"bee_group":{"antennae":"A","wings":"X","pattern":"X","legs":"F"},"bonus":1.280000000000001},{"rt":562,"stimulus":"bees-with-color/bee-B1SF.svg","response":1,"trial_type":"image-button-response","trial_index":149,"time_elapsed":366653,"internal_node_id":"0.0-6.0-0.13","subject_id":"613210155c55065e24e31c4b","study_id":"6197b3f67c2b5cd3b6d9596a","session_id":"619be3215eed6421cff40f5e","condition":"contingent","relevant_dimensions":["antennae","legs"],"bee_group":{"antennae":"A","wings":"X","pattern":"X","legs":"F"},"bonus":1.280000000000001},{"rt":620.7999999998137,"stimulus":"bees-with-color/bee-A1DF.svg","response":1,"trial_type":"image-button-response","trial_index":150,"time_elapsed":367275,"internal_node_id":"0.0-6.0-0.14","subject_id":"613210155c55065e24e31c4b","study_id":"6197b3f67c2b5cd3b6d9596a","session_id":"619be3215eed6421cff40f5e","condition":"contingent","relevant_dimensions":["antennae","legs"],"bee_group":{"antennae":"A","wings":"X","pattern":"X","legs":"F"},"bonus":1.280000000000001},{"rt":1079.9000000003725,"stimulus":"bees-with-color/bee-B2SM.svg","response":0,"trial_type":"image-button-response","trial_index":151,"time_elapsed":368357,"internal_node_id":"0.0-6.0-0.15","subject_id":"613210155c55065e24e31c4b","study_id":"6197b3f67c2b5cd3b6d9596a","session_id":"619be3215eed6421cff40f5e","condition":"contingent","relevant_dimensions":["antennae","legs"],"bee_group":{"antennae":"A","wings":"X","pattern":"X","legs":"F"},"bonus":1.280000000000001},{"rt":1503.5999999996275,"stimulus":"bees-with-color/bee-A2DF.svg","response":1,"trial_type":"image-button-response","trial_index":152,"time_elapsed":369862,"internal_node_id":"0.0-6.0-0.16","subject_id":"613210155c55065e24e31c4b","study_id":"6197b3f67c2b5cd3b6d9596a","session_id":"619be3215eed6421cff40f5e","condition":"contingent","relevant_dimensions":["antennae","legs"],"bee_group":{"antennae":"A","wings":"X","pattern":"X","legs":"F"},"bonus":1.280000000000001},{"rt":686.0999999996275,"stimulus":"bees-with-color/bee-B1SF.svg","response":1,"trial_type":"image-button-response","trial_index":153,"time_elapsed":370550,"internal_node_id":"0.0-6.0-0.17","subject_id":"613210155c55065e24e31c4b","study_id":"6197b3f67c2b5cd3b6d9596a","session_id":"619be3215eed6421cff40f5e","condition":"contingent","relevant_dimensions":["antennae","legs"],"bee_group":{"antennae":"A","wings":"X","pattern":"X","legs":"F"},"bonus":1.280000000000001},{"rt":894.7000000001863,"stimulus":"bees-with-color/bee-A2SM.svg","response":0,"trial_type":"image-button-response","trial_index":154,"time_elapsed":371446,"internal_node_id":"0.0-6.0-0.18","subject_id":"613210155c55065e24e31c4b","study_id":"6197b3f67c2b5cd3b6d9596a","session_id":"619be3215eed6421cff40f5e","condition":"contingent","relevant_dimensions":["antennae","legs"],"bee_group":{"antennae":"A","wings":"X","pattern":"X","legs":"F"},"bonus":1.280000000000001},{"rt":544.5,"stimulus":"bees-with-color/bee-A2DM.svg","response":0,"trial_type":"image-button-response","trial_index":155,"time_elapsed":371992,"internal_node_id":"0.0-6.0-0.19","subject_id":"613210155c55065e24e31c4b","study_id":"6197b3f67c2b5cd3b6d9596a","session_id":"619be3215eed6421cff40f5e","condition":"contingent","relevant_dimensions":["antennae","legs"],"bee_group":{"antennae":"A","wings":"X","pattern":"X","legs":"F"},"bonus":1.280000000000001},{"rt":825.2999999998137,"stimulus":"bees-with-color/bee-B1SM.svg","response":0,"trial_type":"image-button-response","trial_index":156,"time_elapsed":372819,"internal_node_id":"0.0-6.0-0.20","subject_id":"613210155c55065e24e31c4b","study_id":"6197b3f67c2b5cd3b6d9596a","session_id":"619be3215eed6421cff40f5e","condition":"contingent","relevant_dimensions":["antennae","legs"],"bee_group":{"antennae":"A","wings":"X","pattern":"X","legs":"F"},"bonus":1.280000000000001},{"rt":710.5999999996275,"stimulus":"bees-with-color/bee-A1SM.svg","response":0,"trial_type":"image-button-response","trial_index":157,"time_elapsed":373531,"internal_node_id":"0.0-6.0-0.21","subject_id":"613210155c55065e24e31c4b","study_id":"6197b3f67c2b5cd3b6d9596a","session_id":"619be3215eed6421cff40f5e","condition":"contingent","relevant_dimensions":["antennae","legs"],"bee_group":{"antennae":"A","wings":"X","pattern":"X","legs":"F"},"bonus":1.280000000000001},{"rt":657.2000000001863,"stimulus":"bees-with-color/bee-A1DM.svg","response":0,"trial_type":"image-button-response","trial_index":158,"time_elapsed":374190,"internal_node_id":"0.0-6.0-0.22","subject_id":"613210155c55065e24e31c4b","study_id":"6197b3f67c2b5cd3b6d9596a","session_id":"619be3215eed6421cff40f5e","condition":"contingent","relevant_dimensions":["antennae","legs"],"bee_group":{"antennae":"A","wings":"X","pattern":"X","legs":"F"},"bonus":1.280000000000001},{"rt":852.1000000005588,"stimulus":"bees-with-color/bee-A1DF.svg","response":1,"trial_type":"image-button-response","trial_index":159,"time_elapsed":375044,"internal_node_id":"0.0-6.0-0.23","subject_id":"613210155c55065e24e31c4b","study_id":"6197b3f67c2b5cd3b6d9596a","session_id":"619be3215eed6421cff40f5e","condition":"contingent","relevant_dimensions":["antennae","legs"],"bee_group":{"antennae":"A","wings":"X","pattern":"X","legs":"F"},"bonus":1.280000000000001},{"rt":668.2000000001863,"stimulus":"bees-with-color/bee-B1DF.svg","response":1,"trial_type":"image-button-response","trial_index":160,"time_elapsed":375713,"internal_node_id":"0.0-6.0-0.24","subject_id":"613210155c55065e24e31c4b","study_id":"6197b3f67c2b5cd3b6d9596a","session_id":"619be3215eed6421cff40f5e","condition":"contingent","relevant_dimensions":["antennae","legs"],"bee_group":{"antennae":"A","wings":"X","pattern":"X","legs":"F"},"bonus":1.280000000000001},{"rt":629,"stimulus":"bees-with-color/bee-A1SF.svg","response":1,"trial_type":"image-button-response","trial_index":161,"time_elapsed":376344,"internal_node_id":"0.0-6.0-0.25","subject_id":"613210155c55065e24e31c4b","study_id":"6197b3f67c2b5cd3b6d9596a","session_id":"619be3215eed6421cff40f5e","condition":"contingent","relevant_dimensions":["antennae","legs"],"bee_group":{"antennae":"A","wings":"X","pattern":"X","legs":"F"},"bonus":1.280000000000001},{"rt":659.7000000001863,"stimulus":"bees-with-color/bee-B2DF.svg","response":1,"trial_type":"image-button-response","trial_index":162,"time_elapsed":377005,"internal_node_id":"0.0-6.0-0.26","subject_id":"613210155c55065e24e31c4b","study_id":"6197b3f67c2b5cd3b6d9596a","session_id":"619be3215eed6421cff40f5e","condition":"contingent","relevant_dimensions":["antennae","legs"],"bee_group":{"antennae":"A","wings":"X","pattern":"X","legs":"F"},"bonus":1.280000000000001},{"rt":581.6999999992549,"stimulus":"bees-with-color/bee-A2SF.svg","response":1,"trial_type":"image-button-response","trial_index":163,"time_elapsed":377588,"internal_node_id":"0.0-6.0-0.27","subject_id":"613210155c55065e24e31c4b","study_id":"6197b3f67c2b5cd3b6d9596a","session_id":"619be3215eed6421cff40f5e","condition":"contingent","relevant_dimensions":["antennae","legs"],"bee_group":{"antennae":"A","wings":"X","pattern":"X","legs":"F"},"bonus":1.280000000000001},{"rt":848,"stimulus":"bees-with-color/bee-B2SM.svg","response":0,"trial_type":"image-button-response","trial_index":164,"time_elapsed":378438,"internal_node_id":"0.0-6.0-0.28","subject_id":"613210155c55065e24e31c4b","study_id":"6197b3f67c2b5cd3b6d9596a","session_id":"619be3215eed6421cff40f5e","condition":"contingent","relevant_dimensions":["antennae","legs"],"bee_group":{"antennae":"A","wings":"X","patt