[{"success":true,"trial_type":"fullscreen","trial_index":0,"time_elapsed":5451,"internal_node_id":"0.0-0.0","subject_id":"5f07329506cf5e0f6c60a48b","study_id":"60edd13110225f80f9f3709b","session_id":"6196c86781eb0647e24323bb","condition":"full-information","relevant_dimensions":["pattern","legs"],"bee_group":{"antennae":"X","wings":"X","pattern":"D","legs":"F"},"bonus":1.7800000000000011},{"success":true,"timeout":false,"failed_images":[],"failed_audio":[],"failed_video":[],"trial_type":"preload","trial_index":1,"time_elapsed":7932,"internal_node_id":"0.0-1.0","subject_id":"5f07329506cf5e0f6c60a48b","study_id":"60edd13110225f80f9f3709b","session_id":"6196c86781eb0647e24323bb","condition":"full-information","relevant_dimensions":["pattern","legs"],"bee_group":{"antennae":"X","wings":"X","pattern":"D","legs":"F"},"bonus":1.7800000000000011},{"rt":18983.10000000149,"stimulus":"Welcome! Press any key to begin.","response":" ","trial_type":"html-keyboard-response","trial_index":2,"time_elapsed":26916,"internal_node_id":"0.0-2.0","subject_id":"5f07329506cf5e0f6c60a48b","study_id":"60edd13110225f80f9f3709b","session_id":"6196c86781eb0647e24323bb","condition":"full-information","relevant_dimensions":["pattern","legs"],"bee_group":{"antennae":"X","wings":"X","pattern":"D","legs":"F"},"bonus":1.7800000000000011},{"view_history":[{"page_index":0,"viewing_time":8043.39999999851},{"page_index":1,"viewing_time":16369.900000002235},{"page_index":2,"viewing_time":13996},{"page_index":3,"viewing_time":22674},{"page_index":4,"viewing_time":9265.89999999851},{"page_index":5,"viewing_time":18418.10000000149},{"page_index":6,"viewing_time":11933.800000000745},{"page_index":7,"viewing_time":6786.39999999851},{"page_index":8,"viewing_time":26363.5},{"page_index":9,"viewing_time":23880},{"page_index":10,"viewing_time":15934},{"page_index":11,"viewing_time":11407.89999999851},{"page_index":12,"viewing_time":15199.800000000745},{"page_index":13,"viewing_time":2816.199999999255},{"page_index":14,"viewing_time":2239.900000002235}],"rt":205329.30000000075,"trial_type":"instructions","trial_index":3,"time_elapsed":232246,"internal_node_id":"0.0-3.0-0.0","subject_id":"5f07329506cf5e0f6c60a48b","study_id":"60edd13110225f80f9f3709b","session_id":"6196c86781eb0647e24323bb","condition":"full-information","relevant_dimensions":["pattern","legs"],"bee_group":{"antennae":"X","wings":"X","pattern":"D","legs":"F"},"bonus":1.7800000000000011},{"rt":21145.39999999851,"response":{"Q0":["Two or six legs","Stripes or spots on body","Single or double wings","Antennae or no antennae"]},"question_order":[0],"trial_type":"survey-multi-select","trial_index":4,"time_elapsed":253397,"internal_node_id":"0.0-3.0-1.0","subject_id":"5f07329506cf5e0f6c60a48b","study_id":"60edd13110225f80f9f3709b","session_id":"6196c86781eb0647e24323bb","condition":"full-information","relevant_dimensions":["pattern","legs"],"bee_group":{"antennae":"X","wings":"X","pattern":"D","legs":"F"},"correct":true,"bonus":1.7800000000000011},{"rt":39480.900000002235,"response":{"Q1":"No.","Q2":"Based on the four features of the bee.","Q3":"You learn if it was friendly or dangerous, but do not alter your bonus."},"question_order":[0,1,2],"trial_type":"survey-multi-choice","trial_index":5,"time_elapsed":292883,"internal_node_id":"0.0-3.0-2.0","subject_id":"5f07329506cf5e0f6c60a48b","study_id":"60edd13110225f80f9f3709b","session_id":"6196c86781eb0647e24323bb","condition":"full-information","relevant_dimensions":["pattern","legs"],"bee_group":{"antennae":"X","wings":"X","pattern":"D","legs":"F"},"correct":true,"bonus":1.7800000000000011},{"rt":4868.70000000298,"stimulus":"<p>Congrats, you got everything right<br>When you're ready, click the button below to continue to the experiment.</p>","response":0,"trial_type":"html-button-response","trial_index":6,"time_elapsed":297758,"internal_node_id":"0.0-3.0-3.0","subject_id":"5f07329506cf5e0f6c60a48b","study_id":"60edd13110225f80f9f3709b","session_id":"6196c86781eb0647e24323bb","condition":"full-information","relevant_dimensions":["pattern","legs"],"bee_group":{"antennae":"X","wings":"X","pattern":"D","legs":"F"},"bonus":1.7800000000000011},{"rt":3953.10000000149,"stimulus":"bees-with-color/bee-B1SF.svg","response":1,"trial_type":"image-button-response","trial_index":7,"time_elapsed":301716,"internal_node_id":"0.0-4.0-0.0","subject_id":"5f07329506cf5e0f6c60a48b","study_id":"60edd13110225f80f9f3709b","session_id":"6196c86781eb0647e24323bb","condition":"full-information","relevant_dimensions":["pattern","legs"],"bee_group":{"antennae":"X","wings":"X","pattern":"D","legs":"F"},"action":"avoid","summary":"bad-avoid","bonus":1.7800000000000011},{"rt":35382.5,"stimulus":"\n                    <p><b>Action: <em>avoid</em></b></p>\n                    <p>This is the bee that you just saw.</p>\n                    <img src=\"bees-with-color/bee-B1SF.svg\" width=\"200\">\n                    <p><span class=\"redText\">Bad choice,</span> the bee was friendly.<br>Your bonus pay is unchanged, and remains at $0.54.</p>\n            ","response":0,"trial_type":"html-button-response","trial_index":8,"time_elapsed":337102,"internal_node_id":"0.0-4.0-1.0","subject_id":"5f07329506cf5e0f6c60a48b","study_id":"60edd13110225f80f9f3709b","session_id":"6196c86781eb0647e24323bb","condition":"full-information","relevant_dimensions":["pattern","legs"],"bee_group":{"antennae":"X","wings":"X","pattern":"D","legs":"F"},"bonus":1.7800000000000011},{"rt":5230.79999999702,"stimulus":"bees-with-color/bee-B2DM.svg","response":1,"trial_type":"image-button-response","trial_index":9,"time_elapsed":342336,"internal_node_id":"0.0-4.0-0.1","subject_id":"5f07329506cf5e0f6c60a48b","study_id":"60edd13110225f80f9f3709b","session_id":"6196c86781eb0647e24323bb","condition":"full-information","relevant_dimensions":["pattern","legs"],"bee_group":{"antennae":"X","wings":"X","pattern":"D","legs":"F"},"action":"avoid","summary":"bad-avoid","bonus":1.7800000000000011},{"rt":24657.60000000149,"stimulus":"\n                    <p><b>Action: <em>avoid</em></b></p>\n                    <p>This is the bee that you just saw.</p>\n                    <img src=\"bees-with-color/bee-B2DM.svg\" width=\"200\">\n                    <p><span class=\"redText\">Bad choice,</span> the bee was friendly.<br>Your bonus pay is unchanged, and remains at $0.54.</p>\n            ","response":0,"trial_type":"html-button-response","trial_index":10,"time_elapsed":366995,"internal_node_id":"0.0-4.0-1.1","subject_id":"5f07329506cf5e0f6c60a48b","study_id":"60edd13110225f80f9f3709b","session_id":"6196c86781eb0647e24323bb","condition":"full-information","relevant_dimensions":["pattern","legs"],"bee_group":{"antennae":"X","wings":"X","pattern":"D","legs":"F"},"bonus":1.7800000000000011},{"rt":3481.099999997765,"stimulus":"bees-with-color/bee-A1DM.svg","response":1,"trial_type":"image-button-response","trial_index":11,"time_elapsed":370479,"internal_node_id":"0.0-4.0-0.2","subject_id":"5f07329506cf5e0f6c60a48b","study_id":"60edd13110225f80f9f3709b","session_id":"6196c86781eb0647e24323bb","condition":"full-information","relevant_dimensions":["pattern","legs"],"bee_group":{"antennae":"X","wings":"X","pattern":"D","legs":"F"},"action":"avoid","summary":"bad-avoid","bonus":1.7800000000000011},{"rt":17873.5,"stimulus":"\n                    <p><b>Action: <em>avoid</em></b></p>\n                    <p>This is the bee that you just saw.</p>\n                    <img src=\"bees-with-color/bee-A1DM.svg\" width=\"200\">\n                    <p><span class=\"redText\">Bad choice,</span> the bee was friendly.<br>Your bonus pay is unchanged, and remains at $0.54.</p>\n            ","response":0,"trial_type":"html-button-response","trial_index":12,"time_elapsed":388355,"internal_node_id":"0.0-4.0-1.2","subject_id":"5f07329506cf5e0f6c60a48b","study_id":"60edd13110225f80f9f3709b","session_id":"6196c86781eb0647e24323bb","condition":"full-information","relevant_dimensions":["pattern","legs"],"bee_group":{"antennae":"X","wings":"X","pattern":"D","legs":"F"},"bonus":1.7800000000000011},{"rt":2957.7999999970198,"stimulus":"bees-with-color/bee-A2SM.svg","response":0,"trial_type":"image-button-response","trial_index":13,"time_elapsed":391315,"internal_node_id":"0.0-4.0-0.3","subject_id":"5f07329506cf5e0f6c60a48b","study_id":"60edd13110225f80f9f3709b","session_id":"6196c86781eb0647e24323bb","condition":"full-information","relevant_dimensions":["pattern","legs"],"bee_group":{"antennae":"X","wings":"X","pattern":"D","legs":"F"},"action":"harvest","summary":"good-harvest","bonus":1.7800000000000011},{"rt":25151.800000000745,"stimulus":"\n                    <p><b>Action: <em>harvest</em></b></p>\n                    <p>This is the bee that you just saw.</p>\n                    <img src=\"bees-with-color/bee-A2SM.svg\" width=\"200\">\n                    <p><span class=\"greenText\"><b>Successful harvest!</b></span><br>Your pay has increased by $0.02. Your bonus pay is now $0.56.</p>\n            ","response":0,"trial_type":"html-button-response","trial_index":14,"time_elapsed":416469,"internal_node_id":"0.0-4.0-1.3","subject_id":"5f07329506cf5e0f6c60a48b","study_id":"60edd13110225f80f9f3709b","session_id":"6196c86781eb0647e24323bb","condition":"full-information","relevant_dimensions":["pattern","legs"],"bee_group":{"antennae":"X","wings":"X","pattern":"D","legs":"F"},"bonus":1.7800000000000011},{"rt":11262,"stimulus":"bees-with-color/bee-A1DF.svg","response":1,"trial_type":"image-button-response","trial_index":15,"time_elapsed":427733,"internal_node_id":"0.0-4.0-0.4","subject_id":"5f07329506cf5e0f6c60a48b","study_id":"60edd13110225f80f9f3709b","session_id":"6196c86781eb0647e24323bb","condition":"full-information","relevant_dimensions":["pattern","legs"],"bee_group":{"antennae":"X","wings":"X","pattern":"D","legs":"F"},"action":"avoid","summary":"good-avoid","bonus":1.7800000000000011},{"rt":35205.300000000745,"stimulus":"\n                    <p><b>Action: <em>avoid</em></b></p>\n                    <p>This is the bee that you just saw.</p>\n                    <img src=\"bees-with-color/bee-A1DF.svg\" width=\"200\">\n                    <p><span class=\"greenText\">Good choice!</span>  This bee would have stung you.<br>Your bonus pay is unchanged, and remains at $0.56.</p>\n            ","response":0,"trial_type":"html-button-response","trial_index":16,"time_elapsed":462941,"internal_node_id":"0.0-4.0-1.4","subject_id":"5f07329506cf5e0f6c60a48b","study_id":"60edd13110225f80f9f3709b","session_id":"6196c86781eb0647e24323bb","condition":"full-information","relevant_dimensions":["pattern","legs"],"bee_group":{"antennae":"X","wings":"X","pattern":"D","legs":"F"},"bonus":1.7800000000000011},{"rt":7035.199999999255,"stimulus":"bees-with-color/bee-A2DM.svg","response":1,"trial_type":"image-button-response","trial_index":17,"time_elapsed":469979,"internal_node_id":"0.0-4.0-0.5","subject_id":"5f07329506cf5e0f6c60a48b","study_id":"60edd13110225f80f9f3709b","session_id":"6196c86781eb0647e24323bb","condition":"full-information","relevant_dimensions":["pattern","legs"],"bee_group":{"antennae":"X","wings":"X","pattern":"D","legs":"F"},"action":"avoid","summary":"bad-avoid","bonus":1.7800000000000011},{"rt":25373.39999999851,"stimulus":"\n                    <p><b>Action: <em>avoid</em></b></p>\n                    <p>This is the bee that you just saw.</p>\n                    <img src=\"bees-with-color/bee-A2DM.svg\" width=\"200\">\n                    <p><span class=\"redText\">Bad choice,</span> the bee was friendly.<br>Your bonus pay is unchanged, and remains at $0.56.</p>\n            ","response":0,"trial_type":"html-button-response","trial_index":18,"time_elapsed":495355,"internal_node_id":"0.0-4.0-1.5","subject_id":"5f07329506cf5e0f6c60a48b","study_id":"60edd13110225f80f9f3709b","session_id":"6196c86781eb0647e24323bb","condition":"full-information","relevant_dimensions":["pattern","legs"],"bee_group":{"antennae":"X","wings":"X","pattern":"D","legs":"F"},"bonus":1.7800000000000011},{"rt":10834.900000002235,"stimulus":"bees-with-color/bee-A2DF.svg","response":1,"trial_type":"image-button-response","trial_index":19,"time_elapsed":506193,"internal_node_id":"0.0-4.0-0.6","subject_id":"5f07329506cf5e0f6c60a48b","study_id":"60edd13110225f80f9f3709b","session_id":"6196c86781eb0647e24323bb","condition":"full-information","relevant_dimensions":["pattern","legs"],"bee_group":{"antennae":"X","wings":"X","pattern":"D","legs":"F"},"action":"avoid","summary":"good-avoid","bonus":1.7800000000000011},{"rt":13833.70000000298,"stimulus":"\n                    <p><b>Action: <em>avoid</em></b></p>\n                    <p>This is the bee that you just saw.</p>\n                    <img src=\"bees-with-color/bee-A2DF.svg\" width=\"200\">\n                    <p><span class=\"greenText\">Good choice!</span>  This bee would have stung you.<br>Your bonus pay is unchanged, and remains at $0.56.</p>\n            ","response":0,"trial_type":"html-button-response","trial_index":20,"time_elapsed":520029,"internal_node_id":"0.0-4.0-1.6","subject_id":"5f07329506cf5e0f6c60a48b","study_id":"60edd13110225f80f9f3709b","session_id":"6196c86781eb0647e24323bb","condition":"full-information","relevant_dimensions":["pattern","legs"],"bee_group":{"antennae":"X","wings":"X","pattern":"D","legs":"F"},"bonus":1.7800000000000011},{"rt":18845.400000002235,"stimulus":"bees-with-color/bee-B1DM.svg","response":1,"trial_type":"image-button-response","trial_index":21,"time_elapsed":538877,"internal_node_id":"0.0-4.0-0.7","subject_id":"5f07329506cf5e0f6c60a48b","study_id":"60edd13110225f80f9f3709b","session_id":"6196c86781eb0647e24323bb","condition":"full-information","relevant_dimensions":["pattern","legs"],"bee_group":{"antennae":"X","wings":"X","pattern":"D","legs":"F"},"action":"avoid","summary":"bad-avoid","bonus":1.7800000000000011},{"rt":16638.099999997765,"stimulus":"\n                    <p><b>Action: <em>avoid</em></b></p>\n                    <p>This is the bee that you just saw.</p>\n                    <img src=\"bees-with-color/bee-B1DM.svg\" width=\"200\">\n                    <p><span class=\"redText\">Bad choice,</span> the bee was friendly.<br>Your bonus pay is unchanged, and remains at $0.56.</p>\n            ","response":0,"trial_type":"html-button-response","trial_index":22,"time_elapsed":555517,"internal_node_id":"0.0-4.0-1.7","subject_id":"5f07329506cf5e0f6c60a48b","study_id":"60edd13110225f80f9f3709b","session_id":"6196c86781eb0647e24323bb","condition":"full-information","relevant_dimensions":["pattern","legs"],"bee_group":{"antennae":"X","wings":"X","pattern":"D","legs":"F"},"bonus":1.7800000000000011},{"rt":14869.699999999255,"stimulus":"bees-with-color/bee-B2SM.svg","response":1,"trial_type":"image-button-response","trial_index":23,"time_elapsed":570389,"internal_node_id":"0.0-4.0-0.8","subject_id":"5f07329506cf5e0f6c60a48b","study_id":"60edd13110225f80f9f3709b","session_id":"6196c86781eb0647e24323bb","condition":"full-information","relevant_dimensions":["pattern","legs"],"bee_group":{"antennae":"X","wings":"X","pattern":"D","legs":"F"},"action":"avoid","summary":"bad-avoid","bonus":1.7800000000000011},{"rt":19376.099999997765,"stimulus":"\n                    <p><b>Action: <em>avoid</em></b></p>\n                    <p>This is the bee that you just saw.</p>\n                    <img src=\"bees-with-color/bee-B2SM.svg\" width=\"200\">\n                    <p><span class=\"redText\">Bad choice,</span> the bee was friendly.<br>Your bonus pay is unchanged, and remains at $0.56.</p>\n            ","response":0,"trial_type":"html-button-response","trial_index":24,"time_elapsed":589767,"internal_node_id":"0.0-4.0-1.8","subject_id":"5f07329506cf5e0f6c60a48b","study_id":"60edd13110225f80f9f3709b","session_id":"6196c86781eb0647e24323bb","condition":"full-information","relevant_dimensions":["pattern","legs"],"bee_group":{"antennae":"X","wings":"X","pattern":"D","legs":"F"},"bonus":1.7800000000000011},{"rt":19459.699999999255,"stimulus":"bees-with-color/bee-A1SF.svg","response":0,"trial_type":"image-button-response","trial_index":25,"time_elapsed":609229,"internal_node_id":"0.0-4.0-0.9","subject_id":"5f07329506cf5e0f6c60a48b","study_id":"60edd13110225f80f9f3709b","session_id":"6196c86781eb0647e24323bb","condition":"full-information","relevant_dimensions":["pattern","legs"],"bee_group":{"antennae":"X","wings":"X","pattern":"D","legs":"F"},"action":"harvest","summary":"good-harvest","bonus":1.7800000000000011},{"rt":13848.099999997765,"stimulus":"\n                    <p><b>Action: <em>harvest</em></b></p>\n                    <p>This is the bee that you just saw.</p>\n                    <img src=\"bees-with-color/bee-A1SF.svg\" width=\"200\">\n                    <p><span class=\"greenText\"><b>Successful harvest!</b></span><br>Your pay has increased by $0.02. Your bonus pay is now $0.58.</p>\n            ","response":0,"trial_type":"html-button-response","trial_index":26,"time_elapsed":623079,"internal_node_id":"0.0-4.0-1.9","subject_id":"5f07329506cf5e0f6c60a48b","study_id":"60edd13110225f80f9f3709b","session_id":"6196c86781eb0647e24323bb","condition":"full-information","relevant_dimensions":["pattern","legs"],"bee_group":{"antennae":"X","wings":"X","pattern":"D","legs":"F"},"bonus":1.7800000000000011},{"rt":12175.900000002235,"stimulus":"bees-with-color/bee-B2DF.svg","response":1,"trial_type":"image-button-response","trial_index":27,"time_elapsed":635257,"internal_node_id":"0.0-4.0-0.10","subject_id":"5f07329506cf5e0f6c60a48b","study_id":"60edd13110225f80f9f3709b","session_id":"6196c86781eb0647e24323bb","condition":"full-information","relevant_dimensions":["pattern","legs"],"bee_group":{"antennae":"X","wings":"X","pattern":"D","legs":"F"},"action":"avoid","summary":"good-avoid","bonus":1.7800000000000011},{"rt":15924.10000000149,"stimulus":"\n                    <p><b>Action: <em>avoid</em></b></p>\n                    <p>This is the bee that you just saw.</p>\n                    <img src=\"bees-with-color/bee-B2DF.svg\" width=\"200\">\n                    <p><span class=\"greenText\">Good choice!</span>  This bee would have stung you.<br>Your bonus pay is unchanged, and remains at $0.58.</p>\n            ","response":0,"trial_type":"html-button-response","trial_index":28,"time_elapsed":651183,"internal_node_id":"0.0-4.0-1.10","subject_id":"5f07329506cf5e0f6c60a48b","study_id":"60edd13110225f80f9f3709b","session_id":"6196c86781eb0647e24323bb","condition":"full-information","relevant_dimensions":["pattern","legs"],"bee_group":{"antennae":"X","wings":"X","pattern":"D","legs":"F"},"bonus":1.7800000000000011},{"rt":11452.300000000745,"stimulus":"bees-with-color/bee-B2SF.svg","response":0,"trial_type":"image-button-response","trial_index":29,"time_elapsed":662637,"internal_node_id":"0.0-4.0-0.11","subject_id":"5f07329506cf5e0f6c60a48b","study_id":"60edd13110225f80f9f3709b","session_id":"6196c86781eb0647e24323bb","condition":"full-information","relevant_dimensions":["pattern","legs"],"bee_group":{"antennae":"X","wings":"X","pattern":"D","legs":"F"},"action":"harvest","summary":"good-harvest","bonus":1.7800000000000011},{"rt":14582.199999999255,"stimulus":"\n                    <p><b>Action: <em>harvest</em></b></p>\n                    <p>This is the bee that you just saw.</p>\n                    <img src=\"bees-with-color/bee-B2SF.svg\" width=\"200\">\n                    <p><span class=\"greenText\"><b>Successful harvest!</b></span><br>Your pay has increased by $0.02. Your bonus pay is now $0.60.</p>\n            ","response":0,"trial_type":"html-button-response","trial_index":30,"time_elapsed":677221,"internal_node_id":"0.0-4.0-1.11","subject_id":"5f07329506cf5e0f6c60a48b","study_id":"60edd13110225f80f9f3709b","session_id":"6196c86781eb0647e24323bb","condition":"full-information","relevant_dimensions":["pattern","legs"],"bee_group":{"antennae":"X","wings":"X","pattern":"D","legs":"F"},"bonus":1.7800000000000011},{"rt":17403.60000000149,"stimulus":"bees-with-color/bee-A2SF.svg","response":1,"trial_type":"image-button-response","trial_index":31,"time_elapsed":694627,"internal_node_id":"0.0-4.0-0.12","subject_id":"5f07329506cf5e0f6c60a48b","study_id":"60edd13110225f80f9f3709b","session_id":"6196c86781eb0647e24323bb","condition":"full-information","relevant_dimensions":["pattern","legs"],"bee_group":{"antennae":"X","wings":"X","pattern":"D","legs":"F"},"action":"avoid","summary":"bad-avoid","bonus":1.7800000000000011},{"rt":14759.800000000745,"stimulus":"\n                    <p><b>Action: <em>avoid</em></b></p>\n                    <p>This is the bee that you just saw.</p>\n                    <img src=\"bees-with-color/bee-A2SF.svg\" width=\"200\">\n                    <p><span class=\"redText\">Bad choice,</span> the bee was friendly.<br>Your bonus pay is unchanged, and remains at $0.60.</p>\n            ","response":0,"trial_type":"html-button-response","trial_index":32,"time_elapsed":709388,"internal_node_id":"0.0-4.0-1.12","subject_id":"5f07329506cf5e0f6c60a48b","study_id":"60edd13110225f80f9f3709b","session_id":"6196c86781eb0647e24323bb","condition":"full-information","relevant_dimensions":["pattern","legs"],"bee_group":{"antennae":"X","wings":"X","pattern":"D","legs":"F"},"bonus":1.7800000000000011},{"rt":17493.900000002235,"stimulus":"bees-with-color/bee-A1SM.svg","response":1,"trial_type":"image-button-response","trial_index":33,"time_elapsed":726884,"internal_node_id":"0.0-4.0-0.13","subject_id":"5f07329506cf5e0f6c60a48b","study_id":"60edd13110225f80f9f3709b","session_id":"6196c86781eb0647e24323bb","condition":"full-information","relevant_dimensions":["pattern","legs"],"bee_group":{"antennae":"X","wings":"X","pattern":"D","legs":"F"},"action":"avoid","summary":"bad-avoid","bonus":1.7800000000000011},{"rt":9448.5,"stimulus":"\n                    <p><b>Action: <em>avoid</em></b></p>\n                    <p>This is the bee that you just saw.</p>\n                    <img src=\"bees-with-color/bee-A1SM.svg\" width=\"200\">\n                    <p><span class=\"redText\">Bad choice,</span> the bee was friendly.<br>Your bonus pay is unchanged, and remains at $0.60.</p>\n            ","response":0,"trial_type":"html-button-response","trial_index":34,"time_elapsed":736334,"internal_node_id":"0.0-4.0-1.13","subject_id":"5f07329506cf5e0f6c60a48b","study_id":"60edd13110225f80f9f3709b","session_id":"6196c86781eb0647e24323bb","condition":"full-information","relevant_dimensions":["pattern","legs"],"bee_group":{"antennae":"X","wings":"X","pattern":"D","legs":"F"},"bonus":1.7800000000000011},{"rt":13186.39999999851,"stimulus":"bees-with-color/bee-B1SM.svg","response":1,"trial_type":"image-button-response","trial_index":35,"time_elapsed":749523,"internal_node_id":"0.0-4.0-0.14","subject_id":"5f07329506cf5e0f6c60a48b","study_id":"60edd13110225f80f9f3709b","session_id":"6196c86781eb0647e24323bb","condition":"full-information","relevant_dimensions":["pattern","legs"],"bee_group":{"antennae":"X","wings":"X","pattern":"D","legs":"F"},"action":"avoid","summary":"bad-avoid","bonus":1.7800000000000011},{"rt":9357.599999997765,"stimulus":"\n                    <p><b>Action: <em>avoid</em></b></p>\n                    <p>This is the bee that you just saw.</p>\n                    <img src=\"bees-with-color/bee-B1SM.svg\" width=\"200\">\n                    <p><span class=\"redText\">Bad choice,</span> the bee was friendly.<br>Your bonus pay is unchanged, and remains at $0.60.</p>\n            ","response":0,"trial_type":"html-button-response","trial_index":36,"time_elapsed":758882,"internal_node_id":"0.0-4.0-1.14","subject_id":"5f07329506cf5e0f6c60a48b","study_id":"60edd13110225f80f9f3709b","session_id":"6196c86781eb0647e24323bb","condition":"full-information","relevant_dimensions":["pattern","legs"],"bee_group":{"antennae":"X","wings":"X","pattern":"D","legs":"F"},"bonus":1.7800000000000011},{"rt":23629.60000000149,"stimulus":"bees-with-color/bee-B1DF.svg","response":1,"trial_type":"image-button-response","trial_index":37,"time_elapsed":782515,"internal_node_id":"0.0-4.0-0.15","subject_id":"5f07329506cf5e0f6c60a48b","study_id":"60edd13110225f80f9f3709b","session_id":"6196c86781eb0647e24323bb","condition":"full-information","relevant_dimensions":["pattern","legs"],"bee_group":{"antennae":"X","wings":"X","pattern":"D","legs":"F"},"action":"avoid","summary":"good-avoid","bonus":1.7800000000000011},{"rt":12431.800000000745,"stimulus":"\n                    <p><b>Action: <em>avoid</em></b></p>\n                    <p>This is the bee that you just saw.</p>\n                    <img src=\"bees-with-color/bee-B1DF.svg\" width=\"200\">\n                    <p><span class=\"greenText\">Good choice!</span>  This bee would have stung you.<br>Your bonus pay is unchanged, and remains at $0.60.</p>\n            ","response":0,"trial_type":"html-button-response","trial_index":38,"time_elapsed":794949,"internal_node_id":"0.0-4.0-1.15","subject_id":"5f07329506cf5e0f6c60a48b","study_id":"60edd13110225f80f9f3709b","session_id":"6196c86781eb0647e24323bb","condition":"full-information","relevant_dimensions":["pattern","legs"],"bee_group":{"antennae":"X","wings":"X","pattern":"D","legs":"F"},"bonus":1.7800000000000011},{"rt":9121.5,"stimulus":"bees-with-color/bee-A1SM.svg","response":0,"trial_type":"image-button-response","trial_index":39,"time_elapsed":804073,"internal_node_id":"0.0-4.0-0.16","subject_id":"5f07329506cf5e0f6c60a48b","study_id":"60edd13110225f80f9f3709b","session_id":"6196c86781eb0647e24323bb","condition":"full-information","relevant_dimensions":["pattern","legs"],"bee_group":{"antennae":"X","wings":"X","pattern":"D","legs":"F"},"action":"harvest","summary":"good-harvest","bonus":1.7800000000000011},{"rt":1187.5999999977648,"stimulus":"\n                    <p><b>Action: <em>harvest</em></b></p>\n                    <p>This is the bee that you just saw.</p>\n                    <img src=\"bees-with-color/bee-A1SM.svg\" width=\"200\">\n                    <p><span class=\"greenText\"><b>Successful harvest!</b></span><br>Your pay has increased by $0.02. Your bonus pay is now $0.62.</p>\n            ","response":0,"trial_type":"html-button-response","trial_index":40,"time_elapsed":805262,"internal_node_id":"0.0-4.0-1.16","subject_id":"5f07329506cf5e0f6c60a48b","study_id":"60edd13110225f80f9f3709b","session_id":"6196c86781eb0647e24323bb","condition":"full-information","relevant_dimensions":["pattern","legs"],"bee_group":{"antennae":"X","wings":"X","pattern":"D","legs":"F"},"bonus":1.7800000000000011},{"rt":9439.60000000149,"stimulus":"bees-with-color/bee-B2SF.svg","response":0,"trial_type":"image-button-response","trial_index":41,"time_elapsed":814704,"internal_node_id":"0.0-4.0-0.17","subject_id":"5f07329506cf5e0f6c60a48b","study_id":"60edd13110225f80f9f3709b","session_id":"6196c86781eb0647e24323bb","condition":"full-information","relevant_dimensions":["pattern","legs"],"bee_group":{"antennae":"X","wings":"X","pattern":"D","legs":"F"},"action":"harvest","summary":"good-harvest","bonus":1.7800000000000011},{"rt":1326,"stimulus":"\n                    <p><b>Action: <em>harvest</em></b></p>\n                    <p>This is the bee that you just saw.</p>\n                    <img src=\"bees-with-color/bee-B2SF.svg\" width=\"200\">\n                    <p><span class=\"greenText\"><b>Successful harvest!</b></span><br>Your pay has increased by $0.02. Your bonus pay is now $0.64.</p>\n            ","response":0,"trial_type":"html-button-response","trial_index":42,"time_elapsed":816032,"internal_node_id":"0.0-4.0-1.17","subject_id":"5f07329506cf5e0f6c60a48b","study_id":"60edd13110225f80f9f3709b","session_id":"6196c86781eb0647e24323bb","condition":"full-information","relevant_dimensions":["pattern","legs"],"bee_group":{"antennae":"X","wings":"X","pattern":"D","legs":"F"},"bonus":1.7800000000000011},{"rt":12643.699999999255,"stimulus":"bees-with-color/bee-B1SM.svg","response":0,"trial_type":"image-button-response","trial_index":43,"time_elapsed":828678,"internal_node_id":"0.0-4.0-0.18","subject_id":"5f07329506cf5e0f6c60a48b","study_id":"60edd13110225f80f9f3709b","session_id":"6196c86781eb0647e24323bb","condition":"full-information","relevant_dimensions":["pattern","legs"],"bee_group":{"antennae":"X","wings":"X","pattern":"D","legs":"F"},"action":"harvest","summary":"good-harvest","bonus":1.7800000000000011},{"rt":1475.9000000022352,"stimulus":"\n                    <p><b>Action: <em>harvest</em></b></p>\n                    <p>This is the bee that you just saw.</p>\n                    <img src=\"bees-with-color/bee-B1SM.svg\" width=\"200\">\n                    <p><span class=\"greenText\"><b>Successful harvest!</b></span><br>Your pay has increased by $0.02. Your bonus pay is now $0.66.</p>\n            ","response":0,"trial_type":"html-button-response","trial_index":44,"time_elapsed":830156,"internal_node_id":"0.0-4.0-1.18","subject_id":"5f07329506cf5e0f6c60a48b","study_id":"60edd13110225f80f9f3709b","session_id":"6196c86781eb0647e24323bb","condition":"full-information","relevant_dimensions":["pattern","legs"],"bee_group":{"antennae":"X","wings":"X","pattern":"D","legs":"F"},"bonus":1.7800000000000011},{"rt":8722,"stimulus":"bees-with-color/bee-A1DM.svg","response":0,"trial_type":"image-button-response","trial_index":45,"time_elapsed":838880,"internal_node_id":"0.0-4.0-0.19","subject_id":"5f07329506cf5e0f6c60a48b","study_id":"60edd13110225f80f9f3709b","session_id":"6196c86781eb0647e24323bb","condition":"full-information","relevant_dimensions":["pattern","legs"],"bee_group":{"antennae":"X","wings":"X","pattern":"D","legs":"F"},"action":"harvest","summary":"good-harvest","bonus":1.7800000000000011},{"rt":13292.39999999851,"stimulus":"\n                    <p><b>Action: <em>harvest</em></b></p>\n                    <p>This is the bee that you just saw.</p>\n                    <img src=\"bees-with-color/bee-A1DM.svg\" width=\"200\">\n                    <p><span class=\"greenText\"><b>Successful harvest!</b></span><br>Your pay has increased by $0.02. Your bonus pay is now $0.68.</p>\n            ","response":0,"trial_type":"html-button-response","trial_index":46,"time_elapsed":852174,"internal_node_id":"0.0-4.0-1.19","subject_id":"5f07329506cf5e0f6c60a48b","study_id":"60edd13110225f80f9f3709b","session_id":"6196c86781eb0647e24323bb","condition":"full-information","relevant_dimensions":["pattern","legs"],"bee_group":{"antennae":"X","wings":"X","pattern":"D","legs":"F"},"bonus":1.7800000000000011},{"rt":13935.70000000298,"stimulus":"bees-with-color/bee-B1DM.svg","response":0,"trial_type":"image-button-response","trial_index":47,"time_elapsed":866112,"internal_node_id":"0.0-4.0-0.20","subject_id":"5f07329506cf5e0f6c60a48b","study_id":"60edd13110225f80f9f3709b","session_id":"6196c86781eb0647e24323bb","condition":"full-information","relevant_dimensions":["pattern","legs"],"bee_group":{"antennae":"X","wings":"X","pattern":"D","legs":"F"},"action":"harvest","summary":"good-harvest","bonus":1.7800000000000011},{"rt":1904.199999999255,"stimulus":"\n                    <p><b>Action: <em>harvest</em></b></p>\n                    <p>This is the bee that you just saw.</p>\n                    <img src=\"bees-with-color/bee-B1DM.svg\" width=\"200\">\n                    <p><span class=\"greenText\"><b>Successful harvest!</b></span><br>Your pay has increased by $0.02. Your bonus pay is now $0.70.</p>\n            ","response":0,"trial_type":"html-button-response","trial_index":48,"time_elapsed":868018,"internal_node_id":"0.0-4.0-1.20","subject_id":"5f07329506cf5e0f6c60a48b","study_id":"60edd13110225f80f9f3709b","session_id":"6196c86781eb0647e24323bb","condition":"full-information","relevant_dimensions":["pattern","legs"],"bee_group":{"antennae":"X","wings":"X","pattern":"D","legs":"F"},"bonus":1.7800000000000011},{"rt":7452.10000000149,"stimulus":"bees-with-color/bee-B1DF.svg","response":1,"trial_type":"image-button-response","trial_index":49,"time_elapsed":875472,"internal_node_id":"0.0-4.0-0.21","subject_id":"5f07329506cf5e0f6c60a48b","study_id":"60edd13110225f80f9f3709b","session_id":"6196c86781eb0647e24323bb","condition":"full-information","relevant_dimensions":["pattern","legs"],"bee_group":{"antennae":"X","wings":"X","pattern":"D","legs":"F"},"action":"avoid","summary":"good-avoid","bonus":1.7800000000000011},{"rt":1238.1000000014901,"stimulus":"\n                    <p><b>Action: <em>avoid</em></b></p>\n                    <p>This is the bee that you just saw.</p>\n                    <img src=\"bees-with-color/bee-B1DF.svg\" width=\"200\">\n                    <p><span class=\"greenText\">Good choice!</span>  This bee would have stung you.<br>Your bonus pay is unchanged, and remains at $0.70.</p>\n            ","response":0,"trial_type":"html-button-response","trial_index":50,"time_elapsed":876712,"internal_node_id":"0.0-4.0-1.21","subject_id":"5f07329506cf5e0f6c60a48b","study_id":"60edd13110225f80f9f3709b","session_id":"6196c86781eb0647e24323bb","condition":"full-information","relevant_dimensions":["pattern","legs"],"bee_group":{"antennae":"X","wings":"X","pattern":"D","legs":"F"},"bonus":1.7800000000000011},{"rt":60783.900000002235,"stimulus":"bees-with-color/bee-A2DM.svg","response":0,"trial_type":"image-button-response","trial_index":51,"time_elapsed":937498,"internal_node_id":"0.0-4.0-0.22","subject_id":"5f07329506cf5e0f6c60a48b","study_id":"60edd13110225f80f9f3709b","session_id":"6196c86781eb0647e24323bb","condition":"full-information","relevant_dimensions":["pattern","legs"],"bee_group":{"antennae":"X","wings":"X","pattern":"D","legs":"F"},"action":"harvest","summary":"good-harvest","bonus":1.7800000000000011},{"rt":946.1999999992549,"stimulus":"\n                    <p><b>Action: <em>harvest</em></b></p>\n                    <p>This is the bee that you just saw.</p>\n                    <img src=\"bees-with-color/bee-A2DM.svg\" width=\"200\">\n                    <p><span class=\"greenText\"><b>Successful harvest!</b></span><br>Your pay has increased by $0.02. Your bonus pay is now $0.72.</p>\n            ","response":0,"trial_type":"html-button-response","trial_index":52,"time_elapsed":938446,"internal_node_id":"0.0-4.0-1.22","subject_id":"5f07329506cf5e0f6c60a48b","study_id":"60edd13110225f80f9f3709b","session_id":"6196c86781eb0647e24323bb","condition":"full-information","relevant_dimensions":["pattern","legs"],"bee_group":{"antennae":"X","wings":"X","pattern":"D","legs":"F"},"bonus":1.7800000000000011},{"rt":14691.599999997765,"stimulus":"bees-with-color/bee-A2DF.svg","response":1,"trial_type":"image-button-response","trial_index":53,"time_elapsed":953140,"internal_node_id":"0.0-4.0-0.23","subject_id":"5f07329506cf5e0f6c60a48b","study_id":"60edd13110225f80f9f3709b","session_id":"6196c86781eb0647e24323bb","condition":"full-information","relevant_dimensions":["pattern","legs"],"bee_group":{"antennae":"X","wings":"X","pattern":"D","legs":"F"},"action":"avoid","summary":"good-avoid","bonus":1.7800000000000011},{"rt":12426.10000000149,"stimulus":"\n                    <p><b>Action: <em>avoid</em></b></p>\n                    <p>This is the bee that you just saw.</p>\n                    <img src=\"bees-with-color/bee-A2DF.svg\" width=\"200\">\n                    <p><span class=\"greenText\">Good choice!</span>  This bee would have stung you.<br>Your bonus pay is unchanged, and remains at $0.72.</p>\n            ","response":0,"trial_type":"html-button-response","trial_index":54,"time_elapsed":965568,"internal_node_id":"0.0-4.0-1.23","subject_id":"5f07329506cf5e0f6c60a48b","study_id":"60edd13110225f80f9f3709b","session_id":"6196c86781eb0647e24323bb","condition":"full-information","relevant_dimensions":["pattern","legs"],"bee_group":{"antennae":"X","wings":"X","pattern":"D","legs":"F"},"bonus":1.7800000000000011},{"rt":101571.69999999925,"stimulus":"bees-with-color/bee-A2SF.svg","response":0,"trial_type":"image-button-response","trial_index":55,"time_elapsed":1067142,"internal_node_id":"0.0-4.0-0.24","subject_id":"5f07329506cf5e0f6c60a48b","study_id":"60edd13110225f80f9f3709b","session_id":"6196c86781eb0647e24323bb","condition":"full-information","relevant_dimensions":["pattern","legs"],"bee_group":{"antennae":"X","wings":"X","pattern":"D","legs":"F"},"action":"harvest","summary":"good-harvest","bonus":1.7800000000000011},{"rt":888,"stimulus":"\n                    <p><b>Action: <em>harvest</em></b></p>\n                    <p>This is the bee that you just saw.</p>\n                    <img src=\"bees-with-color/bee-A2SF.svg\" width=\"200\">\n                    <p><span class=\"greenText\"><b>Successful harvest!</b></span><br>Your pay has increased by $0.02. Your bonus pay is now $0.74.</p>\n            ","response":0,"trial_type":"html-button-response","trial_index":56,"time_elapsed":1068032,"internal_node_id":"0.0-4.0-1.24","subject_id":"5f07329506cf5e0f6c60a48b","study_id":"60edd13110225f80f9f3709b","session_id":"6196c86781eb0647e24323bb","condition":"full-information","relevant_dimensions":["pattern","legs"],"bee_group":{"antennae":"X","wings":"X","pattern":"D","legs":"F"},"bonus":1.7800000000000011},{"rt":5183.599999997765,"stimulus":"bees-with-color/bee-B2SM.svg","response":0,"trial_type":"image-button-response","trial_index":57,"time_elapsed":1073218,"internal_node_id":"0.0-4.0-0.25","subject_id":"5f07329506cf5e0f6c60a48b","study_id":"60edd13110225f80f9f3709b","session_id":"6196c86781eb0647e24323bb","condition":"full-information","relevant_dimensions":["pattern","legs"],"bee_group":{"antennae":"X","wings":"X","pattern":"D","legs":"F"},"action":"harvest","summary":"good-harvest","bonus":1.7800000000000011},{"rt":942.0999999977648,"stimulus":"\n                    <p><b>Action: <em>harvest</em></b></p>\n                    <p>This is the bee that you just saw.</p>\n                    <img src=\"bees-with-color/bee-B2SM.svg\" width=\"200\">\n                    <p><span class=\"greenText\"><b>Successful harvest!</b></span><br>Your pay has increased by $0.02. Your bonus pay is now $0.76.</p>\n            ","response":0,"trial_type":"html-button-response","trial_index":58,"time_elapsed":1074162,"internal_node_id":"0.0-4.0-1.25","subject_id":"5f07329506cf5e0f6c60a48b","study_id":"60edd13110225f80f9f3709b","session_id":"6196c86781eb0647e24323bb","condition":"full-information","relevant_dimensions":["pattern","legs"],"bee_group":{"antennae":"X","wings":"X","pattern":"D","legs":"F"},"bonus":1.7800000000000011},{"rt":6497.800000000745,"stimulus":"bees-with-color/bee-A1DF.svg","response":1,"trial_type":"image-button-response","trial_index":59,"time_elapsed":1080662,"internal_node_id":"0.0-4.0-0.26","subject_id":"5f07329506cf5e0f6c60a48b","study_id":"60edd13110225f80f9f3709b","session_id":"6196c86781eb0647e24323bb","condition":"full-information","relevant_dimensions":["pattern","legs"],"bee_group":{"antennae":"X","wings":"X","pattern":"D","legs":"F"},"action":"avoid","summary":"good-avoid","bonus":1.7800000000000011},{"rt":828.1000000014901,"stimulus":"\n                    <p><b>Action: <em>avoid</em></b></p>\n                    <p>This is the bee that you just saw.</p>\n                    <img src=\"bees-with-color/bee-A1DF.svg\" width=\"200\">\n                    <p><span class=\"greenText\">Good choice!</span>  This bee would have stung you.<br>Your bonus pay is unchanged, and remains at $0.76.</p>\n            ","response":0,"trial_type":"html-button-response","trial_index":60,"time_elapsed":1081491,"internal_node_id":"0.0-4.0-1.26","subject_id":"5f07329506cf5e0f6c60a48b","study_id":"60edd13110225f80f9f3709b","session_id":"6196c86781eb0647e24323bb","condition":"full-information","relevant_dimensions":["pattern","legs"],"bee_group":{"antennae":"X","wings":"X","pattern":"D","legs":"F"},"bonus":1.7800000000000011},{"rt":16970.400000002235,"stimulus":"bees-with-color/bee-B1SF.svg","response":0,"trial_type":"image-button-response","trial_index":61,"time_elapsed":1098464,"internal_node_id":"0.0-4.0-0.27","subject_id":"5f07329506cf5e0f6c60a48b","study_id":"60edd13110225f80f9f3709b","session_id":"6196c86781eb0647e24323bb","condition":"full-information","relevant_dimensions":["pattern","legs"],"bee_group":{"antennae":"X","wings":"X","pattern":"D","legs":"F"},"action":"harvest","summary":"good-harvest","bonus":1.7800000000000011},{"rt":1079.800000000745,"stimulus":"\n                    <p><b>Action: <em>harvest</em></b></p>\n                    <p>This is the bee that you just saw.</p>\n                    <img src=\"bees-with-color/bee-B1SF.svg\" width=\"200\">\n                    <p><span class=\"greenText\"><b>Successful harvest!</b></span><br>Your pay has increased by $0.02. Your bonus pay is now $0.78.</p>\n            ","response":0,"trial_type":"html-button-response","trial_index":62,"time_elapsed":1099545,"internal_node_id":"0.0-4.0-1.27","subject_id":"5f07329506cf5e0f6c60a48b","study_id":"60edd13110225f80f9f3709b","session_id":"6196c86781eb0647e24323bb","condition":"full-information","relevant_dimensions":["pattern","legs"],"bee_group":{"antennae":"X","wings":"X","pattern":"D","legs":"F"},"bonus":1.7800000000000011},{"rt":8719.800000000745,"stimulus":"bees-with-color/bee-B2DM.svg","response":0,"trial_type":"image-button-response","trial_index":63,"time_elapsed":1108268,"internal_node_id":"0.0-4.0-0.28","subject_id":"5f07329506cf5e0f6c60a48b","study_id":"60edd13110225f80f9f3709b","session_id":"6196c86781eb0647e24323bb","condition":"full-information","relevant_dimensions":["pattern","legs"],"bee_group":{"antennae":"X","wings":"X","pattern":"D","legs":"F"},"action":"harvest","summary":"good-harvest","bonus":1.7800000000000011},{"rt":843.8000000007451,"stimulus":"\n                    <p><b>Action: <em>harvest</em></b></p>\n                    <p>This is the bee that you just saw.</p>\n                    <img src=\"bees-with-color/bee-B2DM.svg\" width=\"200\">\n                    <p><span class=\"greenText\"><b>Successful harvest!</b></span><br>Your pay has increased by $0.02. Your bonus pay is now $0.80.</p>\n            ","response":0,"trial_type":"html-button-response","trial_index":64,"time_elapsed":1109114,"internal_node_id":"0.0-4.0-1.28","subject_id":"5f07329506cf5e0f6c60a48b","study_id":"60edd13110225f80f9f3709b","session_id":"6196c86781eb0647e24323bb","condition":"full-information","relevant_dimensions":["pattern","legs"],"bee_group":{"antennae":"X","wings":"X","pattern":"D","legs":"F"},"bonus":1.7800000000000011},{"rt":8189.300000000745,"stimulus":"bees-with-color/bee-B2DF.svg","response":1,"trial_type":"image-button-response","trial_index":65,"time_elapsed":1117306,"internal_node_id":"0.0-4.0-0.29","subject_id":"5f07329506cf5e0f6c60a48b","study_id":"60edd13110225f80f9f3709b","session_id":"6196c86781eb0647e24323bb","condition":"full-information","relevant_dimensions":["pattern","legs"],"bee_group":{"antennae":"X","wings":"X","pattern":"D","legs":"F"},"action":"avoid","summary":"good-avoid","bonus":1.7800000000000011},{"rt":2307.60000000149,"stimulus":"\n                    <p><b>Action: <em>avoid</em></b></p>\n                    <p>This is the bee that you just saw.</p>\n                    <img src=\"bees-with-color/bee-B2DF.svg\" width=\"200\">\n                    <p><span class=\"greenText\">Good choice!</span>  This bee would have stung you.<br>Your bonus pay is unchanged, and remains at $0.80.</p>\n            ","response":0,"trial_type":"html-button-response","trial_index":66,"time_elapsed":1119616,"internal_node_id":"0.0-4.0-1.29","subject_id":"5f07329506cf5e0f6c60a48b","study_id":"60edd13110225f80f9f3709b","session_id":"6196c86781eb0647e24323bb","condition":"full-information","relevant_dimensions":["pattern","legs"],"bee_group":{"antennae":"X","wings":"X","pattern":"D","legs":"F"},"bonus":1.7800000000000011},{"rt":9559.5,"stimulus":"bees-with-color/bee-A1SF.svg","response":0,"trial_type":"image-button-response","trial_index":67,"time_elapsed":1129178,"internal_node_id":"0.0-4.0-0.30","subject_id":"5f07329506cf5e0f6c60a48b","study_id":"60edd13110225f80f9f3709b","session_id":"6196c86781eb0647e24323bb","condition":"full-information","relevant_dimensions":["pattern","legs"],"bee_group":{"antennae":"X","wings":"X","pattern":"D","legs":"F"},"action":"harvest","summary":"good-harvest","bonus":1.7800000000000011},{"rt":725.8000000007451,"stimulus":"\n                    <p><b>Action: <em>harvest</em></b></p>\n                    <p>This is the bee that you just saw.</p>\n                    <img src=\"bees-with-color/bee-A1SF.svg\" width=\"200\">\n                    <p><span class=\"greenText\"><b>Successful harvest!</b></span><br>Your pay has increased by $0.02. Your bonus pay is now $0.82.</p>\n            ","response":0,"trial_type":"html-button-response","trial_index":68,"time_elapsed":1129906,"internal_node_id":"0.0-4.0-1.30","subject_id":"5f07329506cf5e0f6c60a48b","study_id":"60edd13110225f80f9f3709b","session_id":"6196c86781eb0647e24323bb","condition":"full-information","relevant_dimensions":["pattern","legs"],"bee_group":{"antennae":"X","wings":"X","pattern":"D","legs":"F"},"bonus":1.7800000000000011},{"rt":18955,"stimulus":"bees-with-color/bee-A2SM.svg","response":0,"trial_type":"image-button-response","trial_index":69,"time_elapsed":1148864,"internal_node_id":"0.0-4.0-0.31","subject_id":"5f07329506cf5e0f6c60a48b","study_id":"60edd13110225f80f9f3709b","session_id":"6196c86781eb0647e24323bb","condition":"full-information","relevant_dimensions":["pattern","legs"],"bee_group":{"antennae":"X","wings":"X","pattern":"D","legs":"F"},"action":"harvest","summary":"good-harvest","bonus":1.7800000000000011},{"rt":733.3999999985099,"stimulus":"\n                    <p><b>Action: <em>harvest</em></b></p>\n                    <p>This is the bee that you just saw.</p>\n                    <img src=\"bees-with-color/bee-A2SM.svg\" width=\"200\">\n                    <p><span class=\"greenText\"><b>Successful harvest!</b></span><br>Your pay has increased by $0.02. Your bonus pay is now $0.84.</p>\n            ","response":0,"trial_type":"html-button-response","trial_index":70,"time_elapsed":1149600,"internal_node_id":"0.0-4.0-1.31","subject_id":"5f07329506cf5e0f6c60a48b","study_id":"60edd13110225f80f9f3709b","session_id":"6196c86781eb0647e24323bb","condition":"full-information","relevant_dimensions":["pattern","legs"],"bee_group":{"antennae":"X","wings":"X","pattern":"D","legs":"F"},"bonus":1.7800000000000011},{"rt":9635.300000000745,"stimulus":"bees-with-color/bee-B1SM.svg","response":0,"trial_type":"image-button-response","trial_index":71,"time_elapsed":1159237,"internal_node_id":"0.0-4.0-0.32","subject_id":"5f07329506cf5e0f6c60a48b","study_id":"60edd13110225f80f9f3709b","session_id":"6196c86781eb0647e24323bb","condition":"full-information","relevant_dimensions":["pattern","legs"],"bee_group":{"antennae":"X","wings":"X","pattern":"D","legs":"F"},"action":"harvest","summary":"good-harvest","bonus":1.7800000000000011},{"rt":766.5,"stimulus":"\n                    <p><b>Action: <em>harvest</em></b></p>\n                    <p>This is the bee that you just saw.</p>\n                    <img src=\"bees-with-color/bee-B1SM.svg\" width=\"200\">\n                    <p><span class=\"greenText\"><b>Successful harvest!</b></span><br>Your pay has increased by $0.02. Your bonus pay is now $0.86.</p>\n            ","response":0,"trial_type":"html-button-response","trial_index":72,"time_elapsed":1160006,"internal_node_id":"0.0-4.0-1.32","subject_id":"5f07329506cf5e0f6c60a48b","study_id":"60edd13110225f80f9f3709b","session_id":"6196c86781eb0647e24323bb","condition":"full-information","relevant_dimensions":["pattern","legs"],"bee_group":{"antennae":"X","wings":"X","pattern":"D","legs":"F"},"bonus":1.7800000000000011},{"rt":8547.699999999255,"stimulus":"bees-with-color/bee-A2SM.svg","response":0,"trial_type":"image-button-response","trial_index":73,"time_elapsed":1168555,"internal_node_id":"0.0-4.0-0.33","subject_id":"5f07329506cf5e0f6c60a48b","study_id":"60edd13110225f80f9f3709b","session_id":"6196c86781eb0647e24323bb","condition":"full-information","relevant_dimensions":["pattern","legs"],"bee_group":{"antennae":"X","wings":"X","pattern":"D","legs":"F"},"action":"harvest","summary":"good-harvest","bonus":1.7800000000000011},{"rt":670.5,"stimulus":"\n                    <p><b>Action: <em>harvest</em></b></p>\n                    <p>This is the bee that you just saw.</p>\n                    <img src=\"bees-with-color/bee-A2SM.svg\" width=\"200\">\n                    <p><span class=\"greenText\"><b>Successful harvest!</b></span><br>Your pay has increased by $0.02. Your bonus pay is now $0.88.</p>\n            ","response":0,"trial_type":"html-button-response","trial_index":74,"time_elapsed":1169228,"internal_node_id":"0.0-4.0-1.33","subject_id":"5f07329506cf5e0f6c60a48b","study_id":"60edd13110225f80f9f3709b","session_id":"6196c86781eb0647e24323bb","condition":"full-information","relevant_dimensions":["pattern","legs"],"bee_group":{"antennae":"X","wings":"X","pattern":"D","legs":"F"},"bonus":1.7800000000000011},{"rt":10821.89999999851,"stimulus":"bees-with-color/bee-A1SM.svg","response":0,"trial_type":"image-button-response","trial_index":75,"time_elapsed":1180051,"internal_node_id":"0.0-4.0-0.34","subject_id":"5f07329506cf5e0f6c60a48b","study_id":"60edd13110225f80f9f3709b","session_id":"6196c86781eb0647e24323bb","condition":"full-information","relevant_dimensions":["pattern","legs"],"bee_group":{"antennae":"X","wings":"X","pattern":"D","legs":"F"},"action":"harvest","summary":"good-harvest","bonus":1.7800000000000011},{"rt":734.2999999970198,"stimulus":"\n                    <p><b>Action: <em>harvest</em></b></p>\n                    <p>This is the bee that you just saw.</p>\n                    <img src=\"bees-with-color/bee-A1SM.svg\" width=\"200\">\n                    <p><span class=\"greenText\"><b>Successful harvest!</b></span><br>Your pay has increased by $0.02. Your bonus pay is now $0.90.</p>\n            ","response":0,"trial_type":"html-button-response","trial_index":76,"time_elapsed":1180787,"internal_node_id":"0.0-4.0-1.34","subject_id":"5f07329506cf5e0f6c60a48b","study_id":"60edd13110225f80f9f3709b","session_id":"6196c86781eb0647e24323bb","condition":"full-information","relevant_dimensions":["pattern","legs"],"bee_group":{"antennae":"X","wings":"X","pattern":"D","legs":"F"},"bonus":1.7800000000000011},{"rt":15771.599999997765,"stimulus":"bees-with-color/bee-A2DM.svg","response":0,"trial_type":"image-button-response","trial_index":77,"time_elapsed":1196562,"internal_node_id":"0.0-4.0-0.35","subject_id":"5f07329506cf5e0f6c60a48b","study_id":"60edd13110225f80f9f3709b","session_id":"6196c86781eb0647e24323bb","condition":"full-information","relevant_dimensions":["pattern","legs"],"bee_group":{"antennae":"X","wings":"X","pattern":"D","legs":"F"},"action":"harvest","summary":"good-harvest","bonus":1.7800000000000011},{"rt":1110.4000000022352,"stimulus":"\n                    <p><b>Action: <em>harvest</em></b></p>\n                    <p>This is the bee that you just saw.</p>\n                    <img src=\"bees-with-color/bee-A2DM.svg\" width=\"200\">\n                    <p><span class=\"greenText\"><b>Successful harvest!</b></span><br>Your pay has increased by $0.02. Your bonus pay is now $0.92.</p>\n            ","response":0,"trial_type":"html-button-response","trial_index":78,"time_elapsed":1197674,"internal_node_id":"0.0-4.0-1.35","subject_id":"5f07329506cf5e0f6c60a48b","study_id":"60edd13110225f80f9f3709b","session_id":"6196c86781eb0647e24323bb","condition":"full-information","relevant_dimensions":["pattern","legs"],"bee_group":{"antennae":"X","wings":"X","pattern":"D","legs":"F"},"bonus":1.7800000000000011},{"rt":12325.599999997765,"stimulus":"bees-with-color/bee-B2DF.svg","response":1,"trial_type":"image-button-response","trial_index":79,"time_elapsed":1210001,"internal_node_id":"0.0-4.0-0.36","subject_id":"5f07329506cf5e0f6c60a48b","study_id":"60edd13110225f80f9f3709b","session_id":"6196c86781eb0647e24323bb","condition":"full-information","relevant_dimensions":["pattern","legs"],"bee_group":{"antennae":"X","wings":"X","pattern":"D","legs":"F"},"action":"avoid","summary":"good-avoid","bonus":1.7800000000000011},{"rt":1188.1000000014901,"stimulus":"\n                    <p><b>Action: <em>avoid</em></b></p>\n                    <p>This is the bee that you just saw.</p>\n                    <img src=\"bees-with-color/bee-B2DF.svg\" width=\"200\">\n                    <p><span class=\"greenText\">Good choice!</span>  This bee would have stung you.<br>Your bonus pay is unchanged, and remains at $0.92.</p>\n            ","response":0,"trial_type":"html-button-response","trial_index":80,"time_elapsed":1211191,"internal_node_id":"0.0-4.0-1.36","subject_id":"5f07329506cf5e0f6c60a48b","study_id":"60edd13110225f80f9f3709b","session_id":"6196c86781eb0647e24323bb","condition":"full-information","relevant_dimensions":["pattern","legs"],"bee_group":{"antennae":"X","wings":"X","pattern":"D","legs":"F"},"bonus":1.7800000000000011},{"rt":6101.5,"stimulus":"bees-with-color/bee-B1DM.svg","response":0,"trial_type":"image-button-response","trial_index":81,"time_elapsed":1217295,"internal_node_id":"0.0-4.0-0.37","subject_id":"5f07329506cf5e0f6c60a48b","study_id":"60edd13110225f80f9f3709b","session_id":"6196c86781eb0647e24323bb","condition":"full-information","relevant_dimensions":["pattern","legs"],"bee_group":{"antennae":"X","wings":"X","pattern":"D","legs":"F"},"action":"harvest","summary":"good-harvest","bonus":1.7800000000000011},{"rt":1004.1999999992549,"stimulus":"\n                    <p><b>Action: <em>harvest</em></b></p>\n                    <p>This is the bee that you just saw.</p>\n                    <img src=\"bees-with-color/bee-B1DM.svg\" width=\"200\">\n                    <p><span class=\"greenText\"><b>Successful harvest!</b></span><br>Your pay has increased by $0.02. Your bonus pay is now $0.94.</p>\n            ","response":0,"trial_type":"html-button-response","trial_index":82,"time_elapsed":1218301,"internal_node_id":"0.0-4.0-1.37","subject_id":"5f07329506cf5e0f6c60a48b","study_id":"60edd13110225f80f9f3709b","session_id":"6196c86781eb0647e24323bb","condition":"full-information","relevant_dimensions":["pattern","legs"],"bee_group":{"antennae":"X","wings":"X","pattern":"D","legs":"F"},"bonus":1.7800000000000011},{"rt":6208.199999999255,"stimulus":"bees-with-color/bee-B1DF.svg","response":1,"trial_type":"image-button-response","trial_index":83,"time_elapsed":1224511,"internal_node_id":"0.0-4.0-0.38","subject_id":"5f07329506cf5e0f6c60a48b","study_id":"60edd13110225f80f9f3709b","session_id":"6196c86781eb0647e24323bb","condition":"full-information","relevant_dimensions":["pattern","legs"],"bee_group":{"antennae":"X","wings":"X","pattern":"D","legs":"F"},"action":"avoid","summary":"good-avoid","bonus":1.7800000000000011},{"rt":3573.800000000745,"stimulus":"\n                    <p><b>Action: <em>avoid</em></b></p>\n                    <p>This is the bee that you just saw.</p>\n                    <img src=\"bees-with-color/bee-B1DF.svg\" width=\"200\">\n                    <p><span class=\"greenText\">Good choice!</span>  This bee would have stung you.<br>Your bonus pay is unchanged, and remains at $0.94.</p>\n            ","response":0,"trial_type":"html-button-response","trial_index":84,"time_elapsed":1228087,"internal_node_id":"0.0-4.0-1.38","subject_id":"5f07329506cf5e0f6c60a48b","study_id":"60edd13110225f80f9f3709b","session_id":"6196c86781eb0647e24323bb","condition":"full-information","relevant_dimensions":["pattern","legs"],"bee_group":{"antennae":"X","wings":"X","pattern":"D","legs":"F"},"bonus":1.7800000000000011},{"rt":8218.10000000149,"stimulus":"bees-with-color/bee-B2SM.svg","response":0,"trial_type":"image-button-response","trial_index":85,"time_elapsed":1236308,"internal_node_id":"0.0-4.0-0.39","subject_id":"5f07329506cf5e0f6c60a48b","study_id":"60edd13110225f80f9f3709b","session_id":"6196c86781eb0647e24323bb","condition":"full-information","relevant_dimensions":["pattern","legs"],"bee_group":{"antennae":"X","wings":"X","pattern":"D","legs":"F"},"action":"harvest","summary":"good-harvest","bonus":1.7800000000000011},{"rt":3103.400000002235,"stimulus":"\n                    <p><b>Action: <em>harvest</em></b></p>\n                    <p>This is the bee that you just saw.</p>\n                    <img src=\"bees-with-color/bee-B2SM.svg\" width=\"200\">\n                    <p><span class=\"greenText\"><b>Successful harvest!</b></span><br>Your pay has increased by $0.02. Your bonus pay is now $0.96.</p>\n            ","response":0,"trial_type":"html-button-response","trial_index":86,"time_elapsed":1239413,"internal_node_id":"0.0-4.0-1.39","subject_id":"5f07329506cf5e0f6c60a48b","study_id":"60edd13110225f80f9f3709b","session_id":"6196c86781eb0647e24323bb","condition":"full-information","relevant_dimensions":["pattern","legs"],"bee_group":{"antennae":"X","wings":"X","pattern":"D","legs":"F"},"bonus":1.7800000000000011},{"rt":11399.89999999851,"stimulus":"bees-with-color/bee-A2DF.svg","response":1,"trial_type":"image-button-response","trial_index":87,"time_elapsed":1250815,"internal_node_id":"0.0-4.0-0.40","subject_id":"5f07329506cf5e0f6c60a48b","study_id":"60edd13110225f80f9f3709b","session_id":"6196c86781eb0647e24323bb","condition":"full-information","relevant_dimensions":["pattern","legs"],"bee_group":{"antennae":"X","wings":"X","pattern":"D","legs":"F"},"action":"avoid","summary":"good-avoid","bonus":1.7800000000000011},{"rt":967.6999999992549,"stimulus":"\n                    <p><b>Action: <em>avoid</em></b></p>\n                    <p>This is the bee that you just saw.</p>\n                    <img src=\"bees-with-color/bee-A2DF.svg\" width=\"200\">\n                    <p><span class=\"greenText\">Good choice!</span>  This bee would have stung you.<br>Your bonus pay is unchanged, and remains at $0.96.</p>\n            ","response":0,"trial_type":"html-button-response","trial_index":88,"time_elapsed":1251785,"internal_node_id":"0.0-4.0-1.40","subject_id":"5f07329506cf5e0f6c60a48b","study_id":"60edd13110225f80f9f3709b","session_id":"6196c86781eb0647e24323bb","condition":"full-information","relevant_dimensions":["pattern","legs"],"bee_group":{"antennae":"X","wings":"X","pattern":"D","legs":"F"},"bonus":1.7800000000000011},{"rt":13159.300000000745,"stimulus":"bees-with-color/bee-B1SF.svg","response":0,"trial_type":"image-button-response","trial_index":89,"time_elapsed":1264947,"internal_node_id":"0.0-4.0-0.41","subject_id":"5f07329506cf5e0f6c60a48b","study_id":"60edd13110225f80f9f3709b","session_id":"6196c86781eb0647e24323bb","condition":"full-information","relevant_dimensions":["pattern","legs"],"bee_group":{"antennae":"X","wings":"X","pattern":"D","legs":"F"},"action":"harvest","summary":"good-harvest","bonus":1.7800000000000011},{"rt":1353.7000000029802,"stimulus":"\n                    <p><b>Action: <em>harvest</em></b></p>\n                    <p>This is the bee that you just saw.</p>\n                    <img src=\"bees-with-color/bee-B1SF.svg\" width=\"200\">\n                    <p><span class=\"greenText\"><b>Successful harvest!</b></span><br>Your pay has increased by $0.02. Your bonus pay is now $0.98.</p>\n            ","response":0,"trial_type":"html-button-response","trial_index":90,"time_elapsed":1266303,"internal_node_id":"0.0-4.0-1.41","subject_id":"5f07329506cf5e0f6c60a48b","study_id":"60edd13110225f80f9f3709b","session_id":"6196c86781eb0647e24323bb","condition":"full-information","relevant_dimensions":["pattern","legs"],"bee_group":{"antennae":"X","wings":"X","pattern":"D","legs":"F"},"bonus":1.7800000000000011},{"rt":3275.5,"stimulus":"bees-with-color/bee-A1SF.svg","response":0,"trial_type":"image-button-response","trial_index":91,"time_elapsed":1269581,"internal_node_id":"0.0-4.0-0.42","subject_id":"5f07329506cf5e0f6c60a48b","study_id":"60edd13110225f80f9f3709b","session_id":"6196c86781eb0647e24323bb","condition":"full-information","relevant_dimensions":["pattern","legs"],"bee_group":{"antennae":"X","wings":"X","pattern":"D","legs":"F"},"action":"harvest","summary":"good-harvest","bonus":1.7800000000000011},{"rt":1375.3999999985099,"stimulus":"\n                    <p><b>Action: <em>harvest</em></b></p>\n                    <p>This is the bee that you just saw.</p>\n                    <img src=\"bees-with-color/bee-A1SF.svg\" width=\"200\">\n                    <p><span class=\"greenText\"><b>Successful harvest!</b></span><br>Your pay has increased by $0.02. Your bonus pay is now $1.00.</p>\n            ","response":0,"trial_type":"html-button-response","trial_index":92,"time_elapsed":1270959,"internal_node_id":"0.0-4.0-1.42","subject_id":"5f07329506cf5e0f6c60a48b","study_id":"60edd13110225f80f9f3709b","session_id":"6196c86781eb0647e24323bb","condition":"full-information","relevant_dimensions":["pattern","legs"],"bee_group":{"antennae":"X","wings":"X","pattern":"D","legs":"F"},"bonus":1.7800000000000011},{"rt":12493.300000000745,"stimulus":"bees-with-color/bee-B2SF.svg","response":0,"trial_type":"image-button-response","trial_index":93,"time_elapsed":1283455,"internal_node_id":"0.0-4.0-0.43","subject_id":"5f07329506cf5e0f6c60a48b","study_id":"60edd13110225f80f9f3709b","session_id":"6196c86781eb0647e24323bb","condition":"full-information","relevant_dimensions":["pattern","legs"],"bee_group":{"antennae":"X","wings":"X","pattern":"D","legs":"F"},"action":"harvest","summary":"good-harvest","bonus":1.7800000000000011},{"rt":742.2000000029802,"stimulus":"\n                    <p><b>Action: <em>harvest</em></b></p>\n                    <p>This is the bee that you just saw.</p>\n                    <img src=\"bees-with-color/bee-B2SF.svg\" width=\"200\">\n                    <p><span class=\"greenText\"><b>Successful harvest!</b></span><br>Your pay has increased by $0.02. Your bonus pay is now $1.02.</p>\n            ","response":0,"trial_type":"html-button-response","trial_index":94,"time_elapsed":1284199,"internal_node_id":"0.0-4.0-1.43","subject_id":"5f07329506cf5e0f6c60a48b","study_id":"60edd13110225f80f9f3709b","session_id":"6196c86781eb0647e24323bb","condition":"full-information","relevant_dimensions":["pattern","legs"],"bee_group":{"antennae":"X","wings":"X","pattern":"D","legs":"F"},"bonus":1.7800000000000011},{"rt":11155.699999999255,"stimulus":"bees-with-color/bee-A1DF.svg","response":1,"trial_type":"image-button-response","trial_index":95,"time_elapsed":1295357,"internal_node_id":"0.0-4.0-0.44","subject_id":"5f07329506cf5e0f6c60a48b","study_id":"60edd13110225f80f9f3709b","session_id":"6196c86781eb0647e24323bb","condition":"full-information","relevant_dimensions":["pattern","legs"],"bee_group":{"antennae":"X","wings":"X","pattern":"D","legs":"F"},"action":"avoid","summary":"good-avoid","bonus":1.7800000000000011},{"rt":832.5999999977648,"stimulus":"\n                    <p><b>Action: <em>avoid</em></b></p>\n                    <p>This is the bee that you just saw.</p>\n                    <img src=\"bees-with-color/bee-A1DF.svg\" width=\"200\">\n                    <p><span class=\"greenText\">Good choice!</span>  This bee would have stung you.<br>Your bonus pay is unchanged, and remains at $1.02.</p>\n            ","response":0,"trial_type":"html-button-response","trial_index":96,"time_elapsed":1296191,"internal_node_id":"0.0-4.0-1.44","subject_id":"5f07329506cf5e0f6c60a48b","study_id":"60edd13110225f80f9f3709b","session_id":"6196c86781eb0647e24323bb","condition":"full-information","relevant_dimensions":["pattern","legs"],"bee_group":{"antennae":"X","wings":"X","pattern":"D","legs":"F"},"bonus":1.7800000000000011},{"rt":10286.099999997765,"stimulus":"bees-with-color/bee-A1DM.svg","response":0,"trial_type":"image-button-response","trial_index":97,"time_elapsed":1306479,"internal_node_id":"0.0-4.0-0.45","subject_id":"5f07329506cf5e0f6c60a48b","study_id":"60edd13110225f80f9f3709b","session_id":"6196c86781eb0647e24323bb","condition":"full-information","relevant_dimensions":["pattern","legs"],"bee_group":{"antennae":"X","wings":"X","pattern":"D","legs":"F"},"action":"harvest","summary":"good-harvest","bonus":1.7800000000000011},{"rt":743.8000000007451,"stimulus":"\n                    <p><b>Action: <em>harvest</em></b></p>\n                    <p>This is the bee that you just saw.</p>\n                    <img src=\"bees-with-color/bee-A1DM.svg\" width=\"200\">\n                    <p><span class=\"greenText\"><b>Successful harvest!</b></span><br>Your pay has increased by $0.02. Your bonus pay is now $1.04.</p>\n            ","response":0,"trial_type":"html-button-response","trial_index":98,"time_elapsed":1307225,"internal_node_id":"0.0-4.0-1.45","subject_id":"5f07329506cf5e0f6c60a48b","study_id":"60edd13110225f80f9f3709b","session_id":"6196c86781eb0647e24323bb","condition":"full-information","relevant_dimensions":["pattern","legs"],"bee_group":{"antennae":"X","wings":"X","pattern":"D","legs":"F"},"bonus":1.7800000000000011},{"rt":8907.89999999851,"stimulus":"bees-with-color/bee-B2DM.svg","response":0,"trial_type":"image-button-response","trial_index":99,"time_elapsed":1316135,"internal_node_id":"0.0-4.0-0.46","subject_id":"5f07329506cf5e0f6c60a48b","study_id":"60edd13110225f80f9f3709b","session_id":"6196c86781eb0647e24323bb","condition":"full-information","relevant_dimensions":["pattern","legs"],"bee_group":{"antennae":"X","wings":"X","pattern":"D","legs":"F"},"action":"harvest","summary":"good-harvest","bonus":1.7800000000000011},{"rt":628,"stimulus":"\n                    <p><b>Action: <em>harvest</em></b></p>\n                    <p>This is the bee that you just saw.</p>\n                    <img src=\"bees-with-color/bee-B2DM.svg\" width=\"200\">\n                    <p><span class=\"greenText\"><b>Successful harvest!</b></span><br>Your pay has increased by $0.02. Your bonus pay is now $1.06.</p>\n            ","response":0,"trial_type":"html-button-response","trial_index":100,"time_elapsed":1316765,"internal_node_id":"0.0-4.0-1.46","subject_id":"5f07329506cf5e0f6c60a48b","study_id":"60edd13110225f80f9f3709b","session_id":"6196c86781eb0647e24323bb","condition":"full-information","relevant_dimensions":["pattern","legs"],"bee_group":{"antennae":"X","wings":"X","pattern":"D","legs":"F"},"bonus":1.7800000000000011},{"rt":14259.800000000745,"stimulus":"bees-with-color/bee-A2SF.svg","response":0,"trial_type":"image-button-response","trial_index":101,"time_elapsed":1331027,"internal_node_id":"0.0-4.0-0.47","subject_id":"5f07329506cf5e0f6c60a48b","study_id":"60edd13110225f80f9f3709b","session_id":"6196c86781eb0647e24323bb","condition":"full-information","relevant_dimensions":["pattern","legs"],"bee_group":{"antennae":"X","wings":"X","pattern":"D","legs":"F"},"action":"harvest","summary":"good-harvest","bonus":1.7800000000000011},{"rt":612.4000000022352,"stimulus":"\n                    <p><b>Action: <em>harvest</em></b></p>\n                    <p>This is the bee that you just saw.</p>\n                    <img src=\"bees-with-color/bee-A2SF.svg\" width=\"200\">\n                    <p><span class=\"greenText\"><b>Successful harvest!</b></span><br>Your pay has increased by $0.02. Your bonus pay is now $1.08.</p>\n            ","response":0,"trial_type":"html-button-response","trial_index":102,"time_elapsed":1331641,"internal_node_id":"0.0-4.0-1.47","subject_id":"5f07329506cf5e0f6c60a48b","study_id":"60edd13110225f80f9f3709b","session_id":"6196c86781eb0647e24323bb","condition":"full-information","relevant_dimensions":["pattern","legs"],"bee_group":{"antennae":"X","wings":"X","pattern":"D","legs":"F"},"bonus":1.7800000000000011},{"rt":9613.70000000298,"stimulus":"bees-with-color/bee-A2DM.svg","response":0,"trial_type":"image-button-response","trial_index":103,"time_elapsed":1341257,"internal_node_id":"0.0-4.0-0.48","subject_id":"5f07329506cf5e0f6c60a48b","study_id":"60edd13110225f80f9f3709b","session_id":"6196c86781eb0647e24323bb","condition":"full-information","relevant_dimensions":["pattern","legs"],"bee_group":{"antennae":"X","wings":"X","pattern":"D","legs":"F"},"action":"harvest","summary":"good-harvest","bonus":1.7800000000000011},{"rt":854.1000000014901,"stimulus":"\n                    <p><b>Action: <em>harvest</em></b></p>\n                    <p>This is the bee that you just saw.</p>\n                    <img src=\"bees-with-color/bee-A2DM.svg\" width=\"200\">\n                    <p><span class=\"greenText\"><b>Successful harvest!</b></span><br>Your pay has increased by $0.02. Your bonus pay is now $1.10.</p>\n            ","response":0,"trial_type":"html-button-response","trial_index":104,"time_elapsed":1342113,"internal_node_id":"0.0-4.0-1.48","subject_id":"5f07329506cf5e0f6c60a48b","study_id":"60edd13110225f80f9f3709b","session_id":"6196c86781eb0647e24323bb","condition":"full-information","relevant_dimensions":["pattern","legs"],"bee_group":{"antennae":"X","wings":"X","pattern":"D","legs":"F"},"bonus":1.7800000000000011},{"rt":5641.699999999255,"stimulus":"bees-with-color/bee-A2DF.svg","response":1,"trial_type":"image-button-response","trial_index":105,"time_elapsed":1347757,"internal_node_id":"0.0-4.0-0.49","subject_id":"5f07329506cf5e0f6c60a48b","study_id":"60edd13110225f80f9f3709b","session_id":"6196c86781eb0647e24323bb","condition":"full-information","relevant_dimensions":["pattern","legs"],"bee_group":{"antennae":"X","wings":"X","pattern":"D","legs":"F"},"action":"avoid","summary":"good-avoid","bonus":1.7800000000000011},{"rt":1036.199999999255,"stimulus":"\n                    <p><b>Action: <em>avoid</em></b></p>\n                    <p>This is the bee that you just saw.</p>\n                    <img src=\"bees-with-color/bee-A2DF.svg\" width=\"200\">\n                    <p><span class=\"greenText\">Good choice!</span>  This bee would have stung you.<br>Your bonus pay is unchanged, and remains at $1.10.</p>\n            ","response":0,"trial_type":"html-button-response","trial_index":106,"time_elapsed":1348795,"internal_node_id":"0.0-4.0-1.49","subject_id":"5f07329506cf5e0f6c60a48b","study_id":"60edd13110225f80f9f3709b","session_id":"6196c86781eb0647e24323bb","condition":"full-information","relevant_dimensions":["pattern","legs"],"bee_group":{"antennae":"X","wings":"X","pattern":"D","legs":"F"},"bonus":1.7800000000000011},{"rt":5439.699999999255,"stimulus":"bees-with-color/bee-B2DM.svg","response":0,"trial_type":"image-button-response","trial_index":107,"time_elapsed":1354237,"internal_node_id":"0.0-4.0-0.50","subject_id":"5f07329506cf5e0f6c60a48b","study_id":"60edd13110225f80f9f3709b","session_id":"6196c86781eb0647e24323bb","condition":"full-information","relevant_dimensions":["pattern","legs"],"bee_group":{"antennae":"X","wings":"X","pattern":"D","legs":"F"},"action":"harvest","summary":"good-harvest","bonus":1.7800000000000011},{"rt":724.2000000029802,"stimulus":"\n                    <p><b>Action: <em>harvest</em></b></p>\n                    <p>This is the bee that you just saw.</p>\n                    <img src=\"bees-with-color/bee-B2DM.svg\" width=\"200\">\n                    <p><span class=\"greenText\"><b>Successful harvest!</b></span><br>Your pay has increased by $0.02. Your bonus pay is now $1.12.</p>\n            ","response":0,"trial_type":"html-button-response","trial_index":108,"time_elapsed":1354963,"internal_node_id":"0.0-4.0-1.50","subject_id":"5f07329506cf5e0f6c60a48b","study_id":"60edd13110225f80f9f3709b","session_id":"6196c86781eb0647e24323bb","condition":"full-information","relevant_dimensions":["pattern","legs"],"bee_group":{"antennae":"X","wings":"X","pattern":"D","legs":"F"},"bonus":1.7800000000000011},{"rt":4233.89999999851,"stimulus":"bees-with-color/bee-A1DM.svg","response":0,"trial_type":"image-button-response","trial_index":109,"time_elapsed":1359199,"internal_node_id":"0.0-4.0-0.51","subject_id":"5f07329506cf5e0f6c60a48b","study_id":"60edd13110225f80f9f3709b","session_id":"6196c86781eb0647e24323bb","condition":"full-information","relevant_dimensions":["pattern","legs"],"bee_group":{"antennae":"X","wings":"X","pattern":"D","legs":"F"},"action":"harvest","summary":"good-harvest","bonus":1.7800000000000011},{"rt":902.1000000014901,"stimulus":"\n                    <p><b>Action: <em>harvest</em></b></p>\n                    <p>This is the bee that you just saw.</p>\n                    <img src=\"bees-with-color/bee-A1DM.svg\" width=\"200\">\n                    <p><span class=\"greenText\"><b>Successful harvest!</b></span><br>Your pay has increased by $0.02. Your bonus pay is now $1.14.</p>\n            ","response":0,"trial_type":"html-button-response","trial_index":110,"time_elapsed":1360103,"internal_node_id":"0.0-4.0-1.51","subject_id":"5f07329506cf5e0f6c60a48b","study_id":"60edd13110225f80f9f3709b","session_id":"6196c86781eb0647e24323bb","condition":"full-information","relevant_dimensions":["pattern","legs"],"bee_group":{"antennae":"X","wings":"X","pattern":"D","legs":"F"},"bonus":1.7800000000000011},{"rt":4495.800000000745,"stimulus":"bees-with-color/bee-B2DF.svg","response":1,"trial_type":"image-button-response","trial_index":111,"time_elapsed":1364601,"internal_node_id":"0.0-4.0-0.52","subject_id":"5f07329506cf5e0f6c60a48b","study_id":"60edd13110225f80f9f3709b","session_id":"6196c86781eb0647e24323bb","condition":"full-information","relevant_dimensions":["pattern","legs"],"bee_group":{"antennae":"X","wings":"X","pattern":"D","legs":"F"},"action":"avoid","summary":"good-avoid","bonus":1.7800000000000011},{"rt":721.8000000007451,"stimulus":"\n                    <p><b>Action: <em>avoid</em></b></p>\n                    <p>This is the bee that you just saw.</p>\n                    <img src=\"bees-with-color/bee-B2DF.svg\" width=\"200\">\n                    <p><span class=\"greenText\">Good choice!</span>  This bee would have stung you.<br>Your bonus pay is unchanged, and remains at $1.14.</p>\n            ","response":0,"trial_type":"html-button-response","trial_index":112,"time_elapsed":1365325,"internal_node_id":"0.0-4.0-1.52","subject_id":"5f07329506cf5e0f6c60a48b","study_id":"60edd13110225f80f9f3709b","session_id":"6196c86781eb0647e24323bb","condition":"full-information","relevant_dimensions":["pattern","legs"],"bee_group":{"antennae":"X","wings":"X","pattern":"D","legs":"F"},"bonus":1.7800000000000011},{"rt":13963.800000000745,"stimulus":"bees-with-color/bee-B2SM.svg","response":0,"trial_type":"image-button-response","trial_index":113,"time_elapsed":1379291,"internal_node_id":"0.0-4.0-0.53","subject_id":"5f07329506cf5e0f6c60a48b","study_id":"60edd13110225f80f9f3709b","session_id":"6196c86781eb0647e24323bb","condition":"full-information","relevant_dimensions":["pattern","legs"],"bee_group":{"antennae":"X","wings":"X","pattern":"D","legs":"F"},"action":"harvest","summary":"good-harvest","bonus":1.7800000000000011},{"rt":667.5,"stimulus":"\n                    <p><b>Action: <em>harvest</em></b></p>\n                    <p>This is the bee that you just saw.</p>\n                    <img src=\"bees-with-color/bee-B2SM.svg\" width=\"200\">\n                    <p><span class=\"greenText\"><b>Successful harvest!</b></span><br>Your pay has increased by $0.02. Your bonus pay is now $1.16.</p>\n            ","response":0,"trial_type":"html-button-response","trial_index":114,"time_elapsed":1379961,"internal_node_id":"0.0-4.0-1.53","subject_id":"5f07329506cf5e0f6c60a48b","study_id":"60edd13110225f80f9f3709b","session_id":"6196c86781eb0647e24323bb","condition":"full-information","relevant_dimensions":["pattern","legs"],"bee_group":{"antennae":"X","wings":"X","pattern":"D","legs":"F"},"bonus":1.7800000000000011},{"rt":9633.60000000149,"stimulus":"bees-with-color/bee-B2SF.svg","response":0,"trial_type":"image-button-response","trial_index":115,"time_elapsed":1389597,"internal_node_id":"0.0-4.0-0.54","subject_id":"5f07329506cf5e0f6c60a48b","study_id":"60edd13110225f80f9f3709b","session_id":"6196c86781eb0647e24323bb","condition":"full-information","relevant_dimensions":["pattern","legs"],"bee_group":{"antennae":"X","wings":"X","pattern":"D","legs":"F"},"action":"harvest","summary":"good-harvest","bonus":1.7800000000000011},{"rt":856,"stimulus":"\n                    <p><b>Action: <em>harvest</em></b></p>\n                    <p>This is the bee that you just saw.</p>\n                    <img src=\"bees-with-color/bee-B2SF.svg\" width=\"200\">\n                    <p><span class=\"greenText\"><b>Successful harvest!</b></span><br>Your pay has increased by $0.02. Your bonus pay is now $1.18.</p>\n            ","response":0,"trial_type":"html-button-response","trial_index":116,"time_elapsed":1390455,"internal_node_id":"0.0-4.0-1.54","subject_id":"5f07329506cf5e0f6c60a48b","study_id":"60edd13110225f80f9f3709b","session_id":"6196c86781eb0647e24323bb","condition":"full-information","relevant_dimensions":["pattern","legs"],"bee_group":{"antennae":"X","wings":"X","pattern":"D","legs":"F"},"bonus":1.7800000000000011},{"rt":9029.60000000149,"stimulus":"bees-with-color/bee-A1SF.svg","response":0,"trial_type":"image-button-response","trial_index":117,"time_elapsed":1399487,"internal_node_id":"0.0-4.0-0.55","subject_id":"5f07329506cf5e0f6c60a48b","study_id":"60edd13110225f80f9f3709b","session_id":"6196c86781eb0647e24323bb","condition":"full-information","relevant_dimensions":["pattern","legs"],"bee_group":{"antennae":"X","wings":"X","pattern":"D","legs":"F"},"action":"harvest","summary":"good-harvest","bonus":1.7800000000000011},{"rt":603.6000000014901,"stimulus":"\n                    <p><b>Action: <em>harvest</em></b></p>\n                    <p>This is the bee that you just saw.</p>\n                    <img src=\"bees-with-color/bee-A1SF.svg\" width=\"200\">\n                    <p><span class=\"greenText\"><b>Successful harvest!</b></span><br>Your pay has increased by $0.02. Your bonus pay is now $1.20.</p>\n            ","response":0,"trial_type":"html-button-response","trial_index":118,"time_elapsed":1400093,"internal_node_id":"0.0-4.0-1.55","subject_id":"5f07329506cf5e0f6c60a48b","study_id":"60edd13110225f80f9f3709b","session_id":"6196c86781eb0647e24323bb","condition":"full-information","relevant_dimensions":["pattern","legs"],"bee_group":{"antennae":"X","wings":"X","pattern":"D","legs":"F"},"bonus":1.7800000000000011},{"rt":9054.29999999702,"stimulus":"bees-with-color/bee-A2SM.svg","response":0,"trial_type":"image-button-response","trial_index":119,"time_elapsed":1409149,"internal_node_id":"0.0-4.0-0.56","subject_id":"5f07329506cf5e0f6c60a48b","study_id":"60edd13110225f80f9f3709b","session_id":"6196c86781eb0647e24323bb","condition":"full-information","relevant_dimensions":["pattern","legs"],"bee_group":{"antennae":"X","wings":"X","pattern":"D","legs":"F"},"action":"harvest","summary":"good-harvest","bonus":1.7800000000000011},{"rt":598.3999999985099,"stimulus":"\n                    <p><b>Action: <em>harvest</em></b></p>\n                    <p>This is the bee that you just saw.</p>\n                    <img src=\"bees-with-color/bee-A2SM.svg\" width=\"200\">\n                    <p><span class=\"greenText\"><b>Successful harvest!</b></span><br>Your pay has increased by $0.02. Your bonus pay is now $1.22.</p>\n            ","response":0,"trial_type":"html-button-response","trial_index":120,"time_elapsed":1409749,"internal_node_id":"0.0-4.0-1.56","subject_id":"5f07329506cf5e0f6c60a48b","study_id":"60edd13110225f80f9f3709b","session_id":"6196c86781eb0647e24323bb","condition":"full-information","relevant_dimensions":["pattern","legs"],"bee_group":{"antennae":"X","wings":"X","pattern":"D","legs":"F"},"bonus":1.7800000000000011},{"rt":8916,"stimulus":"bees-with-color/bee-A2SF.svg","response":0,"trial_type":"image-button-response","trial_index":121,"time_elapsed":1418667,"internal_node_id":"0.0-4.0-0.57","subject_id":"5f07329506cf5e0f6c60a48b","study_id":"60edd13110225f80f9f3709b","session_id":"6196c86781eb0647e24323bb","condition":"full-information","relevant_dimensions":["pattern","legs"],"bee_group":{"antennae":"X","wings":"X","pattern":"D","legs":"F"},"action":"harvest","summary":"good-harvest","bonus":1.7800000000000011},{"rt":538.3999999985099,"stimulus":"\n                    <p><b>Action: <em>harvest</em></b></p>\n                    <p>This is the bee that you just saw.</p>\n                    <img src=\"bees-with-color/bee-A2SF.svg\" width=\"200\">\n                    <p><span class=\"greenText\"><b>Successful harvest!</b></span><br>Your pay has increased by $0.02. Your bonus pay is now $1.24.</p>\n            ","response":0,"trial_type":"html-button-response","trial_index":122,"time_elapsed":1419207,"internal_node_id":"0.0-4.0-1.57","subject_id":"5f07329506cf5e0f6c60a48b","study_id":"60edd13110225f80f9f3709b","session_id":"6196c86781eb0647e24323bb","condition":"full-information","relevant_dimensions":["pattern","legs"],"bee_group":{"antennae":"X","wings":"X","pattern":"D","legs":"F"},"bonus":1.7800000000000011},{"rt":7733.39999999851,"stimulus":"bees-with-color/bee-A1SM.svg","response":0,"trial_type":"image-button-response","trial_index":123,"time_elapsed":1426943,"internal_node_id":"0.0-4.0-0.58","subject_id":"5f07329506cf5e0f6c60a48b","study_id":"60edd13110225f80f9f3709b","session_id":"6196c86781eb0647e24323bb","condition":"full-information","relevant_dimensions":["pattern","legs"],"bee_group":{"antennae":"X","wings":"X","pattern":"D","legs":"F"},"action":"harvest","summary":"good-harvest","bonus":1.7800000000000011},{"rt":742.5,"stimulus":"\n                    <p><b>Action: <em>harvest</em></b></p>\n                    <p>This is the bee that you just saw.</p>\n                    <img src=\"bees-with-color/bee-A1SM.svg\" width=\"200\">\n                    <p><span class=\"greenText\"><b>Successful harvest!</b></span><br>Your pay has increased by $0.02. Your bonus pay is now $1.26.</p>\n            ","response":0,"trial_type":"html-button-response","trial_index":124,"time_elapsed":1427687,"internal_node_id":"0.0-4.0-1.58","subject_id":"5f07329506cf5e0f6c60a48b","study_id":"60edd13110225f80f9f3709b","session_id":"6196c86781eb0647e24323bb","condition":"full-information","relevant_dimensions":["pattern","legs"],"bee_group":{"antennae":"X","wings":"X","pattern":"D","legs":"F"},"bonus":1.7800000000000011},{"rt":11955.800000000745,"stimulus":"bees-with-color/bee-A1DF.svg","response":1,"trial_type":"image-button-response","trial_index":125,"time_elapsed":1439645,"internal_node_id":"0.0-4.0-0.59","subject_id":"5f07329506cf5e0f6c60a48b","study_id":"60edd13110225f80f9f3709b","session_id":"6196c86781eb0647e24323bb","condition":"full-information","relevant_dimensions":["pattern","legs"],"bee_group":{"antennae":"X","wings":"X","pattern":"D","legs":"F"},"action":"avoid","summary":"good-avoid","bonus":1.7800000000000011},{"rt":1752.199999999255,"stimulus":"\n                    <p><b>Action: <em>avoid</em></b></p>\n                    <p>This is the bee that you just saw.</p>\n                    <img src=\"bees-with-color/bee-A1DF.svg\" width=\"200\">\n                    <p><span class=\"greenText\">Good choice!</span>  This bee would have stung you.<br>Your bonus pay is unchanged, and remains at $1.26.</p>\n            ","response":0,"trial_type":"html-button-response","trial_index":126,"time_elapsed":1441399,"internal_node_id":"0.0-4.0-1.59","subject_id":"5f07329506cf5e0f6c60a48b","study_id":"60edd13110225f80f9f3709b","session_id":"6196c86781eb0647e24323bb","condition":"full-information","relevant_dimensions":["pattern","legs"],"bee_group":{"antennae":"X","wings":"X","pattern":"D","legs":"F"},"bonus":1.7800000000000011},{"rt":3866,"stimulus":"bees-with-color/bee-B1SF.svg","response":0,"trial_type":"image-button-response","trial_index":127,"time_elapsed":1445267,"internal_node_id":"0.0-4.0-0.60","subject_id":"5f07329506cf5e0f6c60a48b","study_id":"60edd13110225f80f9f3709b","session_id":"6196c86781eb0647e24323bb","condition":"full-information","relevant_dimensions":["pattern","legs"],"bee_group":{"antennae":"X","wings":"X","pattern":"D","legs":"F"},"action":"harvest","summary":"good-harvest","bonus":1.7800000000000011},{"rt":918.1000000014901,"stimulus":"\n                    <p><b>Action: <em>harvest</em></b></p>\n                    <p>This is the bee that you just saw.</p>\n                    <img src=\"bees-with-color/bee-B1SF.svg\" width=\"200\">\n                    <p><span class=\"greenText\"><b>Successful harvest!</b></span><br>Your pay has increased by $0.02. Your bonus pay is now $1.28.</p>\n            ","response":0,"trial_type":"html-button-response","trial_index":128,"time_elapsed":1446187,"internal_node_id":"0.0-4.0-1.60","subject_id":"5f07329506cf5e0f6c60a48b","study_id":"60edd13110225f80f9f3709b","session_id":"6196c86781eb0647e24323bb","condition":"full-information","relevant_dimensions":["pattern","legs"],"bee_group":{"antennae":"X","wings":"X","pattern":"D","legs":"F"},"bonus":1.7800000000000011},{"rt":7265.5,"stimulus":"bees-with-color/bee-B1SM.svg","response":0,"trial_type":"image-button-response","trial_index":129,"time_elapsed":1453455,"internal_node_id":"0.0-4.0-0.61","subject_id":"5f07329506cf5e0f6c60a48b","study_id":"60edd13110225f80f9f3709b","session_id":"6196c86781eb0647e24323bb","condition":"full-information","relevant_dimensions":["pattern","legs"],"bee_group":{"antennae":"X","wings":"X","pattern":"D","legs":"F"},"action":"harvest","summary":"good-harvest","bonus":1.7800000000000011},{"rt":774.3999999985099,"stimulus":"\n                    <p><b>Action: <em>harvest</em></b></p>\n                    <p>This is the bee that you just saw.</p>\n                    <img src=\"bees-with-color/bee-B1SM.svg\" width=\"200\">\n                    <p><span class=\"greenText\"><b>Successful harvest!</b></span><br>Your pay has increased by $0.02. Your bonus pay is now $1.30.</p>\n            ","response":0,"trial_type":"html-button-response","trial_index":130,"time_elapsed":1454231,"internal_node_id":"0.0-4.0-1.61","subject_id":"5f07329506cf5e0f6c60a48b","study_id":"60edd13110225f80f9f3709b","session_id":"6196c86781eb0647e24323bb","condition":"full-information","relevant_dimensions":["pattern","legs"],"bee_group":{"antennae":"X","wings":"X","pattern":"D","legs":"F"},"bonus":1.7800000000000011},{"rt":6407.89999999851,"stimulus":"bees-with-color/bee-B1DM.svg","response":0,"trial_type":"image-button-response","trial_index":131,"time_elapsed":1460640,"internal_node_id":"0.0-4.0-0.62","subject_id":"5f07329506cf5e0f6c60a48b","study_id":"60edd13110225f80f9f3709b","session_id":"6196c86781eb0647e24323bb","condition":"full-information","relevant_dimensions":["pattern","legs"],"bee_group":{"antennae":"X","wings":"X","pattern":"D","legs":"F"},"action":"harvest","summary":"good-harvest","bonus":1.7800000000000011},{"rt":930.6999999992549,"stimulus":"\n                    <p><b>Action: <em>harvest</em></b></p>\n                    <p>This is the bee that you just saw.</p>\n                    <img src=\"bees-with-color/bee-B1DM.svg\" width=\"200\">\n                    <p><span class=\"greenText\"><b>Successful harvest!</b></span><br>Your pay has increased by $0.02. Your bonus pay is now $1.32.</p>\n            ","response":0,"trial_type":"html-button-response","trial_index":132,"time_elapsed":1461572,"internal_node_id":"0.0-4.0-1.62","subject_id":"5f07329506cf5e0f6c60a48b","study_id":"60edd13110225f80f9f3709b","session_id":"6196c86781eb0647e24323bb","condition":"full-information","relevant_dimensions":["pattern","legs"],"bee_group":{"antennae":"X","wings":"X","pattern":"D","legs":"F"},"bonus":1.7800000000000011},{"rt":6742.800000000745,"stimulus":"bees-with-color/bee-B1DF.svg","response":1,"trial_type":"image-button-response","trial_index":133,"time_elapsed":1468317,"internal_node_id":"0.0-4.0-0.63","subject_id":"5f07329506cf5e0f6c60a48b","study_id":"60edd13110225f80f9f3709b","session_id":"6196c86781eb0647e24323bb","condition":"full-information","relevant_dimensions":["pattern","legs"],"bee_group":{"antennae":"X","wings":"X","pattern":"D","legs":"F"},"action":"avoid","summary":"good-avoid","bonus":1.7800000000000011},{"rt":1133.699999999255,"stimulus":"\n                    <p><b>Action: <em>avoid</em></b></p>\n                    <p>This is the bee that you just saw.</p>\n                    <img src=\"bees-with-color/bee-B1DF.svg\" width=\"200\">\n                    <p><span class=\"greenText\">Good choice!</span>  This bee would have stung you.<br>Your bonus pay is unchanged, and remains at $1.32.</p>\n            ","response":0,"trial_type":"html-button-response","trial_index":134,"time_elapsed":1469453,"internal_node_id":"0.0-4.0-1.63","subject_id":"5f07329506cf5e0f6c60a48b","study_id":"60edd13110225f80f9f3709b","session_id":"6196c86781eb0647e24323bb","condition":"full-information","relevant_dimensions":["pattern","legs"],"bee_group":{"antennae":"X","wings":"X","pattern":"D","legs":"F"},"bonus":1.7800000000000011},{"rt":3884.300000000745,"stimulus":"You have completed the first part of this experiment.<br><br>You will now begin a shorter second part, in which you will receive no feedback.<br>The same rules regarding bonus pay apply.<br><br>Press any key to begin.","response":" ","trial_type":"html-keyboard-response","trial_index":135,"time_elapsed":1473339,"internal_node_id":"0.0-5.0","subject_id":"5f07329506cf5e0f6c60a48b","study_id":"60edd13110225f80f9f3709b","session_id":"6196c86781eb0647e24323bb","condition":"full-information","relevant_dimensions":["pattern","legs"],"bee_group":{"antennae":"X","wings":"X","pattern":"D","legs":"F"},"bonus":1.7800000000000011},{"rt":11395.900000002235,"stimulus":"bees-with-color/bee-B2SM.svg","response":1,"trial_type":"image-button-response","trial_index":136,"time_elapsed":1484745,"internal_node_id":"0.0-6.0-0.0","subject_id":"5f07329506cf5e0f6c60a48b","study_id":"60edd13110225f80f9f3709b","session_id":"6196c86781eb0647e24323bb","condition":"full-information","relevant_dimensions":["pattern","legs"],"bee_group":{"antennae":"X","wings":"X","pattern":"D","legs":"F"},"bonus":1.7800000000000011},{"rt":8674.099999997765,"stimulus":"bees-with-color/bee-A2DM.svg","response":0,"trial_type":"image-button-response","trial_index":137,"time_elapsed":1493423,"internal_node_id":"0.0-6.0-0.1","subject_id":"5f07329506cf5e0f6c60a48b","study_id":"60edd13110225f80f9f3709b","session_id":"6196c86781eb0647e24323bb","condition":"full-information","relevant_dimensions":["pattern","legs"],"bee_group":{"antennae":"X","wings":"X","pattern":"D","legs":"F"},"bonus":1.7800000000000011},{"rt":6216.39999999851,"stimulus":"bees-with-color/bee-B2DF.svg","response":1,"trial_type":"image-button-response","trial_index":138,"time_elapsed":1499643,"internal_node_id":"0.0-6.0-0.2","subject_id":"5f07329506cf5e0f6c60a48b","study_id":"60edd13110225f80f9f3709b","session_id":"6196c86781eb0647e24323bb","condition":"full-information","relevant_dimensions":["pattern","legs"],"bee_group":{"antennae":"X","wings":"X","pattern":"D","legs":"F"},"bonus":1.7800000000000011},{"rt":10160.60000000149,"stimulus":"bees-with-color/bee-A2SF.svg","response":0,"trial_type":"image-button-response","trial_index":139,"time_elapsed":1509806,"internal_node_id":"0.0-6.0-0.3","subject_id":"5f07329506cf5e0f6c60a48b","study_id":"60edd13110225f80f9f3709b","session_id":"6196c86781eb0647e24323bb","condition":"full-information","relevant_dimensions":["pattern","legs"],"bee_group":{"antennae":"X","wings":"X","pattern":"D","legs":"F"},"bonus":1.7800000000000011},{"rt":6893,"stimulus":"bees-with-color/bee-B1SM.svg","response":0,"trial_type":"image-button-response","trial_index":140,"time_elapsed":1516702,"internal_node_id":"0.0-6.0-0.4","subject_id":"5f07329506cf5e0f6c60a48b","study_id":"60edd13110225f80f9f3709b","session_id":"6196c86781eb0647e24323bb","condition":"full-information","relevant_dimensions":["pattern","legs"],"bee_group":{"antennae":"X","wings":"X","pattern":"D","legs":"F"},"bonus":1.7800000000000011},{"rt":7133.300000000745,"stimulus":"bees-with-color/bee-A1DF.svg","response":1,"trial_type":"image-button-response","trial_index":141,"time_elapsed":1523838,"internal_node_id":"0.0-6.0-0.5","subject_id":"5f07329506cf5e0f6c60a48b","study_id":"60edd13110225f80f9f3709b","session_id":"6196c86781eb0647e24323bb","condition":"full-information","relevant_dimensions":["pattern","legs"],"bee_group":{"antennae":"X","wings":"X","pattern":"D","legs":"F"},"bonus":1.7800000000000011},{"rt":884.8999999985099,"stimulus":"bees-with-color/bee-A2SM.svg","response":0,"trial_type":"image-button-response","trial_index":142,"time_elapsed":1524726,"internal_node_id":"0.0-6.0-0.6","subject_id":"5f07329506cf5e0f6c60a48b","study_id":"60edd13110225f80f9f3709b","session_id":"6196c86781eb0647e24323bb","condition":"full-information","relevant_dimensions":["pattern","legs"],"bee_group":{"antennae":"X","wings":"X","pattern":"D","legs":"F"},"bonus":1.7800000000000011},{"rt":2449.7000000029802,"stimulus":"bees-with-color/bee-B2DM.svg","response":0,"trial_type":"image-button-response","trial_index":143,"time_elapsed":1527178,"internal_node_id":"0.0-6.0-0.7","subject_id":"5f07329506cf5e0f6c60a48b","study_id":"60edd13110225f80f9f3709b","session_id":"6196c86781eb0647e24323bb","condition":"full-information","relevant_dimensions":["pattern","legs"],"bee_group":{"antennae":"X","wings":"X","pattern":"D","legs":"F"},"bonus":1.7800000000000011},{"rt":1399.6000000014901,"stimulus":"bees-with-color/bee-B1DM.svg","response":0,"trial_type":"image-button-response","trial_index":144,"time_elapsed":1528580,"internal_node_id":"0.0-6.0-0.8","subject_id":"5f07329506cf5e0f6c60a48b","study_id":"60edd13110225f80f9f3709b","session_id":"6196c86781eb0647e24323bb","condition":"full-information","relevant_dimensions":["pattern","legs"],"bee_group":{"antennae":"X","wings":"X","pattern":"D","legs":"F"},"bonus":1.7800000000000011},{"rt":2309.5,"stimulus":"bees-with-color/bee-B1DF.svg","response":1,"trial_type":"image-button-response","trial_index":145,"time_elapsed":1530892,"internal_node_id":"0.0-6.0-0.9","subject_id":"5f07329506cf5e0f6c60a48b","study_id":"60edd13110225f80f9f3709b","session_id":"6196c86781eb0647e24323bb","condition":"full-information","relevant_dimensions":["pattern","legs"],"bee_group":{"antennae":"X","wings":"X","pattern":"D","legs":"F"},"bonus":1.7800000000000011},{"rt":1931.5999999977648,"stimulus":"bees-with-color/bee-A1SM.svg","response":0,"trial_type":"image-button-response","trial_index":146,"time_elapsed":1532827,"internal_node_id":"0.0-6.0-0.10","subject_id":"5f07329506cf5e0f6c60a48b","study_id":"60edd13110225f80f9f3709b","session_id":"6196c86781eb0647e24323bb","condition":"full-information","relevant_dimensions":["pattern","legs"],"bee_group":{"antennae":"X","wings":"X","pattern":"D","legs":"F"},"bonus":1.7800000000000011},{"rt":3267.2000000029802,"stimulus":"bees-with-color/bee-B1SF.svg","response":0,"trial_type":"image-button-response","trial_index":147,"time_elapsed":1536096,"internal_node_id":"0.0-6.0-0.11","subject_id":"5f07329506cf5e0f6c60a48b","study_id":"60edd13110225f80f9f3709b","session_id":"6196c86781eb0647e24323bb","condition":"full-information","relevant_dimensions":["pattern","legs"],"bee_group":{"antennae":"X","wings":"X","pattern":"D","legs":"F"},"bonus":1.7800000000000011},{"rt":1088.8999999985099,"stimulus":"bees-with-color/bee-A1DM.svg","response":0,"trial_type":"image-button-response","trial_index":148,"time_elapsed":1537189,"internal_node_id":"0.0-6.0-0.12","subject_id":"5f07329506cf5e0f6c60a48b","study_id":"60edd13110225f80f9f3709b","session_id":"6196c86781eb0647e24323bb","condition":"full-information","relevant_dimensions":["pattern","legs"],"bee_group":{"antennae":"X","wings":"X","pattern":"D","legs":"F"},"bonus":1.7800000000000011},{"rt":20479.800000000745,"stimulus":"bees-with-color/bee-A2DF.svg","response":1,"trial_type":"image-button-response","trial_index":149,"time_elapsed":1557670,"internal_node_id":"0.0-6.0-0.13","subject_id":"5f07329506cf5e0f6c60a48b","study_id":"60edd13110225f80f9f3709b","session_id":"6196c86781eb0647e24323bb","condition":"full-information","relevant_dimensions":["pattern","legs"],"bee_group":{"antennae":"X","wings":"X","pattern":"D","legs":"F"},"bonus":1.7800000000000011},{"rt":3640.89999999851,"stimulus":"bees-with-color/bee-B2SF.svg","response":0,"trial_type":"image-button-response","trial_index":150,"time_elapsed":1561314,"internal_node_id":"0.0-6.0-0.14","subject_id":"5f07329506cf5e0f6c60a48b","study_id":"60edd13110225f80f9f3709b","session_id":"6196c86781eb0647e24323bb","condition":"full-information","relevant_dimensions":["pattern","legs"],"bee_group":{"antennae":"X","wings":"X","pattern":"D","legs":"F"},"bonus":1.7800000000000011},{"rt":4351.60000000149,"stimulus":"bees-with-color/bee-A1SF.svg","response":0,"trial_type":"image-button-response","trial_index":151,"time_elapsed":1565668,"internal_node_id":"0.0-6.0-0.15","subject_id":"5f07329506cf5e0f6c60a48b","study_id":"60edd13110225f80f9f3709b","session_id":"6196c86781eb0647e24323bb","condition":"full-information","relevant_dimensions":["pattern","legs"],"bee_group":{"antennae":"X","wings":"X","pattern":"D","legs":"F"},"bonus":1.7800000000000011},{"rt":1587.699999999255,"stimulus":"bees-with-color/bee-A1SF.svg","response":0,"trial_type":"image-button-response","trial_index":152,"time_elapsed":1567258,"internal_node_id":"0.0-6.0-0.16","subject_id":"5f07329506cf5e0f6c60a48b","study_id":"60edd13110225f80f9f3709b","session_id":"6196c86781eb0647e24323bb","condition":"full-information","relevant_dimensions":["pattern","legs"],"bee_group":{"antennae":"X","wings":"X","pattern":"D","legs":"F"},"bonus":1.7800000000000011},{"rt":1282.300000000745,"stimulus":"bees-with-color/bee-B1DM.svg","response":0,"trial_type":"image-button-response","trial_index":153,"time_elapsed":1568543,"internal_node_id":"0.0-6.0-0.17","subject_id":"5f07329506cf5e0f6c60a48b","study_id":"60edd13110225f80f9f3709b","session_id":"6196c86781eb0647e24323bb","condition":"full-information","relevant_dimensions":["pattern","legs"],"bee_group":{"antennae":"X","wings":"X","pattern":"D","legs":"F"},"bonus":1.7800000000000011},{"rt":757.6999999992549,"stimulus":"bees-with-color/bee-A2SM.svg","response":0,"trial_type":"image-button-response","trial_index":154,"time_elapsed":1569302,"internal_node_id":"0.0-6.0-0.18","subject_id":"5f07329506cf5e0f6c60a48b","study_id":"60edd13110225f80f9f3709b","session_id":"6196c86781eb0647e24323bb","condition":"full-information","relevant_dimensions":["pattern","legs"],"bee_group":{"antennae":"X","wings":"X","pattern":"D","legs":"F"},"bonus":1.7800000000000011},{"rt":3030,"stimulus":"bees-with-color/bee-B2DF.svg","response":1,"trial_type":"image-button-response","trial_index":155,"time_elapsed":1572334,"internal_node_id":"0.0-6.0-0.19","subject_id":"5f07329506cf5e0f6c60a48b","study_id":"60edd13110225f80f9f3709b","session_id":"6196c86781eb0647e24323bb","condition":"full-information","relevant_dimensions":["pattern","legs"],"bee_group":{"antennae":"X","wings":"X","pattern":"D","legs":"F"},"bonus":1.7800000000000011},{"rt":3999.900000002235,"stimulus":"bees-with-color/bee-A2DF.svg","response":1,"trial_type":"image-button-response","trial_index":156,"time_elapsed":1576336,"internal_node_id":"0.0-6.0-0.20","subject_id":"5f07329506cf5e0f6c60a48b","study_id":"60edd13110225f80f9f3709b","session_id":"6196c86781eb0647e24323bb","condition":"full-information","relevant_dimensions":["pattern","legs"],"bee_group":{"antennae":"X","wings":"X","pattern":"D","legs":"F"},"bonus":1.7800000000000011},{"rt":795.5,"stimulus":"bees-with-color/bee-B2SM.svg","response":0,"trial_type":"image-button-response","trial_index":157,"time_elapsed":1577134,"internal_node_id":"0.0-6.0-0.21","subject_id":"5f07329506cf5e0f6c60a48b","study_id":"60edd13110225f80f9f3709b","session_id":"6196c86781eb0647e24323bb","condition":"full-information","relevant_dimensions":["pattern","legs"],"bee_group":{"antennae":"X","wings":"X","pat