[{"success":true,"trial_type":"fullscreen","trial_index":0,"time_elapsed":11632,"internal_node_id":"0.0-0.0","subject_id":"61070c77a4f4d4d8ce80d223","study_id":"60edd13110225f80f9f3709b","session_id":"6196ba7b7190adca308ae37c","condition":"full-information","relevant_dimensions":["antennae","pattern"],"bee_group":{"antennae":"B","wings":"X","pattern":"S","legs":"X"},"bonus":0.2400000000000013},{"success":true,"timeout":false,"failed_images":[],"failed_audio":[],"failed_video":[],"trial_type":"preload","trial_index":1,"time_elapsed":13235,"internal_node_id":"0.0-1.0","subject_id":"61070c77a4f4d4d8ce80d223","study_id":"60edd13110225f80f9f3709b","session_id":"6196ba7b7190adca308ae37c","condition":"full-information","relevant_dimensions":["antennae","pattern"],"bee_group":{"antennae":"B","wings":"X","pattern":"S","legs":"X"},"bonus":0.2400000000000013},{"rt":2365.399999999907,"stimulus":"Welcome! Press any key to begin.","response":" ","trial_type":"html-keyboard-response","trial_index":2,"time_elapsed":15602,"internal_node_id":"0.0-2.0","subject_id":"61070c77a4f4d4d8ce80d223","study_id":"60edd13110225f80f9f3709b","session_id":"6196ba7b7190adca308ae37c","condition":"full-information","relevant_dimensions":["antennae","pattern"],"bee_group":{"antennae":"B","wings":"X","pattern":"S","legs":"X"},"bonus":0.2400000000000013},{"view_history":[{"page_index":0,"viewing_time":14490.699999999953},{"page_index":1,"viewing_time":12774.400000000023},{"page_index":2,"viewing_time":22150.099999999977},{"page_index":3,"viewing_time":24763.599999999977},{"page_index":4,"viewing_time":8038.300000000047},{"page_index":5,"viewing_time":12912.599999999977},{"page_index":6,"viewing_time":9293.599999999977},{"page_index":7,"viewing_time":11567.20000000007},{"page_index":8,"viewing_time":4026.1999999999534},{"page_index":9,"viewing_time":3208.3000000000466},{"page_index":10,"viewing_time":3033.899999999907},{"page_index":11,"viewing_time":7456},{"page_index":12,"viewing_time":13724.800000000047},{"page_index":13,"viewing_time":1210.4000000000233},{"page_index":14,"viewing_time":1273}],"rt":149923.69999999995,"trial_type":"instructions","trial_index":3,"time_elapsed":165525,"internal_node_id":"0.0-3.0-0.0","subject_id":"61070c77a4f4d4d8ce80d223","study_id":"60edd13110225f80f9f3709b","session_id":"6196ba7b7190adca308ae37c","condition":"full-information","relevant_dimensions":["antennae","pattern"],"bee_group":{"antennae":"B","wings":"X","pattern":"S","legs":"X"},"bonus":0.2400000000000013},{"rt":30169,"response":{"Q0":["Two or six legs","Stripes or spots on body","Single or double wings","Antennae or no antennae"]},"question_order":[0],"trial_type":"survey-multi-select","trial_index":4,"time_elapsed":195704,"internal_node_id":"0.0-3.0-1.0","subject_id":"61070c77a4f4d4d8ce80d223","study_id":"60edd13110225f80f9f3709b","session_id":"6196ba7b7190adca308ae37c","condition":"full-information","relevant_dimensions":["antennae","pattern"],"bee_group":{"antennae":"B","wings":"X","pattern":"S","legs":"X"},"correct":true,"bonus":0.2400000000000013},{"rt":30916.5,"response":{"Q1":"No.","Q2":"Based on the four features of the bee.","Q3":"You learn if it was friendly or dangerous, but do not alter your bonus."},"question_order":[0,1,2],"trial_type":"survey-multi-choice","trial_index":5,"time_elapsed":226626,"internal_node_id":"0.0-3.0-2.0","subject_id":"61070c77a4f4d4d8ce80d223","study_id":"60edd13110225f80f9f3709b","session_id":"6196ba7b7190adca308ae37c","condition":"full-information","relevant_dimensions":["antennae","pattern"],"bee_group":{"antennae":"B","wings":"X","pattern":"S","legs":"X"},"correct":true,"bonus":0.2400000000000013},{"rt":1912.4000000000233,"stimulus":"<p>Congrats, you got everything right<br>When you're ready, click the button below to continue to the experiment.</p>","response":0,"trial_type":"html-button-response","trial_index":6,"time_elapsed":228542,"internal_node_id":"0.0-3.0-3.0","subject_id":"61070c77a4f4d4d8ce80d223","study_id":"60edd13110225f80f9f3709b","session_id":"6196ba7b7190adca308ae37c","condition":"full-information","relevant_dimensions":["antennae","pattern"],"bee_group":{"antennae":"B","wings":"X","pattern":"S","legs":"X"},"bonus":0.2400000000000013},{"rt":11559.900000000023,"stimulus":"bees-with-color/bee-A1SM.svg","response":0,"trial_type":"image-button-response","trial_index":7,"time_elapsed":240108,"internal_node_id":"0.0-4.0-0.0","subject_id":"61070c77a4f4d4d8ce80d223","study_id":"60edd13110225f80f9f3709b","session_id":"6196ba7b7190adca308ae37c","condition":"full-information","relevant_dimensions":["antennae","pattern"],"bee_group":{"antennae":"B","wings":"X","pattern":"S","legs":"X"},"action":"harvest","summary":"good-harvest","bonus":0.2400000000000013},{"rt":6323.099999999977,"stimulus":"\n                    <p><b>Action: <em>harvest</em></b></p>\n                    <p>This is the bee that you just saw.</p>\n                    <img src=\"bees-with-color/bee-A1SM.svg\" width=\"200\">\n                    <p><span class=\"greenText\"><b>Successful harvest!</b></span><br>Your pay has increased by $0.02. Your bonus pay is now $0.56.</p>\n            ","response":0,"trial_type":"html-button-response","trial_index":8,"time_elapsed":246437,"internal_node_id":"0.0-4.0-1.0","subject_id":"61070c77a4f4d4d8ce80d223","study_id":"60edd13110225f80f9f3709b","session_id":"6196ba7b7190adca308ae37c","condition":"full-information","relevant_dimensions":["antennae","pattern"],"bee_group":{"antennae":"B","wings":"X","pattern":"S","legs":"X"},"bonus":0.2400000000000013},{"rt":13345.800000000047,"stimulus":"bees-with-color/bee-B1DF.svg","response":1,"trial_type":"image-button-response","trial_index":9,"time_elapsed":259787,"internal_node_id":"0.0-4.0-0.1","subject_id":"61070c77a4f4d4d8ce80d223","study_id":"60edd13110225f80f9f3709b","session_id":"6196ba7b7190adca308ae37c","condition":"full-information","relevant_dimensions":["antennae","pattern"],"bee_group":{"antennae":"B","wings":"X","pattern":"S","legs":"X"},"action":"avoid","summary":"bad-avoid","bonus":0.2400000000000013},{"rt":11848.199999999953,"stimulus":"\n                    <p><b>Action: <em>avoid</em></b></p>\n                    <p>This is the bee that you just saw.</p>\n                    <img src=\"bees-with-color/bee-B1DF.svg\" width=\"200\">\n                    <p><span class=\"redText\">Bad choice,</span> the bee was friendly.<br>Your bonus pay is unchanged, and remains at $0.56.</p>\n            ","response":0,"trial_type":"html-button-response","trial_index":10,"time_elapsed":271638,"internal_node_id":"0.0-4.0-1.1","subject_id":"61070c77a4f4d4d8ce80d223","study_id":"60edd13110225f80f9f3709b","session_id":"6196ba7b7190adca308ae37c","condition":"full-information","relevant_dimensions":["antennae","pattern"],"bee_group":{"antennae":"B","wings":"X","pattern":"S","legs":"X"},"bonus":0.2400000000000013},{"rt":10961.900000000023,"stimulus":"bees-with-color/bee-B1SF.svg","response":1,"trial_type":"image-button-response","trial_index":11,"time_elapsed":282604,"internal_node_id":"0.0-4.0-0.2","subject_id":"61070c77a4f4d4d8ce80d223","study_id":"60edd13110225f80f9f3709b","session_id":"6196ba7b7190adca308ae37c","condition":"full-information","relevant_dimensions":["antennae","pattern"],"bee_group":{"antennae":"B","wings":"X","pattern":"S","legs":"X"},"action":"avoid","summary":"good-avoid","bonus":0.2400000000000013},{"rt":5233.599999999977,"stimulus":"\n                    <p><b>Action: <em>avoid</em></b></p>\n                    <p>This is the bee that you just saw.</p>\n                    <img src=\"bees-with-color/bee-B1SF.svg\" width=\"200\">\n                    <p><span class=\"greenText\">Good choice!</span>  This bee would have stung you.<br>Your bonus pay is unchanged, and remains at $0.56.</p>\n            ","response":0,"trial_type":"html-button-response","trial_index":12,"time_elapsed":287841,"internal_node_id":"0.0-4.0-1.2","subject_id":"61070c77a4f4d4d8ce80d223","study_id":"60edd13110225f80f9f3709b","session_id":"6196ba7b7190adca308ae37c","condition":"full-information","relevant_dimensions":["antennae","pattern"],"bee_group":{"antennae":"B","wings":"X","pattern":"S","legs":"X"},"bonus":0.2400000000000013},{"rt":20249.699999999953,"stimulus":"bees-with-color/bee-A1DM.svg","response":0,"trial_type":"image-button-response","trial_index":13,"time_elapsed":308094,"internal_node_id":"0.0-4.0-0.3","subject_id":"61070c77a4f4d4d8ce80d223","study_id":"60edd13110225f80f9f3709b","session_id":"6196ba7b7190adca308ae37c","condition":"full-information","relevant_dimensions":["antennae","pattern"],"bee_group":{"antennae":"B","wings":"X","pattern":"S","legs":"X"},"action":"harvest","summary":"good-harvest","bonus":0.2400000000000013},{"rt":4442.099999999977,"stimulus":"\n                    <p><b>Action: <em>harvest</em></b></p>\n                    <p>This is the bee that you just saw.</p>\n                    <img src=\"bees-with-color/bee-A1DM.svg\" width=\"200\">\n                    <p><span class=\"greenText\"><b>Successful harvest!</b></span><br>Your pay has increased by $0.02. Your bonus pay is now $0.58.</p>\n            ","response":0,"trial_type":"html-button-response","trial_index":14,"time_elapsed":312540,"internal_node_id":"0.0-4.0-1.3","subject_id":"61070c77a4f4d4d8ce80d223","study_id":"60edd13110225f80f9f3709b","session_id":"6196ba7b7190adca308ae37c","condition":"full-information","relevant_dimensions":["antennae","pattern"],"bee_group":{"antennae":"B","wings":"X","pattern":"S","legs":"X"},"bonus":0.2400000000000013},{"rt":15866.20000000007,"stimulus":"bees-with-color/bee-A2SF.svg","response":1,"trial_type":"image-button-response","trial_index":15,"time_elapsed":328409,"internal_node_id":"0.0-4.0-0.4","subject_id":"61070c77a4f4d4d8ce80d223","study_id":"60edd13110225f80f9f3709b","session_id":"6196ba7b7190adca308ae37c","condition":"full-information","relevant_dimensions":["antennae","pattern"],"bee_group":{"antennae":"B","wings":"X","pattern":"S","legs":"X"},"action":"avoid","summary":"bad-avoid","bonus":0.2400000000000013},{"rt":4000.6999999999534,"stimulus":"\n                    <p><b>Action: <em>avoid</em></b></p>\n                    <p>This is the bee that you just saw.</p>\n                    <img src=\"bees-with-color/bee-A2SF.svg\" width=\"200\">\n                    <p><span class=\"redText\">Bad choice,</span> the bee was friendly.<br>Your bonus pay is unchanged, and remains at $0.58.</p>\n            ","response":0,"trial_type":"html-button-response","trial_index":16,"time_elapsed":332413,"internal_node_id":"0.0-4.0-1.4","subject_id":"61070c77a4f4d4d8ce80d223","study_id":"60edd13110225f80f9f3709b","session_id":"6196ba7b7190adca308ae37c","condition":"full-information","relevant_dimensions":["antennae","pattern"],"bee_group":{"antennae":"B","wings":"X","pattern":"S","legs":"X"},"bonus":0.2400000000000013},{"rt":2476.9000000000233,"stimulus":"bees-with-color/bee-B2SF.svg","response":0,"trial_type":"image-button-response","trial_index":17,"time_elapsed":334894,"internal_node_id":"0.0-4.0-0.5","subject_id":"61070c77a4f4d4d8ce80d223","study_id":"60edd13110225f80f9f3709b","session_id":"6196ba7b7190adca308ae37c","condition":"full-information","relevant_dimensions":["antennae","pattern"],"bee_group":{"antennae":"B","wings":"X","pattern":"S","legs":"X"},"action":"harvest","summary":"bad-harvest","bonus":0.2400000000000013},{"rt":33566.39999999991,"stimulus":"\n                    <p><b>Action: <em>harvest</em></b></p>\n                    <p>This is the bee that you just saw.</p>\n                    <img src=\"bees-with-color/bee-B2SF.svg\" width=\"200\">\n                    <p><span class=\"redText\">Bad choice, the bee was angry.</span><br><b>You have been stung!</b><br>Your pay has been decreased by $0.10. Your bonus pay is now $0.48.</p>\n            ","response":0,"trial_type":"html-button-response","trial_index":18,"time_elapsed":368462,"internal_node_id":"0.0-4.0-1.5","subject_id":"61070c77a4f4d4d8ce80d223","study_id":"60edd13110225f80f9f3709b","session_id":"6196ba7b7190adca308ae37c","condition":"full-information","relevant_dimensions":["antennae","pattern"],"bee_group":{"antennae":"B","wings":"X","pattern":"S","legs":"X"},"bonus":0.2400000000000013},{"rt":7478,"stimulus":"bees-with-color/bee-A2DF.svg","response":0,"trial_type":"image-button-response","trial_index":19,"time_elapsed":375944,"internal_node_id":"0.0-4.0-0.6","subject_id":"61070c77a4f4d4d8ce80d223","study_id":"60edd13110225f80f9f3709b","session_id":"6196ba7b7190adca308ae37c","condition":"full-information","relevant_dimensions":["antennae","pattern"],"bee_group":{"antennae":"B","wings":"X","pattern":"S","legs":"X"},"action":"harvest","summary":"good-harvest","bonus":0.2400000000000013},{"rt":10779,"stimulus":"\n                    <p><b>Action: <em>harvest</em></b></p>\n                    <p>This is the bee that you just saw.</p>\n                    <img src=\"bees-with-color/bee-A2DF.svg\" width=\"200\">\n                    <p><span class=\"greenText\"><b>Successful harvest!</b></span><br>Your pay has increased by $0.02. Your bonus pay is now $0.50.</p>\n            ","response":0,"trial_type":"html-button-response","trial_index":20,"time_elapsed":386726,"internal_node_id":"0.0-4.0-1.6","subject_id":"61070c77a4f4d4d8ce80d223","study_id":"60edd13110225f80f9f3709b","session_id":"6196ba7b7190adca308ae37c","condition":"full-information","relevant_dimensions":["antennae","pattern"],"bee_group":{"antennae":"B","wings":"X","pattern":"S","legs":"X"},"bonus":0.2400000000000013},{"rt":4654.5,"stimulus":"bees-with-color/bee-B2DF.svg","response":1,"trial_type":"image-button-response","trial_index":21,"time_elapsed":391384,"internal_node_id":"0.0-4.0-0.7","subject_id":"61070c77a4f4d4d8ce80d223","study_id":"60edd13110225f80f9f3709b","session_id":"6196ba7b7190adca308ae37c","condition":"full-information","relevant_dimensions":["antennae","pattern"],"bee_group":{"antennae":"B","wings":"X","pattern":"S","legs":"X"},"action":"avoid","summary":"bad-avoid","bonus":0.2400000000000013},{"rt":5475.199999999953,"stimulus":"\n                    <p><b>Action: <em>avoid</em></b></p>\n                    <p>This is the bee that you just saw.</p>\n                    <img src=\"bees-with-color/bee-B2DF.svg\" width=\"200\">\n                    <p><span class=\"redText\">Bad choice,</span> the bee was friendly.<br>Your bonus pay is unchanged, and remains at $0.50.</p>\n            ","response":0,"trial_type":"html-button-response","trial_index":22,"time_elapsed":396862,"internal_node_id":"0.0-4.0-1.7","subject_id":"61070c77a4f4d4d8ce80d223","study_id":"60edd13110225f80f9f3709b","session_id":"6196ba7b7190adca308ae37c","condition":"full-information","relevant_dimensions":["antennae","pattern"],"bee_group":{"antennae":"B","wings":"X","pattern":"S","legs":"X"},"bonus":0.2400000000000013},{"rt":2506.29999999993,"stimulus":"bees-with-color/bee-A2DM.svg","response":0,"trial_type":"image-button-response","trial_index":23,"time_elapsed":399372,"internal_node_id":"0.0-4.0-0.8","subject_id":"61070c77a4f4d4d8ce80d223","study_id":"60edd13110225f80f9f3709b","session_id":"6196ba7b7190adca308ae37c","condition":"full-information","relevant_dimensions":["antennae","pattern"],"bee_group":{"antennae":"B","wings":"X","pattern":"S","legs":"X"},"action":"harvest","summary":"good-harvest","bonus":0.2400000000000013},{"rt":1274.0999999999767,"stimulus":"\n                    <p><b>Action: <em>harvest</em></b></p>\n                    <p>This is the bee that you just saw.</p>\n                    <img src=\"bees-with-color/bee-A2DM.svg\" width=\"200\">\n                    <p><span class=\"greenText\"><b>Successful harvest!</b></span><br>Your pay has increased by $0.02. Your bonus pay is now $0.52.</p>\n            ","response":0,"trial_type":"html-button-response","trial_index":24,"time_elapsed":400650,"internal_node_id":"0.0-4.0-1.8","subject_id":"61070c77a4f4d4d8ce80d223","study_id":"60edd13110225f80f9f3709b","session_id":"6196ba7b7190adca308ae37c","condition":"full-information","relevant_dimensions":["antennae","pattern"],"bee_group":{"antennae":"B","wings":"X","pattern":"S","legs":"X"},"bonus":0.2400000000000013},{"rt":2075,"stimulus":"bees-with-color/bee-B1DM.svg","response":0,"trial_type":"image-button-response","trial_index":25,"time_elapsed":402727,"internal_node_id":"0.0-4.0-0.9","subject_id":"61070c77a4f4d4d8ce80d223","study_id":"60edd13110225f80f9f3709b","session_id":"6196ba7b7190adca308ae37c","condition":"full-information","relevant_dimensions":["antennae","pattern"],"bee_group":{"antennae":"B","wings":"X","pattern":"S","legs":"X"},"action":"harvest","summary":"good-harvest","bonus":0.2400000000000013},{"rt":1287.2999999999302,"stimulus":"\n                    <p><b>Action: <em>harvest</em></b></p>\n                    <p>This is the bee that you just saw.</p>\n                    <img src=\"bees-with-color/bee-B1DM.svg\" width=\"200\">\n                    <p><span class=\"greenText\"><b>Successful harvest!</b></span><br>Your pay has increased by $0.02. Your bonus pay is now $0.54.</p>\n            ","response":0,"trial_type":"html-button-response","trial_index":26,"time_elapsed":404018,"internal_node_id":"0.0-4.0-1.9","subject_id":"61070c77a4f4d4d8ce80d223","study_id":"60edd13110225f80f9f3709b","session_id":"6196ba7b7190adca308ae37c","condition":"full-information","relevant_dimensions":["antennae","pattern"],"bee_group":{"antennae":"B","wings":"X","pattern":"S","legs":"X"},"bonus":0.2400000000000013},{"rt":2228.1999999999534,"stimulus":"bees-with-color/bee-B2SM.svg","response":1,"trial_type":"image-button-response","trial_index":27,"time_elapsed":406250,"internal_node_id":"0.0-4.0-0.10","subject_id":"61070c77a4f4d4d8ce80d223","study_id":"60edd13110225f80f9f3709b","session_id":"6196ba7b7190adca308ae37c","condition":"full-information","relevant_dimensions":["antennae","pattern"],"bee_group":{"antennae":"B","wings":"X","pattern":"S","legs":"X"},"action":"avoid","summary":"good-avoid","bonus":0.2400000000000013},{"rt":1913.3000000000466,"stimulus":"\n                    <p><b>Action: <em>avoid</em></b></p>\n                    <p>This is the bee that you just saw.</p>\n                    <img src=\"bees-with-color/bee-B2SM.svg\" width=\"200\">\n                    <p><span class=\"greenText\">Good choice!</span>  This bee would have stung you.<br>Your bonus pay is unchanged, and remains at $0.54.</p>\n            ","response":0,"trial_type":"html-button-response","trial_index":28,"time_elapsed":408166,"internal_node_id":"0.0-4.0-1.10","subject_id":"61070c77a4f4d4d8ce80d223","study_id":"60edd13110225f80f9f3709b","session_id":"6196ba7b7190adca308ae37c","condition":"full-information","relevant_dimensions":["antennae","pattern"],"bee_group":{"antennae":"B","wings":"X","pattern":"S","legs":"X"},"bonus":0.2400000000000013},{"rt":3174.100000000093,"stimulus":"bees-with-color/bee-B2DM.svg","response":1,"trial_type":"image-button-response","trial_index":29,"time_elapsed":411344,"internal_node_id":"0.0-4.0-0.11","subject_id":"61070c77a4f4d4d8ce80d223","study_id":"60edd13110225f80f9f3709b","session_id":"6196ba7b7190adca308ae37c","condition":"full-information","relevant_dimensions":["antennae","pattern"],"bee_group":{"antennae":"B","wings":"X","pattern":"S","legs":"X"},"action":"avoid","summary":"bad-avoid","bonus":0.2400000000000013},{"rt":935.4000000000233,"stimulus":"\n                    <p><b>Action: <em>avoid</em></b></p>\n                    <p>This is the bee that you just saw.</p>\n                    <img src=\"bees-with-color/bee-B2DM.svg\" width=\"200\">\n                    <p><span class=\"redText\">Bad choice,</span> the bee was friendly.<br>Your bonus pay is unchanged, and remains at $0.54.</p>\n            ","response":0,"trial_type":"html-button-response","trial_index":30,"time_elapsed":412282,"internal_node_id":"0.0-4.0-1.11","subject_id":"61070c77a4f4d4d8ce80d223","study_id":"60edd13110225f80f9f3709b","session_id":"6196ba7b7190adca308ae37c","condition":"full-information","relevant_dimensions":["antennae","pattern"],"bee_group":{"antennae":"B","wings":"X","pattern":"S","legs":"X"},"bonus":0.2400000000000013},{"rt":1244.2999999999302,"stimulus":"bees-with-color/bee-A1DF.svg","response":0,"trial_type":"image-button-response","trial_index":31,"time_elapsed":413529,"internal_node_id":"0.0-4.0-0.12","subject_id":"61070c77a4f4d4d8ce80d223","study_id":"60edd13110225f80f9f3709b","session_id":"6196ba7b7190adca308ae37c","condition":"full-information","relevant_dimensions":["antennae","pattern"],"bee_group":{"antennae":"B","wings":"X","pattern":"S","legs":"X"},"action":"harvest","summary":"good-harvest","bonus":0.2400000000000013},{"rt":1023.1999999999534,"stimulus":"\n                    <p><b>Action: <em>harvest</em></b></p>\n                    <p>This is the bee that you just saw.</p>\n                    <img src=\"bees-with-color/bee-A1DF.svg\" width=\"200\">\n                    <p><span class=\"greenText\"><b>Successful harvest!</b></span><br>Your pay has increased by $0.02. Your bonus pay is now $0.56.</p>\n            ","response":0,"trial_type":"html-button-response","trial_index":32,"time_elapsed":414556,"internal_node_id":"0.0-4.0-1.12","subject_id":"61070c77a4f4d4d8ce80d223","study_id":"60edd13110225f80f9f3709b","session_id":"6196ba7b7190adca308ae37c","condition":"full-information","relevant_dimensions":["antennae","pattern"],"bee_group":{"antennae":"B","wings":"X","pattern":"S","legs":"X"},"bonus":0.2400000000000013},{"rt":2021.3000000000466,"stimulus":"bees-with-color/bee-B1SM.svg","response":0,"trial_type":"image-button-response","trial_index":33,"time_elapsed":416580,"internal_node_id":"0.0-4.0-0.13","subject_id":"61070c77a4f4d4d8ce80d223","study_id":"60edd13110225f80f9f3709b","session_id":"6196ba7b7190adca308ae37c","condition":"full-information","relevant_dimensions":["antennae","pattern"],"bee_group":{"antennae":"B","wings":"X","pattern":"S","legs":"X"},"action":"harvest","summary":"bad-harvest","bonus":0.2400000000000013},{"rt":1199.3000000000466,"stimulus":"\n                    <p><b>Action: <em>harvest</em></b></p>\n                    <p>This is the bee that you just saw.</p>\n                    <img src=\"bees-with-color/bee-B1SM.svg\" width=\"200\">\n                    <p><span class=\"redText\">Bad choice, the bee was angry.</span><br><b>You have been stung!</b><br>Your pay has been decreased by $0.10. Your bonus pay is now $0.46.</p>\n            ","response":0,"trial_type":"html-button-response","trial_index":34,"time_elapsed":417782,"internal_node_id":"0.0-4.0-1.13","subject_id":"61070c77a4f4d4d8ce80d223","study_id":"60edd13110225f80f9f3709b","session_id":"6196ba7b7190adca308ae37c","condition":"full-information","relevant_dimensions":["antennae","pattern"],"bee_group":{"antennae":"B","wings":"X","pattern":"S","legs":"X"},"bonus":0.2400000000000013},{"rt":1504.2000000000698,"stimulus":"bees-with-color/bee-A2SM.svg","response":1,"trial_type":"image-button-response","trial_index":35,"time_elapsed":419290,"internal_node_id":"0.0-4.0-0.14","subject_id":"61070c77a4f4d4d8ce80d223","study_id":"60edd13110225f80f9f3709b","session_id":"6196ba7b7190adca308ae37c","condition":"full-information","relevant_dimensions":["antennae","pattern"],"bee_group":{"antennae":"B","wings":"X","pattern":"S","legs":"X"},"action":"avoid","summary":"bad-avoid","bonus":0.2400000000000013},{"rt":1199.1999999999534,"stimulus":"\n                    <p><b>Action: <em>avoid</em></b></p>\n                    <p>This is the bee that you just saw.</p>\n                    <img src=\"bees-with-color/bee-A2SM.svg\" width=\"200\">\n                    <p><span class=\"redText\">Bad choice,</span> the bee was friendly.<br>Your bonus pay is unchanged, and remains at $0.46.</p>\n            ","response":0,"trial_type":"html-button-response","trial_index":36,"time_elapsed":420492,"internal_node_id":"0.0-4.0-1.14","subject_id":"61070c77a4f4d4d8ce80d223","study_id":"60edd13110225f80f9f3709b","session_id":"6196ba7b7190adca308ae37c","condition":"full-information","relevant_dimensions":["antennae","pattern"],"bee_group":{"antennae":"B","wings":"X","pattern":"S","legs":"X"},"bonus":0.2400000000000013},{"rt":1661.5,"stimulus":"bees-with-color/bee-A1SF.svg","response":1,"trial_type":"image-button-response","trial_index":37,"time_elapsed":422156,"internal_node_id":"0.0-4.0-0.15","subject_id":"61070c77a4f4d4d8ce80d223","study_id":"60edd13110225f80f9f3709b","session_id":"6196ba7b7190adca308ae37c","condition":"full-information","relevant_dimensions":["antennae","pattern"],"bee_group":{"antennae":"B","wings":"X","pattern":"S","legs":"X"},"action":"avoid","summary":"bad-avoid","bonus":0.2400000000000013},{"rt":1071.1999999999534,"stimulus":"\n                    <p><b>Action: <em>avoid</em></b></p>\n                    <p>This is the bee that you just saw.</p>\n                    <img src=\"bees-with-color/bee-A1SF.svg\" width=\"200\">\n                    <p><span class=\"redText\">Bad choice,</span> the bee was friendly.<br>Your bonus pay is unchanged, and remains at $0.46.</p>\n            ","response":0,"trial_type":"html-button-response","trial_index":38,"time_elapsed":423230,"internal_node_id":"0.0-4.0-1.15","subject_id":"61070c77a4f4d4d8ce80d223","study_id":"60edd13110225f80f9f3709b","session_id":"6196ba7b7190adca308ae37c","condition":"full-information","relevant_dimensions":["antennae","pattern"],"bee_group":{"antennae":"B","wings":"X","pattern":"S","legs":"X"},"bonus":0.2400000000000013},{"rt":901,"stimulus":"bees-with-color/bee-A1DF.svg","response":0,"trial_type":"image-button-response","trial_index":39,"time_elapsed":424135,"internal_node_id":"0.0-4.0-0.16","subject_id":"61070c77a4f4d4d8ce80d223","study_id":"60edd13110225f80f9f3709b","session_id":"6196ba7b7190adca308ae37c","condition":"full-information","relevant_dimensions":["antennae","pattern"],"bee_group":{"antennae":"B","wings":"X","pattern":"S","legs":"X"},"action":"harvest","summary":"good-harvest","bonus":0.2400000000000013},{"rt":1096.3000000000466,"stimulus":"\n                    <p><b>Action: <em>harvest</em></b></p>\n                    <p>This is the bee that you just saw.</p>\n                    <img src=\"bees-with-color/bee-A1DF.svg\" width=\"200\">\n                    <p><span class=\"greenText\"><b>Successful harvest!</b></span><br>Your pay has increased by $0.02. Your bonus pay is now $0.48.</p>\n            ","response":0,"trial_type":"html-button-response","trial_index":40,"time_elapsed":425234,"internal_node_id":"0.0-4.0-1.16","subject_id":"61070c77a4f4d4d8ce80d223","study_id":"60edd13110225f80f9f3709b","session_id":"6196ba7b7190adca308ae37c","condition":"full-information","relevant_dimensions":["antennae","pattern"],"bee_group":{"antennae":"B","wings":"X","pattern":"S","legs":"X"},"bonus":0.2400000000000013},{"rt":819.5,"stimulus":"bees-with-color/bee-A1DM.svg","response":0,"trial_type":"image-button-response","trial_index":41,"time_elapsed":426056,"internal_node_id":"0.0-4.0-0.17","subject_id":"61070c77a4f4d4d8ce80d223","study_id":"60edd13110225f80f9f3709b","session_id":"6196ba7b7190adca308ae37c","condition":"full-information","relevant_dimensions":["antennae","pattern"],"bee_group":{"antennae":"B","wings":"X","pattern":"S","legs":"X"},"action":"harvest","summary":"good-harvest","bonus":0.2400000000000013},{"rt":958.3999999999069,"stimulus":"\n                    <p><b>Action: <em>harvest</em></b></p>\n                    <p>This is the bee that you just saw.</p>\n                    <img src=\"bees-with-color/bee-A1DM.svg\" width=\"200\">\n                    <p><span class=\"greenText\"><b>Successful harvest!</b></span><br>Your pay has increased by $0.02. Your bonus pay is now $0.50.</p>\n            ","response":0,"trial_type":"html-button-response","trial_index":42,"time_elapsed":427018,"internal_node_id":"0.0-4.0-1.17","subject_id":"61070c77a4f4d4d8ce80d223","study_id":"60edd13110225f80f9f3709b","session_id":"6196ba7b7190adca308ae37c","condition":"full-information","relevant_dimensions":["antennae","pattern"],"bee_group":{"antennae":"B","wings":"X","pattern":"S","legs":"X"},"bonus":0.2400000000000013},{"rt":815.1000000000931,"stimulus":"bees-with-color/bee-A2DM.svg","response":0,"trial_type":"image-button-response","trial_index":43,"time_elapsed":427836,"internal_node_id":"0.0-4.0-0.18","subject_id":"61070c77a4f4d4d8ce80d223","study_id":"60edd13110225f80f9f3709b","session_id":"6196ba7b7190adca308ae37c","condition":"full-information","relevant_dimensions":["antennae","pattern"],"bee_group":{"antennae":"B","wings":"X","pattern":"S","legs":"X"},"action":"harvest","summary":"good-harvest","bonus":0.2400000000000013},{"rt":926.9000000000233,"stimulus":"\n                    <p><b>Action: <em>harvest</em></b></p>\n                    <p>This is the bee that you just saw.</p>\n                    <img src=\"bees-with-color/bee-A2DM.svg\" width=\"200\">\n                    <p><span class=\"greenText\"><b>Successful harvest!</b></span><br>Your pay has increased by $0.02. Your bonus pay is now $0.52.</p>\n            ","response":0,"trial_type":"html-button-response","trial_index":44,"time_elapsed":428766,"internal_node_id":"0.0-4.0-1.18","subject_id":"61070c77a4f4d4d8ce80d223","study_id":"60edd13110225f80f9f3709b","session_id":"6196ba7b7190adca308ae37c","condition":"full-information","relevant_dimensions":["antennae","pattern"],"bee_group":{"antennae":"B","wings":"X","pattern":"S","legs":"X"},"bonus":0.2400000000000013},{"rt":783.1999999999534,"stimulus":"bees-with-color/bee-A2DF.svg","response":0,"trial_type":"image-button-response","trial_index":45,"time_elapsed":429551,"internal_node_id":"0.0-4.0-0.19","subject_id":"61070c77a4f4d4d8ce80d223","study_id":"60edd13110225f80f9f3709b","session_id":"6196ba7b7190adca308ae37c","condition":"full-information","relevant_dimensions":["antennae","pattern"],"bee_group":{"antennae":"B","wings":"X","pattern":"S","legs":"X"},"action":"harvest","summary":"good-harvest","bonus":0.2400000000000013},{"rt":931.3000000000466,"stimulus":"\n                    <p><b>Action: <em>harvest</em></b></p>\n                    <p>This is the bee that you just saw.</p>\n                    <img src=\"bees-with-color/bee-A2DF.svg\" width=\"200\">\n                    <p><span class=\"greenText\"><b>Successful harvest!</b></span><br>Your pay has increased by $0.02. Your bonus pay is now $0.54.</p>\n            ","response":0,"trial_type":"html-button-response","trial_index":46,"time_elapsed":430486,"internal_node_id":"0.0-4.0-1.19","subject_id":"61070c77a4f4d4d8ce80d223","study_id":"60edd13110225f80f9f3709b","session_id":"6196ba7b7190adca308ae37c","condition":"full-information","relevant_dimensions":["antennae","pattern"],"bee_group":{"antennae":"B","wings":"X","pattern":"S","legs":"X"},"bonus":0.2400000000000013},{"rt":1095.5,"stimulus":"bees-with-color/bee-B1SF.svg","response":1,"trial_type":"image-button-response","trial_index":47,"time_elapsed":431584,"internal_node_id":"0.0-4.0-0.20","subject_id":"61070c77a4f4d4d8ce80d223","study_id":"60edd13110225f80f9f3709b","session_id":"6196ba7b7190adca308ae37c","condition":"full-information","relevant_dimensions":["antennae","pattern"],"bee_group":{"antennae":"B","wings":"X","pattern":"S","legs":"X"},"action":"avoid","summary":"good-avoid","bonus":0.2400000000000013},{"rt":942.1000000000931,"stimulus":"\n                    <p><b>Action: <em>avoid</em></b></p>\n                    <p>This is the bee that you just saw.</p>\n                    <img src=\"bees-with-color/bee-B1SF.svg\" width=\"200\">\n                    <p><span class=\"greenText\">Good choice!</span>  This bee would have stung you.<br>Your bonus pay is unchanged, and remains at $0.54.</p>\n            ","response":0,"trial_type":"html-button-response","trial_index":48,"time_elapsed":432530,"internal_node_id":"0.0-4.0-1.20","subject_id":"61070c77a4f4d4d8ce80d223","study_id":"60edd13110225f80f9f3709b","session_id":"6196ba7b7190adca308ae37c","condition":"full-information","relevant_dimensions":["antennae","pattern"],"bee_group":{"antennae":"B","wings":"X","pattern":"S","legs":"X"},"bonus":0.2400000000000013},{"rt":1118.8000000000466,"stimulus":"bees-with-color/bee-A2SM.svg","response":0,"trial_type":"image-button-response","trial_index":49,"time_elapsed":433651,"internal_node_id":"0.0-4.0-0.21","subject_id":"61070c77a4f4d4d8ce80d223","study_id":"60edd13110225f80f9f3709b","session_id":"6196ba7b7190adca308ae37c","condition":"full-information","relevant_dimensions":["antennae","pattern"],"bee_group":{"antennae":"B","wings":"X","pattern":"S","legs":"X"},"action":"harvest","summary":"good-harvest","bonus":0.2400000000000013},{"rt":980,"stimulus":"\n                    <p><b>Action: <em>harvest</em></b></p>\n                    <p>This is the bee that you just saw.</p>\n                    <img src=\"bees-with-color/bee-A2SM.svg\" width=\"200\">\n                    <p><span class=\"greenText\"><b>Successful harvest!</b></span><br>Your pay has increased by $0.02. Your bonus pay is now $0.56.</p>\n            ","response":0,"trial_type":"html-button-response","trial_index":50,"time_elapsed":434634,"internal_node_id":"0.0-4.0-1.21","subject_id":"61070c77a4f4d4d8ce80d223","study_id":"60edd13110225f80f9f3709b","session_id":"6196ba7b7190adca308ae37c","condition":"full-information","relevant_dimensions":["antennae","pattern"],"bee_group":{"antennae":"B","wings":"X","pattern":"S","legs":"X"},"bonus":0.2400000000000013},{"rt":2355.6999999999534,"stimulus":"bees-with-color/bee-A2SF.svg","response":0,"trial_type":"image-button-response","trial_index":51,"time_elapsed":436992,"internal_node_id":"0.0-4.0-0.22","subject_id":"61070c77a4f4d4d8ce80d223","study_id":"60edd13110225f80f9f3709b","session_id":"6196ba7b7190adca308ae37c","condition":"full-information","relevant_dimensions":["antennae","pattern"],"bee_group":{"antennae":"B","wings":"X","pattern":"S","legs":"X"},"action":"harvest","summary":"good-harvest","bonus":0.2400000000000013},{"rt":1006.9000000000233,"stimulus":"\n                    <p><b>Action: <em>harvest</em></b></p>\n                    <p>This is the bee that you just saw.</p>\n                    <img src=\"bees-with-color/bee-A2SF.svg\" width=\"200\">\n                    <p><span class=\"greenText\"><b>Successful harvest!</b></span><br>Your pay has increased by $0.02. Your bonus pay is now $0.58.</p>\n            ","response":0,"trial_type":"html-button-response","trial_index":52,"time_elapsed":438002,"internal_node_id":"0.0-4.0-1.22","subject_id":"61070c77a4f4d4d8ce80d223","study_id":"60edd13110225f80f9f3709b","session_id":"6196ba7b7190adca308ae37c","condition":"full-information","relevant_dimensions":["antennae","pattern"],"bee_group":{"antennae":"B","wings":"X","pattern":"S","legs":"X"},"bonus":0.2400000000000013},{"rt":1274.5,"stimulus":"bees-with-color/bee-B2SM.svg","response":1,"trial_type":"image-button-response","trial_index":53,"time_elapsed":439280,"internal_node_id":"0.0-4.0-0.23","subject_id":"61070c77a4f4d4d8ce80d223","study_id":"60edd13110225f80f9f3709b","session_id":"6196ba7b7190adca308ae37c","condition":"full-information","relevant_dimensions":["antennae","pattern"],"bee_group":{"antennae":"B","wings":"X","pattern":"S","legs":"X"},"action":"avoid","summary":"good-avoid","bonus":0.2400000000000013},{"rt":823.3999999999069,"stimulus":"\n                    <p><b>Action: <em>avoid</em></b></p>\n                    <p>This is the bee that you just saw.</p>\n                    <img src=\"bees-with-color/bee-B2SM.svg\" width=\"200\">\n                    <p><span class=\"greenText\">Good choice!</span>  This bee would have stung you.<br>Your bonus pay is unchanged, and remains at $0.58.</p>\n            ","response":0,"trial_type":"html-button-response","trial_index":54,"time_elapsed":440106,"internal_node_id":"0.0-4.0-1.23","subject_id":"61070c77a4f4d4d8ce80d223","study_id":"60edd13110225f80f9f3709b","session_id":"6196ba7b7190adca308ae37c","condition":"full-information","relevant_dimensions":["antennae","pattern"],"bee_group":{"antennae":"B","wings":"X","pattern":"S","legs":"X"},"bonus":0.2400000000000013},{"rt":1303.0999999999767,"stimulus":"bees-with-color/bee-A1SM.svg","response":0,"trial_type":"image-button-response","trial_index":55,"time_elapsed":441412,"internal_node_id":"0.0-4.0-0.24","subject_id":"61070c77a4f4d4d8ce80d223","study_id":"60edd13110225f80f9f3709b","session_id":"6196ba7b7190adca308ae37c","condition":"full-information","relevant_dimensions":["antennae","pattern"],"bee_group":{"antennae":"B","wings":"X","pattern":"S","legs":"X"},"action":"harvest","summary":"good-harvest","bonus":0.2400000000000013},{"rt":902.8000000000466,"stimulus":"\n                    <p><b>Action: <em>harvest</em></b></p>\n                    <p>This is the bee that you just saw.</p>\n                    <img src=\"bees-with-color/bee-A1SM.svg\" width=\"200\">\n                    <p><span class=\"greenText\"><b>Successful harvest!</b></span><br>Your pay has increased by $0.02. Your bonus pay is now $0.60.</p>\n            ","response":0,"trial_type":"html-button-response","trial_index":56,"time_elapsed":442318,"internal_node_id":"0.0-4.0-1.24","subject_id":"61070c77a4f4d4d8ce80d223","study_id":"60edd13110225f80f9f3709b","session_id":"6196ba7b7190adca308ae37c","condition":"full-information","relevant_dimensions":["antennae","pattern"],"bee_group":{"antennae":"B","wings":"X","pattern":"S","legs":"X"},"bonus":0.2400000000000013},{"rt":3329,"stimulus":"bees-with-color/bee-B2DM.svg","response":0,"trial_type":"image-button-response","trial_index":57,"time_elapsed":445649,"internal_node_id":"0.0-4.0-0.25","subject_id":"61070c77a4f4d4d8ce80d223","study_id":"60edd13110225f80f9f3709b","session_id":"6196ba7b7190adca308ae37c","condition":"full-information","relevant_dimensions":["antennae","pattern"],"bee_group":{"antennae":"B","wings":"X","pattern":"S","legs":"X"},"action":"harvest","summary":"good-harvest","bonus":0.2400000000000013},{"rt":936.2000000000698,"stimulus":"\n                    <p><b>Action: <em>harvest</em></b></p>\n                    <p>This is the bee that you just saw.</p>\n                    <img src=\"bees-with-color/bee-B2DM.svg\" width=\"200\">\n                    <p><span class=\"greenText\"><b>Successful harvest!</b></span><br>Your pay has increased by $0.02. Your bonus pay is now $0.62.</p>\n            ","response":0,"trial_type":"html-button-response","trial_index":58,"time_elapsed":446588,"internal_node_id":"0.0-4.0-1.25","subject_id":"61070c77a4f4d4d8ce80d223","study_id":"60edd13110225f80f9f3709b","session_id":"6196ba7b7190adca308ae37c","condition":"full-information","relevant_dimensions":["antennae","pattern"],"bee_group":{"antennae":"B","wings":"X","pattern":"S","legs":"X"},"bonus":0.2400000000000013},{"rt":2043.5,"stimulus":"bees-with-color/bee-B2DF.svg","response":1,"trial_type":"image-button-response","trial_index":59,"time_elapsed":448635,"internal_node_id":"0.0-4.0-0.26","subject_id":"61070c77a4f4d4d8ce80d223","study_id":"60edd13110225f80f9f3709b","session_id":"6196ba7b7190adca308ae37c","condition":"full-information","relevant_dimensions":["antennae","pattern"],"bee_group":{"antennae":"B","wings":"X","pattern":"S","legs":"X"},"action":"avoid","summary":"bad-avoid","bonus":0.2400000000000013},{"rt":815.5,"stimulus":"\n                    <p><b>Action: <em>avoid</em></b></p>\n                    <p>This is the bee that you just saw.</p>\n                    <img src=\"bees-with-color/bee-B2DF.svg\" width=\"200\">\n                    <p><span class=\"redText\">Bad choice,</span> the bee was friendly.<br>Your bonus pay is unchanged, and remains at $0.62.</p>\n            ","response":0,"trial_type":"html-button-response","trial_index":60,"time_elapsed":449453,"internal_node_id":"0.0-4.0-1.26","subject_id":"61070c77a4f4d4d8ce80d223","study_id":"60edd13110225f80f9f3709b","session_id":"6196ba7b7190adca308ae37c","condition":"full-information","relevant_dimensions":["antennae","pattern"],"bee_group":{"antennae":"B","wings":"X","pattern":"S","legs":"X"},"bonus":0.2400000000000013},{"rt":942.2999999999302,"stimulus":"bees-with-color/bee-B1SM.svg","response":0,"trial_type":"image-button-response","trial_index":61,"time_elapsed":450399,"internal_node_id":"0.0-4.0-0.27","subject_id":"61070c77a4f4d4d8ce80d223","study_id":"60edd13110225f80f9f3709b","session_id":"6196ba7b7190adca308ae37c","condition":"full-information","relevant_dimensions":["antennae","pattern"],"bee_group":{"antennae":"B","wings":"X","pattern":"S","legs":"X"},"action":"harvest","summary":"bad-harvest","bonus":0.2400000000000013},{"rt":899.0999999999767,"stimulus":"\n                    <p><b>Action: <em>harvest</em></b></p>\n                    <p>This is the bee that you just saw.</p>\n                    <img src=\"bees-with-color/bee-B1SM.svg\" width=\"200\">\n                    <p><span class=\"redText\">Bad choice, the bee was angry.</span><br><b>You have been stung!</b><br>Your pay has been decreased by $0.10. Your bonus pay is now $0.52.</p>\n            ","response":0,"trial_type":"html-button-response","trial_index":62,"time_elapsed":451301,"internal_node_id":"0.0-4.0-1.27","subject_id":"61070c77a4f4d4d8ce80d223","study_id":"60edd13110225f80f9f3709b","session_id":"6196ba7b7190adca308ae37c","condition":"full-information","relevant_dimensions":["antennae","pattern"],"bee_group":{"antennae":"B","wings":"X","pattern":"S","legs":"X"},"bonus":0.2400000000000013},{"rt":1239.3000000000466,"stimulus":"bees-with-color/bee-B1DM.svg","response":0,"trial_type":"image-button-response","trial_index":63,"time_elapsed":452543,"internal_node_id":"0.0-4.0-0.28","subject_id":"61070c77a4f4d4d8ce80d223","study_id":"60edd13110225f80f9f3709b","session_id":"6196ba7b7190adca308ae37c","condition":"full-information","relevant_dimensions":["antennae","pattern"],"bee_group":{"antennae":"B","wings":"X","pattern":"S","legs":"X"},"action":"harvest","summary":"good-harvest","bonus":0.2400000000000013},{"rt":967.1999999999534,"stimulus":"\n                    <p><b>Action: <em>harvest</em></b></p>\n                    <p>This is the bee that you just saw.</p>\n                    <img src=\"bees-with-color/bee-B1DM.svg\" width=\"200\">\n                    <p><span class=\"greenText\"><b>Successful harvest!</b></span><br>Your pay has increased by $0.02. Your bonus pay is now $0.54.</p>\n            ","response":0,"trial_type":"html-button-response","trial_index":64,"time_elapsed":453513,"internal_node_id":"0.0-4.0-1.28","subject_id":"61070c77a4f4d4d8ce80d223","study_id":"60edd13110225f80f9f3709b","session_id":"6196ba7b7190adca308ae37c","condition":"full-information","relevant_dimensions":["antennae","pattern"],"bee_group":{"antennae":"B","wings":"X","pattern":"S","legs":"X"},"bonus":0.2400000000000013},{"rt":1401.0999999999767,"stimulus":"bees-with-color/bee-B1DF.svg","response":0,"trial_type":"image-button-response","trial_index":65,"time_elapsed":454918,"internal_node_id":"0.0-4.0-0.29","subject_id":"61070c77a4f4d4d8ce80d223","study_id":"60edd13110225f80f9f3709b","session_id":"6196ba7b7190adca308ae37c","condition":"full-information","relevant_dimensions":["antennae","pattern"],"bee_group":{"antennae":"B","wings":"X","pattern":"S","legs":"X"},"action":"harvest","summary":"good-harvest","bonus":0.2400000000000013},{"rt":1106.4000000000233,"stimulus":"\n                    <p><b>Action: <em>harvest</em></b></p>\n                    <p>This is the bee that you just saw.</p>\n                    <img src=\"bees-with-color/bee-B1DF.svg\" width=\"200\">\n                    <p><span class=\"greenText\"><b>Successful harvest!</b></span><br>Your pay has increased by $0.02. Your bonus pay is now $0.56.</p>\n            ","response":0,"trial_type":"html-button-response","trial_index":66,"time_elapsed":456027,"internal_node_id":"0.0-4.0-1.29","subject_id":"61070c77a4f4d4d8ce80d223","study_id":"60edd13110225f80f9f3709b","session_id":"6196ba7b7190adca308ae37c","condition":"full-information","relevant_dimensions":["antennae","pattern"],"bee_group":{"antennae":"B","wings":"X","pattern":"S","legs":"X"},"bonus":0.2400000000000013},{"rt":1729.2000000000698,"stimulus":"bees-with-color/bee-A1SF.svg","response":0,"trial_type":"image-button-response","trial_index":67,"time_elapsed":457759,"internal_node_id":"0.0-4.0-0.30","subject_id":"61070c77a4f4d4d8ce80d223","study_id":"60edd13110225f80f9f3709b","session_id":"6196ba7b7190adca308ae37c","condition":"full-information","relevant_dimensions":["antennae","pattern"],"bee_group":{"antennae":"B","wings":"X","pattern":"S","legs":"X"},"action":"harvest","summary":"good-harvest","bonus":0.2400000000000013},{"rt":934.6999999999534,"stimulus":"\n                    <p><b>Action: <em>harvest</em></b></p>\n                    <p>This is the bee that you just saw.</p>\n                    <img src=\"bees-with-color/bee-A1SF.svg\" width=\"200\">\n                    <p><span class=\"greenText\"><b>Successful harvest!</b></span><br>Your pay has increased by $0.02. Your bonus pay is now $0.58.</p>\n            ","response":0,"trial_type":"html-button-response","trial_index":68,"time_elapsed":458697,"internal_node_id":"0.0-4.0-1.30","subject_id":"61070c77a4f4d4d8ce80d223","study_id":"60edd13110225f80f9f3709b","session_id":"6196ba7b7190adca308ae37c","condition":"full-information","relevant_dimensions":["antennae","pattern"],"bee_group":{"antennae":"B","wings":"X","pattern":"S","legs":"X"},"bonus":0.2400000000000013},{"rt":903.0999999999767,"stimulus":"bees-with-color/bee-B2SF.svg","response":0,"trial_type":"image-button-response","trial_index":69,"time_elapsed":459603,"internal_node_id":"0.0-4.0-0.31","subject_id":"61070c77a4f4d4d8ce80d223","study_id":"60edd13110225f80f9f3709b","session_id":"6196ba7b7190adca308ae37c","condition":"full-information","relevant_dimensions":["antennae","pattern"],"bee_group":{"antennae":"B","wings":"X","pattern":"S","legs":"X"},"action":"harvest","summary":"bad-harvest","bonus":0.2400000000000013},{"rt":1058,"stimulus":"\n                    <p><b>Action: <em>harvest</em></b></p>\n                    <p>This is the bee that you just saw.</p>\n                    <img src=\"bees-with-color/bee-B2SF.svg\" width=\"200\">\n                    <p><span class=\"redText\">Bad choice, the bee was angry.</span><br><b>You have been stung!</b><br>Your pay has been decreased by $0.10. Your bonus pay is now $0.48.</p>\n            ","response":0,"trial_type":"html-button-response","trial_index":70,"time_elapsed":460665,"internal_node_id":"0.0-4.0-1.31","subject_id":"61070c77a4f4d4d8ce80d223","study_id":"60edd13110225f80f9f3709b","session_id":"6196ba7b7190adca308ae37c","condition":"full-information","relevant_dimensions":["antennae","pattern"],"bee_group":{"antennae":"B","wings":"X","pattern":"S","legs":"X"},"bonus":0.2400000000000013},{"rt":774.5999999999767,"stimulus":"bees-with-color/bee-A1DM.svg","response":0,"trial_type":"image-button-response","trial_index":71,"time_elapsed":461443,"internal_node_id":"0.0-4.0-0.32","subject_id":"61070c77a4f4d4d8ce80d223","study_id":"60edd13110225f80f9f3709b","session_id":"6196ba7b7190adca308ae37c","condition":"full-information","relevant_dimensions":["antennae","pattern"],"bee_group":{"antennae":"B","wings":"X","pattern":"S","legs":"X"},"action":"harvest","summary":"good-harvest","bonus":0.2400000000000013},{"rt":823,"stimulus":"\n                    <p><b>Action: <em>harvest</em></b></p>\n                    <p>This is the bee that you just saw.</p>\n                    <img src=\"bees-with-color/bee-A1DM.svg\" width=\"200\">\n                    <p><span class=\"greenText\"><b>Successful harvest!</b></span><br>Your pay has increased by $0.02. Your bonus pay is now $0.50.</p>\n            ","response":0,"trial_type":"html-button-response","trial_index":72,"time_elapsed":462269,"internal_node_id":"0.0-4.0-1.32","subject_id":"61070c77a4f4d4d8ce80d223","study_id":"60edd13110225f80f9f3709b","session_id":"6196ba7b7190adca308ae37c","condition":"full-information","relevant_dimensions":["antennae","pattern"],"bee_group":{"antennae":"B","wings":"X","pattern":"S","legs":"X"},"bonus":0.2400000000000013},{"rt":967.5,"stimulus":"bees-with-color/bee-A1SF.svg","response":0,"trial_type":"image-button-response","trial_index":73,"time_elapsed":463239,"internal_node_id":"0.0-4.0-0.33","subject_id":"61070c77a4f4d4d8ce80d223","study_id":"60edd13110225f80f9f3709b","session_id":"6196ba7b7190adca308ae37c","condition":"full-information","relevant_dimensions":["antennae","pattern"],"bee_group":{"antennae":"B","wings":"X","pattern":"S","legs":"X"},"action":"harvest","summary":"good-harvest","bonus":0.2400000000000013},{"rt":918.4000000000233,"stimulus":"\n                    <p><b>Action: <em>harvest</em></b></p>\n                    <p>This is the bee that you just saw.</p>\n                    <img src=\"bees-with-color/bee-A1SF.svg\" width=\"200\">\n                    <p><span class=\"greenText\"><b>Successful harvest!</b></span><br>Your pay has increased by $0.02. Your bonus pay is now $0.52.</p>\n            ","response":0,"trial_type":"html-button-response","trial_index":74,"time_elapsed":464161,"internal_node_id":"0.0-4.0-1.33","subject_id":"61070c77a4f4d4d8ce80d223","study_id":"60edd13110225f80f9f3709b","session_id":"6196ba7b7190adca308ae37c","condition":"full-information","relevant_dimensions":["antennae","pattern"],"bee_group":{"antennae":"B","wings":"X","pattern":"S","legs":"X"},"bonus":0.2400000000000013},{"rt":914.9000000000233,"stimulus":"bees-with-color/bee-B1SF.svg","response":0,"trial_type":"image-button-response","trial_index":75,"time_elapsed":465080,"internal_node_id":"0.0-4.0-0.34","subject_id":"61070c77a4f4d4d8ce80d223","study_id":"60edd13110225f80f9f3709b","session_id":"6196ba7b7190adca308ae37c","condition":"full-information","relevant_dimensions":["antennae","pattern"],"bee_group":{"antennae":"B","wings":"X","pattern":"S","legs":"X"},"action":"harvest","summary":"bad-harvest","bonus":0.2400000000000013},{"rt":822,"stimulus":"\n                    <p><b>Action: <em>harvest</em></b></p>\n                    <p>This is the bee that you just saw.</p>\n                    <img src=\"bees-with-color/bee-B1SF.svg\" width=\"200\">\n                    <p><span class=\"redText\">Bad choice, the bee was angry.</span><br><b>You have been stung!</b><br>Your pay has been decreased by $0.10. Your bonus pay is now $0.42.</p>\n            ","response":0,"trial_type":"html-button-response","trial_index":76,"time_elapsed":465905,"internal_node_id":"0.0-4.0-1.34","subject_id":"61070c77a4f4d4d8ce80d223","study_id":"60edd13110225f80f9f3709b","session_id":"6196ba7b7190adca308ae37c","condition":"full-information","relevant_dimensions":["antennae","pattern"],"bee_group":{"antennae":"B","wings":"X","pattern":"S","legs":"X"},"bonus":0.2400000000000013},{"rt":1126.5,"stimulus":"bees-with-color/bee-B1DM.svg","response":0,"trial_type":"image-button-response","trial_index":77,"time_elapsed":467035,"internal_node_id":"0.0-4.0-0.35","subject_id":"61070c77a4f4d4d8ce80d223","study_id":"60edd13110225f80f9f3709b","session_id":"6196ba7b7190adca308ae37c","condition":"full-information","relevant_dimensions":["antennae","pattern"],"bee_group":{"antennae":"B","wings":"X","pattern":"S","legs":"X"},"action":"harvest","summary":"good-harvest","bonus":0.2400000000000013},{"rt":911,"stimulus":"\n                    <p><b>Action: <em>harvest</em></b></p>\n                    <p>This is the bee that you just saw.</p>\n                    <img src=\"bees-with-color/bee-B1DM.svg\" width=\"200\">\n                    <p><span class=\"greenText\"><b>Successful harvest!</b></span><br>Your pay has increased by $0.02. Your bonus pay is now $0.44.</p>\n            ","response":0,"trial_type":"html-button-response","trial_index":78,"time_elapsed":467949,"internal_node_id":"0.0-4.0-1.35","subject_id":"61070c77a4f4d4d8ce80d223","study_id":"60edd13110225f80f9f3709b","session_id":"6196ba7b7190adca308ae37c","condition":"full-information","relevant_dimensions":["antennae","pattern"],"bee_group":{"antennae":"B","wings":"X","pattern":"S","legs":"X"},"bonus":0.2400000000000013},{"rt":979.4000000000233,"stimulus":"bees-with-color/bee-A2SF.svg","response":1,"trial_type":"image-button-response","trial_index":79,"time_elapsed":468931,"internal_node_id":"0.0-4.0-0.36","subject_id":"61070c77a4f4d4d8ce80d223","study_id":"60edd13110225f80f9f3709b","session_id":"6196ba7b7190adca308ae37c","condition":"full-information","relevant_dimensions":["antennae","pattern"],"bee_group":{"antennae":"B","wings":"X","pattern":"S","legs":"X"},"action":"avoid","summary":"bad-avoid","bonus":0.2400000000000013},{"rt":726.0999999999767,"stimulus":"\n                    <p><b>Action: <em>avoid</em></b></p>\n                    <p>This is the bee that you just saw.</p>\n                    <img src=\"bees-with-color/bee-A2SF.svg\" width=\"200\">\n                    <p><span class=\"redText\">Bad choice,</span> the bee was friendly.<br>Your bonus pay is unchanged, and remains at $0.44.</p>\n            ","response":0,"trial_type":"html-button-response","trial_index":80,"time_elapsed":469661,"internal_node_id":"0.0-4.0-1.36","subject_id":"61070c77a4f4d4d8ce80d223","study_id":"60edd13110225f80f9f3709b","session_id":"6196ba7b7190adca308ae37c","condition":"full-information","relevant_dimensions":["antennae","pattern"],"bee_group":{"antennae":"B","wings":"X","pattern":"S","legs":"X"},"bonus":0.2400000000000013},{"rt":651,"stimulus":"bees-with-color/bee-B1DF.svg","response":0,"trial_type":"image-button-response","trial_index":81,"time_elapsed":470319,"internal_node_id":"0.0-4.0-0.37","subject_id":"61070c77a4f4d4d8ce80d223","study_id":"60edd13110225f80f9f3709b","session_id":"6196ba7b7190adca308ae37c","condition":"full-information","relevant_dimensions":["antennae","pattern"],"bee_group":{"antennae":"B","wings":"X","pattern":"S","legs":"X"},"action":"harvest","summary":"good-harvest","bonus":0.2400000000000013},{"rt":950.5,"stimulus":"\n                    <p><b>Action: <em>harvest</em></b></p>\n                    <p>This is the bee that you just saw.</p>\n                    <img src=\"bees-with-color/bee-B1DF.svg\" width=\"200\">\n                    <p><span class=\"greenText\"><b>Successful harvest!</b></span><br>Your pay has increased by $0.02. Your bonus pay is now $0.46.</p>\n            ","response":0,"trial_type":"html-button-response","trial_index":82,"time_elapsed":471273,"internal_node_id":"0.0-4.0-1.37","subject_id":"61070c77a4f4d4d8ce80d223","study_id":"60edd13110225f80f9f3709b","session_id":"6196ba7b7190adca308ae37c","condition":"full-information","relevant_dimensions":["antennae","pattern"],"bee_group":{"antennae":"B","wings":"X","pattern":"S","legs":"X"},"bonus":0.2400000000000013},{"rt":887.3000000000466,"stimulus":"bees-with-color/bee-B2SM.svg","response":0,"trial_type":"image-button-response","trial_index":83,"time_elapsed":472163,"internal_node_id":"0.0-4.0-0.38","subject_id":"61070c77a4f4d4d8ce80d223","study_id":"60edd13110225f80f9f3709b","session_id":"6196ba7b7190adca308ae37c","condition":"full-information","relevant_dimensions":["antennae","pattern"],"bee_group":{"antennae":"B","wings":"X","pattern":"S","legs":"X"},"action":"harvest","summary":"bad-harvest","bonus":0.2400000000000013},{"rt":1138.5,"stimulus":"\n                    <p><b>Action: <em>harvest</em></b></p>\n                    <p>This is the bee that you just saw.</p>\n                    <img src=\"bees-with-color/bee-B2SM.svg\" width=\"200\">\n                    <p><span class=\"redText\">Bad choice, the bee was angry.</span><br><b>You have been stung!</b><br>Your pay has been decreased by $0.10. Your bonus pay is now $0.36.</p>\n            ","response":0,"trial_type":"html-button-response","trial_index":84,"time_elapsed":473305,"internal_node_id":"0.0-4.0-1.38","subject_id":"61070c77a4f4d4d8ce80d223","study_id":"60edd13110225f80f9f3709b","session_id":"6196ba7b7190adca308ae37c","condition":"full-information","relevant_dimensions":["antennae","pattern"],"bee_group":{"antennae":"B","wings":"X","pattern":"S","legs":"X"},"bonus":0.2400000000000013},{"rt":596.8000000000466,"stimulus":"bees-with-color/bee-A1DF.svg","response":0,"trial_type":"image-button-response","trial_index":85,"time_elapsed":473905,"internal_node_id":"0.0-4.0-0.39","subject_id":"61070c77a4f4d4d8ce80d223","study_id":"60edd13110225f80f9f3709b","session_id":"6196ba7b7190adca308ae37c","condition":"full-information","relevant_dimensions":["antennae","pattern"],"bee_group":{"antennae":"B","wings":"X","pattern":"S","legs":"X"},"action":"harvest","summary":"good-harvest","bonus":0.2400000000000013},{"rt":767.0999999999767,"stimulus":"\n                    <p><b>Action: <em>harvest</em></b></p>\n                    <p>This is the bee that you just saw.</p>\n                    <img src=\"bees-with-color/bee-A1DF.svg\" width=\"200\">\n                    <p><span class=\"greenText\"><b>Successful harvest!</b></span><br>Your pay has increased by $0.02. Your bonus pay is now $0.38.</p>\n            ","response":0,"trial_type":"html-button-response","trial_index":86,"time_elapsed":474675,"internal_node_id":"0.0-4.0-1.39","subject_id":"61070c77a4f4d4d8ce80d223","study_id":"60edd13110225f80f9f3709b","session_id":"6196ba7b7190adca308ae37c","condition":"full-information","relevant_dimensions":["antennae","pattern"],"bee_group":{"antennae":"B","wings":"X","pattern":"S","legs":"X"},"bonus":0.2400000000000013},{"rt":1568.7000000000698,"stimulus":"bees-with-color/bee-A1SM.svg","response":0,"trial_type":"image-button-response","trial_index":87,"time_elapsed":476247,"internal_node_id":"0.0-4.0-0.40","subject_id":"61070c77a4f4d4d8ce80d223","study_id":"60edd13110225f80f9f3709b","session_id":"6196ba7b7190adca308ae37c","condition":"full-information","relevant_dimensions":["antennae","pattern"],"bee_group":{"antennae":"B","wings":"X","pattern":"S","legs":"X"},"action":"harvest","summary":"good-harvest","bonus":0.2400000000000013},{"rt":1908.7999999999302,"stimulus":"\n                    <p><b>Action: <em>harvest</em></b></p>\n                    <p>This is the bee that you just saw.</p>\n                    <img src=\"bees-with-color/bee-A1SM.svg\" width=\"200\">\n                    <p><span class=\"greenText\"><b>Successful harvest!</b></span><br>Your pay has increased by $0.02. Your bonus pay is now $0.40.</p>\n            ","response":0,"trial_type":"html-button-response","trial_index":88,"time_elapsed":478159,"internal_node_id":"0.0-4.0-1.40","subject_id":"61070c77a4f4d4d8ce80d223","study_id":"60edd13110225f80f9f3709b","session_id":"6196ba7b7190adca308ae37c","condition":"full-information","relevant_dimensions":["antennae","pattern"],"bee_group":{"antennae":"B","wings":"X","pattern":"S","legs":"X"},"bonus":0.2400000000000013},{"rt":2096.6999999999534,"stimulus":"bees-with-color/bee-B2SF.svg","response":0,"trial_type":"image-button-response","trial_index":89,"time_elapsed":480259,"internal_node_id":"0.0-4.0-0.41","subject_id":"61070c77a4f4d4d8ce80d223","study_id":"60edd13110225f80f9f3709b","session_id":"6196ba7b7190adca308ae37c","condition":"full-information","relevant_dimensions":["antennae","pattern"],"bee_group":{"antennae":"B","wings":"X","pattern":"S","legs":"X"},"action":"harvest","summary":"bad-harvest","bonus":0.2400000000000013},{"rt":1130.6999999999534,"stimulus":"\n                    <p><b>Action: <em>harvest</em></b></p>\n                    <p>This is the bee that you just saw.</p>\n                    <img src=\"bees-with-color/bee-B2SF.svg\" width=\"200\">\n                    <p><span class=\"redText\">Bad choice, the bee was angry.</span><br><b>You have been stung!</b><br>Your pay has been decreased by $0.10. Your bonus pay is now $0.30.</p>\n            ","response":0,"trial_type":"html-button-response","trial_index":90,"time_elapsed":481394,"internal_node_id":"0.0-4.0-1.41","subject_id":"61070c77a4f4d4d8ce80d223","study_id":"60edd13110225f80f9f3709b","session_id":"6196ba7b7190adca308ae37c","condition":"full-information","relevant_dimensions":["antennae","pattern"],"bee_group":{"antennae":"B","wings":"X","pattern":"S","legs":"X"},"bonus":0.2400000000000013},{"rt":1711.5999999999767,"stimulus":"bees-with-color/bee-B2DF.svg","response":0,"trial_type":"image-button-response","trial_index":91,"time_elapsed":483109,"internal_node_id":"0.0-4.0-0.42","subject_id":"61070c77a4f4d4d8ce80d223","study_id":"60edd13110225f80f9f3709b","session_id":"6196ba7b7190adca308ae37c","condition":"full-information","relevant_dimensions":["antennae","pattern"],"bee_group":{"antennae":"B","wings":"X","pattern":"S","legs":"X"},"action":"harvest","summary":"good-harvest","bonus":0.2400000000000013},{"rt":1166.4000000000233,"stimulus":"\n                    <p><b>Action: <em>harvest</em></b></p>\n                    <p>This is the bee that you just saw.</p>\n                    <img src=\"bees-with-color/bee-B2DF.svg\" width=\"200\">\n                    <p><span class=\"greenText\"><b>Successful harvest!</b></span><br>Your pay has increased by $0.02. Your bonus pay is now $0.32.</p>\n            ","response":0,"trial_type":"html-button-response","trial_index":92,"time_elapsed":484279,"internal_node_id":"0.0-4.0-1.42","subject_id":"61070c77a4f4d4d8ce80d223","study_id":"60edd13110225f80f9f3709b","session_id":"6196ba7b7190adca308ae37c","condition":"full-information","relevant_dimensions":["antennae","pattern"],"bee_group":{"antennae":"B","wings":"X","pattern":"S","legs":"X"},"bonus":0.2400000000000013},{"rt":1373.5,"stimulus":"bees-with-color/bee-B1SM.svg","response":1,"trial_type":"image-button-response","trial_index":93,"time_elapsed":485655,"internal_node_id":"0.0-4.0-0.43","subject_id":"61070c77a4f4d4d8ce80d223","study_id":"60edd13110225f80f9f3709b","session_id":"6196ba7b7190adca308ae37c","condition":"full-information","relevant_dimensions":["antennae","pattern"],"bee_group":{"antennae":"B","wings":"X","pattern":"S","legs":"X"},"action":"avoid","summary":"good-avoid","bonus":0.2400000000000013},{"rt":1197.7999999999302,"stimulus":"\n                    <p><b>Action: <em>avoid</em></b></p>\n                    <p>This is the bee that you just saw.</p>\n                    <img src=\"bees-with-color/bee-B1SM.svg\" width=\"200\">\n                    <p><span class=\"greenText\">Good choice!</span>  This bee would have stung you.<br>Your bonus pay is unchanged, and remains at $0.32.</p>\n            ","response":0,"trial_type":"html-button-response","trial_index":94,"time_elapsed":486857,"internal_node_id":"0.0-4.0-1.43","subject_id":"61070c77a4f4d4d8ce80d223","study_id":"60edd13110225f80f9f3709b","session_id":"6196ba7b7190adca308ae37c","condition":"full-information","relevant_dimensions":["antennae","pattern"],"bee_group":{"antennae":"B","wings":"X","pattern":"S","legs":"X"},"bonus":0.2400000000000013},{"rt":1585.8000000000466,"stimulus":"bees-with-color/bee-A2SM.svg","response":0,"trial_type":"image-button-response","trial_index":95,"time_elapsed":488445,"internal_node_id":"0.0-4.0-0.44","subject_id":"61070c77a4f4d4d8ce80d223","study_id":"60edd13110225f80f9f3709b","session_id":"6196ba7b7190adca308ae37c","condition":"full-information","relevant_dimensions":["antennae","pattern"],"bee_group":{"antennae":"B","wings":"X","pattern":"S","legs":"X"},"action":"harvest","summary":"good-harvest","bonus":0.2400000000000013},{"rt":1026,"stimulus":"\n                    <p><b>Action: <em>harvest</em></b></p>\n                    <p>This is the bee that you just saw.</p>\n                    <img src=\"bees-with-color/bee-A2SM.svg\" width=\"200\">\n                    <p><span class=\"greenText\"><b>Successful harvest!</b></span><br>Your pay has increased by $0.02. Your bonus pay is now $0.34.</p>\n            ","response":0,"trial_type":"html-button-response","trial_index":96,"time_elapsed":489475,"internal_node_id":"0.0-4.0-1.44","subject_id":"61070c77a4f4d4d8ce80d223","study_id":"60edd13110225f80f9f3709b","session_id":"6196ba7b7190adca308ae37c","condition":"full-information","relevant_dimensions":["antennae","pattern"],"bee_group":{"antennae":"B","wings":"X","pattern":"S","legs":"X"},"bonus":0.2400000000000013},{"rt":15528.600000000093,"stimulus":"bees-with-color/bee-A2DF.svg","response":0,"trial_type":"image-button-response","trial_index":97,"time_elapsed":505007,"internal_node_id":"0.0-4.0-0.45","subject_id":"61070c77a4f4d4d8ce80d223","study_id":"60edd13110225f80f9f3709b","session_id":"6196ba7b7190adca308ae37c","condition":"full-information","relevant_dimensions":["antennae","pattern"],"bee_group":{"antennae":"B","wings":"X","pattern":"S","legs":"X"},"action":"harvest","summary":"good-harvest","bonus":0.2400000000000013},{"rt":3884.20000000007,"stimulus":"\n                    <p><b>Action: <em>harvest</em></b></p>\n                    <p>This is the bee that you just saw.</p>\n                    <img src=\"bees-with-color/bee-A2DF.svg\" width=\"200\">\n                    <p><span class=\"greenText\"><b>Successful harvest!</b></span><br>Your pay has increased by $0.02. Your bonus pay is now $0.36.</p>\n            ","response":0,"trial_type":"html-button-response","trial_index":98,"time_elapsed":508895,"internal_node_id":"0.0-4.0-1.45","subject_id":"61070c77a4f4d4d8ce80d223","study_id":"60edd13110225f80f9f3709b","session_id":"6196ba7b7190adca308ae37c","condition":"full-information","relevant_dimensions":["antennae","pattern"],"bee_group":{"antennae":"B","wings":"X","pattern":"S","legs":"X"},"bonus":0.2400000000000013},{"rt":5585.699999999953,"stimulus":"bees-with-color/bee-A2DM.svg","response":1,"trial_type":"image-button-response","trial_index":99,"time_elapsed":514485,"internal_node_id":"0.0-4.0-0.46","subject_id":"61070c77a4f4d4d8ce80d223","study_id":"60edd13110225f80f9f3709b","session_id":"6196ba7b7190adca308ae37c","condition":"full-information","relevant_dimensions":["antennae","pattern"],"bee_group":{"antennae":"B","wings":"X","pattern":"S","legs":"X"},"action":"avoid","summary":"bad-avoid","bonus":0.2400000000000013},{"rt":4040.5999999998603,"stimulus":"\n                    <p><b>Action: <em>avoid</em></b></p>\n                    <p>This is the bee that you just saw.</p>\n                    <img src=\"bees-with-color/bee-A2DM.svg\" width=\"200\">\n                    <p><span class=\"redText\">Bad choice,</span> the bee was friendly.<br>Your bonus pay is unchanged, and remains at $0.36.</p>\n            ","response":0,"trial_type":"html-button-response","trial_index":100,"time_elapsed":518528,"internal_node_id":"0.0-4.0-1.46","subject_id":"61070c77a4f4d4d8ce80d223","study_id":"60edd13110225f80f9f3709b","session_id":"6196ba7b7190adca308ae37c","condition":"full-information","relevant_dimensions":["antennae","pattern"],"bee_group":{"antennae":"B","wings":"X","pattern":"S","legs":"X"},"bonus":0.2400000000000013},{"rt":4727.300000000047,"stimulus":"bees-with-color/bee-B2DM.svg","response":0,"trial_type":"image-button-response","trial_index":101,"time_elapsed":523261,"internal_node_id":"0.0-4.0-0.47","subject_id":"61070c77a4f4d4d8ce80d223","study_id":"60edd13110225f80f9f3709b","session_id":"6196ba7b7190adca308ae37c","condition":"full-information","relevant_dimensions":["antennae","pattern"],"bee_group":{"antennae":"B","wings":"X","pattern":"S","legs":"X"},"action":"harvest","summary":"good-harvest","bonus":0.2400000000000013},{"rt":3606.600000000093,"stimulus":"\n                    <p><b>Action: <em>harvest</em></b></p>\n                    <p>This is the bee that you just saw.</p>\n                    <img src=\"bees-with-color/bee-B2DM.svg\" width=\"200\">\n                    <p><span class=\"greenText\"><b>Successful harvest!</b></span><br>Your pay has increased by $0.02. Your bonus pay is now $0.38.</p>\n            ","response":0,"trial_type":"html-button-response","trial_index":102,"time_elapsed":526870,"internal_node_id":"0.0-4.0-1.47","subject_id":"61070c77a4f4d4d8ce80d223","study_id":"60edd13110225f80f9f3709b","session_id":"6196ba7b7190adca308ae37c","condition":"full-information","relevant_dimensions":["antennae","pattern"],"bee_group":{"antennae":"B","wings":"X","pattern":"S","legs":"X"},"bonus":0.2400000000000013},{"rt":8519.699999999953,"stimulus":"bees-with-color/bee-A1DM.svg","response":0,"trial_type":"image-button-response","trial_index":103,"time_elapsed":535394,"internal_node_id":"0.0-4.0-0.48","subject_id":"61070c77a4f4d4d8ce80d223","study_id":"60edd13110225f80f9f3709b","session_id":"6196ba7b7190adca308ae37c","condition":"full-information","relevant_dimensions":["antennae","pattern"],"bee_group":{"antennae":"B","wings":"X","pattern":"S","legs":"X"},"action":"harvest","summary":"good-harvest","bonus":0.2400000000000013},{"rt":3118.399999999907,"stimulus":"\n                    <p><b>Action: <em>harvest</em></b></p>\n                    <p>This is the bee that you just saw.</p>\n                    <img src=\"bees-with-color/bee-A1DM.svg\" width=\"200\">\n                    <p><span class=\"greenText\"><b>Successful harvest!</b></span><br>Your pay has increased by $0.02. Your bonus pay is now $0.40.</p>\n            ","response":0,"trial_type":"html-button-response","trial_index":104,"time_elapsed":538516,"internal_node_id":"0.0-4.0-1.48","subject_id":"61070c77a4f4d4d8ce80d223","study_id":"60edd13110225f80f9f3709b","session_id":"6196ba7b7190adca308ae37c","condition":"full-information","relevant_dimensions":["antennae","pattern"],"bee_group":{"antennae":"B","wings":"X","pattern":"S","legs":"X"},"bonus":0.2400000000000013},{"rt":5186,"stimulus":"bees-with-color/bee-B2DM.svg","response":0,"trial_type":"image-button-response","trial_index":105,"time_elapsed":543706,"internal_node_id":"0.0-4.0-0.49","subject_id":"61070c77a4f4d4d8ce80d223","study_id":"60edd13110225f80f9f3709b","session_id":"6196ba7b7190adca308ae37c","condition":"full-information","relevant_dimensions":["antennae","pattern"],"bee_group":{"antennae":"B","wings":"X","pattern":"S","legs":"X"},"action":"harvest","summary":"good-harvest","bonus":0.2400000000000013},{"rt":1314.2000000001863,"stimulus":"\n                    <p><b>Action: <em>harvest</em></b></p>\n                    <p>This is the bee that you just saw.</p>\n                    <img src=\"bees-with-color/bee-B2DM.svg\" width=\"200\">\n                    <p><span class=\"greenText\"><b>Successful harvest!</b></span><br>Your pay has increased by $0.02. Your bonus pay is now $0.42.</p>\n            ","response":0,"trial_type":"html-button-response","trial_index":106,"time_elapsed":545024,"internal_node_id":"0.0-4.0-1.49","subject_id":"61070c77a4f4d4d8ce80d223","study_id":"60edd13110225f80f9f3709b","session_id":"6196ba7b7190adca308ae37c","condition":"full-information","relevant_dimensions":["antennae","pattern"],"bee_group":{"antennae":"B","wings":"X","pattern":"S","legs":"X"},"bonus":0.2400000000000013},{"rt":3984.0999999998603,"stimulus":"bees-with-color/bee-A1DF.svg","response":0,"trial_type":"image-button-response","trial_index":107,"time_elapsed":549012,"internal_node_id":"0.0-4.0-0.50","subject_id":"61070c77a4f4d4d8ce80d223","study_id":"60edd13110225f80f9f3709b","session_id":"6196ba7b7190adca308ae37c","condition":"full-information","relevant_dimensions":["antennae","pattern"],"bee_group":{"antennae":"B","wings":"X","pattern":"S","legs":"X"},"action":"harvest","summary":"good-harvest","bonus":0.2400000000000013},{"rt":10052.09999999986,"stimulus":"\n                    <p><b>Action: <em>harvest</em></b></p>\n                    <p>This is the bee that you just saw.</p>\n                    <img src=\"bees-with-color/bee-A1DF.svg\" width=\"200\">\n                    <p><span class=\"greenText\"><b>Successful harvest!</b></span><br>Your pay has increased by $0.02. Your bonus pay is now $0.44.</p>\n            ","response":0,"trial_type":"html-button-response","trial_index":108,"time_elapsed":559068,"internal_node_id":"0.0-4.0-1.50","subject_id":"61070c77a4f4d4d8ce80d223","study_id":"60edd13110225f80f9f3709b","session_id":"6196ba7b7190adca308ae37c","condition":"full-information","relevant_dimensions":["antennae","pattern"],"bee_group":{"antennae":"B","wings":"X","pattern":"S","legs":"X"},"bonus":0.2400000000000013},{"rt":6587.5,"stimulus":"bees-with-color/bee-B1SM.svg","response":0,"trial_type":"image-button-response","trial_index":109,"time_elapsed":565660,"internal_node_id":"0.0-4.0-0.51","subject_id":"61070c77a4f4d4d8ce80d223","study_id":"60edd13110225f80f9f3709b","session_id":"6196ba7b7190adca308ae37c","condition":"full-information","relevant_dimensions":["antennae","pattern"],"bee_group":{"antennae":"B","wings":"X","pattern":"S","legs":"X"},"action":"harvest","summary":"bad-harvest","bonus":0.2400000000000013},{"rt":4495.800000000047,"stimulus":"\n                    <p><b>Action: <em>harvest</em></b></p>\n                    <p>This is the bee that you just saw.</p>\n                    <img src=\"bees-with-color/bee-B1SM.svg\" width=\"200\">\n                    <p><span class=\"redText\">Bad choice, the bee was angry.</span><br><b>You have been stung!</b><br>Your pay has been decreased by $0.10. Your bonus pay is now $0.34.</p>\n            ","response":0,"trial_type":"html-button-response","trial_index":110,"time_elapsed":570159,"internal_node_id":"0.0-4.0-1.51","subject_id":"61070c77a4f4d4d8ce80d223","study_id":"60edd13110225f80f9f3709b","session_id":"6196ba7b7190adca308ae37c","condition":"full-information","relevant_dimensions":["antennae","pattern"],"bee_group":{"antennae":"B","wings":"X","pattern":"S","legs":"X"},"bonus":0.2400000000000013},{"rt":12756.5,"stimulus":"bees-with-color/bee-B1DF.svg","response":1,"trial_type":"image-button-response","trial_index":111,"time_elapsed":582920,"internal_node_id":"0.0-4.0-0.52","subject_id":"61070c77a4f4d4d8ce80d223","study_id":"60edd13110225f80f9f3709b","session_id":"6196ba7b7190adca308ae37c","condition":"full-information","relevant_dimensions":["antennae","pattern"],"bee_group":{"antennae":"B","wings":"X","pattern":"S","legs":"X"},"action":"avoid","summary":"bad-avoid","bonus":0.2400000000000013},{"rt":4121.59999999986,"stimulus":"\n                    <p><b>Action: <em>avoid</em></b></p>\n                    <p>This is the bee that you just saw.</p>\n                    <img src=\"bees-with-color/bee-B1DF.svg\" width=\"200\">\n                    <p><span class=\"redText\">Bad choice,</span> the bee was friendly.<br>Your bonus pay is unchanged, and remains at $0.34.</p>\n            ","response":0,"trial_type":"html-button-response","trial_index":112,"time_elapsed":587045,"internal_node_id":"0.0-4.0-1.52","subject_id":"61070c77a4f4d4d8ce80d223","study_id":"60edd13110225f80f9f3709b","session_id":"6196ba7b7190adca308ae37c","condition":"full-information","relevant_dimensions":["antennae","pattern"],"bee_group":{"antennae":"B","wings":"X","pattern":"S","legs":"X"},"bonus":0.2400000000000013},{"rt":3927.3000000000466,"stimulus":"bees-with-color/bee-A1SM.svg","response":0,"trial_type":"image-button-response","trial_index":113,"time_elapsed":590977,"internal_node_id":"0.0-4.0-0.53","subject_id":"61070c77a4f4d4d8ce80d223","study_id":"60edd13110225f80f9f3709b","session_id":"6196ba7b7190adca308ae37c","condition":"full-information","relevant_dimensions":["antennae","pattern"],"bee_group":{"antennae":"B","wings":"X","pattern":"S","legs":"X"},"action":"harvest","summary":"good-harvest","bonus":0.2400000000000013},{"rt":3554.9000000001397,"stimulus":"\n                    <p><b>Action: <em>harvest</em></b></p>\n                    <p>This is the bee that you just saw.</p>\n                    <img src=\"bees-with-color/bee-A1SM.svg\" width=\"200\">\n                    <p><span class=\"greenText\"><b>Successful harvest!</b></span><br>Your pay has increased by $0.02. Your bonus pay is now $0.36.</p>\n            ","response":0,"trial_type":"html-button-response","trial_index":114,"time_elapsed":594535,"internal_node_id":"0.0-4.0-1.53","subject_id":"61070c77a4f4d4d8ce80d223","study_id":"60edd13110225f80f9f3709b","session_id":"6196ba7b7190adca308ae37c","condition":"full-information","relevant_dimensions":["antennae","pattern"],"bee_group":{"antennae":"B","wings":"X","pattern":"S","legs":"X"},"bonus":0.2400000000000013},{"rt":7277.899999999907,"stimulus":"bees-with-color/bee-B2SM.svg","response":0,"trial_type":"image-button-response","trial_index":115,"time_elapsed":601817,"internal_node_id":"0.0-4.0-0.54","subject_id":"61070c77a4f4d4d8ce80d223","study_id":"60edd13110225f80f9f3709b","session_id":"6196ba7b7190adca308ae37c","condition":"full-information","relevant_dimensions":["antennae","pattern"],"bee_group":{"antennae":"B","wings":"X","pattern":"S","legs":"X"},"action":"harvest","summary":"bad-harvest","bonus":0.2400000000000013},{"rt":3872.899999999907,"stimulus":"\n                    <p><b>Action: <em>harvest</em></b></p>\n                    <p>This is the bee that you just saw.</p>\n                    <img src=\"bees-with-color/bee-B2SM.svg\" width=\"200\">\n                    <p><span class=\"redText\">Bad choice, the bee was angry.</span><br><b>You have been stung!</b><br>Your pay has been decreased by $0.10. Your bonus pay is now $0.26.</p>\n            ","response":0,"trial_type":"html-button-response","trial_index":116,"time_elapsed":605693,"internal_node_id":"0.0-4.0-1.54","subject_id":"61070c77a4f4d4d8ce80d223","study_id":"60edd13110225f80f9f3709b","session_id":"6196ba7b7190adca308ae37c","condition":"full-information","relevant_dimensions":["antennae","pattern"],"bee_group":{"antennae":"B","wings":"X","pattern":"S","legs":"X"},"bonus":0.2400000000000013},{"rt":27714.199999999953,"stimulus":"bees-with-color/bee-B1DM.svg","response":0,"trial_type":"image-button-response","trial_index":117,"time_elapsed":633411,"internal_node_id":"0.0-4.0-0.55","subject_id":"61070c77a4f4d4d8ce80d223","study_id":"60edd13110225f80f9f3709b","session_id":"6196ba7b7190adca308ae37c","condition":"full-information","relevant_dimensions":["antennae","pattern"],"bee_group":{"antennae":"B","wings":"X","pattern":"S","legs":"X"},"action":"harvest","summary":"good-harvest","bonus":0.2400000000000013},{"rt":3483.100000000093,"stimulus":"\n                    <p><b>Action: <em>harvest</em></b></p>\n                    <p>This is the bee that you just saw.</p>\n                    <img src=\"bees-with-color/bee-B1DM.svg\" width=\"200\">\n                    <p><span class=\"greenText\"><b>Successful harvest!</b></span><br>Your pay has increased by $0.02. Your bonus pay is now $0.28.</p>\n            ","response":0,"trial_type":"html-button-response","trial_index":118,"time_elapsed":636897,"internal_node_id":"0.0-4.0-1.55","subject_id":"61070c77a4f4d4d8ce80d223","study_id":"60edd13110225f80f9f3709b","session_id":"6196ba7b7190adca308ae37c","condition":"full-information","relevant_dimensions":["antennae","pattern"],"bee_group":{"antennae":"B","wings":"X","pattern":"S","legs":"X"},"bonus":0.2400000000000013},{"rt":12032.399999999907,"stimulus":"bees-with-color/bee-A2DM.svg","response":0,"trial_type":"image-button-response","trial_index":119,"time_elapsed":648932,"internal_node_id":"0.0-4.0-0.56","subject_id":"61070c77a4f4d4d8ce80d223","study_id":"60edd13110225f80f9f3709b","session_id":"6196ba7b7190adca308ae37c","condition":"full-information","relevant_dimensions":["antennae","pattern"],"bee_group":{"antennae":"B","wings":"X","pattern":"S","legs":"X"},"action":"harvest","summary":"good-harvest","bonus":0.2400000000000013},{"rt":1215.0999999998603,"stimulus":"\n                    <p><b>Action: <em>harvest</em></b></p>\n                    <p>This is the bee that you just saw.</p>\n                    <img src=\"bees-with-color/bee-A2DM.svg\" width=\"200\">\n                    <p><span class=\"greenText\"><b>Successful harvest!</b></span><br>Your pay has increased by $0.02. Your bonus pay is now $0.30.</p>\n            ","response":0,"trial_type":"html-button-response","trial_index":120,"time_elapsed":650151,"internal_node_id":"0.0-4.0-1.56","subject_id":"61070c77a4f4d4d8ce80d223","study_id":"60edd13110225f80f9f3709b","session_id":"6196ba7b7190adca308ae37c","condition":"full-information","relevant_dimensions":["antennae","pattern"],"bee_group":{"antennae":"B","wings":"X","pattern":"S","legs":"X"},"bonus":0.2400000000000013},{"rt":7415.699999999953,"stimulus":"bees-with-color/bee-A2DF.svg","response":0,"trial_type":"image-button-response","trial_index":121,"time_elapsed":657570,"internal_node_id":"0.0-4.0-0.57","subject_id":"61070c77a4f4d4d8ce80d223","study_id":"60edd13110225f80f9f3709b","session_id":"6196ba7b7190adca308ae37c","condition":"full-information","relevant_dimensions":["antennae","pattern"],"bee_group":{"antennae":"B","wings":"X","pattern":"S","legs":"X"},"action":"harvest","summary":"good-harvest","bonus":0.2400000000000013},{"rt":1103,"stimulus":"\n                    <p><b>Action: <em>harvest</em></b></p>\n                    <p>This is the bee that you just saw.</p>\n                    <img src=\"bees-with-color/bee-A2DF.svg\" width=\"200\">\n                    <p><span class=\"greenText\"><b>Successful harvest!</b></span><br>Your pay has increased by $0.02. Your bonus pay is now $0.32.</p>\n            ","response":0,"trial_type":"html-button-response","trial_index":122,"time_elapsed":658676,"internal_node_id":"0.0-4.0-1.57","subject_id":"61070c77a4f4d4d8ce80d223","study_id":"60edd13110225f80f9f3709b","session_id":"6196ba7b7190adca308ae37c","condition":"full-information","relevant_dimensions":["antennae","pattern"],"bee_group":{"antennae":"B","wings":"X","pattern":"S","legs":"X"},"bonus":0.2400000000000013},{"rt":9794.09999999986,"stimulus":"bees-with-color/bee-A2SF.svg","response":0,"trial_type":"image-button-response","trial_index":123,"time_elapsed":668474,"internal_node_id":"0.0-4.0-0.58","subject_id":"61070c77a4f4d4d8ce80d223","study_id":"60edd13110225f80f9f3709b","session_id":"6196ba7b7190adca308ae37c","condition":"full-information","relevant_dimensions":["antennae","pattern"],"bee_group":{"antennae":"B","wings":"X","pattern":"S","legs":"X"},"action":"harvest","summary":"good-harvest","bonus":0.2400000000000013},{"rt":4650.5,"stimulus":"\n                    <p><b>Action: <em>harvest</em></b></p>\n                    <p>This is the bee that you just saw.</p>\n                    <img src=\"bees-with-color/bee-A2SF.svg\" width=\"200\">\n                    <p><span class=\"greenText\"><b>Successful harvest!</b></span><br>Your pay has increased by $0.02. Your bonus pay is now $0.34.</p>\n            ","response":0,"trial_type":"html-button-response","trial_index":124,"time_elapsed":673128,"internal_node_id":"0.0-4.0-1.58","subject_id":"61070c77a4f4d4d8ce80d223","study_id":"60edd13110225f80f9f3709b","session_id":"6196ba7b7190adca308ae37c","condition":"full-information","relevant_dimensions":["antennae","pattern"],"bee_group":{"antennae":"B","wings":"X","pattern":"S","legs":"X"},"bonus":0.2400000000000013},{"rt":8576.100000000093,"stimulus":"bees-with-color/bee-B2SF.svg","response":1,"trial_type":"image-button-response","trial_index":125,"time_elapsed":681708,"internal_node_id":"0.0-4.0-0.59","subject_id":"61070c77a4f4d4d8ce80d223","study_id":"60edd13110225f80f9f3709b","session_id":"6196ba7b7190adca308ae37c","condition":"full-information","relevant_dimensions":["antennae","pattern"],"bee_group":{"antennae":"B","wings":"X","pattern":"S","legs":"X"},"action":"avoid","summary":"good-avoid","bonus":0.2400000000000013},{"rt":3543,"stimulus":"\n                    <p><b>Action: <em>avoid</em></b></p>\n                    <p>This is the bee that you just saw.</p>\n                    <img src=\"bees-with-color/bee-B2SF.svg\" width=\"200\">\n                    <p><span class=\"greenText\">Good choice!</span>  This bee would have stung you.<br>Your bonus pay is unchanged, and remains at $0.34.</p>\n            ","response":0,"trial_type":"html-button-response","trial_index":126,"time_elapsed":685253,"internal_node_id":"0.0-4.0-1.59","subject_id":"61070c77a4f4d4d8ce80d223","study_id":"60edd13110225f80f9f3709b","session_id":"6196ba7b7190adca308ae37c","condition":"full-information","relevant_dimensions":["antennae","pattern"],"bee_group":{"antennae":"B","wings":"X","pattern":"S","legs":"X"},"bonus":0.2400000000000013},{"rt":13218.300000000047,"stimulus":"bees-with-color/bee-A1SF.svg","response":0,"trial_type":"image-button-response","trial_index":127,"time_elapsed":698466,"internal_node_id":"0.0-4.0-0.60","subject_id":"61070c77a4f4d4d8ce80d223","study_id":"60edd13110225f80f9f3709b","session_id":"6196ba7b7190adca308ae37c","condition":"full-information","relevant_dimensions":["antennae","pattern"],"bee_group":{"antennae":"B","wings":"X","pattern":"S","legs":"X"},"action":"harvest","summary":"good-harvest","bonus":0.2400000000000013},{"rt":5002.800000000047,"stimulus":"\n                    <p><b>Action: <em>harvest</em></b></p>\n                    <p>This is the bee that you just saw.</p>\n                    <img src=\"bees-with-color/bee-A1SF.svg\" width=\"200\">\n                    <p><span class=\"greenText\"><b>Successful harvest!</b></span><br>Your pay has increased by $0.02. Your bonus pay is now $0.36.</p>\n            ","response":0,"trial_type":"html-button-response","trial_index":128,"time_elapsed":703469,"internal_node_id":"0.0-4.0-1.60","subject_id":"61070c77a4f4d4d8ce80d223","study_id":"60edd13110225f80f9f3709b","session_id":"6196ba7b7190adca308ae37c","condition":"full-information","relevant_dimensions":["antennae","pattern"],"bee_group":{"antennae":"B","wings":"X","pattern":"S","legs":"X"},"bonus":0.2400000000000013},{"rt":13521.59999999986,"stimulus":"bees-with-color/bee-B1SF.svg","response":0,"trial_type":"image-button-response","trial_index":129,"time_elapsed":716991,"internal_node_id":"0.0-4.0-0.61","subject_id":"61070c77a4f4d4d8ce80d223","study_id":"60edd13110225f80f9f3709b","session_id":"6196ba7b7190adca308ae37c","condition":"full-information","relevant_dimensions":["antennae","pattern"],"bee_group":{"antennae":"B","wings":"X","pattern":"S","legs":"X"},"action":"harvest","summary":"bad-harvest","bonus":0.2400000000000013},{"rt":3655.100000000093,"stimulus":"\n                    <p><b>Action: <em>harvest</em></b></p>\n                    <p>This is the bee that you just saw.</p>\n                    <img src=\"bees-with-color/bee-B1SF.svg\" width=\"200\">\n                    <p><span class=\"redText\">Bad choice, the bee was angry.</span><br><b>You have been stung!</b><br>Your pay has been decreased by $0.10. Your bonus pay is now $0.26.</p>\n            ","response":0,"trial_type":"html-button-response","trial_index":130,"time_elapsed":720649,"internal_node_id":"0.0-4.0-1.61","subject_id":"61070c77a4f4d4d8ce80d223","study_id":"60edd13110225f80f9f3709b","session_id":"6196ba7b7190adca308ae37c","condition":"full-information","relevant_dimensions":["antennae","pattern"],"bee_group":{"antennae":"B","wings":"X","pattern":"S","legs":"X"},"bonus":0.2400000000000013},{"rt":11318.09999999986,"stimulus":"bees-with-color/bee-A2SM.svg","response":0,"trial_type":"image-button-response","trial_index":131,"time_elapsed":731970,"internal_node_id":"0.0-4.0-0.62","subject_id":"61070c77a4f4d4d8ce80d223","study_id":"60edd13110225f80f9f3709b","session_id":"6196ba7b7190adca308ae37c","condition":"full-information","relevant_dimensions":["antennae","pattern"],"bee_group":{"antennae":"B","wings":"X","pattern":"S","legs":"X"},"action":"harvest","summary":"good-harvest","bonus":0.2400000000000013},{"rt":3908.600000000093,"stimulus":"\n                    <p><b>Action: <em>harvest</em></b></p>\n                    <p>This is the bee that you just saw.</p>\n                    <img src=\"bees-with-color/bee-A2SM.svg\" width=\"200\">\n                    <p><span class=\"greenText\"><b>Successful harvest!</b></span><br>Your pay has increased by $0.02. Your bonus pay is now $0.28.</p>\n            ","response":0,"trial_type":"html-button-response","trial_index":132,"time_elapsed":735882,"internal_node_id":"0.0-4.0-1.62","subject_id":"61070c77a4f4d4d8ce80d223","study_id":"60edd13110225f80f9f3709b","session_id":"6196ba7b7190adca308ae37c","condition":"full-information","relevant_dimensions":["antennae","pattern"],"bee_group":{"antennae":"B","wings":"X","pattern":"S","legs":"X"},"bonus":0.2400000000000013},{"rt":15481.899999999907,"stimulus":"bees-with-color/bee-B2DF.svg","response":0,"trial_type":"image-button-response","trial_index":133,"time_elapsed":751367,"internal_node_id":"0.0-4.0-0.63","subject_id":"61070c77a4f4d4d8ce80d223","study_id":"60edd13110225f80f9f3709b","session_id":"6196ba7b7190adca308ae37c","condition":"full-information","relevant_dimensions":["antennae","pattern"],"bee_group":{"antennae":"B","wings":"X","pattern":"S","legs":"X"},"action":"harvest","summary":"good-harvest","bonus":0.2400000000000013},{"rt":894.2000000001863,"stimulus":"\n                    <p><b>Action: <em>harvest</em></b></p>\n                    <p>This is the bee that you just saw.</p>\n                    <img src=\"bees-with-color/bee-B2DF.svg\" width=\"200\">\n                    <p><span class=\"greenText\"><b>Successful harvest!</b></span><br>Your pay has increased by $0.02. Your bonus pay is now $0.30.</p>\n            ","response":0,"trial_type":"html-button-response","trial_index":134,"time_elapsed":752265,"internal_node_id":"0.0-4.0-1.63","subject_id":"61070c77a4f4d4d8ce80d223","study_id":"60edd13110225f80f9f3709b","session_id":"6196ba7b7190adca308ae37c","condition":"full-information","relevant_dimensions":["antennae","pattern"],"bee_group":{"antennae":"B","wings":"X","pattern":"S","legs":"X"},"bonus":0.2400000000000013},{"rt":11562.40000000014,"stimulus":"You have completed the first part of this experiment.<br><br>You will now begin a shorter second part, in which you will receive no feedback.<br>The same rules regarding bonus pay apply.<br><br>Press any key to begin.","response":" ","trial_type":"html-keyboard-response","trial_index":135,"time_elapsed":763831,"internal_node_id":"0.0-5.0","subject_id":"61070c77a4f4d4d8ce80d223","study_id":"60edd13110225f80f9f3709b","session_id":"6196ba7b7190adca308ae37c","condition":"full-information","relevant_dimensions":["antennae","pattern"],"bee_group":{"antennae":"B","wings":"X","pattern":"S","legs":"X"},"bonus":0.2400000000000013},{"rt":28654.399999999907,"stimulus":"bees-with-color/bee-B1SF.svg","response":1,"trial_type":"image-button-response","trial_index":136,"time_elapsed":792494,"internal_node_id":"0.0-6.0-0.0","subject_id":"61070c77a4f4d4d8ce80d223","study_id":"60edd13110225f80f9f3709b","session_id":"6196ba7b7190adca308ae37c","condition":"full-information","relevant_dimensions":["antennae","pattern"],"bee_group":{"antennae":"B","wings":"X","pattern":"S","legs":"X"},"bonus":0.2400000000000013},{"rt":14493,"stimulus":"bees-with-color/bee-A2SM.svg","response":0,"trial_type":"image-button-response","trial_index":137,"time_elapsed":806992,"internal_node_id":"0.0-6.0-0.1","subject_id":"61070c77a4f4d4d8ce80d223","study_id":"60edd13110225f80f9f3709b","session_id":"6196ba7b7190adca308ae37c","condition":"full-information","relevant_dimensions":["antennae","pattern"],"bee_group":{"antennae":"B","wings":"X","pattern":"S","legs":"X"},"bonus":0.2400000000000013},{"rt":7918.399999999907,"stimulus":"bees-with-color/bee-A2DM.svg","response":0,"trial_type":"image-button-response","trial_index":138,"time_elapsed":814917,"internal_node_id":"0.0-6.0-0.2","subject_id":"61070c77a4f4d4d8ce80d223","study_id":"60edd13110225f80f9f3709b","session_id":"6196ba7b7190adca308ae37c","condition":"full-information","relevant_dimensions":["antennae","pattern"],"bee_group":{"antennae":"B","wings":"X","pattern":"S","legs":"X"},"bonus":0.2400000000000013},{"rt":11564.100000000093,"stimulus":"bees-with-color/bee-A1DM.svg","response":0,"trial_type":"image-button-response","trial_index":139,"time_elapsed":826486,"internal_node_id":"0.0-6.0-0.3","subject_id":"61070c77a4f4d4d8ce80d223","study_id":"60edd13110225f80f9f3709b","session_id":"6196ba7b7190adca308ae37c","condition":"full-information","relevant_dimensions":["antennae","pattern"],"bee_group":{"antennae":"B","wings":"X","pattern":"S","legs":"X"},"bonus":0.2400000000000013},{"rt":8719.5,"stimulus":"bees-with-color/bee-B1DM.svg","response":0,"trial_type":"image-button-response","trial_index":140,"time_elapsed":835212,"internal_node_id":"0.0-6.0-0.4","subject_id":"61070c77a4f4d4d8ce80d223","study_id":"60edd13110225f80f9f3709b","session_id":"6196ba7b7190adca308ae37c","condition":"full-information","relevant_dimensions":["antennae","pattern"],"bee_group":{"antennae":"B","wings":"X","pattern":"S","legs":"X"},"bonus":0.2400000000000013},{"rt":12261.399999999907,"stimulus":"bees-with-color/bee-B2DM.svg","response":0,"trial_type":"image-button-response","trial_index":141,"time_elapsed":847480,"internal_node_id":"0.0-6.0-0.5","subject_id":"61070c77a4f4d4d8ce80d223","study_id":"60edd13110225f80f9f3709b","session_id":"6196ba7b7190adca308ae37c","condition":"full-information","relevant_dimensions":["antennae","pattern"],"bee_group":{"antennae":"B","wings":"X","pattern":"S","legs":"X"},"bonus":0.2400000000000013},{"rt":9969.300000000047,"stimulus":"bees-with-color/bee-B2DF.svg","response":0,"trial_type":"image-button-response","trial_index":142,"time_elapsed":857455,"internal_node_id":"0.0-6.0-0.6","subject_id":"61070c77a4f4d4d8ce80d223","study_id":"60edd13110225f80f9f3709b","session_id":"6196ba7b7190adca308ae37c","condition":"full-information","relevant_dimensions":["antennae","pattern"],"bee_group":{"antennae":"B","wings":"X","pattern":"S","legs":"X"},"bonus":0.2400000000000013},{"rt":13024.199999999953,"stimulus":"bees-with-color/bee-B2SF.svg","response":1,"trial_type":"image-button-response","trial_index":143,"time_elapsed":870485,"internal_node_id":"0.0-6.0-0.7","subject_id":"61070c77a4f4d4d8ce80d223","study_id":"60edd13110225f80f9f3709b","session_id":"6196ba7b7190adca308ae37c","condition":"full-information","relevant_dimensions":["antennae","pattern"],"bee_group":{"antennae":"B","wings":"X","pattern":"S","legs":"X"},"bonus":0.2400000000000013},{"rt":8989.59999999986,"stimulus":"bees-with-color/bee-B1DF.svg","response":0,"trial_type":"image-button-response","trial_index":144,"time_elapsed":879481,"internal_node_id":"0.0-6.0-0.8","subject_id":"61070c77a4f4d4d8ce80d223","study_id":"60edd13110225f80f9f3709b","session_id":"6196ba7b7190adca308ae37c","condition":"full-information","relevant_dimensions":["antennae","pattern"],"bee_group":{"antennae":"B","wings":"X","pattern":"S","legs":"X"},"bonus":0.2400000000000013},{"rt":12141.40000000014,"stimulus":"bees-with-color/bee-A2DF.svg","response":0,"trial_type":"image-button-response","trial_index":145,"time_elapsed":891628,"internal_node_id":"0.0-6.0-0.9","subject_id":"61070c77a4f4d4d8ce80d223","study_id":"60edd13110225f80f9f3709b","session_id":"6196ba7b7190adca308ae37c","condition":"full-information","relevant_dimensions":["antennae","pattern"],"bee_group":{"antennae":"B","wings":"X","pattern":"S","legs":"X"},"bonus":0.2400000000000013},{"rt":7642.899999999907,"stimulus":"bees-with-color/bee-B1SM.svg","response":1,"trial_type":"image-button-response","trial_index":146,"time_elapsed":899278,"internal_node_id":"0.0-6.0-0.10","subject_id":"61070c77a4f4d4d8ce80d223","study_id":"60edd13110225f80f9f3709b","session_id":"6196ba7b7190adca308ae37c","condition":"full-information","relevant_dimensions":["antennae","pattern"],"bee_group":{"antennae":"B","wings":"X","pattern":"S","legs":"X"},"bonus":0.2400000000000013},{"rt":9386.199999999953,"stimulus":"bees-with-color/bee-A1DF.svg","response":0,"trial_type":"image-button-response","trial_index":147,"time_elapsed":908670,"internal_node_id":"0.0-6.0-0.11","subject_id":"61070c77a4f4d4d8ce80d223","study_id":"60edd13110225f80f9f3709b","session_id":"6196ba7b7190adca308ae37c","condition":"full-information","relevant_dimensions":["antennae","pattern"],"bee_group":{"antennae":"B","wings":"X","pattern":"S","legs":"X"},"bonus":0.2400000000000013},{"rt":14458.300000000047,"stimulus":"bees-with-color/bee-B2SM.svg","response":1,"trial_type":"image-button-response","trial_index":148,"time_elapsed":923133,"internal_node_id":"0.0-6.0-0.12","subject_id":"61070c77a4f4d4d8ce80d223","study_id":"60edd13110225f80f9f3709b","session_id":"6196ba7b7190adca308ae37c","condition":"full-information","relevant_dimensions":["antennae","pattern"],"bee_group":{"antennae":"B","wings":"X","pattern":"S","legs":"X"},"bonus":0.2400000000000013},{"rt":9184.800000000047,"stimulus":"bees-with-color/bee-A1SM.svg","response":0,"trial_type":"image-button-response","trial_index":149,"time_elapsed":932323,"internal_node_id":"0.0-6.0-0.13","subject_id":"61070c77a4f4d4d8ce80d223","study_id":"60edd13110225f80f9f3709b","session_id":"6196ba7b7190adca308ae37c","condition":"full-information","relevant_dimensions":["antennae","pattern"],"bee_group":{"antennae":"B","wings":"X","pattern":"S","legs":"X"},"bonus":0.2400000000000013},{"rt":8172.299999999814,"stimulus":"bees-with-color/bee-A1SF.svg","response":0,"trial_type":"image-button-response","trial_index":150,"time_elapsed":940500,"internal_node_id":"0.0-6.0-0.14","subject_id":"61070c77a4f4d4d8ce80d223","study_id":"60edd13110225f80f9f3709b","session_id":"6196ba7b7190adca308ae37c","condition":"full-information","relevant_dimensions":["antennae","pattern"],"bee_group":{"antennae":"B","wings":"X","pattern":"S","legs":"X"},"bonus":0.2400000000000013},{"rt":4032.0999999998603,"stimulus":"bees-with-color/bee-A2SF.svg","response":0,"trial_type":"image-button-response","trial_index":151,"time_elapsed":944536,"internal_node_id":"0.0-6.0-0.15","subject_id":"61070c77a4f4d4d8ce80d223","study_id":"60edd13110225f80f9f3709b","session_id":"6196ba7b7190adca308ae37c","condition":"full-information","relevant_dimensions":["antennae","pattern"],"bee_group":{"antennae":"B","wings":"X","pattern":"S","legs":"X"},"bonus":0.2400000000000013},{"rt":155.60000000009313,"stimulus":"bees-with-color/bee-B1DF.svg","response":0,"trial_type":"image-button-response","trial_index":152,"time_elapsed":944696,"internal_node_id":"0.0-6.0-0.16","subject_id":"61070c77a4f4d4d8ce80d223","study_id":"60edd13110225f80f9f3709b","session_id":"6196ba7b7190adca308ae37c","condition":"full-information","relevant_dimensions":["antennae","pattern"],"bee_group":{"antennae":"B","wings":"X","pattern":"S","legs":"X"},"bonus":0.2400000000000013},{"rt":350.4000000001397,"stimulus":"bees-with-color/bee-B2SM.svg","response":0,"trial_type":"image-button-response","trial_index":153,"time_elapsed":945050,"internal_node_id":"0.0-6.0-0.17","subject_id":"61070c77a4f4d4d8ce80d223","study_id":"60edd13110225f80f9f3709b","session_id":"6196ba7b7190adca308ae37c","condition":"full-information","relevant_dimensions":["antennae","pattern"],"bee_group":{"antennae":"B","wings":"X","pattern":"S","legs":"X"},"bonus":0.2400000000000013},{"rt":156.60000000009313,"stimulus":"bees-with-color/bee-A2DF.svg","response":0,"trial_type":"image-button-response","trial_index":154,"time_elapsed":945210,"internal_node_id":"0.0-6.0-0.18","subject_id":"61070c77a4f4d4d8ce80d223","study_id":"60edd13110225f80f9f3709b","session_id":"6196ba7b7190adca308ae37c","condition":"full-information","relevant_dimensions":["antennae","pattern"],"bee_group":{"antennae":"B","wings":"X","pattern":"S","legs":"X"},"bonus":0.2400000000000013},{"rt":597,"stimulus":"bees-with-color/bee-B2DF.svg","response":1,"trial_type":"image-button-response","trial_index":155,"time_elapsed":945810,"internal_node_id":"0.0-6.0-0.19","subject_id":"61070c77a4f4d4d8ce80d223","study_id":"60edd13110225f80f9f3709b","session_id":"6196ba7b7190adca308ae37c","condition":"full-information","relevant_dimensions":["antennae","pattern"],"bee_group":{"antennae":"B","wings":"X","pattern":"S","legs":"X"},"bonus":0.2400000000000013},{"rt":166.39999999990687,"stimulus":"bees-with-color/bee-A2SF.svg","response":1,"trial_type