[{"success":true,"trial_type":"fullscreen","trial_index":0,"time_elapsed":4584,"internal_node_id":"0.0-0.0","subject_id":"61671ecff6a6efdc1abf474c","study_id":"6197b3f67c2b5cd3b6d9596a","session_id":"619beeeb56def423f96357d5","condition":"contingent","relevant_dimensions":["antennae","legs"],"bee_group":{"antennae":"A","wings":"X","pattern":"X","legs":"F"},"bonus":0},{"success":true,"timeout":false,"failed_images":[],"failed_audio":[],"failed_video":[],"trial_type":"preload","trial_index":1,"time_elapsed":9620,"internal_node_id":"0.0-1.0","subject_id":"61671ecff6a6efdc1abf474c","study_id":"6197b3f67c2b5cd3b6d9596a","session_id":"619beeeb56def423f96357d5","condition":"contingent","relevant_dimensions":["antennae","legs"],"bee_group":{"antennae":"A","wings":"X","pattern":"X","legs":"F"},"bonus":0},{"rt":4413.300000190735,"stimulus":"Welcome! Press any key to begin.","response":" ","trial_type":"html-keyboard-response","trial_index":2,"time_elapsed":14036,"internal_node_id":"0.0-2.0","subject_id":"61671ecff6a6efdc1abf474c","study_id":"6197b3f67c2b5cd3b6d9596a","session_id":"619beeeb56def423f96357d5","condition":"contingent","relevant_dimensions":["antennae","legs"],"bee_group":{"antennae":"A","wings":"X","pattern":"X","legs":"F"},"bonus":0},{"view_history":[{"page_index":0,"viewing_time":6372.600000143051},{"page_index":1,"viewing_time":16757.799999952316},{"page_index":2,"viewing_time":7120.5},{"page_index":3,"viewing_time":14125.099999904633},{"page_index":4,"viewing_time":4845.900000095367},{"page_index":5,"viewing_time":6137.799999952316},{"page_index":6,"viewing_time":12931.400000095367},{"page_index":7,"viewing_time":16002.299999952316},{"page_index":8,"viewing_time":6960.099999904633},{"page_index":9,"viewing_time":5593.700000047684},{"page_index":10,"viewing_time":2535.2000000476837},{"page_index":11,"viewing_time":11060.899999856949},{"page_index":12,"viewing_time":14325.700000047684},{"page_index":13,"viewing_time":2378.2000000476837},{"page_index":14,"viewing_time":3233.2000000476837}],"rt":130381.10000014305,"trial_type":"instructions","trial_index":3,"time_elapsed":144418,"internal_node_id":"0.0-3.0-0.0","subject_id":"61671ecff6a6efdc1abf474c","study_id":"6197b3f67c2b5cd3b6d9596a","session_id":"619beeeb56def423f96357d5","condition":"contingent","relevant_dimensions":["antennae","legs"],"bee_group":{"antennae":"A","wings":"X","pattern":"X","legs":"F"},"bonus":0},{"rt":19952.400000095367,"response":{"Q0":["Two or six legs","Stripes or spots on body"]},"question_order":[0],"trial_type":"survey-multi-select","trial_index":4,"time_elapsed":164378,"internal_node_id":"0.0-3.0-1.0","subject_id":"61671ecff6a6efdc1abf474c","study_id":"6197b3f67c2b5cd3b6d9596a","session_id":"619beeeb56def423f96357d5","condition":"contingent","relevant_dimensions":["antennae","legs"],"bee_group":{"antennae":"A","wings":"X","pattern":"X","legs":"F"},"correct":false,"bonus":0},{"rt":39192.5,"response":{"Q1":"Yes.","Q2":"Based on the four features of the bee.","Q3":"You learn if it was friendly or dangerous and alter your bonus."},"question_order":[0,1,2],"trial_type":"survey-multi-choice","trial_index":5,"time_elapsed":203576,"internal_node_id":"0.0-3.0-2.0","subject_id":"61671ecff6a6efdc1abf474c","study_id":"6197b3f67c2b5cd3b6d9596a","session_id":"619beeeb56def423f96357d5","condition":"contingent","relevant_dimensions":["antennae","legs"],"bee_group":{"antennae":"A","wings":"X","pattern":"X","legs":"F"},"correct":false,"bonus":0},{"rt":6331.099999904633,"stimulus":"<p>You did not answer all comprehension questions correctly.<br>Press <b>continue</b> to review the instructions again.</p>","response":0,"trial_type":"html-button-response","trial_index":6,"time_elapsed":209913,"internal_node_id":"0.0-3.0-3.0","subject_id":"61671ecff6a6efdc1abf474c","study_id":"6197b3f67c2b5cd3b6d9596a","session_id":"619beeeb56def423f96357d5","condition":"contingent","relevant_dimensions":["antennae","legs"],"bee_group":{"antennae":"A","wings":"X","pattern":"X","legs":"F"},"bonus":0},{"view_history":[{"page_index":0,"viewing_time":2885},{"page_index":1,"viewing_time":6507.600000143051},{"page_index":2,"viewing_time":13424.5},{"page_index":3,"viewing_time":9397.599999904633},{"page_index":4,"viewing_time":11372.5},{"page_index":5,"viewing_time":10386.200000047684},{"page_index":6,"viewing_time":11915.799999952316},{"page_index":7,"viewing_time":9514.799999952316},{"page_index":8,"viewing_time":12983.400000095367},{"page_index":9,"viewing_time":5623},{"page_index":10,"viewing_time":5689.599999904633},{"page_index":11,"viewing_time":11525.5},{"page_index":12,"viewing_time":3687.4000000953674},{"page_index":13,"viewing_time":2226.9000000953674},{"page_index":14,"viewing_time":1212.7999999523163}],"rt":118353.60000014305,"trial_type":"instructions","trial_index":7,"time_elapsed":328269,"internal_node_id":"0.0-3.0-4.0-0.0","subject_id":"61671ecff6a6efdc1abf474c","study_id":"6197b3f67c2b5cd3b6d9596a","session_id":"619beeeb56def423f96357d5","condition":"contingent","relevant_dimensions":["antennae","legs"],"bee_group":{"antennae":"A","wings":"X","pattern":"X","legs":"F"},"bonus":0},{"rt":16780.099999904633,"response":{"Q0":["Two or six legs","Stripes or spots on body","Single or double wings","Antennae or no antennae"]},"question_order":[0],"trial_type":"survey-multi-select","trial_index":8,"time_elapsed":345061,"internal_node_id":"0.0-3.0-4.0-1.0","subject_id":"61671ecff6a6efdc1abf474c","study_id":"6197b3f67c2b5cd3b6d9596a","session_id":"619beeeb56def423f96357d5","condition":"contingent","relevant_dimensions":["antennae","legs"],"bee_group":{"antennae":"A","wings":"X","pattern":"X","legs":"F"},"correct":true,"bonus":0},{"rt":23530.60000014305,"response":{"Q1":"No.","Q2":"Based on the four features of the bee.","Q3":"You do not learn if it was friendly or dangerous, and do not alter your bonus."},"question_order":[0,1,2],"trial_type":"survey-multi-choice","trial_index":9,"time_elapsed":368596,"internal_node_id":"0.0-3.0-4.0-2.0","subject_id":"61671ecff6a6efdc1abf474c","study_id":"6197b3f67c2b5cd3b6d9596a","session_id":"619beeeb56def423f96357d5","condition":"contingent","relevant_dimensions":["antennae","legs"],"bee_group":{"antennae":"A","wings":"X","pattern":"X","legs":"F"},"correct":true,"bonus":0},{"rt":2257.7999999523163,"stimulus":"<p>Congrats, you got everything right<br>When you're ready, click the button below to continue to the experiment.</p>","response":0,"trial_type":"html-button-response","trial_index":10,"time_elapsed":370857,"internal_node_id":"0.0-3.0-4.0-3.0","subject_id":"61671ecff6a6efdc1abf474c","study_id":"6197b3f67c2b5cd3b6d9596a","session_id":"619beeeb56def423f96357d5","condition":"contingent","relevant_dimensions":["antennae","legs"],"bee_group":{"antennae":"A","wings":"X","pattern":"X","legs":"F"},"bonus":0},{"rt":5550.899999856949,"stimulus":"bees-with-color/bee-A1DF.svg","response":0,"trial_type":"image-button-response","trial_index":11,"time_elapsed":376413,"internal_node_id":"0.0-4.0-0.0","subject_id":"61671ecff6a6efdc1abf474c","study_id":"6197b3f67c2b5cd3b6d9596a","session_id":"619beeeb56def423f96357d5","condition":"contingent","relevant_dimensions":["antennae","legs"],"bee_group":{"antennae":"A","wings":"X","pattern":"X","legs":"F"},"action":"harvest","summary":"bad-harvest","bonus":0},{"rt":6588,"stimulus":"\n                    <p><b>Action: <em>harvest</em></b></p>\n                    <p>This is the bee that you just saw.</p>\n                    <img src=\"bees-with-color/bee-A1DF.svg\" width=\"200\">\n                    <p><span class=\"redText\">Bad choice, the bee was angry.</span><br><b>You have been stung!</b><br>Your pay has been decreased by $0.10. Your bonus pay is now $0.44.</p>\n            ","response":0,"trial_type":"html-button-response","trial_index":12,"time_elapsed":383015,"internal_node_id":"0.0-4.0-1.0","subject_id":"61671ecff6a6efdc1abf474c","study_id":"6197b3f67c2b5cd3b6d9596a","session_id":"619beeeb56def423f96357d5","condition":"contingent","relevant_dimensions":["antennae","legs"],"bee_group":{"antennae":"A","wings":"X","pattern":"X","legs":"F"},"bonus":0},{"rt":3084.399999856949,"stimulus":"bees-with-color/bee-B2SF.svg","response":0,"trial_type":"image-button-response","trial_index":13,"time_elapsed":386105,"internal_node_id":"0.0-4.0-0.1","subject_id":"61671ecff6a6efdc1abf474c","study_id":"6197b3f67c2b5cd3b6d9596a","session_id":"619beeeb56def423f96357d5","condition":"contingent","relevant_dimensions":["antennae","legs"],"bee_group":{"antennae":"A","wings":"X","pattern":"X","legs":"F"},"action":"harvest","summary":"good-harvest","bonus":0},{"rt":2149.7000000476837,"stimulus":"\n                    <p><b>Action: <em>harvest</em></b></p>\n                    <p>This is the bee that you just saw.</p>\n                    <img src=\"bees-with-color/bee-B2SF.svg\" width=\"200\">\n                    <p><span class=\"greenText\"><b>Successful harvest!</b></span><br>Your pay has increased by $0.02. Your bonus pay is now $0.46.</p>\n            ","response":0,"trial_type":"html-button-response","trial_index":14,"time_elapsed":388259,"internal_node_id":"0.0-4.0-1.1","subject_id":"61671ecff6a6efdc1abf474c","study_id":"6197b3f67c2b5cd3b6d9596a","session_id":"619beeeb56def423f96357d5","condition":"contingent","relevant_dimensions":["antennae","legs"],"bee_group":{"antennae":"A","wings":"X","pattern":"X","legs":"F"},"bonus":0},{"rt":1846.4000000953674,"stimulus":"bees-with-color/bee-B2SM.svg","response":1,"trial_type":"image-button-response","trial_index":15,"time_elapsed":390111,"internal_node_id":"0.0-4.0-0.2","subject_id":"61671ecff6a6efdc1abf474c","study_id":"6197b3f67c2b5cd3b6d9596a","session_id":"619beeeb56def423f96357d5","condition":"contingent","relevant_dimensions":["antennae","legs"],"bee_group":{"antennae":"A","wings":"X","pattern":"X","legs":"F"},"action":"avoid","summary":"bad-avoid","bonus":0},{"rt":5438.799999952316,"stimulus":"\n                    <p><b>Action: <em>avoid</em></b></p>\n                    <p>This is the bee that you just saw.</p>\n                    <img src=\"bees-with-color/bee-B2SM.svg\" width=\"200\">\n                    <p><br>Your bonus pay is unchanged, and remains at $0.46.</p>\n            ","response":0,"trial_type":"html-button-response","trial_index":16,"time_elapsed":395553,"internal_node_id":"0.0-4.0-1.2","subject_id":"61671ecff6a6efdc1abf474c","study_id":"6197b3f67c2b5cd3b6d9596a","session_id":"619beeeb56def423f96357d5","condition":"contingent","relevant_dimensions":["antennae","legs"],"bee_group":{"antennae":"A","wings":"X","pattern":"X","legs":"F"},"bonus":0},{"rt":2155.7999999523163,"stimulus":"bees-with-color/bee-A2SM.svg","response":1,"trial_type":"image-button-response","trial_index":17,"time_elapsed":397714,"internal_node_id":"0.0-4.0-0.3","subject_id":"61671ecff6a6efdc1abf474c","study_id":"6197b3f67c2b5cd3b6d9596a","session_id":"619beeeb56def423f96357d5","condition":"contingent","relevant_dimensions":["antennae","legs"],"bee_group":{"antennae":"A","wings":"X","pattern":"X","legs":"F"},"action":"avoid","summary":"bad-avoid","bonus":0},{"rt":1707.9000000953674,"stimulus":"\n                    <p><b>Action: <em>avoid</em></b></p>\n                    <p>This is the bee that you just saw.</p>\n                    <img src=\"bees-with-color/bee-A2SM.svg\" width=\"200\">\n                    <p><br>Your bonus pay is unchanged, and remains at $0.46.</p>\n            ","response":0,"trial_type":"html-button-response","trial_index":18,"time_elapsed":399425,"internal_node_id":"0.0-4.0-1.3","subject_id":"61671ecff6a6efdc1abf474c","study_id":"6197b3f67c2b5cd3b6d9596a","session_id":"619beeeb56def423f96357d5","condition":"contingent","relevant_dimensions":["antennae","legs"],"bee_group":{"antennae":"A","wings":"X","pattern":"X","legs":"F"},"bonus":0},{"rt":2195.300000190735,"stimulus":"bees-with-color/bee-B2DM.svg","response":1,"trial_type":"image-button-response","trial_index":19,"time_elapsed":401625,"internal_node_id":"0.0-4.0-0.4","subject_id":"61671ecff6a6efdc1abf474c","study_id":"6197b3f67c2b5cd3b6d9596a","session_id":"619beeeb56def423f96357d5","condition":"contingent","relevant_dimensions":["antennae","legs"],"bee_group":{"antennae":"A","wings":"X","pattern":"X","legs":"F"},"action":"avoid","summary":"bad-avoid","bonus":0},{"rt":1836.0999999046326,"stimulus":"\n                    <p><b>Action: <em>avoid</em></b></p>\n                    <p>This is the bee that you just saw.</p>\n                    <img src=\"bees-with-color/bee-B2DM.svg\" width=\"200\">\n                    <p><br>Your bonus pay is unchanged, and remains at $0.46.</p>\n            ","response":0,"trial_type":"html-button-response","trial_index":20,"time_elapsed":403465,"internal_node_id":"0.0-4.0-1.4","subject_id":"61671ecff6a6efdc1abf474c","study_id":"6197b3f67c2b5cd3b6d9596a","session_id":"619beeeb56def423f96357d5","condition":"contingent","relevant_dimensions":["antennae","legs"],"bee_group":{"antennae":"A","wings":"X","pattern":"X","legs":"F"},"bonus":0},{"rt":3794.2999999523163,"stimulus":"bees-with-color/bee-A1SM.svg","response":1,"trial_type":"image-button-response","trial_index":21,"time_elapsed":407264,"internal_node_id":"0.0-4.0-0.5","subject_id":"61671ecff6a6efdc1abf474c","study_id":"6197b3f67c2b5cd3b6d9596a","session_id":"619beeeb56def423f96357d5","condition":"contingent","relevant_dimensions":["antennae","legs"],"bee_group":{"antennae":"A","wings":"X","pattern":"X","legs":"F"},"action":"avoid","summary":"bad-avoid","bonus":0},{"rt":1486.7000000476837,"stimulus":"\n                    <p><b>Action: <em>avoid</em></b></p>\n                    <p>This is the bee that you just saw.</p>\n                    <img src=\"bees-with-color/bee-A1SM.svg\" width=\"200\">\n                    <p><br>Your bonus pay is unchanged, and remains at $0.46.</p>\n            ","response":0,"trial_type":"html-button-response","trial_index":22,"time_elapsed":408754,"internal_node_id":"0.0-4.0-1.5","subject_id":"61671ecff6a6efdc1abf474c","study_id":"6197b3f67c2b5cd3b6d9596a","session_id":"619beeeb56def423f96357d5","condition":"contingent","relevant_dimensions":["antennae","legs"],"bee_group":{"antennae":"A","wings":"X","pattern":"X","legs":"F"},"bonus":0},{"rt":1685.5,"stimulus":"bees-with-color/bee-A2SF.svg","response":0,"trial_type":"image-button-response","trial_index":23,"time_elapsed":410445,"internal_node_id":"0.0-4.0-0.6","subject_id":"61671ecff6a6efdc1abf474c","study_id":"6197b3f67c2b5cd3b6d9596a","session_id":"619beeeb56def423f96357d5","condition":"contingent","relevant_dimensions":["antennae","legs"],"bee_group":{"antennae":"A","wings":"X","pattern":"X","legs":"F"},"action":"harvest","summary":"bad-harvest","bonus":0},{"rt":2273.7000000476837,"stimulus":"\n                    <p><b>Action: <em>harvest</em></b></p>\n                    <p>This is the bee that you just saw.</p>\n                    <img src=\"bees-with-color/bee-A2SF.svg\" width=\"200\">\n                    <p><span class=\"redText\">Bad choice, the bee was angry.</span><br><b>You have been stung!</b><br>Your pay has been decreased by $0.10. Your bonus pay is now $0.36.</p>\n            ","response":0,"trial_type":"html-button-response","trial_index":24,"time_elapsed":412723,"internal_node_id":"0.0-4.0-1.6","subject_id":"61671ecff6a6efdc1abf474c","study_id":"6197b3f67c2b5cd3b6d9596a","session_id":"619beeeb56def423f96357d5","condition":"contingent","relevant_dimensions":["antennae","legs"],"bee_group":{"antennae":"A","wings":"X","pattern":"X","legs":"F"},"bonus":0},{"rt":2127.0999999046326,"stimulus":"bees-with-color/bee-B1DF.svg","response":0,"trial_type":"image-button-response","trial_index":25,"time_elapsed":414855,"internal_node_id":"0.0-4.0-0.7","subject_id":"61671ecff6a6efdc1abf474c","study_id":"6197b3f67c2b5cd3b6d9596a","session_id":"619beeeb56def423f96357d5","condition":"contingent","relevant_dimensions":["antennae","legs"],"bee_group":{"antennae":"A","wings":"X","pattern":"X","legs":"F"},"action":"harvest","summary":"good-harvest","bonus":0},{"rt":2074.7999999523163,"stimulus":"\n                    <p><b>Action: <em>harvest</em></b></p>\n                    <p>This is the bee that you just saw.</p>\n                    <img src=\"bees-with-color/bee-B1DF.svg\" width=\"200\">\n                    <p><span class=\"greenText\"><b>Successful harvest!</b></span><br>Your pay has increased by $0.02. Your bonus pay is now $0.38.</p>\n            ","response":0,"trial_type":"html-button-response","trial_index":26,"time_elapsed":416932,"internal_node_id":"0.0-4.0-1.7","subject_id":"61671ecff6a6efdc1abf474c","study_id":"6197b3f67c2b5cd3b6d9596a","session_id":"619beeeb56def423f96357d5","condition":"contingent","relevant_dimensions":["antennae","legs"],"bee_group":{"antennae":"A","wings":"X","pattern":"X","legs":"F"},"bonus":0},{"rt":1987.3999998569489,"stimulus":"bees-with-color/bee-B2DF.svg","response":0,"trial_type":"image-button-response","trial_index":27,"time_elapsed":418925,"internal_node_id":"0.0-4.0-0.8","subject_id":"61671ecff6a6efdc1abf474c","study_id":"6197b3f67c2b5cd3b6d9596a","session_id":"619beeeb56def423f96357d5","condition":"contingent","relevant_dimensions":["antennae","legs"],"bee_group":{"antennae":"A","wings":"X","pattern":"X","legs":"F"},"action":"harvest","summary":"good-harvest","bonus":0},{"rt":2946.5,"stimulus":"\n                    <p><b>Action: <em>harvest</em></b></p>\n                    <p>This is the bee that you just saw.</p>\n                    <img src=\"bees-with-color/bee-B2DF.svg\" width=\"200\">\n                    <p><span class=\"greenText\"><b>Successful harvest!</b></span><br>Your pay has increased by $0.02. Your bonus pay is now $0.40.</p>\n            ","response":0,"trial_type":"html-button-response","trial_index":28,"time_elapsed":421876,"internal_node_id":"0.0-4.0-1.8","subject_id":"61671ecff6a6efdc1abf474c","study_id":"6197b3f67c2b5cd3b6d9596a","session_id":"619beeeb56def423f96357d5","condition":"contingent","relevant_dimensions":["antennae","legs"],"bee_group":{"antennae":"A","wings":"X","pattern":"X","legs":"F"},"bonus":0},{"rt":1818.0999999046326,"stimulus":"bees-with-color/bee-B1SF.svg","response":0,"trial_type":"image-button-response","trial_index":29,"time_elapsed":423699,"internal_node_id":"0.0-4.0-0.9","subject_id":"61671ecff6a6efdc1abf474c","study_id":"6197b3f67c2b5cd3b6d9596a","session_id":"619beeeb56def423f96357d5","condition":"contingent","relevant_dimensions":["antennae","legs"],"bee_group":{"antennae":"A","wings":"X","pattern":"X","legs":"F"},"action":"harvest","summary":"good-harvest","bonus":0},{"rt":1631,"stimulus":"\n                    <p><b>Action: <em>harvest</em></b></p>\n                    <p>This is the bee that you just saw.</p>\n                    <img src=\"bees-with-color/bee-B1SF.svg\" width=\"200\">\n                    <p><span class=\"greenText\"><b>Successful harvest!</b></span><br>Your pay has increased by $0.02. Your bonus pay is now $0.42.</p>\n            ","response":0,"trial_type":"html-button-response","trial_index":30,"time_elapsed":425334,"internal_node_id":"0.0-4.0-1.9","subject_id":"61671ecff6a6efdc1abf474c","study_id":"6197b3f67c2b5cd3b6d9596a","session_id":"619beeeb56def423f96357d5","condition":"contingent","relevant_dimensions":["antennae","legs"],"bee_group":{"antennae":"A","wings":"X","pattern":"X","legs":"F"},"bonus":0},{"rt":1965.7999999523163,"stimulus":"bees-with-color/bee-B1SM.svg","response":1,"trial_type":"image-button-response","trial_index":31,"time_elapsed":427304,"internal_node_id":"0.0-4.0-0.10","subject_id":"61671ecff6a6efdc1abf474c","study_id":"6197b3f67c2b5cd3b6d9596a","session_id":"619beeeb56def423f96357d5","condition":"contingent","relevant_dimensions":["antennae","legs"],"bee_group":{"antennae":"A","wings":"X","pattern":"X","legs":"F"},"action":"avoid","summary":"bad-avoid","bonus":0},{"rt":1923.8999998569489,"stimulus":"\n                    <p><b>Action: <em>avoid</em></b></p>\n                    <p>This is the bee that you just saw.</p>\n                    <img src=\"bees-with-color/bee-B1SM.svg\" width=\"200\">\n                    <p><br>Your bonus pay is unchanged, and remains at $0.42.</p>\n            ","response":0,"trial_type":"html-button-response","trial_index":32,"time_elapsed":429232,"internal_node_id":"0.0-4.0-1.10","subject_id":"61671ecff6a6efdc1abf474c","study_id":"6197b3f67c2b5cd3b6d9596a","session_id":"619beeeb56def423f96357d5","condition":"contingent","relevant_dimensions":["antennae","legs"],"bee_group":{"antennae":"A","wings":"X","pattern":"X","legs":"F"},"bonus":0},{"rt":1888.9000000953674,"stimulus":"bees-with-color/bee-A1DM.svg","response":1,"trial_type":"image-button-response","trial_index":33,"time_elapsed":431126,"internal_node_id":"0.0-4.0-0.11","subject_id":"61671ecff6a6efdc1abf474c","study_id":"6197b3f67c2b5cd3b6d9596a","session_id":"619beeeb56def423f96357d5","condition":"contingent","relevant_dimensions":["antennae","legs"],"bee_group":{"antennae":"A","wings":"X","pattern":"X","legs":"F"},"action":"avoid","summary":"bad-avoid","bonus":0},{"rt":1603.9000000953674,"stimulus":"\n                    <p><b>Action: <em>avoid</em></b></p>\n                    <p>This is the bee that you just saw.</p>\n                    <img src=\"bees-with-color/bee-A1DM.svg\" width=\"200\">\n                    <p><br>Your bonus pay is unchanged, and remains at $0.42.</p>\n            ","response":0,"trial_type":"html-button-response","trial_index":34,"time_elapsed":432734,"internal_node_id":"0.0-4.0-1.11","subject_id":"61671ecff6a6efdc1abf474c","study_id":"6197b3f67c2b5cd3b6d9596a","session_id":"619beeeb56def423f96357d5","condition":"contingent","relevant_dimensions":["antennae","legs"],"bee_group":{"antennae":"A","wings":"X","pattern":"X","legs":"F"},"bonus":0},{"rt":1857.2000000476837,"stimulus":"bees-with-color/bee-B1DM.svg","response":1,"trial_type":"image-button-response","trial_index":35,"time_elapsed":434597,"internal_node_id":"0.0-4.0-0.12","subject_id":"61671ecff6a6efdc1abf474c","study_id":"6197b3f67c2b5cd3b6d9596a","session_id":"619beeeb56def423f96357d5","condition":"contingent","relevant_dimensions":["antennae","legs"],"bee_group":{"antennae":"A","wings":"X","pattern":"X","legs":"F"},"action":"avoid","summary":"bad-avoid","bonus":0},{"rt":1605.9000000953674,"stimulus":"\n                    <p><b>Action: <em>avoid</em></b></p>\n                    <p>This is the bee that you just saw.</p>\n                    <img src=\"bees-with-color/bee-B1DM.svg\" width=\"200\">\n                    <p><br>Your bonus pay is unchanged, and remains at $0.42.</p>\n            ","response":0,"trial_type":"html-button-response","trial_index":36,"time_elapsed":436207,"internal_node_id":"0.0-4.0-1.12","subject_id":"61671ecff6a6efdc1abf474c","study_id":"6197b3f67c2b5cd3b6d9596a","session_id":"619beeeb56def423f96357d5","condition":"contingent","relevant_dimensions":["antennae","legs"],"bee_group":{"antennae":"A","wings":"X","pattern":"X","legs":"F"},"bonus":0},{"rt":1508.7000000476837,"stimulus":"bees-with-color/bee-A2DM.svg","response":1,"trial_type":"image-button-response","trial_index":37,"time_elapsed":437720,"internal_node_id":"0.0-4.0-0.13","subject_id":"61671ecff6a6efdc1abf474c","study_id":"6197b3f67c2b5cd3b6d9596a","session_id":"619beeeb56def423f96357d5","condition":"contingent","relevant_dimensions":["antennae","legs"],"bee_group":{"antennae":"A","wings":"X","pattern":"X","legs":"F"},"action":"avoid","summary":"bad-avoid","bonus":0},{"rt":1438.6000001430511,"stimulus":"\n                    <p><b>Action: <em>avoid</em></b></p>\n                    <p>This is the bee that you just saw.</p>\n                    <img src=\"bees-with-color/bee-A2DM.svg\" width=\"200\">\n                    <p><br>Your bonus pay is unchanged, and remains at $0.42.</p>\n            ","response":0,"trial_type":"html-button-response","trial_index":38,"time_elapsed":439161,"internal_node_id":"0.0-4.0-1.13","subject_id":"61671ecff6a6efdc1abf474c","study_id":"6197b3f67c2b5cd3b6d9596a","session_id":"619beeeb56def423f96357d5","condition":"contingent","relevant_dimensions":["antennae","legs"],"bee_group":{"antennae":"A","wings":"X","pattern":"X","legs":"F"},"bonus":0},{"rt":2328.5,"stimulus":"bees-with-color/bee-A2DF.svg","response":0,"trial_type":"image-button-response","trial_index":39,"time_elapsed":441493,"internal_node_id":"0.0-4.0-0.14","subject_id":"61671ecff6a6efdc1abf474c","study_id":"6197b3f67c2b5cd3b6d9596a","session_id":"619beeeb56def423f96357d5","condition":"contingent","relevant_dimensions":["antennae","legs"],"bee_group":{"antennae":"A","wings":"X","pattern":"X","legs":"F"},"action":"harvest","summary":"bad-harvest","bonus":0},{"rt":1694.2999999523163,"stimulus":"\n                    <p><b>Action: <em>harvest</em></b></p>\n                    <p>This is the bee that you just saw.</p>\n                    <img src=\"bees-with-color/bee-A2DF.svg\" width=\"200\">\n                    <p><span class=\"redText\">Bad choice, the bee was angry.</span><br><b>You have been stung!</b><br>Your pay has been decreased by $0.10. Your bonus pay is now $0.32.</p>\n            ","response":0,"trial_type":"html-button-response","trial_index":40,"time_elapsed":443190,"internal_node_id":"0.0-4.0-1.14","subject_id":"61671ecff6a6efdc1abf474c","study_id":"6197b3f67c2b5cd3b6d9596a","session_id":"619beeeb56def423f96357d5","condition":"contingent","relevant_dimensions":["antennae","legs"],"bee_group":{"antennae":"A","wings":"X","pattern":"X","legs":"F"},"bonus":0},{"rt":2316.2999999523163,"stimulus":"bees-with-color/bee-A1SF.svg","response":0,"trial_type":"image-button-response","trial_index":41,"time_elapsed":445510,"internal_node_id":"0.0-4.0-0.15","subject_id":"61671ecff6a6efdc1abf474c","study_id":"6197b3f67c2b5cd3b6d9596a","session_id":"619beeeb56def423f96357d5","condition":"contingent","relevant_dimensions":["antennae","legs"],"bee_group":{"antennae":"A","wings":"X","pattern":"X","legs":"F"},"action":"harvest","summary":"bad-harvest","bonus":0},{"rt":2274.5,"stimulus":"\n                    <p><b>Action: <em>harvest</em></b></p>\n                    <p>This is the bee that you just saw.</p>\n                    <img src=\"bees-with-color/bee-A1SF.svg\" width=\"200\">\n                    <p><span class=\"redText\">Bad choice, the bee was angry.</span><br><b>You have been stung!</b><br>Your pay has been decreased by $0.10. Your bonus pay is now $0.22.</p>\n            ","response":0,"trial_type":"html-button-response","trial_index":42,"time_elapsed":447787,"internal_node_id":"0.0-4.0-1.15","subject_id":"61671ecff6a6efdc1abf474c","study_id":"6197b3f67c2b5cd3b6d9596a","session_id":"619beeeb56def423f96357d5","condition":"contingent","relevant_dimensions":["antennae","legs"],"bee_group":{"antennae":"A","wings":"X","pattern":"X","legs":"F"},"bonus":0},{"rt":1630.8999998569489,"stimulus":"bees-with-color/bee-B1DM.svg","response":1,"trial_type":"image-button-response","trial_index":43,"time_elapsed":449422,"internal_node_id":"0.0-4.0-0.16","subject_id":"61671ecff6a6efdc1abf474c","study_id":"6197b3f67c2b5cd3b6d9596a","session_id":"619beeeb56def423f96357d5","condition":"contingent","relevant_dimensions":["antennae","legs"],"bee_group":{"antennae":"A","wings":"X","pattern":"X","legs":"F"},"action":"avoid","summary":"bad-avoid","bonus":0},{"rt":1818.4000000953674,"stimulus":"\n                    <p><b>Action: <em>avoid</em></b></p>\n                    <p>This is the bee that you just saw.</p>\n                    <img src=\"bees-with-color/bee-B1DM.svg\" width=\"200\">\n                    <p><br>Your bonus pay is unchanged, and remains at $0.22.</p>\n            ","response":0,"trial_type":"html-button-response","trial_index":44,"time_elapsed":451244,"internal_node_id":"0.0-4.0-1.16","subject_id":"61671ecff6a6efdc1abf474c","study_id":"6197b3f67c2b5cd3b6d9596a","session_id":"619beeeb56def423f96357d5","condition":"contingent","relevant_dimensions":["antennae","legs"],"bee_group":{"antennae":"A","wings":"X","pattern":"X","legs":"F"},"bonus":0},{"rt":1710.1000001430511,"stimulus":"bees-with-color/bee-A2SM.svg","response":1,"trial_type":"image-button-response","trial_index":45,"time_elapsed":452957,"internal_node_id":"0.0-4.0-0.17","subject_id":"61671ecff6a6efdc1abf474c","study_id":"6197b3f67c2b5cd3b6d9596a","session_id":"619beeeb56def423f96357d5","condition":"contingent","relevant_dimensions":["antennae","legs"],"bee_group":{"antennae":"A","wings":"X","pattern":"X","legs":"F"},"action":"avoid","summary":"bad-avoid","bonus":0},{"rt":2239.399999856949,"stimulus":"\n                    <p><b>Action: <em>avoid</em></b></p>\n                    <p>This is the bee that you just saw.</p>\n                    <img src=\"bees-with-color/bee-A2SM.svg\" width=\"200\">\n                    <p><br>Your bonus pay is unchanged, and remains at $0.22.</p>\n            ","response":0,"trial_type":"html-button-response","trial_index":46,"time_elapsed":455199,"internal_node_id":"0.0-4.0-1.17","subject_id":"61671ecff6a6efdc1abf474c","study_id":"6197b3f67c2b5cd3b6d9596a","session_id":"619beeeb56def423f96357d5","condition":"contingent","relevant_dimensions":["antennae","legs"],"bee_group":{"antennae":"A","wings":"X","pattern":"X","legs":"F"},"bonus":0},{"rt":1971.7000000476837,"stimulus":"bees-with-color/bee-B2SF.svg","response":0,"trial_type":"image-button-response","trial_index":47,"time_elapsed":457175,"internal_node_id":"0.0-4.0-0.18","subject_id":"61671ecff6a6efdc1abf474c","study_id":"6197b3f67c2b5cd3b6d9596a","session_id":"619beeeb56def423f96357d5","condition":"contingent","relevant_dimensions":["antennae","legs"],"bee_group":{"antennae":"A","wings":"X","pattern":"X","legs":"F"},"action":"harvest","summary":"good-harvest","bonus":0},{"rt":1729.6000001430511,"stimulus":"\n                    <p><b>Action: <em>harvest</em></b></p>\n                    <p>This is the bee that you just saw.</p>\n                    <img src=\"bees-with-color/bee-B2SF.svg\" width=\"200\">\n                    <p><span class=\"greenText\"><b>Successful harvest!</b></span><br>Your pay has increased by $0.02. Your bonus pay is now $0.24.</p>\n            ","response":0,"trial_type":"html-button-response","trial_index":48,"time_elapsed":458907,"internal_node_id":"0.0-4.0-1.18","subject_id":"61671ecff6a6efdc1abf474c","study_id":"6197b3f67c2b5cd3b6d9596a","session_id":"619beeeb56def423f96357d5","condition":"contingent","relevant_dimensions":["antennae","legs"],"bee_group":{"antennae":"A","wings":"X","pattern":"X","legs":"F"},"bonus":0},{"rt":2780.2999999523163,"stimulus":"bees-with-color/bee-B1SM.svg","response":1,"trial_type":"image-button-response","trial_index":49,"time_elapsed":461691,"internal_node_id":"0.0-4.0-0.19","subject_id":"61671ecff6a6efdc1abf474c","study_id":"6197b3f67c2b5cd3b6d9596a","session_id":"619beeeb56def423f96357d5","condition":"contingent","relevant_dimensions":["antennae","legs"],"bee_group":{"antennae":"A","wings":"X","pattern":"X","legs":"F"},"action":"avoid","summary":"bad-avoid","bonus":0},{"rt":2198.5,"stimulus":"\n                    <p><b>Action: <em>avoid</em></b></p>\n                    <p>This is the bee that you just saw.</p>\n                    <img src=\"bees-with-color/bee-B1SM.svg\" width=\"200\">\n                    <p><br>Your bonus pay is unchanged, and remains at $0.24.</p>\n            ","response":0,"trial_type":"html-button-response","trial_index":50,"time_elapsed":463893,"internal_node_id":"0.0-4.0-1.19","subject_id":"61671ecff6a6efdc1abf474c","study_id":"6197b3f67c2b5cd3b6d9596a","session_id":"619beeeb56def423f96357d5","condition":"contingent","relevant_dimensions":["antennae","legs"],"bee_group":{"antennae":"A","wings":"X","pattern":"X","legs":"F"},"bonus":0},{"rt":2644.7000000476837,"stimulus":"bees-with-color/bee-A2SF.svg","response":1,"trial_type":"image-button-response","trial_index":51,"time_elapsed":466542,"internal_node_id":"0.0-4.0-0.20","subject_id":"61671ecff6a6efdc1abf474c","study_id":"6197b3f67c2b5cd3b6d9596a","session_id":"619beeeb56def423f96357d5","condition":"contingent","relevant_dimensions":["antennae","legs"],"bee_group":{"antennae":"A","wings":"X","pattern":"X","legs":"F"},"action":"avoid","summary":"good-avoid","bonus":0},{"rt":1905.5,"stimulus":"\n                    <p><b>Action: <em>avoid</em></b></p>\n                    <p>This is the bee that you just saw.</p>\n                    <img src=\"bees-with-color/bee-A2SF.svg\" width=\"200\">\n                    <p><br>Your bonus pay is unchanged, and remains at $0.24.</p>\n            ","response":0,"trial_type":"html-button-response","trial_index":52,"time_elapsed":468450,"internal_node_id":"0.0-4.0-1.20","subject_id":"61671ecff6a6efdc1abf474c","study_id":"6197b3f67c2b5cd3b6d9596a","session_id":"619beeeb56def423f96357d5","condition":"contingent","relevant_dimensions":["antennae","legs"],"bee_group":{"antennae":"A","wings":"X","pattern":"X","legs":"F"},"bonus":0},{"rt":3297.7999999523163,"stimulus":"bees-with-color/bee-A1SF.svg","response":0,"trial_type":"image-button-response","trial_index":53,"time_elapsed":471752,"internal_node_id":"0.0-4.0-0.21","subject_id":"61671ecff6a6efdc1abf474c","study_id":"6197b3f67c2b5cd3b6d9596a","session_id":"619beeeb56def423f96357d5","condition":"contingent","relevant_dimensions":["antennae","legs"],"bee_group":{"antennae":"A","wings":"X","pattern":"X","legs":"F"},"action":"harvest","summary":"bad-harvest","bonus":0},{"rt":2317.7000000476837,"stimulus":"\n                    <p><b>Action: <em>harvest</em></b></p>\n                    <p>This is the bee that you just saw.</p>\n                    <img src=\"bees-with-color/bee-A1SF.svg\" width=\"200\">\n                    <p><span class=\"redText\">Bad choice, the bee was angry.</span><br><b>You have been stung!</b><br>Your pay has been decreased by $0.10. Your bonus pay is now $0.14.</p>\n            ","response":0,"trial_type":"html-button-response","trial_index":54,"time_elapsed":474074,"internal_node_id":"0.0-4.0-1.21","subject_id":"61671ecff6a6efdc1abf474c","study_id":"6197b3f67c2b5cd3b6d9596a","session_id":"619beeeb56def423f96357d5","condition":"contingent","relevant_dimensions":["antennae","legs"],"bee_group":{"antennae":"A","wings":"X","pattern":"X","legs":"F"},"bonus":0},{"rt":2346.4000000953674,"stimulus":"bees-with-color/bee-B2DF.svg","response":0,"trial_type":"image-button-response","trial_index":55,"time_elapsed":476425,"internal_node_id":"0.0-4.0-0.22","subject_id":"61671ecff6a6efdc1abf474c","study_id":"6197b3f67c2b5cd3b6d9596a","session_id":"619beeeb56def423f96357d5","condition":"contingent","relevant_dimensions":["antennae","legs"],"bee_group":{"antennae":"A","wings":"X","pattern":"X","legs":"F"},"action":"harvest","summary":"good-harvest","bonus":0},{"rt":1764.0999999046326,"stimulus":"\n                    <p><b>Action: <em>harvest</em></b></p>\n                    <p>This is the bee that you just saw.</p>\n                    <img src=\"bees-with-color/bee-B2DF.svg\" width=\"200\">\n                    <p><span class=\"greenText\"><b>Successful harvest!</b></span><br>Your pay has increased by $0.02. Your bonus pay is now $0.16.</p>\n            ","response":0,"trial_type":"html-button-response","trial_index":56,"time_elapsed":478192,"internal_node_id":"0.0-4.0-1.22","subject_id":"61671ecff6a6efdc1abf474c","study_id":"6197b3f67c2b5cd3b6d9596a","session_id":"619beeeb56def423f96357d5","condition":"contingent","relevant_dimensions":["antennae","legs"],"bee_group":{"antennae":"A","wings":"X","pattern":"X","legs":"F"},"bonus":0},{"rt":1988.2000000476837,"stimulus":"bees-with-color/bee-B1SF.svg","response":0,"trial_type":"image-button-response","trial_index":57,"time_elapsed":480184,"internal_node_id":"0.0-4.0-0.23","subject_id":"61671ecff6a6efdc1abf474c","study_id":"6197b3f67c2b5cd3b6d9596a","session_id":"619beeeb56def423f96357d5","condition":"contingent","relevant_dimensions":["antennae","legs"],"bee_group":{"antennae":"A","wings":"X","pattern":"X","legs":"F"},"action":"harvest","summary":"good-harvest","bonus":0},{"rt":1585.9000000953674,"stimulus":"\n                    <p><b>Action: <em>harvest</em></b></p>\n                    <p>This is the bee that you just saw.</p>\n                    <img src=\"bees-with-color/bee-B1SF.svg\" width=\"200\">\n                    <p><span class=\"greenText\"><b>Successful harvest!</b></span><br>Your pay has increased by $0.02. Your bonus pay is now $0.18.</p>\n            ","response":0,"trial_type":"html-button-response","trial_index":58,"time_elapsed":481774,"internal_node_id":"0.0-4.0-1.23","subject_id":"61671ecff6a6efdc1abf474c","study_id":"6197b3f67c2b5cd3b6d9596a","session_id":"619beeeb56def423f96357d5","condition":"contingent","relevant_dimensions":["antennae","legs"],"bee_group":{"antennae":"A","wings":"X","pattern":"X","legs":"F"},"bonus":0},{"rt":2873.2000000476837,"stimulus":"bees-with-color/bee-A2DF.svg","response":0,"trial_type":"image-button-response","trial_index":59,"time_elapsed":484651,"internal_node_id":"0.0-4.0-0.24","subject_id":"61671ecff6a6efdc1abf474c","study_id":"6197b3f67c2b5cd3b6d9596a","session_id":"619beeeb56def423f96357d5","condition":"contingent","relevant_dimensions":["antennae","legs"],"bee_group":{"antennae":"A","wings":"X","pattern":"X","legs":"F"},"action":"harvest","summary":"bad-harvest","bonus":0},{"rt":1870.2000000476837,"stimulus":"\n                    <p><b>Action: <em>harvest</em></b></p>\n                    <p>This is the bee that you just saw.</p>\n                    <img src=\"bees-with-color/bee-A2DF.svg\" width=\"200\">\n                    <p><span class=\"redText\">Bad choice, the bee was angry.</span><br><b>You have been stung!</b><br>Your pay has been decreased by $0.10. Your bonus pay is now $0.08.</p>\n            ","response":0,"trial_type":"html-button-response","trial_index":60,"time_elapsed":486526,"internal_node_id":"0.0-4.0-1.24","subject_id":"61671ecff6a6efdc1abf474c","study_id":"6197b3f67c2b5cd3b6d9596a","session_id":"619beeeb56def423f96357d5","condition":"contingent","relevant_dimensions":["antennae","legs"],"bee_group":{"antennae":"A","wings":"X","pattern":"X","legs":"F"},"bonus":0},{"rt":2157.2999999523163,"stimulus":"bees-with-color/bee-B2SM.svg","response":1,"trial_type":"image-button-response","trial_index":61,"time_elapsed":488688,"internal_node_id":"0.0-4.0-0.25","subject_id":"61671ecff6a6efdc1abf474c","study_id":"6197b3f67c2b5cd3b6d9596a","session_id":"619beeeb56def423f96357d5","condition":"contingent","relevant_dimensions":["antennae","legs"],"bee_group":{"antennae":"A","wings":"X","pattern":"X","legs":"F"},"action":"avoid","summary":"bad-avoid","bonus":0},{"rt":1448.9000000953674,"stimulus":"\n                    <p><b>Action: <em>avoid</em></b></p>\n                    <p>This is the bee that you just saw.</p>\n                    <img src=\"bees-with-color/bee-B2SM.svg\" width=\"200\">\n                    <p><br>Your bonus pay is unchanged, and remains at $0.08.</p>\n            ","response":0,"trial_type":"html-button-response","trial_index":62,"time_elapsed":490141,"internal_node_id":"0.0-4.0-1.25","subject_id":"61671ecff6a6efdc1abf474c","study_id":"6197b3f67c2b5cd3b6d9596a","session_id":"619beeeb56def423f96357d5","condition":"contingent","relevant_dimensions":["antennae","legs"],"bee_group":{"antennae":"A","wings":"X","pattern":"X","legs":"F"},"bonus":0},{"rt":1699.2000000476837,"stimulus":"bees-with-color/bee-A2DM.svg","response":1,"trial_type":"image-button-response","trial_index":63,"time_elapsed":491844,"internal_node_id":"0.0-4.0-0.26","subject_id":"61671ecff6a6efdc1abf474c","study_id":"6197b3f67c2b5cd3b6d9596a","session_id":"619beeeb56def423f96357d5","condition":"contingent","relevant_dimensions":["antennae","legs"],"bee_group":{"antennae":"A","wings":"X","pattern":"X","legs":"F"},"action":"avoid","summary":"bad-avoid","bonus":0},{"rt":2109.0999999046326,"stimulus":"\n                    <p><b>Action: <em>avoid</em></b></p>\n                    <p>This is the bee that you just saw.</p>\n                    <img src=\"bees-with-color/bee-A2DM.svg\" width=\"200\">\n                    <p><br>Your bonus pay is unchanged, and remains at $0.08.</p>\n            ","response":0,"trial_type":"html-button-response","trial_index":64,"time_elapsed":493958,"internal_node_id":"0.0-4.0-1.26","subject_id":"61671ecff6a6efdc1abf474c","study_id":"6197b3f67c2b5cd3b6d9596a","session_id":"619beeeb56def423f96357d5","condition":"contingent","relevant_dimensions":["antennae","legs"],"bee_group":{"antennae":"A","wings":"X","pattern":"X","legs":"F"},"bonus":0},{"rt":1787.9000000953674,"stimulus":"bees-with-color/bee-B2DM.svg","response":1,"trial_type":"image-button-response","trial_index":65,"time_elapsed":495750,"internal_node_id":"0.0-4.0-0.27","subject_id":"61671ecff6a6efdc1abf474c","study_id":"6197b3f67c2b5cd3b6d9596a","session_id":"619beeeb56def423f96357d5","condition":"contingent","relevant_dimensions":["antennae","legs"],"bee_group":{"antennae":"A","wings":"X","pattern":"X","legs":"F"},"action":"avoid","summary":"bad-avoid","bonus":0},{"rt":1580.7999999523163,"stimulus":"\n                    <p><b>Action: <em>avoid</em></b></p>\n                    <p>This is the bee that you just saw.</p>\n                    <img src=\"bees-with-color/bee-B2DM.svg\" width=\"200\">\n                    <p><br>Your bonus pay is unchanged, and remains at $0.08.</p>\n            ","response":0,"trial_type":"html-button-response","trial_index":66,"time_elapsed":497334,"internal_node_id":"0.0-4.0-1.27","subject_id":"61671ecff6a6efdc1abf474c","study_id":"6197b3f67c2b5cd3b6d9596a","session_id":"619beeeb56def423f96357d5","condition":"contingent","relevant_dimensions":["antennae","legs"],"bee_group":{"antennae":"A","wings":"X","pattern":"X","legs":"F"},"bonus":0},{"rt":1954.9000000953674,"stimulus":"bees-with-color/bee-A1DF.svg","response":0,"trial_type":"image-button-response","trial_index":67,"time_elapsed":499293,"internal_node_id":"0.0-4.0-0.28","subject_id":"61671ecff6a6efdc1abf474c","study_id":"6197b3f67c2b5cd3b6d9596a","session_id":"619beeeb56def423f96357d5","condition":"contingent","relevant_dimensions":["antennae","legs"],"bee_group":{"antennae":"A","wings":"X","pattern":"X","legs":"F"},"action":"harvest","summary":"bad-harvest","bonus":0},{"rt":1673.8999998569489,"stimulus":"\n                    <p><b>Action: <em>harvest</em></b></p>\n                    <p>This is the bee that you just saw.</p>\n                    <img src=\"bees-with-color/bee-A1DF.svg\" width=\"200\">\n                    <p><span class=\"redText\">Bad choice, the bee was angry.</span><br><b>You have been stung!</b><br>Your pay has been decreased by $0.10. Your bonus pay is now $0.00.</p>\n            ","response":0,"trial_type":"html-button-response","trial_index":68,"time_elapsed":500971,"internal_node_id":"0.0-4.0-1.28","subject_id":"61671ecff6a6efdc1abf474c","study_id":"6197b3f67c2b5cd3b6d9596a","session_id":"619beeeb56def423f96357d5","condition":"contingent","relevant_dimensions":["antennae","legs"],"bee_group":{"antennae":"A","wings":"X","pattern":"X","legs":"F"},"bonus":0},{"rt":1574.1000001430511,"stimulus":"bees-with-color/bee-A1DM.svg","response":1,"trial_type":"image-button-response","trial_index":69,"time_elapsed":502550,"internal_node_id":"0.0-4.0-0.29","subject_id":"61671ecff6a6efdc1abf474c","study_id":"6197b3f67c2b5cd3b6d9596a","session_id":"619beeeb56def423f96357d5","condition":"contingent","relevant_dimensions":["antennae","legs"],"bee_group":{"antennae":"A","wings":"X","pattern":"X","legs":"F"},"action":"avoid","summary":"bad-avoid","bonus":0},{"rt":1871.7999999523163,"stimulus":"\n                    <p><b>Action: <em>avoid</em></b></p>\n                    <p>This is the bee that you just saw.</p>\n                    <img src=\"bees-with-color/bee-A1DM.svg\" width=\"200\">\n                    <p><br>Your bonus pay is unchanged, and remains at $0.00.</p>\n            ","response":0,"trial_type":"html-button-response","trial_index":70,"time_elapsed":504426,"internal_node_id":"0.0-4.0-1.29","subject_id":"61671ecff6a6efdc1abf474c","study_id":"6197b3f67c2b5cd3b6d9596a","session_id":"619beeeb56def423f96357d5","condition":"contingent","relevant_dimensions":["antennae","legs"],"bee_group":{"antennae":"A","wings":"X","pattern":"X","legs":"F"},"bonus":0},{"rt":1727.3999998569489,"stimulus":"bees-with-color/bee-B1DF.svg","response":1,"trial_type":"image-button-response","trial_index":71,"time_elapsed":506158,"internal_node_id":"0.0-4.0-0.30","subject_id":"61671ecff6a6efdc1abf474c","study_id":"6197b3f67c2b5cd3b6d9596a","session_id":"619beeeb56def423f96357d5","condition":"contingent","relevant_dimensions":["antennae","legs"],"bee_group":{"antennae":"A","wings":"X","pattern":"X","legs":"F"},"action":"avoid","summary":"bad-avoid","bonus":0},{"rt":1442.5,"stimulus":"\n                    <p><b>Action: <em>avoid</em></b></p>\n                    <p>This is the bee that you just saw.</p>\n                    <img src=\"bees-with-color/bee-B1DF.svg\" width=\"200\">\n                    <p><br>Your bonus pay is unchanged, and remains at $0.00.</p>\n            ","response":0,"trial_type":"html-button-response","trial_index":72,"time_elapsed":507605,"internal_node_id":"0.0-4.0-1.30","subject_id":"61671ecff6a6efdc1abf474c","study_id":"6197b3f67c2b5cd3b6d9596a","session_id":"619beeeb56def423f96357d5","condition":"contingent","relevant_dimensions":["antennae","legs"],"bee_group":{"antennae":"A","wings":"X","pattern":"X","legs":"F"},"bonus":0},{"rt":1739.0999999046326,"stimulus":"bees-with-color/bee-A1SM.svg","response":1,"trial_type":"image-button-response","trial_index":73,"time_elapsed":509348,"internal_node_id":"0.0-4.0-0.31","subject_id":"61671ecff6a6efdc1abf474c","study_id":"6197b3f67c2b5cd3b6d9596a","session_id":"619beeeb56def423f96357d5","condition":"contingent","relevant_dimensions":["antennae","legs"],"bee_group":{"antennae":"A","wings":"X","pattern":"X","legs":"F"},"action":"avoid","summary":"bad-avoid","bonus":0},{"rt":1758.5,"stimulus":"\n                    <p><b>Action: <em>avoid</em></b></p>\n                    <p>This is the bee that you just saw.</p>\n                    <img src=\"bees-with-color/bee-A1SM.svg\" width=\"200\">\n                    <p><br>Your bonus pay is unchanged, and remains at $0.00.</p>\n            ","response":0,"trial_type":"html-button-response","trial_index":74,"time_elapsed":511110,"internal_node_id":"0.0-4.0-1.31","subject_id":"61671ecff6a6efdc1abf474c","study_id":"6197b3f67c2b5cd3b6d9596a","session_id":"619beeeb56def423f96357d5","condition":"contingent","relevant_dimensions":["antennae","legs"],"bee_group":{"antennae":"A","wings":"X","pattern":"X","legs":"F"},"bonus":0},{"rt":1822.1000001430511,"stimulus":"bees-with-color/bee-B1DM.svg","response":1,"trial_type":"image-button-response","trial_index":75,"time_elapsed":512937,"internal_node_id":"0.0-4.0-0.32","subject_id":"61671ecff6a6efdc1abf474c","study_id":"6197b3f67c2b5cd3b6d9596a","session_id":"619beeeb56def423f96357d5","condition":"contingent","relevant_dimensions":["antennae","legs"],"bee_group":{"antennae":"A","wings":"X","pattern":"X","legs":"F"},"action":"avoid","summary":"bad-avoid","bonus":0},{"rt":1343.7000000476837,"stimulus":"\n                    <p><b>Action: <em>avoid</em></b></p>\n                    <p>This is the bee that you just saw.</p>\n                    <img src=\"bees-with-color/bee-B1DM.svg\" width=\"200\">\n                    <p><br>Your bonus pay is unchanged, and remains at $0.00.</p>\n            ","response":0,"trial_type":"html-button-response","trial_index":76,"time_elapsed":514283,"internal_node_id":"0.0-4.0-1.32","subject_id":"61671ecff6a6efdc1abf474c","study_id":"6197b3f67c2b5cd3b6d9596a","session_id":"619beeeb56def423f96357d5","condition":"contingent","relevant_dimensions":["antennae","legs"],"bee_group":{"antennae":"A","wings":"X","pattern":"X","legs":"F"},"bonus":0},{"rt":2139.2999999523163,"stimulus":"bees-with-color/bee-A2DF.svg","response":1,"trial_type":"image-button-response","trial_index":77,"time_elapsed":516427,"internal_node_id":"0.0-4.0-0.33","subject_id":"61671ecff6a6efdc1abf474c","study_id":"6197b3f67c2b5cd3b6d9596a","session_id":"619beeeb56def423f96357d5","condition":"contingent","relevant_dimensions":["antennae","legs"],"bee_group":{"antennae":"A","wings":"X","pattern":"X","legs":"F"},"action":"avoid","summary":"good-avoid","bonus":0},{"rt":1518.9000000953674,"stimulus":"\n                    <p><b>Action: <em>avoid</em></b></p>\n                    <p>This is the bee that you just saw.</p>\n                    <img src=\"bees-with-color/bee-A2DF.svg\" width=\"200\">\n                    <p><br>Your bonus pay is unchanged, and remains at $0.00.</p>\n            ","response":0,"trial_type":"html-button-response","trial_index":78,"time_elapsed":517949,"internal_node_id":"0.0-4.0-1.33","subject_id":"61671ecff6a6efdc1abf474c","study_id":"6197b3f67c2b5cd3b6d9596a","session_id":"619beeeb56def423f96357d5","condition":"contingent","relevant_dimensions":["antennae","legs"],"bee_group":{"antennae":"A","wings":"X","pattern":"X","legs":"F"},"bonus":0},{"rt":1677.7999999523163,"stimulus":"bees-with-color/bee-B2DF.svg","response":1,"trial_type":"image-button-response","trial_index":79,"time_elapsed":519630,"internal_node_id":"0.0-4.0-0.34","subject_id":"61671ecff6a6efdc1abf474c","study_id":"6197b3f67c2b5cd3b6d9596a","session_id":"619beeeb56def423f96357d5","condition":"contingent","relevant_dimensions":["antennae","legs"],"bee_group":{"antennae":"A","wings":"X","pattern":"X","legs":"F"},"action":"avoid","summary":"bad-avoid","bonus":0},{"rt":1358.9000000953674,"stimulus":"\n                    <p><b>Action: <em>avoid</em></b></p>\n                    <p>This is the bee that you just saw.</p>\n                    <img src=\"bees-with-color/bee-B2DF.svg\" width=\"200\">\n                    <p><br>Your bonus pay is unchanged, and remains at $0.00.</p>\n            ","response":0,"trial_type":"html-button-response","trial_index":80,"time_elapsed":520992,"internal_node_id":"0.0-4.0-1.34","subject_id":"61671ecff6a6efdc1abf474c","study_id":"6197b3f67c2b5cd3b6d9596a","session_id":"619beeeb56def423f96357d5","condition":"contingent","relevant_dimensions":["antennae","legs"],"bee_group":{"antennae":"A","wings":"X","pattern":"X","legs":"F"},"bonus":0},{"rt":2624.2999999523163,"stimulus":"bees-with-color/bee-B1SF.svg","response":0,"trial_type":"image-button-response","trial_index":81,"time_elapsed":523619,"internal_node_id":"0.0-4.0-0.35","subject_id":"61671ecff6a6efdc1abf474c","study_id":"6197b3f67c2b5cd3b6d9596a","session_id":"619beeeb56def423f96357d5","condition":"contingent","relevant_dimensions":["antennae","legs"],"bee_group":{"antennae":"A","wings":"X","pattern":"X","legs":"F"},"action":"harvest","summary":"good-harvest","bonus":0},{"rt":1404.2999999523163,"stimulus":"\n                    <p><b>Action: <em>harvest</em></b></p>\n                    <p>This is the bee that you just saw.</p>\n                    <img src=\"bees-with-color/bee-B1SF.svg\" width=\"200\">\n                    <p><span class=\"greenText\"><b>Successful harvest!</b></span><br>Your pay has increased by $0.02. Your bonus pay is now $0.02.</p>\n            ","response":0,"trial_type":"html-button-response","trial_index":82,"time_elapsed":525025,"internal_node_id":"0.0-4.0-1.35","subject_id":"61671ecff6a6efdc1abf474c","study_id":"6197b3f67c2b5cd3b6d9596a","session_id":"619beeeb56def423f96357d5","condition":"contingent","relevant_dimensions":["antennae","legs"],"bee_group":{"antennae":"A","wings":"X","pattern":"X","legs":"F"},"bonus":0},{"rt":1881.7999999523163,"stimulus":"bees-with-color/bee-B1SM.svg","response":1,"trial_type":"image-button-response","trial_index":83,"time_elapsed":526911,"internal_node_id":"0.0-4.0-0.36","subject_id":"61671ecff6a6efdc1abf474c","study_id":"6197b3f67c2b5cd3b6d9596a","session_id":"619beeeb56def423f96357d5","condition":"contingent","relevant_dimensions":["antennae","legs"],"bee_group":{"antennae":"A","wings":"X","pattern":"X","legs":"F"},"action":"avoid","summary":"bad-avoid","bonus":0},{"rt":1454.1000001430511,"stimulus":"\n                    <p><b>Action: <em>avoid</em></b></p>\n                    <p>This is the bee that you just saw.</p>\n                    <img src=\"bees-with-color/bee-B1SM.svg\" width=\"200\">\n                    <p><br>Your bonus pay is unchanged, and remains at $0.02.</p>\n            ","response":0,"trial_type":"html-button-response","trial_index":84,"time_elapsed":528369,"internal_node_id":"0.0-4.0-1.36","subject_id":"61671ecff6a6efdc1abf474c","study_id":"6197b3f67c2b5cd3b6d9596a","session_id":"619beeeb56def423f96357d5","condition":"contingent","relevant_dimensions":["antennae","legs"],"bee_group":{"antennae":"A","wings":"X","pattern":"X","legs":"F"},"bonus":0},{"rt":2017.7000000476837,"stimulus":"bees-with-color/bee-A1DM.svg","response":1,"trial_type":"image-button-response","trial_index":85,"time_elapsed":530390,"internal_node_id":"0.0-4.0-0.37","subject_id":"61671ecff6a6efdc1abf474c","study_id":"6197b3f67c2b5cd3b6d9596a","session_id":"619beeeb56def423f96357d5","condition":"contingent","relevant_dimensions":["antennae","legs"],"bee_group":{"antennae":"A","wings":"X","pattern":"X","legs":"F"},"action":"avoid","summary":"bad-avoid","bonus":0},{"rt":1445.7999999523163,"stimulus":"\n                    <p><b>Action: <em>avoid</em></b></p>\n                    <p>This is the bee that you just saw.</p>\n                    <img src=\"bees-with-color/bee-A1DM.svg\" width=\"200\">\n                    <p><br>Your bonus pay is unchanged, and remains at $0.02.</p>\n            ","response":0,"trial_type":"html-button-response","trial_index":86,"time_elapsed":531840,"internal_node_id":"0.0-4.0-1.37","subject_id":"61671ecff6a6efdc1abf474c","study_id":"6197b3f67c2b5cd3b6d9596a","session_id":"619beeeb56def423f96357d5","condition":"contingent","relevant_dimensions":["antennae","legs"],"bee_group":{"antennae":"A","wings":"X","pattern":"X","legs":"F"},"bonus":0},{"rt":1496.2999999523163,"stimulus":"bees-with-color/bee-B2SM.svg","response":1,"trial_type":"image-button-response","trial_index":87,"time_elapsed":533339,"internal_node_id":"0.0-4.0-0.38","subject_id":"61671ecff6a6efdc1abf474c","study_id":"6197b3f67c2b5cd3b6d9596a","session_id":"619beeeb56def423f96357d5","condition":"contingent","relevant_dimensions":["antennae","legs"],"bee_group":{"antennae":"A","wings":"X","pattern":"X","legs":"F"},"action":"avoid","summary":"bad-avoid","bonus":0},{"rt":1528.2000000476837,"stimulus":"\n                    <p><b>Action: <em>avoid</em></b></p>\n                    <p>This is the bee that you just saw.</p>\n                    <img src=\"bees-with-color/bee-B2SM.svg\" width=\"200\">\n                    <p><br>Your bonus pay is unchanged, and remains at $0.02.</p>\n            ","response":0,"trial_type":"html-button-response","trial_index":88,"time_elapsed":534870,"internal_node_id":"0.0-4.0-1.38","subject_id":"61671ecff6a6efdc1abf474c","study_id":"6197b3f67c2b5cd3b6d9596a","session_id":"619beeeb56def423f96357d5","condition":"contingent","relevant_dimensions":["antennae","legs"],"bee_group":{"antennae":"A","wings":"X","pattern":"X","legs":"F"},"bonus":0},{"rt":2181,"stimulus":"bees-with-color/bee-A1SF.svg","response":0,"trial_type":"image-button-response","trial_index":89,"time_elapsed":537056,"internal_node_id":"0.0-4.0-0.39","subject_id":"61671ecff6a6efdc1abf474c","study_id":"6197b3f67c2b5cd3b6d9596a","session_id":"619beeeb56def423f96357d5","condition":"contingent","relevant_dimensions":["antennae","legs"],"bee_group":{"antennae":"A","wings":"X","pattern":"X","legs":"F"},"action":"harvest","summary":"bad-harvest","bonus":0},{"rt":3657.300000190735,"stimulus":"\n                    <p><b>Action: <em>harvest</em></b></p>\n                    <p>This is the bee that you just saw.</p>\n                    <img src=\"bees-with-color/bee-A1SF.svg\" width=\"200\">\n                    <p><span class=\"redText\">Bad choice, the bee was angry.</span><br><b>You have been stung!</b><br>Your pay has been decreased by $0.10. Your bonus pay is now $0.00.</p>\n            ","response":0,"trial_type":"html-button-response","trial_index":90,"time_elapsed":540716,"internal_node_id":"0.0-4.0-1.39","subject_id":"61671ecff6a6efdc1abf474c","study_id":"6197b3f67c2b5cd3b6d9596a","session_id":"619beeeb56def423f96357d5","condition":"contingent","relevant_dimensions":["antennae","legs"],"bee_group":{"antennae":"A","wings":"X","pattern":"X","legs":"F"},"bonus":0},{"rt":1436.2999999523163,"stimulus":"bees-with-color/bee-B2DM.svg","response":1,"trial_type":"image-button-response","trial_index":91,"time_elapsed":542157,"internal_node_id":"0.0-4.0-0.40","subject_id":"61671ecff6a6efdc1abf474c","study_id":"6197b3f67c2b5cd3b6d9596a","session_id":"619beeeb56def423f96357d5","condition":"contingent","relevant_dimensions":["antennae","legs"],"bee_group":{"antennae":"A","wings":"X","pattern":"X","legs":"F"},"action":"avoid","summary":"bad-avoid","bonus":0},{"rt":1526.0999999046326,"stimulus":"\n                    <p><b>Action: <em>avoid</em></b></p>\n                    <p>This is the bee that you just saw.</p>\n                    <img src=\"bees-with-color/bee-B2DM.svg\" width=\"200\">\n                    <p><br>Your bonus pay is unchanged, and remains at $0.00.</p>\n            ","response":0,"trial_type":"html-button-response","trial_index":92,"time_elapsed":543686,"internal_node_id":"0.0-4.0-1.40","subject_id":"61671ecff6a6efdc1abf474c","study_id":"6197b3f67c2b5cd3b6d9596a","session_id":"619beeeb56def423f96357d5","condition":"contingent","relevant_dimensions":["antennae","legs"],"bee_group":{"antennae":"A","wings":"X","pattern":"X","legs":"F"},"bonus":0},{"rt":1685.0999999046326,"stimulus":"bees-with-color/bee-B1DF.svg","response":1,"trial_type":"image-button-response","trial_index":93,"time_elapsed":545375,"internal_node_id":"0.0-4.0-0.41","subject_id":"61671ecff6a6efdc1abf474c","study_id":"6197b3f67c2b5cd3b6d9596a","session_id":"619beeeb56def423f96357d5","condition":"contingent","relevant_dimensions":["antennae","legs"],"bee_group":{"antennae":"A","wings":"X","pattern":"X","legs":"F"},"action":"avoid","summary":"bad-avoid","bonus":0},{"rt":2141.399999856949,"stimulus":"\n                    <p><b>Action: <em>avoid</em></b></p>\n                    <p>This is the bee that you just saw.</p>\n                    <img src=\"bees-with-color/bee-B1DF.svg\" width=\"200\">\n                    <p><br>Your bonus pay is unchanged, and remains at $0.00.</p>\n            ","response":0,"trial_type":"html-button-response","trial_index":94,"time_elapsed":547519,"internal_node_id":"0.0-4.0-1.41","subject_id":"61671ecff6a6efdc1abf474c","study_id":"6197b3f67c2b5cd3b6d9596a","session_id":"619beeeb56def423f96357d5","condition":"contingent","relevant_dimensions":["antennae","legs"],"bee_group":{"antennae":"A","wings":"X","pattern":"X","legs":"F"},"bonus":0},{"rt":2052.2000000476837,"stimulus":"bees-with-color/bee-A1DF.svg","response":1,"trial_type":"image-button-response","trial_index":95,"time_elapsed":549574,"internal_node_id":"0.0-4.0-0.42","subject_id":"61671ecff6a6efdc1abf474c","study_id":"6197b3f67c2b5cd3b6d9596a","session_id":"619beeeb56def423f96357d5","condition":"contingent","relevant_dimensions":["antennae","legs"],"bee_group":{"antennae":"A","wings":"X","pattern":"X","legs":"F"},"action":"avoid","summary":"good-avoid","bonus":0},{"rt":1659.7999999523163,"stimulus":"\n                    <p><b>Action: <em>avoid</em></b></p>\n                    <p>This is the bee that you just saw.</p>\n                    <img src=\"bees-with-color/bee-A1DF.svg\" width=\"200\">\n                    <p><br>Your bonus pay is unchanged, and remains at $0.00.</p>\n            ","response":0,"trial_type":"html-button-response","trial_index":96,"time_elapsed":551237,"internal_node_id":"0.0-4.0-1.42","subject_id":"61671ecff6a6efdc1abf474c","study_id":"6197b3f67c2b5cd3b6d9596a","session_id":"619beeeb56def423f96357d5","condition":"contingent","relevant_dimensions":["antennae","legs"],"bee_group":{"antennae":"A","wings":"X","pattern":"X","legs":"F"},"bonus":0},{"rt":1236.7999999523163,"stimulus":"bees-with-color/bee-A1SM.svg","response":1,"trial_type":"image-button-response","trial_index":97,"time_elapsed":552479,"internal_node_id":"0.0-4.0-0.43","subject_id":"61671ecff6a6efdc1abf474c","study_id":"6197b3f67c2b5cd3b6d9596a","session_id":"619beeeb56def423f96357d5","condition":"contingent","relevant_dimensions":["antennae","legs"],"bee_group":{"antennae":"A","wings":"X","pattern":"X","legs":"F"},"action":"avoid","summary":"bad-avoid","bonus":0},{"rt":1469.4000000953674,"stimulus":"\n                    <p><b>Action: <em>avoid</em></b></p>\n                    <p>This is the bee that you just saw.</p>\n                    <img src=\"bees-with-color/bee-A1SM.svg\" width=\"200\">\n                    <p><br>Your bonus pay is unchanged, and remains at $0.00.</p>\n            ","response":0,"trial_type":"html-button-response","trial_index":98,"time_elapsed":553951,"internal_node_id":"0.0-4.0-1.43","subject_id":"61671ecff6a6efdc1abf474c","study_id":"6197b3f67c2b5cd3b6d9596a","session_id":"619beeeb56def423f96357d5","condition":"contingent","relevant_dimensions":["antennae","legs"],"bee_group":{"antennae":"A","wings":"X","pattern":"X","legs":"F"},"bonus":0},{"rt":1527.9000000953674,"stimulus":"bees-with-color/bee-A2SF.svg","response":1,"trial_type":"image-button-response","trial_index":99,"time_elapsed":555483,"internal_node_id":"0.0-4.0-0.44","subject_id":"61671ecff6a6efdc1abf474c","study_id":"6197b3f67c2b5cd3b6d9596a","session_id":"619beeeb56def423f96357d5","condition":"contingent","relevant_dimensions":["antennae","legs"],"bee_group":{"antennae":"A","wings":"X","pattern":"X","legs":"F"},"action":"avoid","summary":"good-avoid","bonus":0},{"rt":1545.3999998569489,"stimulus":"\n                    <p><b>Action: <em>avoid</em></b></p>\n                    <p>This is the bee that you just saw.</p>\n                    <img src=\"bees-with-color/bee-A2SF.svg\" width=\"200\">\n                    <p><br>Your bonus pay is unchanged, and remains at $0.00.</p>\n            ","response":0,"trial_type":"html-button-response","trial_index":100,"time_elapsed":557031,"internal_node_id":"0.0-4.0-1.44","subject_id":"61671ecff6a6efdc1abf474c","study_id":"6197b3f67c2b5cd3b6d9596a","session_id":"619beeeb56def423f96357d5","condition":"contingent","relevant_dimensions":["antennae","legs"],"bee_group":{"antennae":"A","wings":"X","pattern":"X","legs":"F"},"bonus":0},{"rt":1953,"stimulus":"bees-with-color/bee-A2SM.svg","response":1,"trial_type":"image-button-response","trial_index":101,"time_elapsed":558989,"internal_node_id":"0.0-4.0-0.45","subject_id":"61671ecff6a6efdc1abf474c","study_id":"6197b3f67c2b5cd3b6d9596a","session_id":"619beeeb56def423f96357d5","condition":"contingent","relevant_dimensions":["antennae","legs"],"bee_group":{"antennae":"A","wings":"X","pattern":"X","legs":"F"},"action":"avoid","summary":"bad-avoid","bonus":0},{"rt":1497.2999999523163,"stimulus":"\n                    <p><b>Action: <em>avoid</em></b></p>\n                    <p>This is the bee that you just saw.</p>\n                    <img src=\"bees-with-color/bee-A2SM.svg\" width=\"200\">\n                    <p><br>Your bonus pay is unchanged, and remains at $0.00.</p>\n            ","response":0,"trial_type":"html-button-response","trial_index":102,"time_elapsed":560490,"internal_node_id":"0.0-4.0-1.45","subject_id":"61671ecff6a6efdc1abf474c","study_id":"6197b3f67c2b5cd3b6d9596a","session_id":"619beeeb56def423f96357d5","condition":"contingent","relevant_dimensions":["antennae","legs"],"bee_group":{"antennae":"A","wings":"X","pattern":"X","legs":"F"},"bonus":0},{"rt":2245.899999856949,"stimulus":"bees-with-color/bee-B2SF.svg","response":1,"trial_type":"image-button-response","trial_index":103,"time_elapsed":562741,"internal_node_id":"0.0-4.0-0.46","subject_id":"61671ecff6a6efdc1abf474c","study_id":"6197b3f67c2b5cd3b6d9596a","session_id":"619beeeb56def423f96357d5","condition":"contingent","relevant_dimensions":["antennae","legs"],"bee_group":{"antennae":"A","wings":"X","pattern":"X","legs":"F"},"action":"avoid","summary":"bad-avoid","bonus":0},{"rt":1467.6000001430511,"stimulus":"\n                    <p><b>Action: <em>avoid</em></b></p>\n                    <p>This is the bee that you just saw.</p>\n                    <img src=\"bees-with-color/bee-B2SF.svg\" width=\"200\">\n                    <p><br>Your bonus pay is unchanged, and remains at $0.00.</p>\n            ","response":0,"trial_type":"html-button-response","trial_index":104,"time_elapsed":564212,"internal_node_id":"0.0-4.0-1.46","subject_id":"61671ecff6a6efdc1abf474c","study_id":"6197b3f67c2b5cd3b6d9596a","session_id":"619beeeb56def423f96357d5","condition":"contingent","relevant_dimensions":["antennae","legs"],"bee_group":{"antennae":"A","wings":"X","pattern":"X","legs":"F"},"bonus":0},{"rt":1644,"stimulus":"bees-with-color/bee-A2DM.svg","response":1,"trial_type":"image-button-response","trial_index":105,"time_elapsed":565860,"internal_node_id":"0.0-4.0-0.47","subject_id":"61671ecff6a6efdc1abf474c","study_id":"6197b3f67c2b5cd3b6d9596a","session_id":"619beeeb56def423f96357d5","condition":"contingent","relevant_dimensions":["antennae","legs"],"bee_group":{"antennae":"A","wings":"X","pattern":"X","legs":"F"},"action":"avoid","summary":"bad-avoid","bonus":0},{"rt":1459.2999999523163,"stimulus":"\n                    <p><b>Action: <em>avoid</em></b></p>\n                    <p>This is the bee that you just saw.</p>\n                    <img src=\"bees-with-color/bee-A2DM.svg\" width=\"200\">\n                    <p><br>Your bonus pay is unchanged, and remains at $0.00.</p>\n            ","response":0,"trial_type":"html-button-response","trial_index":106,"time_elapsed":567323,"internal_node_id":"0.0-4.0-1.47","subject_id":"61671ecff6a6efdc1abf474c","study_id":"6197b3f67c2b5cd3b6d9596a","session_id":"619beeeb56def423f96357d5","condition":"contingent","relevant_dimensions":["antennae","legs"],"bee_group":{"antennae":"A","wings":"X","pattern":"X","legs":"F"},"bonus":0},{"rt":2340.4000000953674,"stimulus":"bees-with-color/bee-A1DF.svg","response":1,"trial_type":"image-button-response","trial_index":107,"time_elapsed":569667,"internal_node_id":"0.0-4.0-0.48","subject_id":"61671ecff6a6efdc1abf474c","study_id":"6197b3f67c2b5cd3b6d9596a","session_id":"619beeeb56def423f96357d5","condition":"contingent","relevant_dimensions":["antennae","legs"],"bee_group":{"antennae":"A","wings":"X","pattern":"X","legs":"F"},"action":"avoid","summary":"good-avoid","bonus":0},{"rt":1363,"stimulus":"\n                    <p><b>Action: <em>avoid</em></b></p>\n                    <p>This is the bee that you just saw.</p>\n                    <img src=\"bees-with-color/bee-A1DF.svg\" width=\"200\">\n                    <p><br>Your bonus pay is unchanged, and remains at $0.00.</p>\n            ","response":0,"trial_type":"html-button-response","trial_index":108,"time_elapsed":571034,"internal_node_id":"0.0-4.0-1.48","subject_id":"61671ecff6a6efdc1abf474c","study_id":"6197b3f67c2b5cd3b6d9596a","session_id":"619beeeb56def423f96357d5","condition":"contingent","relevant_dimensions":["antennae","legs"],"bee_group":{"antennae":"A","wings":"X","pattern":"X","legs":"F"},"bonus":0},{"rt":1816.8999998569489,"stimulus":"bees-with-color/bee-A1DM.svg","response":1,"trial_type":"image-button-response","trial_index":109,"time_elapsed":572855,"internal_node_id":"0.0-4.0-0.49","subject_id":"61671ecff6a6efdc1abf474c","study_id":"6197b3f67c2b5cd3b6d9596a","session_id":"619beeeb56def423f96357d5","condition":"contingent","relevant_dimensions":["antennae","legs"],"bee_group":{"antennae":"A","wings":"X","pattern":"X","legs":"F"},"action":"avoid","summary":"bad-avoid","bonus":0},{"rt":1366.5,"stimulus":"\n                    <p><b>Action: <em>avoid</em></b></p>\n                    <p>This is the bee that you just saw.</p>\n                    <img src=\"bees-with-color/bee-A1DM.svg\" width=\"200\">\n                    <p><br>Your bonus pay is unchanged, and remains at $0.00.</p>\n            ","response":0,"trial_type":"html-button-response","trial_index":110,"time_elapsed":574225,"internal_node_id":"0.0-4.0-1.49","subject_id":"61671ecff6a6efdc1abf474c","study_id":"6197b3f67c2b5cd3b6d9596a","session_id":"619beeeb56def423f96357d5","condition":"contingent","relevant_dimensions":["antennae","legs"],"bee_group":{"antennae":"A","wings":"X","pattern":"X","legs":"F"},"bonus":0},{"rt":2141.2999999523163,"stimulus":"bees-with-color/bee-B1SM.svg","response":1,"trial_type":"image-button-response","trial_index":111,"time_elapsed":576371,"internal_node_id":"0.0-4.0-0.50","subject_id":"61671ecff6a6efdc1abf474c","study_id":"6197b3f67c2b5cd3b6d9596a","session_id":"619beeeb56def423f96357d5","condition":"contingent","relevant_dimensions":["antennae","legs"],"bee_group":{"antennae":"A","wings":"X","pattern":"X","legs":"F"},"action":"avoid","summary":"bad-avoid","bonus":0},{"rt":1355.8999998569489,"stimulus":"\n                    <p><b>Action: <em>avoid</em></b></p>\n                    <p>This is the bee that you just saw.</p>\n                    <img src=\"bees-with-color/bee-B1SM.svg\" width=\"200\">\n                    <p><br>Your bonus pay is unchanged, and remains at $0.00.</p>\n            ","response":0,"trial_type":"html-button-response","trial_index":112,"time_elapsed":577730,"internal_node_id":"0.0-4.0-1.50","subject_id":"61671ecff6a6efdc1abf474c","study_id":"6197b3f67c2b5cd3b6d9596a","session_id":"619beeeb56def423f96357d5","condition":"contingent","relevant_dimensions":["antennae","legs"],"bee_group":{"antennae":"A","wings":"X","pattern":"X","legs":"F"},"bonus":0},{"rt":1555.2000000476837,"stimulus":"bees-with-color/bee-A2SM.svg","response":1,"trial_type":"image-button-response","trial_index":113,"time_elapsed":579289,"internal_node_id":"0.0-4.0-0.51","subject_id":"61671ecff6a6efdc1abf474c","study_id":"6197b3f67c2b5cd3b6d9596a","session_id":"619beeeb56def423f96357d5","condition":"contingent","relevant_dimensions":["antennae","legs"],"bee_group":{"antennae":"A","wings":"X","pattern":"X","legs":"F"},"action":"avoid","summary":"bad-avoid","bonus":0},{"rt":1206.7999999523163,"stimulus":"\n                    <p><b>Action: <em>avoid</em></b></p>\n                    <p>This is the bee that you just saw.</p>\n                    <img src=\"bees-with-color/bee-A2SM.svg\" width=\"200\">\n                    <p><br>Your bonus pay is unchanged, and remains at $0.00.</p>\n            ","response":0,"trial_type":"html-button-response","trial_index":114,"time_elapsed":580500,"internal_node_id":"0.0-4.0-1.51","subject_id":"61671ecff6a6efdc1abf474c","study_id":"6197b3f67c2b5cd3b6d9596a","session_id":"619beeeb56def423f96357d5","condition":"contingent","relevant_dimensions":["antennae","legs"],"bee_group":{"antennae":"A","wings":"X","pattern":"X","legs":"F"},"bonus":0},{"rt":1322,"stimulus":"bees-with-color/bee-B1DF.svg","response":1,"trial_type":"image-button-response","trial_index":115,"time_elapsed":581827,"internal_node_id":"0.0-4.0-0.52","subject_id":"61671ecff6a6efdc1abf474c","study_id":"6197b3f67c2b5cd3b6d9596a","session_id":"619beeeb56def423f96357d5","condition":"contingent","relevant_dimensions":["antennae","legs"],"bee_group":{"antennae":"A","wings":"X","pattern":"X","legs":"F"},"action":"avoid","summary":"bad-avoid","bonus":0},{"rt":1137.7999999523163,"stimulus":"\n                    <p><b>Action: <em>avoid</em></b></p>\n                    <p>This is the bee that you just saw.</p>\n                    <img src=\"bees-with-color/bee-B1DF.svg\" width=\"200\">\n                    <p><br>Your bonus pay is unchanged, and remains at $0.00.</p>\n            ","response":0,"trial_type":"html-button-response","trial_index":116,"time_elapsed":582968,"internal_node_id":"0.0-4.0-1.52","subject_id":"61671ecff6a6efdc1abf474c","study_id":"6197b3f67c2b5cd3b6d9596a","session_id":"619beeeb56def423f96357d5","condition":"contingent","relevant_dimensions":["antennae","legs"],"bee_group":{"antennae":"A","wings":"X","pattern":"X","legs":"F"},"bonus":0},{"rt":1956.4000000953674,"stimulus":"bees-with-color/bee-A1SM.svg","response":1,"trial_type":"image-button-response","trial_index":117,"time_elapsed":584928,"internal_node_id":"0.0-4.0-0.53","subject_id":"61671ecff6a6efdc1abf474c","study_id":"6197b3f67c2b5cd3b6d9596a","session_id":"619beeeb56def423f96357d5","condition":"contingent","relevant_dimensions":["antennae","legs"],"bee_group":{"antennae":"A","wings":"X","pattern":"X","legs":"F"},"action":"avoid","summary":"bad-avoid","bonus":0},{"rt":1092,"stimulus":"\n                    <p><b>Action: <em>avoid</em></b></p>\n                    <p>This is the bee that you just saw.</p>\n                    <img src=\"bees-with-color/bee-A1SM.svg\" width=\"200\">\n                    <p><br>Your bonus pay is unchanged, and remains at $0.00.</p>\n            ","response":0,"trial_type":"html-button-response","trial_index":118,"time_elapsed":586023,"internal_node_id":"0.0-4.0-1.53","subject_id":"61671ecff6a6efdc1abf474c","study_id":"6197b3f67c2b5cd3b6d9596a","session_id":"619beeeb56def423f96357d5","condition":"contingent","relevant_dimensions":["antennae","legs"],"bee_group":{"antennae":"A","wings":"X","pattern":"X","legs":"F"},"bonus":0},{"rt":1540.2000000476837,"stimulus":"bees-with-color/bee-B2SM.svg","response":1,"trial_type":"image-button-response","trial_index":119,"time_elapsed":587566,"internal_node_id":"0.0-4.0-0.54","subject_id":"61671ecff6a6efdc1abf474c","study_id":"6197b3f67c2b5cd3b6d9596a","session_id":"619beeeb56def423f96357d5","condition":"contingent","relevant_dimensions":["antennae","legs"],"bee_group":{"antennae":"A","wings":"X","pattern":"X","legs":"F"},"action":"avoid","summary":"bad-avoid","bonus":0},{"rt":1038.5,"stimulus":"\n                    <p><b>Action: <em>avoid</em></b></p>\n                    <p>This is the bee that you just saw.</p>\n                    <img src=\"bees-with-color/bee-B2SM.svg\" width=\"200\">\n                    <p><br>Your bonus pay is unchanged, and remains at $0.00.</p>\n            ","response":0,"trial_type":"html-button-response","trial_index":120,"time_elapsed":588607,"internal_node_id":"0.0-4.0-1.54","subject_id":"61671ecff6a6efdc1abf474c","study_id":"6197b3f67c2b5cd3b6d9596a","session_id":"619beeeb56def423f96357d5","condition":"contingent","relevant_dimensions":["antennae","legs"],"bee_group":{"antennae":"A","wings":"X","pattern":"X","legs":"F"},"bonus":0},{"rt":1647,"stimulus":"bees-with-color/bee-A2SF.svg","response":1,"trial_type":"image-button-response","trial_index":121,"time_elapsed":590258,"internal_node_id":"0.0-4.0-0.55","subject_id":"61671ecff6a6efdc1abf474c","study_id":"6197b3f67c2b5cd3b6d9596a","session_id":"619beeeb56def423f96357d5","condition":"contingent","relevant_dimensions":["antennae","legs"],"bee_group":{"antennae":"A","wings":"X","pattern":"X","legs":"F"},"action":"avoid","summary":"good-avoid","bonus":0},{"rt":1699.2999999523163,"stimulus":"\n                    <p><b>Action: <em>avoid</em></b></p>\n                    <p>This is the bee that you just saw.</p>\n                    <img src=\"bees-with-color/bee-A2SF.svg\" width=\"200\">\n                    <p><br>Your bonus pay is unchanged, and remains at $0.00.</p>\n            ","response":0,"trial_type":"html-button-response","trial_index":122,"time_elapsed":591960,"internal_node_id":"0.0-4.0-1.55","subject_id":"61671ecff6a6efdc1abf474c","study_id":"6197b3f67c2b5cd3b6d9596a","session_id":"619beeeb56def423f96357d5","condition":"contingent","relevant_dimensions":["antennae","legs"],"bee_group":{"antennae":"A","wings":"X","pattern":"X","legs":"F"},"bonus":0},{"rt":1987.3999998569489,"stimulus":"bees-with-color/bee-A2DF.svg","response":1,"trial_type":"image-button-response","trial_index":123,"time_elapsed":593951,"internal_node_id":"0.0-4.0-0.56","subject_id":"61671ecff6a6efdc1abf474c","study_id":"6197b3f67c2b5cd3b6d9596a","session_id":"619beeeb56def423f96357d5","condition":"contingent","relevant_dimensions":["antennae","legs"],"bee_group":{"antennae":"A","wings":"X","pattern":"X","legs":"F"},"action":"avoid","summary":"good-avoid","bonus":0},{"rt":1103.5,"stimulus":"\n                    <p><b>Action: <em>avoid</em></b></p>\n                    <p>This is the bee that you just saw.</p>\n                    <img src=\"bees-with-color/bee-A2DF.svg\" width=\"200\">\n                    <p><br>Your bonus pay is unchanged, and remains at $0.00.</p>\n            ","response":0,"trial_type":"html-button-response","trial_index":124,"time_elapsed":595057,"internal_node_id":"0.0-4.0-1.56","subject_id":"61671ecff6a6efdc1abf474c","study_id":"6197b3f67c2b5cd3b6d9596a","session_id":"619beeeb56def423f96357d5","condition":"contingent","relevant_dimensions":["antennae","legs"],"bee_group":{"antennae":"A","wings":"X","pattern":"X","legs":"F"},"bonus":0},{"rt":2127.899999856949,"stimulus":"bees-with-color/bee-B2SF.svg","response":1,"trial_type":"image-button-response","trial_index":125,"time_elapsed":597189,"internal_node_id":"0.0-4.0-0.57","subject_id":"61671ecff6a6efdc1abf474c","study_id":"6197b3f67c2b5cd3b6d9596a","session_id":"619beeeb56def423f96357d5","condition":"contingent","relevant_dimensions":["antennae","legs"],"bee_group":{"antennae":"A","wings":"X","pattern":"X","legs":"F"},"action":"avoid","summary":"bad-avoid","bonus":0},{"rt":1380.2999999523163,"stimulus":"\n                    <p><b>Action: <em>avoid</em></b></p>\n                    <p>This is the bee that you just saw.</p>\n                    <img src=\"bees-with-color/bee-B2SF.svg\" width=\"200\">\n                    <p><br>Your bonus pay is unchanged, and remains at $0.00.</p>\n            ","response":0,"trial_type":"html-button-response","trial_index":126,"time_elapsed":598573,"internal_node_id":"0.0-4.0-1.57","subject_id":"61671ecff6a6efdc1abf474c","study_id":"6197b3f67c2b5cd3b6d9596a","session_id":"619beeeb56def423f96357d5","condition":"contingent","relevant_dimensions":["antennae","legs"],"bee_group":{"antennae":"A","wings":"X","pattern":"X","legs":"F"},"bonus":0},{"rt":1355.5999999046326,"stimulus":"bees-with-color/bee-A2DM.svg","response":1,"trial_type":"image-button-response","trial_index":127,"time_elapsed":599932,"internal_node_id":"0.0-4.0-0.58","subject_id":"61671ecff6a6efdc1abf474c","study_id":"6197b3f67c2b5cd3b6d9596a","session_id":"619beeeb56def423f96357d5","condition":"contingent","relevant_dimensions":["antennae","legs"],"bee_group":{"antennae":"A","wings":"X","pattern":"X","legs":"F"},"action":"avoid","summary":"bad-avoid","bonus":0},{"rt":1160.6000001430511,"stimulus":"\n                    <p><b>Action: <em>avoid</em></b></p>\n                    <p>This is the bee that you just saw.</p>\n                    <img src=\"bees-with-color/bee-A2DM.svg\" width=\"200\">\n                    <p><br>Your bonus pay is unchanged, and remains at $0.00.</p>\n            ","response":0,"trial_type":"html-button-response","trial_index":128,"time_elapsed":601096,"internal_node_id":"0.0-4.0-1.58","subject_id":"61671ecff6a6efdc1abf474c","study_id":"6197b3f67c2b5cd3b6d9596a","session_id":"619beeeb56def423f96357d5","condition":"contingent","relevant_dimensions":["antennae","legs"],"bee_group":{"antennae":"A","wings":"X","pattern":"X","legs":"F"},"bonus":0},{"rt":1832.9000000953674,"stimulus":"bees-with-color/bee-B2DM.svg","response":1,"trial_type":"image-button-response","trial_index":129,"time_elapsed":602932,"internal_node_id":"0.0-4.0-0.59","subject_id":"61671ecff6a6efdc1abf474c","study_id":"6197b3f67c2b5cd3b6d9596a","session_id":"619beeeb56def423f96357d5","condition":"contingent","relevant_dimensions":["antennae","legs"],"bee_group":{"antennae":"A","wings":"X","pattern":"X","legs":"F"},"action":"avoid","summary":"bad-avoid","bonus":0},{"rt":1359.5999999046326,"stimulus":"\n                    <p><b>Action: <em>avoid</em></b></p>\n                    <p>This is the bee that you just saw.</p>\n                    <img src=\"bees-with-color/bee-B2DM.svg\" width=\"200\">\n                    <p><br>Your bonus pay is unchanged, and remains at $0.00.</p>\n            ","response":0,"trial_type":"html-button-response","trial_index":130,"time_elapsed":604295,"internal_node_id":"0.0-4.0-1.59","subject_id":"61671ecff6a6efdc1abf474c","study_id":"6197b3f67c2b5cd3b6d9596a","session_id":"619beeeb56def423f96357d5","condition":"contingent","relevant_dimensions":["antennae","legs"],"bee_group":{"antennae":"A","wings":"X","pattern":"X","legs":"F"},"bonus":0},{"rt":1983.2999999523163,"stimulus":"bees-with-color/bee-B2DF.svg","response":1,"trial_type":"image-button-response","trial_index":131,"time_elapsed":606281,"internal_node_id":"0.0-4.0-0.60","subject_id":"61671ecff6a6efdc1abf474c","study_id":"6197b3f67c2b5cd3b6d9596a","session_id":"619beeeb56def423f96357d5","condition":"contingent","relevant_dimensions":["antennae","legs"],"bee_group":{"antennae":"A","wings":"X","pattern":"X","legs":"F"},"action":"avoid","summary":"bad-avoid","bonus":0},{"rt":1540.7000000476837,"stimulus":"\n                    <p><b>Action: <em>avoid</em></b></p>\n                    <p>This is the bee that you just saw.</p>\n                    <img src=\"bees-with-color/bee-B2DF.svg\" width=\"200\">\n                    <p><br>Your bonus pay is unchanged, and remains at $0.00.</p>\n            ","response":0,"trial_type":"html-button-response","trial_index":132,"time_elapsed":607825,"internal_node_id":"0.0-4.0-1.60","subject_id":"61671ecff6a6efdc1abf474c","study_id":"6197b3f67c2b5cd3b6d9596a","session_id":"619beeeb56def423f96357d5","condition":"contingent","relevant_dimensions":["antennae","legs"],"bee_group":{"antennae":"A","wings":"X","pattern":"X","legs":"F"},"bonus":0},{"rt":1491.2999999523163,"stimulus":"bees-with-color/bee-B1DM.svg","response":1,"trial_type":"image-button-response","trial_index":133,"time_elapsed":609319,"internal_node_id":"0.0-4.0-0.61","subject_id":"61671ecff6a6efdc1abf474c","study_id":"6197b3f67c2b5cd3b6d9596a","session_id":"619beeeb56def423f96357d5","condition":"contingent","relevant_dimensions":["antennae","legs"],"bee_group":{"antennae":"A","wings":"X","pattern":"X","legs":"F"},"action":"avoid","summary":"bad-avoid","bonus":0},{"rt":972,"stimulus":"\n                    <p><b>Action: <em>avoid</em></b></p>\n                    <p>This is the bee that you just saw.</p>\n                    <img src=\"bees-with-color/bee-B1DM.svg\" width=\"200\">\n                    <p><br>Your bonus pay is unchanged, and remains at $0.00.</p>\n            ","response":0,"trial_type":"html-button-response","trial_index":134,"time_elapsed":610293,"internal_node_id":"0.0-4.0-1.61","subject_id":"61671ecff6a6efdc1abf474c","study_id":"6197b3f67c2b5cd3b6d9596a","session_id":"619beeeb56def423f96357d5","condition":"contingent","relevant_dimensions":["antennae","legs"],"bee_group":{"antennae":"A","wings":"X","pattern":"X","legs":"F"},"bonus":0},{"rt":3401.4000000953674,"stimulus":"bees-with-color/bee-B1SF.svg","response":0,"trial_type":"image-button-response","trial_index":135,"time_elapsed":613698,"internal_node_id":"0.0-4.0-0.62","subject_id":"61671ecff6a6efdc1abf474c","study_id":"6197b3f67c2b5cd3b6d9596a","session_id":"619beeeb56def423f96357d5","condition":"contingent","relevant_dimensions":["antennae","legs"],"bee_group":{"antennae":"A","wings":"X","pattern":"X","legs":"F"},"action":"harvest","summary":"good-harvest","bonus":0},{"rt":2072.0999999046326,"stimulus":"\n                    <p><b>Action: <em>harvest</em></b></p>\n                    <p>This is the bee that you just saw.</p>\n                    <img src=\"bees-with-color/bee-B1SF.svg\" width=\"200\">\n                    <p><span class=\"greenText\"><b>Successful harvest!</b></span><br>Your pay has increased by $0.02. Your bonus pay is now $0.02.</p>\n            ","response":0,"trial_type":"html-button-response","trial_index":136,"time_elapsed":615774,"internal_node_id":"0.0-4.0-1.62","subject_id":"61671ecff6a6efdc1abf474c","study_id":"6197b3f67c2b5cd3b6d9596a","session_id":"619beeeb56def423f96357d5","condition":"contingent","relevant_dimensions":["antennae","legs"],"bee_group":{"antennae":"A","wings":"X","pattern":"X","legs":"F"},"bonus":0},{"rt":3028.7999999523163,"stimulus":"bees-with-color/bee-A1SF.svg","response":0,"trial_type":"image-button-response","trial_index":137,"time_elapsed":618807,"internal_node_id":"0.0-4.0-0.63","subject_id":"61671ecff6a6efdc1abf474c","study_id":"6197b3f67c2b5cd3b6d9596a","session_id":"619beeeb56def423f96357d5","condition":"contingent","relevant_dimensions":["antennae","legs"],"bee_group":{"antennae":"A","wings":"X","pattern":"X","legs":"F"},"action":"harvest","summary":"bad-harvest","bonus":0},{"rt":1757.5999999046326,"stimulus":"\n                    <p><b>Action: <em>harvest</em></b></p>\n                    <p>This is the bee that you just saw.</p>\n                    <img src=\"bees-with-color/bee-A1SF.svg\" width=\"200\">\n                    <p><span class=\"redText\">Bad choice, the bee was angry.</span><br><b>You have been stung!</b><br>Your pay has been decreased by $0.10. Your bonus pay is now $0.00.</p>\n            ","response":0,"trial_type":"html-button-response","trial_index":138,"time_elapsed":620568,"internal_node_id":"0.0-4.0-1.63","subject_id":"61671ecff6a6efdc1abf474c","study_id":"6197b3f67c2b5cd3b6d9596a","session_id":"619beeeb56def423f96357d5","condition":"contingent","relevant_dimensions":["antennae","legs"],"bee_group":{"antennae":"A","wings":"X","pattern":"X","legs":"F"},"bonus":0},{"rt":5236.400000095367,"stimulus":"You have completed the first part of this experiment.<br><br>You will now begin a shorter second part, in which you will receive no feedback.<br>The same rules regarding bonus pay apply.<br><br>Press any key to begin.","response":" ","trial_type":"html-keyboard-response","trial_index":139,"time_elapsed":625809,"internal_node_id":"0.0-5.0","subject_id":"61671ecff6a6efdc1abf474c","study_id":"6197b3f67c2b5cd3b6d9596a","session_id":"619beeeb56def423f96357d5","condition":"contingent","relevant_dimensions":["antennae","legs"],"bee_group":{"antennae":"A","wings":"X","pattern":"X","legs":"F"},"bonus":0},{"rt":2802.5,"stimulus":"bees-with-color/bee-B2SF.svg","response":1,"trial_type":"image-button-response","trial_index":140,"time_elapsed":628630,"internal_node_id":"0.0-6.0-0.0","subject_id":"61671ecff6a6efdc1abf474c","study_id":"6197b3f67c2b5cd3b6d9596a","session_id":"619beeeb56def423f96357d5","condition":"contingent","relevant_dimensions":["antennae","legs"],"bee_group":{"antennae":"A","wings":"X","pattern":"X","legs":"F"},"bonus":0},{"rt":1343.1000001430511,"stimulus":"bees-with-color/bee-A1DF.svg","response":1,"trial_type":"image-button-response","trial_index":141,"time_elapsed":629979,"internal_node_id":"0.0-6.0-0.1","subject_id":"61671ecff6a6efdc1abf474c","study_id":"6197b3f67c2b5cd3b6d9596a","session_id":"619beeeb56def423f96357d5","condition":"contingent","relevant_dimensions":["antennae","legs"],"bee_group":{"antennae":"A","wings":"X","pattern":"X","legs":"F"},"bonus":0},{"rt":1222.0999999046326,"stimulus":"bees-with-color/bee-A2DM.svg","response":1,"trial_type":"image-button-response","trial_index":142,"time_elapsed":631207,"internal_node_id":"0.0-6.0-0.2","subject_id":"61671ecff6a6efdc1abf474c","study_id":"6197b3f67c2b5cd3b6d9596a","session_id":"619beeeb56def423f96357d5","condition":"contingent","relevant_dimensions":["antennae","legs"],"bee_group":{"antennae":"A","wings":"X","pattern":"X","legs":"F"},"bonus":0},{"rt":1028.7999999523163,"stimulus":"bees-with-color/bee-B2SM.svg","response":1,"trial_type":"image-button-response","trial_index":143,"time_elapsed":632240,"internal_node_id":"0.0-6.0-0.3","subject_id":"61671ecff6a6efdc1abf474c","study_id":"6197b3f67c2b5cd3b6d9596a","session_id":"619beeeb56def423f96357d5","condition":"contingent","relevant_dimensions":["antennae","legs"],"bee_group":{"antennae":"A","wings":"X","pattern":"X","legs":"F"},"bonus":0},{"rt":1915.5,"stimulus":"bees-with-color/bee-A2SF.svg","response":1,"trial_type":"image-button-response","trial_index":144,"time_elapsed":634160,"internal_node_id":"0.0-6.0-0.4","subject_id":"61671ecff6a6efdc1abf474c","study_id":"6197b3f67c2b5cd3b6d9596a","session_id":"619beeeb56def423f96357d5","condition":"contingent","relevant_dimensions":["antennae","legs"],"bee_group":{"antennae":"A","wings":"X","pattern":"X","legs":"F"},"bonus":0},{"rt":899.2000000476837,"stimulus":"bees-with-color/bee-B2DM.svg","response":1,"trial_type":"image-button-response","trial_index":145,"time_elapsed":635064,"internal_node_id":"0.0-6.0-0.5","subject_id":"61671ecff6a6efdc1abf474c","study_id":"6197b3f67c2b5cd3b6d9596a","session_id":"619beeeb56def423f96357d5","condition":"contingent","relevant_dimensions":["antennae","legs"],"bee_group":{"antennae":"A","wings":"X","pattern":"X","legs":"F"},"bonus":0},{"rt":1166.5,"stimulus":"bees-with-color/bee-A1DM.svg","response":1,"trial_type":"image-button-response","trial_index":146,"time_elapsed":636236,"internal_node_id":"0.0-6.0-0.6","subject_id":"61671ecff6a6efdc1abf474c","study_id":"6197b3f67c2b5cd3b6d9596a","session_id":"619beeeb56def423f96357d5","condition":"contingent","relevant_dimensions":["antennae","legs"],"bee_group":{"antennae":"A","wings":"X","pattern":"X","legs":"F"},"bonus":0},{"rt":813.5999999046326,"stimulus":"bees-with-color/bee-B1SM.svg","response":1,"trial_type":"image-button-response","trial_index":147,"time_elapsed":637055,"internal_node_id":"0.0-6.0-0.7","subject_id":"61671ecff6a6efdc1abf474c","study_id":"6197b3f67c2b5cd3b6d9596a","session_id":"619beeeb56def423f96357d5","condition":"contingent","relevant_dimensions":["antennae","legs"],"bee_group":{"antennae":"A","wings":"X","pattern":"X","legs":"F"},"bonus":0},{"rt":771.7999999523163,"stimulus":"bees-with-color/bee-B1DM.svg","response":1,"trial_type":"image-button-response","trial_index":148,"time_elapsed":637831,"internal_node_id":"0.0-6.0-0.8","subject_id":"61671ecff6a6efdc1abf474c","study_id":"6197b3f67c2b5cd3b6d9596a","session_id":"619beeeb56def423f96357d5","condition":"contingent","relevant_dimensions":["antennae","legs"],"bee_group":{"antennae":"A","wings":"X","pattern":"X","legs":"F"},"bonus":0},{"rt":1671,"stimulus":"bees-with-color/bee-B1DF.svg","response":1,"trial_type":"image-button-response","trial_index":149,"time_elapsed":639507,"internal_node_id":"0.0-6.0-0.9","subject_id":"61671ecff6a6efdc1abf474c","study_id":"6197b3f67c2b5cd3b6d9596a","session_id":"619beeeb56def423f96357d5","condition":"contingent","relevant_dimensions":["antennae","legs"],"bee_group":{"antennae":"A","wings":"X","pattern":"X","legs":"F"},"bonus":0},{"rt":1192.9000000953674,"stimulus":"bees-with-color/bee-B1SF.svg","response":1,"trial_type":"image-button-response","trial_index":150,"time_elapsed":640704,"internal_node_id":"0.0-6.0-0.10","subject_id":"61671ecff6a6efdc1abf474c","study_id":"6197b3f67c2b5cd3b6d9596a","session_id":"619beeeb56def423f96357d5","condition":"contingent","relevant_dimensions":["antennae","legs"],"bee_group":{"antennae":"A","wings":"X","pattern":"X","legs":"F"},"bonus":0},{"rt":860.5,"stimulus":"bees-with-color/bee-A2DF.svg","response":1,"trial_type":"image-button-response","trial_index":151,"time_elapsed":641569,"internal_node_id":"0.0-6.0-0.11","subject_id":"61671ecff6a6efdc1abf474c","study_id":"6197b3f67c2b5cd3b6d9596a","session_id":"619beeeb56def423f96357d5","condition":"contingent","relevant_dimensions":["antennae","legs"],"bee_group":{"antennae":"A","wings":"X","pattern":"X","legs":"F"},"bonus":0},{"rt":800.3999998569489,"stimulus":"bees-with-color/bee-B2DF.svg","response":1,"trial_type":"image-button-response","trial_index":152,"time_elapsed":642374,"internal_node_id":"0.0-6.0-0.12","subject_id":"61671ecff6a6efdc1abf474c","study_id":"6197b3f67c2b5cd3b6d9596a","session_id":"619beeeb56def423f96357d5","condition":"contingent","relevant_dimensions":["antennae","legs"],"bee_group":{"antennae":"A","wings":"X","pattern":"X","legs":"F"},"bonus":0},{"rt":4061.7000000476837,"stimulus":"bees-with-color/bee-A1SF.svg","response":0,"trial_type":"image-button-response","trial_index":153,"time_elapsed":646440,"internal_node_id":"0.0-6.0-0.13","subject_id":"61671ecff6a6efdc1abf474c","study_id":"6197b3f67c2b5cd3b6d9596a","session_id":"619beeeb56def423f96357d5","condition":"contingent","relevant_dimensions":["antennae","legs"],"bee_group":{"antennae":"A","wings":"X","pattern":"X","legs":"F"},"bonus":0},{"rt":2062.0999999046326,"stimulus":"bees-with-color/bee-A2SM.svg","response":1,"trial_type":"image-button-response","trial_index":154,"time_elapsed":648508,"internal_node_id":"0.0-6.0-0.14","subject_id":"61671ecff6a6efdc1abf474c","study_id":"6197b3f67c2b5cd3b6d9596a","session_id":"619beeeb56def423f96357d5","condition":"contingent","relevant_dimensions":["antennae","legs"],"bee_group":{"antennae":"A","wings":"X","pattern":"X","legs":"F"},"bonus":0},{"rt":1028.8999998569489,"stimulus":"bees-with-color/bee-A1SM.svg","response":1,"trial_type":"image-button-response","trial_index":155,"time_elapsed":649542,"internal_node_id":"0.0-6.0-0.15","subject_id":"61671ecff6a6efdc1abf474c","study_id":"6197b3f67c2b5cd3b6d9596a","session_id":"619beeeb56def423f96357d5","condition":"contingent","relevant_dimensions":["antennae","legs"],"bee_group":{"antennae":"A","wings":"X","pattern":"X","legs":"F"},"bonus":0},{"rt":1468.8999998569489,"stimulus":"bees-with-color/bee-A2SF.svg","response":1,"trial_type":"image-button-response","trial_index":156,"time_elapsed":651014,"internal_node_id":"0.0-6.0-0.16","subject_id":"61671ecff6a6efdc1abf474c","study_id":"6197b3f67c2b5cd3b6d9596a","session_id":"619beeeb56def423f96357d5","condition":"contingent","relevant_dimensions":["antennae","legs"],"bee_group":{"antennae":"A","wings":"X","pattern":"X","legs":"F"},"bonus":0},{"rt":907.9000000953674,"stimulus":"bees-with-color/bee-B1DF.svg","response":1,"trial_type":"image-button-response","trial_index":157,"time_elapsed":651926,"internal_node_id":"0.0-6.0-0.17","subject_id":"61671ecff6a6efdc1abf474c","study_id":"6197b3f67c2b5cd3b6d9596a","session_id":"619beeeb56def423f96357d5","condition":"contingent","relevant_dimensions":["antennae","legs"],"bee_group":{"antennae":"A","wings":"X","pattern":"X","legs":"F"},"bonus":0},{"rt":1120,"stimulus":"bees-with-color/bee-A2DF.svg","response":1,"trial_type":"image-button-response","trial_index":158,"time_elapsed":653050,"internal_node_id":"0.0-6.0-0.18","subject_id":"61671ecff6a6efdc1abf474c","study_id":"6197b3f67c2b5cd3b6d9596a","session_id":"619beeeb56def423f96357d5","condition":"contingent","relevant_dimensions":["antennae","legs"],"bee_group":{"antennae":"A","wings":"X","pattern":"X","legs":"F"},"bonus":0},{"rt":910.2000000476837,"stimulus":"bees-with-color/bee-A1SM.svg","response":1,"trial_type":"image-button-response","trial_index":159,"time_elapsed":653963,"internal_node_id":"0.0-6.0-0.19","subject_id":"61671ecff6a6efdc1abf474c","study_id":"6197b3f67c2b5cd3b6d9596a","session_id":"619beeeb56def423f96357d5","condition":"contingent","relevant_dimensions":["antennae","legs"],"bee_group":{"antennae":"A","wings":"X","pattern":"X","legs":"F"},"bonus":0},{"rt":860.3999998569489,"stimulus":"bees-with-color/bee-B1DM.svg","response":1,"trial_type":"image-button-response","trial_index":160,"time_elapsed":654827,"internal_node_id":"0.0-6.0-0.20","subject_id":"61671ecff6a6efdc1abf474c","study_id":"6197b3f67c2b5cd3b6d9596a","session_id":"619beeeb56def423f96357d5","condition":"contingent","relevant_dimensions":["antennae","legs"],"bee_group":{"antennae":"A","wings":"X","pattern":"X","legs":"F"},"bonus":0},{"rt":903.7999999523163,"stimulus":"bees-with-color/bee-A2DM.svg","response":1,"trial_type":"image-button-response","trial_index":161,"time_elapsed":655735,"internal_node_id":"0.0-6.0-0.21","subject_id":"61671ecff6a6efdc1abf474c","study_id":"6197b3f67c2b5cd3b6d9596a","session_id":"619beeeb56def423f96357d5","condition":"contingent","relevant_dimensions":["antennae","legs"],"bee_group":{"antennae":"A","wings":"X","pattern":"X","legs":"F"},"bonus":0},{"rt":1317.2999999523163,"stimulus":"bees-with-color/bee-B2SF.svg","response":1,"trial_type":"image-button-response","trial_index":162,"time_elapsed":657056,"internal_node_id":"0.0-6.0-0.22","subject_id":"61671ecff6a6efdc1abf474c","study_id":"6197b3f67c2b5cd3b6d9596a","session_id":"619beeeb56def423f96357d5","condition":"contingent","relevant_dimensions":["antennae","legs"],"bee_group":{"antennae":"A","wings":"X","pattern":"X","legs":"F"},"bonus":0},{"rt":1461.5999999046326,"stimulus":"bees-with-color/bee-A2SM.svg","response":1,"trial_type":"image-button-response","trial_index":163,"time_elapsed":658521,"internal_node_id":"0.0-6.0-0.23","subject_id":"61671ecff6a6efdc1abf474c","study_id":"6197b3f67c2b5cd3b6d9596a","session_id":"619beeeb56def423f96357d5","condition":"contingent","relevant_dimensions":["antennae","legs"],"bee_group":{"antennae":"A","wings":"X","pattern":"X","legs":"F"},"bonus":0},{"rt":1187,"stimulus":"bees-with-color/bee-B1SM.svg","response":1,"trial_type":"image-button-response","trial_index":164,"time_elapsed":659712,"internal_node_id":"0.0-6.0-0.24","subject_id":"61671ecff6a6efdc1abf474c","study_id":"6197b3f67c2b5cd3b6d9596a","session_id":"619beeeb56def423f96357d5","condition":"contingent","relevant_dimensions":["antennae","legs"],"bee_group":{"antennae":"A","wings":"X","pattern":"X","legs":"F"},"bonus":0},{"rt":993.7000000476837,"stimulus":"bees-with-color/bee-A1DF.svg","response":1,"trial_type":"image-button-response","trial_index":165,"time_elapsed":660709,"internal_node_id":"0.0-6.0-0.25","subject_id":"61671ecff6a6efdc1abf474c","study_id":"6197b3f67c2b5cd3b6d9596a","session_id":"619beeeb56def423f96357d5","condition":"contingent","relevant_dimensions":["antennae","legs"],"bee_group":{"antennae":"A","wings":"X","pattern":"X","legs":"F"},"bonus":0},{"rt":2155.7000000476837,"stimulus":"bees-with-color/bee-B1SF.svg","response":0,"trial_type":"image-button-response","trial_index":166,"time_elapsed":662869,"internal_node_id":"0.0-6.0-0.26","subject_id":"61671ecff6a6efdc1abf474c","study_id":"6197b3f67c2b5cd3b6d9596a","session_id":"619beeeb56def423f96357d5","condition":"contingent","relevant_dimensions":["antennae","legs"],"bee_group":{"antennae":"A","wings":"X","pattern":"X","legs":"F"},"bonus":0},{"rt":1124.0999999046326,"stimulus":"bees-with-color/bee-A1DM.svg","response":1,"trial_type":"image-button-response","trial_index":167,"time_elapsed":663996,"internal_node_id":"0.0-6.0-0.27","subject_id":"61671ecff6a6efdc1abf474c","study_id":"6197b3f67c2b5cd3b6d9596a","session_id":"619beeeb56def423f96357d5","condition":"contingent","relevant_dimensions":["antennae","legs"],"bee_group":{"antennae":"A","wings":"X","pattern":"X","legs":"F"},"bonus":0},{"rt":2252.2000000476837,"stimulus":"bees-with-color/bee-A1SF.svg","response":0,"trial_type":"image-button-response","trial_index":168,"time_elapsed":666252,"internal_node_id":"0.0-6.0-0.28","subject_id":"61671ecff6a6efdc1abf474c","study_id":"6197b3f67c2b5cd3b6d9596a","session_id":"619beeeb56def423f96357d5","condition":"contingent","relevant_dimensions":["antennae","legs"],"bee_group":{"antennae":"A","wings":"X","pattern":"X","legs":"F"},"bonus":0},{"rt":1188.8999998569489,"stimulus":"bees-with-color/bee-B2SM.svg","response":1,"trial_type":"image-button-response","trial_index":169,"time_elapsed":667445,"internal_node_id":"0.0-6.0-0.29","subject_id":"61671ecff6a6efdc1abf474c","study_id":"6197b3f67c2b5cd3b6d9596a","session_id":"619beeeb56def423f96357d5","condition":"contingent","relevant_dimensions":["antennae","legs"],"bee_group":{"antennae":"A","wings":"X","pattern":"X","legs":"F"},"bonus":0},{"rt":989.7999999523163,"stimulus":"bees-with-color/bee-B2DM.svg","response":1,"trial_type":"image-button-response","trial_index":170,"time_elapsed":668439,"internal