[{"success":true,"trial_type":"fullscreen","trial_index":0,"time_elapsed":5359,"internal_node_id":"0.0-0.0","subject_id":"6138fc6df08e00e96682f9ee","study_id":"6197b3f67c2b5cd3b6d9596a","session_id":"619beeeb245ad97b723e6c6e","condition":"contingent","relevant_dimensions":["antennae","pattern"],"bee_group":{"antennae":"A","wings":"X","pattern":"D","legs":"X"},"bonus":1.4400000000000008},{"success":true,"timeout":false,"failed_images":[],"failed_audio":[],"failed_video":[],"trial_type":"preload","trial_index":1,"time_elapsed":7360,"internal_node_id":"0.0-1.0","subject_id":"6138fc6df08e00e96682f9ee","study_id":"6197b3f67c2b5cd3b6d9596a","session_id":"619beeeb245ad97b723e6c6e","condition":"contingent","relevant_dimensions":["antennae","pattern"],"bee_group":{"antennae":"A","wings":"X","pattern":"D","legs":"X"},"bonus":1.4400000000000008},{"rt":2033.5999999996275,"stimulus":"Welcome! Press any key to begin.","response":" ","trial_type":"html-keyboard-response","trial_index":2,"time_elapsed":9394,"internal_node_id":"0.0-2.0","subject_id":"6138fc6df08e00e96682f9ee","study_id":"6197b3f67c2b5cd3b6d9596a","session_id":"619beeeb245ad97b723e6c6e","condition":"contingent","relevant_dimensions":["antennae","pattern"],"bee_group":{"antennae":"A","wings":"X","pattern":"D","legs":"X"},"bonus":1.4400000000000008},{"view_history":[{"page_index":0,"viewing_time":4466.200000001118},{"page_index":1,"viewing_time":12094},{"page_index":2,"viewing_time":10541.599999999627},{"page_index":3,"viewing_time":17595.699999999255},{"page_index":4,"viewing_time":6165.200000001118},{"page_index":5,"viewing_time":7414.0999999996275},{"page_index":6,"viewing_time":9563.199999999255},{"page_index":7,"viewing_time":22072.800000000745},{"page_index":8,"viewing_time":9393.900000000373},{"page_index":9,"viewing_time":7369.299999998882},{"page_index":10,"viewing_time":6828.800000000745},{"page_index":11,"viewing_time":31681.300000000745},{"page_index":12,"viewing_time":8977.799999998882},{"page_index":13,"viewing_time":1552.4000000003725},{"page_index":14,"viewing_time":2441.5}],"rt":158158.20000000112,"trial_type":"instructions","trial_index":3,"time_elapsed":167552,"internal_node_id":"0.0-3.0-0.0","subject_id":"6138fc6df08e00e96682f9ee","study_id":"6197b3f67c2b5cd3b6d9596a","session_id":"619beeeb245ad97b723e6c6e","condition":"contingent","relevant_dimensions":["antennae","pattern"],"bee_group":{"antennae":"A","wings":"X","pattern":"D","legs":"X"},"bonus":1.4400000000000008},{"rt":29225.199999999255,"response":{"Q0":["Two or six legs","Stripes or spots on body","Single or double wings","Antennae or no antennae"]},"question_order":[0],"trial_type":"survey-multi-select","trial_index":4,"time_elapsed":196782,"internal_node_id":"0.0-3.0-1.0","subject_id":"6138fc6df08e00e96682f9ee","study_id":"6197b3f67c2b5cd3b6d9596a","session_id":"619beeeb245ad97b723e6c6e","condition":"contingent","relevant_dimensions":["antennae","pattern"],"bee_group":{"antennae":"A","wings":"X","pattern":"D","legs":"X"},"correct":true,"bonus":1.4400000000000008},{"rt":17402.300000000745,"response":{"Q1":"No.","Q2":"Based on the four features of the bee.","Q3":"You do not learn if it was friendly or dangerous, and do not alter your bonus."},"question_order":[0,1,2],"trial_type":"survey-multi-choice","trial_index":5,"time_elapsed":214186,"internal_node_id":"0.0-3.0-2.0","subject_id":"6138fc6df08e00e96682f9ee","study_id":"6197b3f67c2b5cd3b6d9596a","session_id":"619beeeb245ad97b723e6c6e","condition":"contingent","relevant_dimensions":["antennae","pattern"],"bee_group":{"antennae":"A","wings":"X","pattern":"D","legs":"X"},"correct":true,"bonus":1.4400000000000008},{"rt":3586.9000000003725,"stimulus":"<p>Congrats, you got everything right<br>When you're ready, click the button below to continue to the experiment.</p>","response":0,"trial_type":"html-button-response","trial_index":6,"time_elapsed":217775,"internal_node_id":"0.0-3.0-3.0","subject_id":"6138fc6df08e00e96682f9ee","study_id":"6197b3f67c2b5cd3b6d9596a","session_id":"619beeeb245ad97b723e6c6e","condition":"contingent","relevant_dimensions":["antennae","pattern"],"bee_group":{"antennae":"A","wings":"X","pattern":"D","legs":"X"},"bonus":1.4400000000000008},{"rt":8941.5,"stimulus":"bees-with-color/bee-A2SM.svg","response":0,"trial_type":"image-button-response","trial_index":7,"time_elapsed":226718,"internal_node_id":"0.0-4.0-0.0","subject_id":"6138fc6df08e00e96682f9ee","study_id":"6197b3f67c2b5cd3b6d9596a","session_id":"619beeeb245ad97b723e6c6e","condition":"contingent","relevant_dimensions":["antennae","pattern"],"bee_group":{"antennae":"A","wings":"X","pattern":"D","legs":"X"},"action":"harvest","summary":"good-harvest","bonus":1.4400000000000008},{"rt":29642.700000001118,"stimulus":"\n                    <p><b>Action: <em>harvest</em></b></p>\n                    <p>This is the bee that you just saw.</p>\n                    <img src=\"bees-with-color/bee-A2SM.svg\" width=\"200\">\n                    <p><span class=\"greenText\"><b>Successful harvest!</b></span><br>Your pay has increased by $0.02. Your bonus pay is now $0.56.</p>\n            ","response":0,"trial_type":"html-button-response","trial_index":8,"time_elapsed":256363,"internal_node_id":"0.0-4.0-1.0","subject_id":"6138fc6df08e00e96682f9ee","study_id":"6197b3f67c2b5cd3b6d9596a","session_id":"619beeeb245ad97b723e6c6e","condition":"contingent","relevant_dimensions":["antennae","pattern"],"bee_group":{"antennae":"A","wings":"X","pattern":"D","legs":"X"},"bonus":1.4400000000000008},{"rt":5893.5999999996275,"stimulus":"bees-with-color/bee-A1SM.svg","response":0,"trial_type":"image-button-response","trial_index":9,"time_elapsed":262258,"internal_node_id":"0.0-4.0-0.1","subject_id":"6138fc6df08e00e96682f9ee","study_id":"6197b3f67c2b5cd3b6d9596a","session_id":"619beeeb245ad97b723e6c6e","condition":"contingent","relevant_dimensions":["antennae","pattern"],"bee_group":{"antennae":"A","wings":"X","pattern":"D","legs":"X"},"action":"harvest","summary":"good-harvest","bonus":1.4400000000000008},{"rt":26999.300000000745,"stimulus":"\n                    <p><b>Action: <em>harvest</em></b></p>\n                    <p>This is the bee that you just saw.</p>\n                    <img src=\"bees-with-color/bee-A1SM.svg\" width=\"200\">\n                    <p><span class=\"greenText\"><b>Successful harvest!</b></span><br>Your pay has increased by $0.02. Your bonus pay is now $0.58.</p>\n            ","response":0,"trial_type":"html-button-response","trial_index":10,"time_elapsed":289259,"internal_node_id":"0.0-4.0-1.1","subject_id":"6138fc6df08e00e96682f9ee","study_id":"6197b3f67c2b5cd3b6d9596a","session_id":"619beeeb245ad97b723e6c6e","condition":"contingent","relevant_dimensions":["antennae","pattern"],"bee_group":{"antennae":"A","wings":"X","pattern":"D","legs":"X"},"bonus":1.4400000000000008},{"rt":8031.300000000745,"stimulus":"bees-with-color/bee-B1DM.svg","response":0,"trial_type":"image-button-response","trial_index":11,"time_elapsed":297292,"internal_node_id":"0.0-4.0-0.2","subject_id":"6138fc6df08e00e96682f9ee","study_id":"6197b3f67c2b5cd3b6d9596a","session_id":"619beeeb245ad97b723e6c6e","condition":"contingent","relevant_dimensions":["antennae","pattern"],"bee_group":{"antennae":"A","wings":"X","pattern":"D","legs":"X"},"action":"harvest","summary":"good-harvest","bonus":1.4400000000000008},{"rt":19000.400000000373,"stimulus":"\n                    <p><b>Action: <em>harvest</em></b></p>\n                    <p>This is the bee that you just saw.</p>\n                    <img src=\"bees-with-color/bee-B1DM.svg\" width=\"200\">\n                    <p><span class=\"greenText\"><b>Successful harvest!</b></span><br>Your pay has increased by $0.02. Your bonus pay is now $0.60.</p>\n            ","response":0,"trial_type":"html-button-response","trial_index":12,"time_elapsed":316294,"internal_node_id":"0.0-4.0-1.2","subject_id":"6138fc6df08e00e96682f9ee","study_id":"6197b3f67c2b5cd3b6d9596a","session_id":"619beeeb245ad97b723e6c6e","condition":"contingent","relevant_dimensions":["antennae","pattern"],"bee_group":{"antennae":"A","wings":"X","pattern":"D","legs":"X"},"bonus":1.4400000000000008},{"rt":1731,"stimulus":"bees-with-color/bee-A1DF.svg","response":1,"trial_type":"image-button-response","trial_index":13,"time_elapsed":318027,"internal_node_id":"0.0-4.0-0.3","subject_id":"6138fc6df08e00e96682f9ee","study_id":"6197b3f67c2b5cd3b6d9596a","session_id":"619beeeb245ad97b723e6c6e","condition":"contingent","relevant_dimensions":["antennae","pattern"],"bee_group":{"antennae":"A","wings":"X","pattern":"D","legs":"X"},"action":"avoid","summary":"good-avoid","bonus":1.4400000000000008},{"rt":6849.60000000149,"stimulus":"\n                    <p><b>Action: <em>avoid</em></b></p>\n                    <p>This is the bee that you just saw.</p>\n                    <img src=\"bees-with-color/bee-A1DF.svg\" width=\"200\">\n                    <p><br>Your bonus pay is unchanged, and remains at $0.60.</p>\n            ","response":0,"trial_type":"html-button-response","trial_index":14,"time_elapsed":324878,"internal_node_id":"0.0-4.0-1.3","subject_id":"6138fc6df08e00e96682f9ee","study_id":"6197b3f67c2b5cd3b6d9596a","session_id":"619beeeb245ad97b723e6c6e","condition":"contingent","relevant_dimensions":["antennae","pattern"],"bee_group":{"antennae":"A","wings":"X","pattern":"D","legs":"X"},"bonus":1.4400000000000008},{"rt":2799.300000000745,"stimulus":"bees-with-color/bee-B2DM.svg","response":0,"trial_type":"image-button-response","trial_index":15,"time_elapsed":327679,"internal_node_id":"0.0-4.0-0.4","subject_id":"6138fc6df08e00e96682f9ee","study_id":"6197b3f67c2b5cd3b6d9596a","session_id":"619beeeb245ad97b723e6c6e","condition":"contingent","relevant_dimensions":["antennae","pattern"],"bee_group":{"antennae":"A","wings":"X","pattern":"D","legs":"X"},"action":"harvest","summary":"good-harvest","bonus":1.4400000000000008},{"rt":1224.800000000745,"stimulus":"\n                    <p><b>Action: <em>harvest</em></b></p>\n                    <p>This is the bee that you just saw.</p>\n                    <img src=\"bees-with-color/bee-B2DM.svg\" width=\"200\">\n                    <p><span class=\"greenText\"><b>Successful harvest!</b></span><br>Your pay has increased by $0.02. Your bonus pay is now $0.62.</p>\n            ","response":0,"trial_type":"html-button-response","trial_index":16,"time_elapsed":328906,"internal_node_id":"0.0-4.0-1.4","subject_id":"6138fc6df08e00e96682f9ee","study_id":"6197b3f67c2b5cd3b6d9596a","session_id":"619beeeb245ad97b723e6c6e","condition":"contingent","relevant_dimensions":["antennae","pattern"],"bee_group":{"antennae":"A","wings":"X","pattern":"D","legs":"X"},"bonus":1.4400000000000008},{"rt":1156.7999999988824,"stimulus":"bees-with-color/bee-B1DF.svg","response":1,"trial_type":"image-button-response","trial_index":17,"time_elapsed":330065,"internal_node_id":"0.0-4.0-0.5","subject_id":"6138fc6df08e00e96682f9ee","study_id":"6197b3f67c2b5cd3b6d9596a","session_id":"619beeeb245ad97b723e6c6e","condition":"contingent","relevant_dimensions":["antennae","pattern"],"bee_group":{"antennae":"A","wings":"X","pattern":"D","legs":"X"},"action":"avoid","summary":"bad-avoid","bonus":1.4400000000000008},{"rt":1112.4000000003725,"stimulus":"\n                    <p><b>Action: <em>avoid</em></b></p>\n                    <p>This is the bee that you just saw.</p>\n                    <img src=\"bees-with-color/bee-B1DF.svg\" width=\"200\">\n                    <p><br>Your bonus pay is unchanged, and remains at $0.62.</p>\n            ","response":0,"trial_type":"html-button-response","trial_index":18,"time_elapsed":331179,"internal_node_id":"0.0-4.0-1.5","subject_id":"6138fc6df08e00e96682f9ee","study_id":"6197b3f67c2b5cd3b6d9596a","session_id":"619beeeb245ad97b723e6c6e","condition":"contingent","relevant_dimensions":["antennae","pattern"],"bee_group":{"antennae":"A","wings":"X","pattern":"D","legs":"X"},"bonus":1.4400000000000008},{"rt":1056,"stimulus":"bees-with-color/bee-A1DM.svg","response":0,"trial_type":"image-button-response","trial_index":19,"time_elapsed":332236,"internal_node_id":"0.0-4.0-0.6","subject_id":"6138fc6df08e00e96682f9ee","study_id":"6197b3f67c2b5cd3b6d9596a","session_id":"619beeeb245ad97b723e6c6e","condition":"contingent","relevant_dimensions":["antennae","pattern"],"bee_group":{"antennae":"A","wings":"X","pattern":"D","legs":"X"},"action":"harvest","summary":"bad-harvest","bonus":1.4400000000000008},{"rt":49545.300000000745,"stimulus":"\n                    <p><b>Action: <em>harvest</em></b></p>\n                    <p>This is the bee that you just saw.</p>\n                    <img src=\"bees-with-color/bee-A1DM.svg\" width=\"200\">\n                    <p><span class=\"redText\">Bad choice, the bee was angry.</span><br><b>You have been stung!</b><br>Your pay has been decreased by $0.10. Your bonus pay is now $0.52.</p>\n            ","response":0,"trial_type":"html-button-response","trial_index":20,"time_elapsed":381783,"internal_node_id":"0.0-4.0-1.6","subject_id":"6138fc6df08e00e96682f9ee","study_id":"6197b3f67c2b5cd3b6d9596a","session_id":"619beeeb245ad97b723e6c6e","condition":"contingent","relevant_dimensions":["antennae","pattern"],"bee_group":{"antennae":"A","wings":"X","pattern":"D","legs":"X"},"bonus":1.4400000000000008},{"rt":3722.2999999988824,"stimulus":"bees-with-color/bee-B1SF.svg","response":0,"trial_type":"image-button-response","trial_index":21,"time_elapsed":385506,"internal_node_id":"0.0-4.0-0.7","subject_id":"6138fc6df08e00e96682f9ee","study_id":"6197b3f67c2b5cd3b6d9596a","session_id":"619beeeb245ad97b723e6c6e","condition":"contingent","relevant_dimensions":["antennae","pattern"],"bee_group":{"antennae":"A","wings":"X","pattern":"D","legs":"X"},"action":"harvest","summary":"good-harvest","bonus":1.4400000000000008},{"rt":7379,"stimulus":"\n                    <p><b>Action: <em>harvest</em></b></p>\n                    <p>This is the bee that you just saw.</p>\n                    <img src=\"bees-with-color/bee-B1SF.svg\" width=\"200\">\n                    <p><span class=\"greenText\"><b>Successful harvest!</b></span><br>Your pay has increased by $0.02. Your bonus pay is now $0.54.</p>\n            ","response":0,"trial_type":"html-button-response","trial_index":22,"time_elapsed":392887,"internal_node_id":"0.0-4.0-1.7","subject_id":"6138fc6df08e00e96682f9ee","study_id":"6197b3f67c2b5cd3b6d9596a","session_id":"619beeeb245ad97b723e6c6e","condition":"contingent","relevant_dimensions":["antennae","pattern"],"bee_group":{"antennae":"A","wings":"X","pattern":"D","legs":"X"},"bonus":1.4400000000000008},{"rt":2597.4000000003725,"stimulus":"bees-with-color/bee-B2SM.svg","response":0,"trial_type":"image-button-response","trial_index":23,"time_elapsed":395486,"internal_node_id":"0.0-4.0-0.8","subject_id":"6138fc6df08e00e96682f9ee","study_id":"6197b3f67c2b5cd3b6d9596a","session_id":"619beeeb245ad97b723e6c6e","condition":"contingent","relevant_dimensions":["antennae","pattern"],"bee_group":{"antennae":"A","wings":"X","pattern":"D","legs":"X"},"action":"harvest","summary":"good-harvest","bonus":1.4400000000000008},{"rt":17436.599999999627,"stimulus":"\n                    <p><b>Action: <em>harvest</em></b></p>\n                    <p>This is the bee that you just saw.</p>\n                    <img src=\"bees-with-color/bee-B2SM.svg\" width=\"200\">\n                    <p><span class=\"greenText\"><b>Successful harvest!</b></span><br>Your pay has increased by $0.02. Your bonus pay is now $0.56.</p>\n            ","response":0,"trial_type":"html-button-response","trial_index":24,"time_elapsed":412924,"internal_node_id":"0.0-4.0-1.8","subject_id":"6138fc6df08e00e96682f9ee","study_id":"6197b3f67c2b5cd3b6d9596a","session_id":"619beeeb245ad97b723e6c6e","condition":"contingent","relevant_dimensions":["antennae","pattern"],"bee_group":{"antennae":"A","wings":"X","pattern":"D","legs":"X"},"bonus":1.4400000000000008},{"rt":2046,"stimulus":"bees-with-color/bee-B1SM.svg","response":0,"trial_type":"image-button-response","trial_index":25,"time_elapsed":414971,"internal_node_id":"0.0-4.0-0.9","subject_id":"6138fc6df08e00e96682f9ee","study_id":"6197b3f67c2b5cd3b6d9596a","session_id":"619beeeb245ad97b723e6c6e","condition":"contingent","relevant_dimensions":["antennae","pattern"],"bee_group":{"antennae":"A","wings":"X","pattern":"D","legs":"X"},"action":"harvest","summary":"good-harvest","bonus":1.4400000000000008},{"rt":1146,"stimulus":"\n                    <p><b>Action: <em>harvest</em></b></p>\n                    <p>This is the bee that you just saw.</p>\n                    <img src=\"bees-with-color/bee-B1SM.svg\" width=\"200\">\n                    <p><span class=\"greenText\"><b>Successful harvest!</b></span><br>Your pay has increased by $0.02. Your bonus pay is now $0.58.</p>\n            ","response":0,"trial_type":"html-button-response","trial_index":26,"time_elapsed":416119,"internal_node_id":"0.0-4.0-1.9","subject_id":"6138fc6df08e00e96682f9ee","study_id":"6197b3f67c2b5cd3b6d9596a","session_id":"619beeeb245ad97b723e6c6e","condition":"contingent","relevant_dimensions":["antennae","pattern"],"bee_group":{"antennae":"A","wings":"X","pattern":"D","legs":"X"},"bonus":1.4400000000000008},{"rt":4217.5999999996275,"stimulus":"bees-with-color/bee-A1SF.svg","response":0,"trial_type":"image-button-response","trial_index":27,"time_elapsed":420338,"internal_node_id":"0.0-4.0-0.10","subject_id":"6138fc6df08e00e96682f9ee","study_id":"6197b3f67c2b5cd3b6d9596a","session_id":"619beeeb245ad97b723e6c6e","condition":"contingent","relevant_dimensions":["antennae","pattern"],"bee_group":{"antennae":"A","wings":"X","pattern":"D","legs":"X"},"action":"harvest","summary":"good-harvest","bonus":1.4400000000000008},{"rt":943.2999999988824,"stimulus":"\n                    <p><b>Action: <em>harvest</em></b></p>\n                    <p>This is the bee that you just saw.</p>\n                    <img src=\"bees-with-color/bee-A1SF.svg\" width=\"200\">\n                    <p><span class=\"greenText\"><b>Successful harvest!</b></span><br>Your pay has increased by $0.02. Your bonus pay is now $0.60.</p>\n            ","response":0,"trial_type":"html-button-response","trial_index":28,"time_elapsed":421283,"internal_node_id":"0.0-4.0-1.10","subject_id":"6138fc6df08e00e96682f9ee","study_id":"6197b3f67c2b5cd3b6d9596a","session_id":"619beeeb245ad97b723e6c6e","condition":"contingent","relevant_dimensions":["antennae","pattern"],"bee_group":{"antennae":"A","wings":"X","pattern":"D","legs":"X"},"bonus":1.4400000000000008},{"rt":5859.5999999996275,"stimulus":"bees-with-color/bee-B2DF.svg","response":1,"trial_type":"image-button-response","trial_index":29,"time_elapsed":427144,"internal_node_id":"0.0-4.0-0.11","subject_id":"6138fc6df08e00e96682f9ee","study_id":"6197b3f67c2b5cd3b6d9596a","session_id":"619beeeb245ad97b723e6c6e","condition":"contingent","relevant_dimensions":["antennae","pattern"],"bee_group":{"antennae":"A","wings":"X","pattern":"D","legs":"X"},"action":"avoid","summary":"bad-avoid","bonus":1.4400000000000008},{"rt":988.3000000007451,"stimulus":"\n                    <p><b>Action: <em>avoid</em></b></p>\n                    <p>This is the bee that you just saw.</p>\n                    <img src=\"bees-with-color/bee-B2DF.svg\" width=\"200\">\n                    <p><br>Your bonus pay is unchanged, and remains at $0.60.</p>\n            ","response":0,"trial_type":"html-button-response","trial_index":30,"time_elapsed":428134,"internal_node_id":"0.0-4.0-1.11","subject_id":"6138fc6df08e00e96682f9ee","study_id":"6197b3f67c2b5cd3b6d9596a","session_id":"619beeeb245ad97b723e6c6e","condition":"contingent","relevant_dimensions":["antennae","pattern"],"bee_group":{"antennae":"A","wings":"X","pattern":"D","legs":"X"},"bonus":1.4400000000000008},{"rt":3418.5999999996275,"stimulus":"bees-with-color/bee-A2DM.svg","response":1,"trial_type":"image-button-response","trial_index":31,"time_elapsed":431554,"internal_node_id":"0.0-4.0-0.12","subject_id":"6138fc6df08e00e96682f9ee","study_id":"6197b3f67c2b5cd3b6d9596a","session_id":"619beeeb245ad97b723e6c6e","condition":"contingent","relevant_dimensions":["antennae","pattern"],"bee_group":{"antennae":"A","wings":"X","pattern":"D","legs":"X"},"action":"avoid","summary":"good-avoid","bonus":1.4400000000000008},{"rt":921.5,"stimulus":"\n                    <p><b>Action: <em>avoid</em></b></p>\n                    <p>This is the bee that you just saw.</p>\n                    <img src=\"bees-with-color/bee-A2DM.svg\" width=\"200\">\n                    <p><br>Your bonus pay is unchanged, and remains at $0.60.</p>\n            ","response":0,"trial_type":"html-button-response","trial_index":32,"time_elapsed":432477,"internal_node_id":"0.0-4.0-1.12","subject_id":"6138fc6df08e00e96682f9ee","study_id":"6197b3f67c2b5cd3b6d9596a","session_id":"619beeeb245ad97b723e6c6e","condition":"contingent","relevant_dimensions":["antennae","pattern"],"bee_group":{"antennae":"A","wings":"X","pattern":"D","legs":"X"},"bonus":1.4400000000000008},{"rt":2574.9000000003725,"stimulus":"bees-with-color/bee-A2SF.svg","response":0,"trial_type":"image-button-response","trial_index":33,"time_elapsed":435053,"internal_node_id":"0.0-4.0-0.13","subject_id":"6138fc6df08e00e96682f9ee","study_id":"6197b3f67c2b5cd3b6d9596a","session_id":"619beeeb245ad97b723e6c6e","condition":"contingent","relevant_dimensions":["antennae","pattern"],"bee_group":{"antennae":"A","wings":"X","pattern":"D","legs":"X"},"action":"harvest","summary":"good-harvest","bonus":1.4400000000000008},{"rt":1000.2999999988824,"stimulus":"\n                    <p><b>Action: <em>harvest</em></b></p>\n                    <p>This is the bee that you just saw.</p>\n                    <img src=\"bees-with-color/bee-A2SF.svg\" width=\"200\">\n                    <p><span class=\"greenText\"><b>Successful harvest!</b></span><br>Your pay has increased by $0.02. Your bonus pay is now $0.62.</p>\n            ","response":0,"trial_type":"html-button-response","trial_index":34,"time_elapsed":436054,"internal_node_id":"0.0-4.0-1.13","subject_id":"6138fc6df08e00e96682f9ee","study_id":"6197b3f67c2b5cd3b6d9596a","session_id":"619beeeb245ad97b723e6c6e","condition":"contingent","relevant_dimensions":["antennae","pattern"],"bee_group":{"antennae":"A","wings":"X","pattern":"D","legs":"X"},"bonus":1.4400000000000008},{"rt":2699.199999999255,"stimulus":"bees-with-color/bee-B2SF.svg","response":0,"trial_type":"image-button-response","trial_index":35,"time_elapsed":438755,"internal_node_id":"0.0-4.0-0.14","subject_id":"6138fc6df08e00e96682f9ee","study_id":"6197b3f67c2b5cd3b6d9596a","session_id":"619beeeb245ad97b723e6c6e","condition":"contingent","relevant_dimensions":["antennae","pattern"],"bee_group":{"antennae":"A","wings":"X","pattern":"D","legs":"X"},"action":"harvest","summary":"good-harvest","bonus":1.4400000000000008},{"rt":1022.2999999988824,"stimulus":"\n                    <p><b>Action: <em>harvest</em></b></p>\n                    <p>This is the bee that you just saw.</p>\n                    <img src=\"bees-with-color/bee-B2SF.svg\" width=\"200\">\n                    <p><span class=\"greenText\"><b>Successful harvest!</b></span><br>Your pay has increased by $0.02. Your bonus pay is now $0.64.</p>\n            ","response":0,"trial_type":"html-button-response","trial_index":36,"time_elapsed":439778,"internal_node_id":"0.0-4.0-1.14","subject_id":"6138fc6df08e00e96682f9ee","study_id":"6197b3f67c2b5cd3b6d9596a","session_id":"619beeeb245ad97b723e6c6e","condition":"contingent","relevant_dimensions":["antennae","pattern"],"bee_group":{"antennae":"A","wings":"X","pattern":"D","legs":"X"},"bonus":1.4400000000000008},{"rt":15051.900000000373,"stimulus":"bees-with-color/bee-A2DF.svg","response":1,"trial_type":"image-button-response","trial_index":37,"time_elapsed":454832,"internal_node_id":"0.0-4.0-0.15","subject_id":"6138fc6df08e00e96682f9ee","study_id":"6197b3f67c2b5cd3b6d9596a","session_id":"619beeeb245ad97b723e6c6e","condition":"contingent","relevant_dimensions":["antennae","pattern"],"bee_group":{"antennae":"A","wings":"X","pattern":"D","legs":"X"},"action":"avoid","summary":"good-avoid","bonus":1.4400000000000008},{"rt":1528.6000000014901,"stimulus":"\n                    <p><b>Action: <em>avoid</em></b></p>\n                    <p>This is the bee that you just saw.</p>\n                    <img src=\"bees-with-color/bee-A2DF.svg\" width=\"200\">\n                    <p><br>Your bonus pay is unchanged, and remains at $0.64.</p>\n            ","response":0,"trial_type":"html-button-response","trial_index":38,"time_elapsed":456361,"internal_node_id":"0.0-4.0-1.15","subject_id":"6138fc6df08e00e96682f9ee","study_id":"6197b3f67c2b5cd3b6d9596a","session_id":"619beeeb245ad97b723e6c6e","condition":"contingent","relevant_dimensions":["antennae","pattern"],"bee_group":{"antennae":"A","wings":"X","pattern":"D","legs":"X"},"bonus":1.4400000000000008},{"rt":1978.800000000745,"stimulus":"bees-with-color/bee-A2SF.svg","response":0,"trial_type":"image-button-response","trial_index":39,"time_elapsed":458342,"internal_node_id":"0.0-4.0-0.16","subject_id":"6138fc6df08e00e96682f9ee","study_id":"6197b3f67c2b5cd3b6d9596a","session_id":"619beeeb245ad97b723e6c6e","condition":"contingent","relevant_dimensions":["antennae","pattern"],"bee_group":{"antennae":"A","wings":"X","pattern":"D","legs":"X"},"action":"harvest","summary":"good-harvest","bonus":1.4400000000000008},{"rt":909.8999999985099,"stimulus":"\n                    <p><b>Action: <em>harvest</em></b></p>\n                    <p>This is the bee that you just saw.</p>\n                    <img src=\"bees-with-color/bee-A2SF.svg\" width=\"200\">\n                    <p><span class=\"greenText\"><b>Successful harvest!</b></span><br>Your pay has increased by $0.02. Your bonus pay is now $0.66.</p>\n            ","response":0,"trial_type":"html-button-response","trial_index":40,"time_elapsed":459253,"internal_node_id":"0.0-4.0-1.16","subject_id":"6138fc6df08e00e96682f9ee","study_id":"6197b3f67c2b5cd3b6d9596a","session_id":"619beeeb245ad97b723e6c6e","condition":"contingent","relevant_dimensions":["antennae","pattern"],"bee_group":{"antennae":"A","wings":"X","pattern":"D","legs":"X"},"bonus":1.4400000000000008},{"rt":2451.300000000745,"stimulus":"bees-with-color/bee-A2SM.svg","response":0,"trial_type":"image-button-response","trial_index":41,"time_elapsed":461705,"internal_node_id":"0.0-4.0-0.17","subject_id":"6138fc6df08e00e96682f9ee","study_id":"6197b3f67c2b5cd3b6d9596a","session_id":"619beeeb245ad97b723e6c6e","condition":"contingent","relevant_dimensions":["antennae","pattern"],"bee_group":{"antennae":"A","wings":"X","pattern":"D","legs":"X"},"action":"harvest","summary":"good-harvest","bonus":1.4400000000000008},{"rt":752.5,"stimulus":"\n                    <p><b>Action: <em>harvest</em></b></p>\n                    <p>This is the bee that you just saw.</p>\n                    <img src=\"bees-with-color/bee-A2SM.svg\" width=\"200\">\n                    <p><span class=\"greenText\"><b>Successful harvest!</b></span><br>Your pay has increased by $0.02. Your bonus pay is now $0.68.</p>\n            ","response":0,"trial_type":"html-button-response","trial_index":42,"time_elapsed":462459,"internal_node_id":"0.0-4.0-1.17","subject_id":"6138fc6df08e00e96682f9ee","study_id":"6197b3f67c2b5cd3b6d9596a","session_id":"619beeeb245ad97b723e6c6e","condition":"contingent","relevant_dimensions":["antennae","pattern"],"bee_group":{"antennae":"A","wings":"X","pattern":"D","legs":"X"},"bonus":1.4400000000000008},{"rt":1280.800000000745,"stimulus":"bees-with-color/bee-B2DM.svg","response":1,"trial_type":"image-button-response","trial_index":43,"time_elapsed":463742,"internal_node_id":"0.0-4.0-0.18","subject_id":"6138fc6df08e00e96682f9ee","study_id":"6197b3f67c2b5cd3b6d9596a","session_id":"619beeeb245ad97b723e6c6e","condition":"contingent","relevant_dimensions":["antennae","pattern"],"bee_group":{"antennae":"A","wings":"X","pattern":"D","legs":"X"},"action":"avoid","summary":"bad-avoid","bonus":1.4400000000000008},{"rt":831.3999999985099,"stimulus":"\n                    <p><b>Action: <em>avoid</em></b></p>\n                    <p>This is the bee that you just saw.</p>\n                    <img src=\"bees-with-color/bee-B2DM.svg\" width=\"200\">\n                    <p><br>Your bonus pay is unchanged, and remains at $0.68.</p>\n            ","response":0,"trial_type":"html-button-response","trial_index":44,"time_elapsed":464574,"internal_node_id":"0.0-4.0-1.18","subject_id":"6138fc6df08e00e96682f9ee","study_id":"6197b3f67c2b5cd3b6d9596a","session_id":"619beeeb245ad97b723e6c6e","condition":"contingent","relevant_dimensions":["antennae","pattern"],"bee_group":{"antennae":"A","wings":"X","pattern":"D","legs":"X"},"bonus":1.4400000000000008},{"rt":1281.0999999996275,"stimulus":"bees-with-color/bee-B2SM.svg","response":0,"trial_type":"image-button-response","trial_index":45,"time_elapsed":465857,"internal_node_id":"0.0-4.0-0.19","subject_id":"6138fc6df08e00e96682f9ee","study_id":"6197b3f67c2b5cd3b6d9596a","session_id":"619beeeb245ad97b723e6c6e","condition":"contingent","relevant_dimensions":["antennae","pattern"],"bee_group":{"antennae":"A","wings":"X","pattern":"D","legs":"X"},"action":"harvest","summary":"good-harvest","bonus":1.4400000000000008},{"rt":820,"stimulus":"\n                    <p><b>Action: <em>harvest</em></b></p>\n                    <p>This is the bee that you just saw.</p>\n                    <img src=\"bees-with-color/bee-B2SM.svg\" width=\"200\">\n                    <p><span class=\"greenText\"><b>Successful harvest!</b></span><br>Your pay has increased by $0.02. Your bonus pay is now $0.70.</p>\n            ","response":0,"trial_type":"html-button-response","trial_index":46,"time_elapsed":466678,"internal_node_id":"0.0-4.0-1.19","subject_id":"6138fc6df08e00e96682f9ee","study_id":"6197b3f67c2b5cd3b6d9596a","session_id":"619beeeb245ad97b723e6c6e","condition":"contingent","relevant_dimensions":["antennae","pattern"],"bee_group":{"antennae":"A","wings":"X","pattern":"D","legs":"X"},"bonus":1.4400000000000008},{"rt":4093.5999999996275,"stimulus":"bees-with-color/bee-A1DF.svg","response":1,"trial_type":"image-button-response","trial_index":47,"time_elapsed":470773,"internal_node_id":"0.0-4.0-0.20","subject_id":"6138fc6df08e00e96682f9ee","study_id":"6197b3f67c2b5cd3b6d9596a","session_id":"619beeeb245ad97b723e6c6e","condition":"contingent","relevant_dimensions":["antennae","pattern"],"bee_group":{"antennae":"A","wings":"X","pattern":"D","legs":"X"},"action":"avoid","summary":"good-avoid","bonus":1.4400000000000008},{"rt":1224.9000000003725,"stimulus":"\n                    <p><b>Action: <em>avoid</em></b></p>\n                    <p>This is the bee that you just saw.</p>\n                    <img src=\"bees-with-color/bee-A1DF.svg\" width=\"200\">\n                    <p><br>Your bonus pay is unchanged, and remains at $0.70.</p>\n            ","response":0,"trial_type":"html-button-response","trial_index":48,"time_elapsed":472000,"internal_node_id":"0.0-4.0-1.20","subject_id":"6138fc6df08e00e96682f9ee","study_id":"6197b3f67c2b5cd3b6d9596a","session_id":"619beeeb245ad97b723e6c6e","condition":"contingent","relevant_dimensions":["antennae","pattern"],"bee_group":{"antennae":"A","wings":"X","pattern":"D","legs":"X"},"bonus":1.4400000000000008},{"rt":2113.5,"stimulus":"bees-with-color/bee-B2SF.svg","response":0,"trial_type":"image-button-response","trial_index":49,"time_elapsed":474115,"internal_node_id":"0.0-4.0-0.21","subject_id":"6138fc6df08e00e96682f9ee","study_id":"6197b3f67c2b5cd3b6d9596a","session_id":"619beeeb245ad97b723e6c6e","condition":"contingent","relevant_dimensions":["antennae","pattern"],"bee_group":{"antennae":"A","wings":"X","pattern":"D","legs":"X"},"action":"harvest","summary":"good-harvest","bonus":1.4400000000000008},{"rt":921,"stimulus":"\n                    <p><b>Action: <em>harvest</em></b></p>\n                    <p>This is the bee that you just saw.</p>\n                    <img src=\"bees-with-color/bee-B2SF.svg\" width=\"200\">\n                    <p><span class=\"greenText\"><b>Successful harvest!</b></span><br>Your pay has increased by $0.02. Your bonus pay is now $0.72.</p>\n            ","response":0,"trial_type":"html-button-response","trial_index":50,"time_elapsed":475037,"internal_node_id":"0.0-4.0-1.21","subject_id":"6138fc6df08e00e96682f9ee","study_id":"6197b3f67c2b5cd3b6d9596a","session_id":"619beeeb245ad97b723e6c6e","condition":"contingent","relevant_dimensions":["antennae","pattern"],"bee_group":{"antennae":"A","wings":"X","pattern":"D","legs":"X"},"bonus":1.4400000000000008},{"rt":3789.800000000745,"stimulus":"bees-with-color/bee-A1DM.svg","response":1,"trial_type":"image-button-response","trial_index":51,"time_elapsed":478829,"internal_node_id":"0.0-4.0-0.22","subject_id":"6138fc6df08e00e96682f9ee","study_id":"6197b3f67c2b5cd3b6d9596a","session_id":"619beeeb245ad97b723e6c6e","condition":"contingent","relevant_dimensions":["antennae","pattern"],"bee_group":{"antennae":"A","wings":"X","pattern":"D","legs":"X"},"action":"avoid","summary":"good-avoid","bonus":1.4400000000000008},{"rt":2067.7000000011176,"stimulus":"\n                    <p><b>Action: <em>avoid</em></b></p>\n                    <p>This is the bee that you just saw.</p>\n                    <img src=\"bees-with-color/bee-A1DM.svg\" width=\"200\">\n                    <p><br>Your bonus pay is unchanged, and remains at $0.72.</p>\n            ","response":0,"trial_type":"html-button-response","trial_index":52,"time_elapsed":480899,"internal_node_id":"0.0-4.0-1.22","subject_id":"6138fc6df08e00e96682f9ee","study_id":"6197b3f67c2b5cd3b6d9596a","session_id":"619beeeb245ad97b723e6c6e","condition":"contingent","relevant_dimensions":["antennae","pattern"],"bee_group":{"antennae":"A","wings":"X","pattern":"D","legs":"X"},"bonus":1.4400000000000008},{"rt":1056,"stimulus":"bees-with-color/bee-B1DM.svg","response":1,"trial_type":"image-button-response","trial_index":53,"time_elapsed":481956,"internal_node_id":"0.0-4.0-0.23","subject_id":"6138fc6df08e00e96682f9ee","study_id":"6197b3f67c2b5cd3b6d9596a","session_id":"619beeeb245ad97b723e6c6e","condition":"contingent","relevant_dimensions":["antennae","pattern"],"bee_group":{"antennae":"A","wings":"X","pattern":"D","legs":"X"},"action":"avoid","summary":"bad-avoid","bonus":1.4400000000000008},{"rt":876.5,"stimulus":"\n                    <p><b>Action: <em>avoid</em></b></p>\n                    <p>This is the bee that you just saw.</p>\n                    <img src=\"bees-with-color/bee-B1DM.svg\" width=\"200\">\n                    <p><br>Your bonus pay is unchanged, and remains at $0.72.</p>\n            ","response":0,"trial_type":"html-button-response","trial_index":54,"time_elapsed":482834,"internal_node_id":"0.0-4.0-1.23","subject_id":"6138fc6df08e00e96682f9ee","study_id":"6197b3f67c2b5cd3b6d9596a","session_id":"619beeeb245ad97b723e6c6e","condition":"contingent","relevant_dimensions":["antennae","pattern"],"bee_group":{"antennae":"A","wings":"X","pattern":"D","legs":"X"},"bonus":1.4400000000000008},{"rt":865.0999999996275,"stimulus":"bees-with-color/bee-A2DM.svg","response":1,"trial_type":"image-button-response","trial_index":55,"time_elapsed":483700,"internal_node_id":"0.0-4.0-0.24","subject_id":"6138fc6df08e00e96682f9ee","study_id":"6197b3f67c2b5cd3b6d9596a","session_id":"619beeeb245ad97b723e6c6e","condition":"contingent","relevant_dimensions":["antennae","pattern"],"bee_group":{"antennae":"A","wings":"X","pattern":"D","legs":"X"},"action":"avoid","summary":"good-avoid","bonus":1.4400000000000008},{"rt":583.9000000003725,"stimulus":"\n                    <p><b>Action: <em>avoid</em></b></p>\n                    <p>This is the bee that you just saw.</p>\n                    <img src=\"bees-with-color/bee-A2DM.svg\" width=\"200\">\n                    <p><br>Your bonus pay is unchanged, and remains at $0.72.</p>\n            ","response":0,"trial_type":"html-button-response","trial_index":56,"time_elapsed":484285,"internal_node_id":"0.0-4.0-1.24","subject_id":"6138fc6df08e00e96682f9ee","study_id":"6197b3f67c2b5cd3b6d9596a","session_id":"619beeeb245ad97b723e6c6e","condition":"contingent","relevant_dimensions":["antennae","pattern"],"bee_group":{"antennae":"A","wings":"X","pattern":"D","legs":"X"},"bonus":1.4400000000000008},{"rt":1236.699999999255,"stimulus":"bees-with-color/bee-A2DF.svg","response":1,"trial_type":"image-button-response","trial_index":57,"time_elapsed":485523,"internal_node_id":"0.0-4.0-0.25","subject_id":"6138fc6df08e00e96682f9ee","study_id":"6197b3f67c2b5cd3b6d9596a","session_id":"619beeeb245ad97b723e6c6e","condition":"contingent","relevant_dimensions":["antennae","pattern"],"bee_group":{"antennae":"A","wings":"X","pattern":"D","legs":"X"},"action":"avoid","summary":"good-avoid","bonus":1.4400000000000008},{"rt":550.2000000011176,"stimulus":"\n                    <p><b>Action: <em>avoid</em></b></p>\n                    <p>This is the bee that you just saw.</p>\n                    <img src=\"bees-with-color/bee-A2DF.svg\" width=\"200\">\n                    <p><br>Your bonus pay is unchanged, and remains at $0.72.</p>\n            ","response":0,"trial_type":"html-button-response","trial_index":58,"time_elapsed":486074,"internal_node_id":"0.0-4.0-1.25","subject_id":"6138fc6df08e00e96682f9ee","study_id":"6197b3f67c2b5cd3b6d9596a","session_id":"619beeeb245ad97b723e6c6e","condition":"contingent","relevant_dimensions":["antennae","pattern"],"bee_group":{"antennae":"A","wings":"X","pattern":"D","legs":"X"},"bonus":1.4400000000000008},{"rt":955.4000000003725,"stimulus":"bees-with-color/bee-B1SF.svg","response":0,"trial_type":"image-button-response","trial_index":59,"time_elapsed":487030,"internal_node_id":"0.0-4.0-0.26","subject_id":"6138fc6df08e00e96682f9ee","study_id":"6197b3f67c2b5cd3b6d9596a","session_id":"619beeeb245ad97b723e6c6e","condition":"contingent","relevant_dimensions":["antennae","pattern"],"bee_group":{"antennae":"A","wings":"X","pattern":"D","legs":"X"},"action":"harvest","summary":"good-harvest","bonus":1.4400000000000008},{"rt":752.3999999985099,"stimulus":"\n                    <p><b>Action: <em>harvest</em></b></p>\n                    <p>This is the bee that you just saw.</p>\n                    <img src=\"bees-with-color/bee-B1SF.svg\" width=\"200\">\n                    <p><span class=\"greenText\"><b>Successful harvest!</b></span><br>Your pay has increased by $0.02. Your bonus pay is now $0.74.</p>\n            ","response":0,"trial_type":"html-button-response","trial_index":60,"time_elapsed":487784,"internal_node_id":"0.0-4.0-1.26","subject_id":"6138fc6df08e00e96682f9ee","study_id":"6197b3f67c2b5cd3b6d9596a","session_id":"619beeeb245ad97b723e6c6e","condition":"contingent","relevant_dimensions":["antennae","pattern"],"bee_group":{"antennae":"A","wings":"X","pattern":"D","legs":"X"},"bonus":1.4400000000000008},{"rt":1888.9000000003725,"stimulus":"bees-with-color/bee-B2DF.svg","response":1,"trial_type":"image-button-response","trial_index":61,"time_elapsed":489674,"internal_node_id":"0.0-4.0-0.27","subject_id":"6138fc6df08e00e96682f9ee","study_id":"6197b3f67c2b5cd3b6d9596a","session_id":"619beeeb245ad97b723e6c6e","condition":"contingent","relevant_dimensions":["antennae","pattern"],"bee_group":{"antennae":"A","wings":"X","pattern":"D","legs":"X"},"action":"avoid","summary":"bad-avoid","bonus":1.4400000000000008},{"rt":741.0999999996275,"stimulus":"\n                    <p><b>Action: <em>avoid</em></b></p>\n                    <p>This is the bee that you just saw.</p>\n                    <img src=\"bees-with-color/bee-B2DF.svg\" width=\"200\">\n                    <p><br>Your bonus pay is unchanged, and remains at $0.74.</p>\n            ","response":0,"trial_type":"html-button-response","trial_index":62,"time_elapsed":490416,"internal_node_id":"0.0-4.0-1.27","subject_id":"6138fc6df08e00e96682f9ee","study_id":"6197b3f67c2b5cd3b6d9596a","session_id":"619beeeb245ad97b723e6c6e","condition":"contingent","relevant_dimensions":["antennae","pattern"],"bee_group":{"antennae":"A","wings":"X","pattern":"D","legs":"X"},"bonus":1.4400000000000008},{"rt":3014,"stimulus":"bees-with-color/bee-A1SF.svg","response":0,"trial_type":"image-button-response","trial_index":63,"time_elapsed":493432,"internal_node_id":"0.0-4.0-0.28","subject_id":"6138fc6df08e00e96682f9ee","study_id":"6197b3f67c2b5cd3b6d9596a","session_id":"619beeeb245ad97b723e6c6e","condition":"contingent","relevant_dimensions":["antennae","pattern"],"bee_group":{"antennae":"A","wings":"X","pattern":"D","legs":"X"},"action":"harvest","summary":"good-harvest","bonus":1.4400000000000008},{"rt":831.1999999992549,"stimulus":"\n                    <p><b>Action: <em>harvest</em></b></p>\n                    <p>This is the bee that you just saw.</p>\n                    <img src=\"bees-with-color/bee-A1SF.svg\" width=\"200\">\n                    <p><span class=\"greenText\"><b>Successful harvest!</b></span><br>Your pay has increased by $0.02. Your bonus pay is now $0.76.</p>\n            ","response":0,"trial_type":"html-button-response","trial_index":64,"time_elapsed":494264,"internal_node_id":"0.0-4.0-1.28","subject_id":"6138fc6df08e00e96682f9ee","study_id":"6197b3f67c2b5cd3b6d9596a","session_id":"619beeeb245ad97b723e6c6e","condition":"contingent","relevant_dimensions":["antennae","pattern"],"bee_group":{"antennae":"A","wings":"X","pattern":"D","legs":"X"},"bonus":1.4400000000000008},{"rt":1067.5999999996275,"stimulus":"bees-with-color/bee-B1DF.svg","response":1,"trial_type":"image-button-response","trial_index":65,"time_elapsed":495333,"internal_node_id":"0.0-4.0-0.29","subject_id":"6138fc6df08e00e96682f9ee","study_id":"6197b3f67c2b5cd3b6d9596a","session_id":"619beeeb245ad97b723e6c6e","condition":"contingent","relevant_dimensions":["antennae","pattern"],"bee_group":{"antennae":"A","wings":"X","pattern":"D","legs":"X"},"action":"avoid","summary":"bad-avoid","bonus":1.4400000000000008},{"rt":741.1999999992549,"stimulus":"\n                    <p><b>Action: <em>avoid</em></b></p>\n                    <p>This is the bee that you just saw.</p>\n                    <img src=\"bees-with-color/bee-B1DF.svg\" width=\"200\">\n                    <p><br>Your bonus pay is unchanged, and remains at $0.76.</p>\n            ","response":0,"trial_type":"html-button-response","trial_index":66,"time_elapsed":496075,"internal_node_id":"0.0-4.0-1.29","subject_id":"6138fc6df08e00e96682f9ee","study_id":"6197b3f67c2b5cd3b6d9596a","session_id":"619beeeb245ad97b723e6c6e","condition":"contingent","relevant_dimensions":["antennae","pattern"],"bee_group":{"antennae":"A","wings":"X","pattern":"D","legs":"X"},"bonus":1.4400000000000008},{"rt":820.5,"stimulus":"bees-with-color/bee-B1SM.svg","response":0,"trial_type":"image-button-response","trial_index":67,"time_elapsed":496897,"internal_node_id":"0.0-4.0-0.30","subject_id":"6138fc6df08e00e96682f9ee","study_id":"6197b3f67c2b5cd3b6d9596a","session_id":"619beeeb245ad97b723e6c6e","condition":"contingent","relevant_dimensions":["antennae","pattern"],"bee_group":{"antennae":"A","wings":"X","pattern":"D","legs":"X"},"action":"harvest","summary":"good-harvest","bonus":1.4400000000000008},{"rt":752.2000000011176,"stimulus":"\n                    <p><b>Action: <em>harvest</em></b></p>\n                    <p>This is the bee that you just saw.</p>\n                    <img src=\"bees-with-color/bee-B1SM.svg\" width=\"200\">\n                    <p><span class=\"greenText\"><b>Successful harvest!</b></span><br>Your pay has increased by $0.02. Your bonus pay is now $0.78.</p>\n            ","response":0,"trial_type":"html-button-response","trial_index":68,"time_elapsed":497650,"internal_node_id":"0.0-4.0-1.30","subject_id":"6138fc6df08e00e96682f9ee","study_id":"6197b3f67c2b5cd3b6d9596a","session_id":"619beeeb245ad97b723e6c6e","condition":"contingent","relevant_dimensions":["antennae","pattern"],"bee_group":{"antennae":"A","wings":"X","pattern":"D","legs":"X"},"bonus":1.4400000000000008},{"rt":1157.5999999996275,"stimulus":"bees-with-color/bee-A1SM.svg","response":0,"trial_type":"image-button-response","trial_index":69,"time_elapsed":498809,"internal_node_id":"0.0-4.0-0.31","subject_id":"6138fc6df08e00e96682f9ee","study_id":"6197b3f67c2b5cd3b6d9596a","session_id":"619beeeb245ad97b723e6c6e","condition":"contingent","relevant_dimensions":["antennae","pattern"],"bee_group":{"antennae":"A","wings":"X","pattern":"D","legs":"X"},"action":"harvest","summary":"good-harvest","bonus":1.4400000000000008},{"rt":752.6999999992549,"stimulus":"\n                    <p><b>Action: <em>harvest</em></b></p>\n                    <p>This is the bee that you just saw.</p>\n                    <img src=\"bees-with-color/bee-A1SM.svg\" width=\"200\">\n                    <p><span class=\"greenText\"><b>Successful harvest!</b></span><br>Your pay has increased by $0.02. Your bonus pay is now $0.80.</p>\n            ","response":0,"trial_type":"html-button-response","trial_index":70,"time_elapsed":499563,"internal_node_id":"0.0-4.0-1.31","subject_id":"6138fc6df08e00e96682f9ee","study_id":"6197b3f67c2b5cd3b6d9596a","session_id":"619beeeb245ad97b723e6c6e","condition":"contingent","relevant_dimensions":["antennae","pattern"],"bee_group":{"antennae":"A","wings":"X","pattern":"D","legs":"X"},"bonus":1.4400000000000008},{"rt":1314.699999999255,"stimulus":"bees-with-color/bee-B2DM.svg","response":1,"trial_type":"image-button-response","trial_index":71,"time_elapsed":500879,"internal_node_id":"0.0-4.0-0.32","subject_id":"6138fc6df08e00e96682f9ee","study_id":"6197b3f67c2b5cd3b6d9596a","session_id":"619beeeb245ad97b723e6c6e","condition":"contingent","relevant_dimensions":["antennae","pattern"],"bee_group":{"antennae":"A","wings":"X","pattern":"D","legs":"X"},"action":"avoid","summary":"bad-avoid","bonus":1.4400000000000008},{"rt":662.5999999996275,"stimulus":"\n                    <p><b>Action: <em>avoid</em></b></p>\n                    <p>This is the bee that you just saw.</p>\n                    <img src=\"bees-with-color/bee-B2DM.svg\" width=\"200\">\n                    <p><br>Your bonus pay is unchanged, and remains at $0.80.</p>\n            ","response":0,"trial_type":"html-button-response","trial_index":72,"time_elapsed":501543,"internal_node_id":"0.0-4.0-1.32","subject_id":"6138fc6df08e00e96682f9ee","study_id":"6197b3f67c2b5cd3b6d9596a","session_id":"619beeeb245ad97b723e6c6e","condition":"contingent","relevant_dimensions":["antennae","pattern"],"bee_group":{"antennae":"A","wings":"X","pattern":"D","legs":"X"},"bonus":1.4400000000000008},{"rt":1078.5,"stimulus":"bees-with-color/bee-B1DM.svg","response":1,"trial_type":"image-button-response","trial_index":73,"time_elapsed":502623,"internal_node_id":"0.0-4.0-0.33","subject_id":"6138fc6df08e00e96682f9ee","study_id":"6197b3f67c2b5cd3b6d9596a","session_id":"619beeeb245ad97b723e6c6e","condition":"contingent","relevant_dimensions":["antennae","pattern"],"bee_group":{"antennae":"A","wings":"X","pattern":"D","legs":"X"},"action":"avoid","summary":"bad-avoid","bonus":1.4400000000000008},{"rt":684.9000000003725,"stimulus":"\n                    <p><b>Action: <em>avoid</em></b></p>\n                    <p>This is the bee that you just saw.</p>\n                    <img src=\"bees-with-color/bee-B1DM.svg\" width=\"200\">\n                    <p><br>Your bonus pay is unchanged, and remains at $0.80.</p>\n            ","response":0,"trial_type":"html-button-response","trial_index":74,"time_elapsed":503309,"internal_node_id":"0.0-4.0-1.33","subject_id":"6138fc6df08e00e96682f9ee","study_id":"6197b3f67c2b5cd3b6d9596a","session_id":"619beeeb245ad97b723e6c6e","condition":"contingent","relevant_dimensions":["antennae","pattern"],"bee_group":{"antennae":"A","wings":"X","pattern":"D","legs":"X"},"bonus":1.4400000000000008},{"rt":977.7000000011176,"stimulus":"bees-with-color/bee-A2DM.svg","response":1,"trial_type":"image-button-response","trial_index":75,"time_elapsed":504289,"internal_node_id":"0.0-4.0-0.34","subject_id":"6138fc6df08e00e96682f9ee","study_id":"6197b3f67c2b5cd3b6d9596a","session_id":"619beeeb245ad97b723e6c6e","condition":"contingent","relevant_dimensions":["antennae","pattern"],"bee_group":{"antennae":"A","wings":"X","pattern":"D","legs":"X"},"action":"avoid","summary":"good-avoid","bonus":1.4400000000000008},{"rt":706.9000000003725,"stimulus":"\n                    <p><b>Action: <em>avoid</em></b></p>\n                    <p>This is the bee that you just saw.</p>\n                    <img src=\"bees-with-color/bee-A2DM.svg\" width=\"200\">\n                    <p><br>Your bonus pay is unchanged, and remains at $0.80.</p>\n            ","response":0,"trial_type":"html-button-response","trial_index":76,"time_elapsed":504997,"internal_node_id":"0.0-4.0-1.34","subject_id":"6138fc6df08e00e96682f9ee","study_id":"6197b3f67c2b5cd3b6d9596a","session_id":"619beeeb245ad97b723e6c6e","condition":"contingent","relevant_dimensions":["antennae","pattern"],"bee_group":{"antennae":"A","wings":"X","pattern":"D","legs":"X"},"bonus":1.4400000000000008},{"rt":1494.9000000003725,"stimulus":"bees-with-color/bee-A1DF.svg","response":1,"trial_type":"image-button-response","trial_index":77,"time_elapsed":506493,"internal_node_id":"0.0-4.0-0.35","subject_id":"6138fc6df08e00e96682f9ee","study_id":"6197b3f67c2b5cd3b6d9596a","session_id":"619beeeb245ad97b723e6c6e","condition":"contingent","relevant_dimensions":["antennae","pattern"],"bee_group":{"antennae":"A","wings":"X","pattern":"D","legs":"X"},"action":"avoid","summary":"good-avoid","bonus":1.4400000000000008},{"rt":527.0999999996275,"stimulus":"\n                    <p><b>Action: <em>avoid</em></b></p>\n                    <p>This is the bee that you just saw.</p>\n                    <img src=\"bees-with-color/bee-A1DF.svg\" width=\"200\">\n                    <p><br>Your bonus pay is unchanged, and remains at $0.80.</p>\n            ","response":0,"trial_type":"html-button-response","trial_index":78,"time_elapsed":507022,"internal_node_id":"0.0-4.0-1.35","subject_id":"6138fc6df08e00e96682f9ee","study_id":"6197b3f67c2b5cd3b6d9596a","session_id":"619beeeb245ad97b723e6c6e","condition":"contingent","relevant_dimensions":["antennae","pattern"],"bee_group":{"antennae":"A","wings":"X","pattern":"D","legs":"X"},"bonus":1.4400000000000008},{"rt":989.2000000011176,"stimulus":"bees-with-color/bee-A2SM.svg","response":0,"trial_type":"image-button-response","trial_index":79,"time_elapsed":508013,"internal_node_id":"0.0-4.0-0.36","subject_id":"6138fc6df08e00e96682f9ee","study_id":"6197b3f67c2b5cd3b6d9596a","session_id":"619beeeb245ad97b723e6c6e","condition":"contingent","relevant_dimensions":["antennae","pattern"],"bee_group":{"antennae":"A","wings":"X","pattern":"D","legs":"X"},"action":"harvest","summary":"good-harvest","bonus":1.4400000000000008},{"rt":1404.199999999255,"stimulus":"\n                    <p><b>Action: <em>harvest</em></b></p>\n                    <p>This is the bee that you just saw.</p>\n                    <img src=\"bees-with-color/bee-A2SM.svg\" width=\"200\">\n                    <p><span class=\"greenText\"><b>Successful harvest!</b></span><br>Your pay has increased by $0.02. Your bonus pay is now $0.82.</p>\n            ","response":0,"trial_type":"html-button-response","trial_index":80,"time_elapsed":509418,"internal_node_id":"0.0-4.0-1.36","subject_id":"6138fc6df08e00e96682f9ee","study_id":"6197b3f67c2b5cd3b6d9596a","session_id":"619beeeb245ad97b723e6c6e","condition":"contingent","relevant_dimensions":["antennae","pattern"],"bee_group":{"antennae":"A","wings":"X","pattern":"D","legs":"X"},"bonus":1.4400000000000008},{"rt":831.1999999992549,"stimulus":"bees-with-color/bee-A2SF.svg","response":0,"trial_type":"image-button-response","trial_index":81,"time_elapsed":510251,"internal_node_id":"0.0-4.0-0.37","subject_id":"6138fc6df08e00e96682f9ee","study_id":"6197b3f67c2b5cd3b6d9596a","session_id":"619beeeb245ad97b723e6c6e","condition":"contingent","relevant_dimensions":["antennae","pattern"],"bee_group":{"antennae":"A","wings":"X","pattern":"D","legs":"X"},"action":"harvest","summary":"good-harvest","bonus":1.4400000000000008},{"rt":774.5,"stimulus":"\n                    <p><b>Action: <em>harvest</em></b></p>\n                    <p>This is the bee that you just saw.</p>\n                    <img src=\"bees-with-color/bee-A2SF.svg\" width=\"200\">\n                    <p><span class=\"greenText\"><b>Successful harvest!</b></span><br>Your pay has increased by $0.02. Your bonus pay is now $0.84.</p>\n            ","response":0,"trial_type":"html-button-response","trial_index":82,"time_elapsed":511027,"internal_node_id":"0.0-4.0-1.37","subject_id":"6138fc6df08e00e96682f9ee","study_id":"6197b3f67c2b5cd3b6d9596a","session_id":"619beeeb245ad97b723e6c6e","condition":"contingent","relevant_dimensions":["antennae","pattern"],"bee_group":{"antennae":"A","wings":"X","pattern":"D","legs":"X"},"bonus":1.4400000000000008},{"rt":842.9000000003725,"stimulus":"bees-with-color/bee-B2SF.svg","response":0,"trial_type":"image-button-response","trial_index":83,"time_elapsed":511871,"internal_node_id":"0.0-4.0-0.38","subject_id":"6138fc6df08e00e96682f9ee","study_id":"6197b3f67c2b5cd3b6d9596a","session_id":"619beeeb245ad97b723e6c6e","condition":"contingent","relevant_dimensions":["antennae","pattern"],"bee_group":{"antennae":"A","wings":"X","pattern":"D","legs":"X"},"action":"harvest","summary":"good-harvest","bonus":1.4400000000000008},{"rt":1337.5,"stimulus":"\n                    <p><b>Action: <em>harvest</em></b></p>\n                    <p>This is the bee that you just saw.</p>\n                    <img src=\"bees-with-color/bee-B2SF.svg\" width=\"200\">\n                    <p><span class=\"greenText\"><b>Successful harvest!</b></span><br>Your pay has increased by $0.02. Your bonus pay is now $0.86.</p>\n            ","response":0,"trial_type":"html-button-response","trial_index":84,"time_elapsed":513210,"internal_node_id":"0.0-4.0-1.38","subject_id":"6138fc6df08e00e96682f9ee","study_id":"6197b3f67c2b5cd3b6d9596a","session_id":"619beeeb245ad97b723e6c6e","condition":"contingent","relevant_dimensions":["antennae","pattern"],"bee_group":{"antennae":"A","wings":"X","pattern":"D","legs":"X"},"bonus":1.4400000000000008},{"rt":1360.5,"stimulus":"bees-with-color/bee-A1SM.svg","response":0,"trial_type":"image-button-response","trial_index":85,"time_elapsed":514571,"internal_node_id":"0.0-4.0-0.39","subject_id":"6138fc6df08e00e96682f9ee","study_id":"6197b3f67c2b5cd3b6d9596a","session_id":"619beeeb245ad97b723e6c6e","condition":"contingent","relevant_dimensions":["antennae","pattern"],"bee_group":{"antennae":"A","wings":"X","pattern":"D","legs":"X"},"action":"harvest","summary":"good-harvest","bonus":1.4400000000000008},{"rt":1079.0999999996275,"stimulus":"\n                    <p><b>Action: <em>harvest</em></b></p>\n                    <p>This is the bee that you just saw.</p>\n                    <img src=\"bees-with-color/bee-A1SM.svg\" width=\"200\">\n                    <p><span class=\"greenText\"><b>Successful harvest!</b></span><br>Your pay has increased by $0.02. Your bonus pay is now $0.88.</p>\n            ","response":0,"trial_type":"html-button-response","trial_index":86,"time_elapsed":515651,"internal_node_id":"0.0-4.0-1.39","subject_id":"6138fc6df08e00e96682f9ee","study_id":"6197b3f67c2b5cd3b6d9596a","session_id":"619beeeb245ad97b723e6c6e","condition":"contingent","relevant_dimensions":["antennae","pattern"],"bee_group":{"antennae":"A","wings":"X","pattern":"D","legs":"X"},"bonus":1.4400000000000008},{"rt":921.5,"stimulus":"bees-with-color/bee-A1SF.svg","response":0,"trial_type":"image-button-response","trial_index":87,"time_elapsed":516574,"internal_node_id":"0.0-4.0-0.40","subject_id":"6138fc6df08e00e96682f9ee","study_id":"6197b3f67c2b5cd3b6d9596a","session_id":"619beeeb245ad97b723e6c6e","condition":"contingent","relevant_dimensions":["antennae","pattern"],"bee_group":{"antennae":"A","wings":"X","pattern":"D","legs":"X"},"action":"harvest","summary":"good-harvest","bonus":1.4400000000000008},{"rt":1527.9000000003725,"stimulus":"\n                    <p><b>Action: <em>harvest</em></b></p>\n                    <p>This is the bee that you just saw.</p>\n                    <img src=\"bees-with-color/bee-A1SF.svg\" width=\"200\">\n                    <p><span class=\"greenText\"><b>Successful harvest!</b></span><br>Your pay has increased by $0.02. Your bonus pay is now $0.90.</p>\n            ","response":0,"trial_type":"html-button-response","trial_index":88,"time_elapsed":518104,"internal_node_id":"0.0-4.0-1.40","subject_id":"6138fc6df08e00e96682f9ee","study_id":"6197b3f67c2b5cd3b6d9596a","session_id":"619beeeb245ad97b723e6c6e","condition":"contingent","relevant_dimensions":["antennae","pattern"],"bee_group":{"antennae":"A","wings":"X","pattern":"D","legs":"X"},"bonus":1.4400000000000008},{"rt":865.0999999996275,"stimulus":"bees-with-color/bee-B1SF.svg","response":0,"trial_type":"image-button-response","trial_index":89,"time_elapsed":518970,"internal_node_id":"0.0-4.0-0.41","subject_id":"6138fc6df08e00e96682f9ee","study_id":"6197b3f67c2b5cd3b6d9596a","session_id":"619beeeb245ad97b723e6c6e","condition":"contingent","relevant_dimensions":["antennae","pattern"],"bee_group":{"antennae":"A","wings":"X","pattern":"D","legs":"X"},"action":"harvest","summary":"good-harvest","bonus":1.4400000000000008},{"rt":3216.699999999255,"stimulus":"\n                    <p><b>Action: <em>harvest</em></b></p>\n                    <p>This is the bee that you just saw.</p>\n                    <img src=\"bees-with-color/bee-B1SF.svg\" width=\"200\">\n                    <p><span class=\"greenText\"><b>Successful harvest!</b></span><br>Your pay has increased by $0.02. Your bonus pay is now $0.92.</p>\n            ","response":0,"trial_type":"html-button-response","trial_index":90,"time_elapsed":522188,"internal_node_id":"0.0-4.0-1.41","subject_id":"6138fc6df08e00e96682f9ee","study_id":"6197b3f67c2b5cd3b6d9596a","session_id":"619beeeb245ad97b723e6c6e","condition":"contingent","relevant_dimensions":["antennae","pattern"],"bee_group":{"antennae":"A","wings":"X","pattern":"D","legs":"X"},"bonus":1.4400000000000008},{"rt":853.7999999988824,"stimulus":"bees-with-color/bee-A1DM.svg","response":1,"trial_type":"image-button-response","trial_index":91,"time_elapsed":523043,"internal_node_id":"0.0-4.0-0.42","subject_id":"6138fc6df08e00e96682f9ee","study_id":"6197b3f67c2b5cd3b6d9596a","session_id":"619beeeb245ad97b723e6c6e","condition":"contingent","relevant_dimensions":["antennae","pattern"],"bee_group":{"antennae":"A","wings":"X","pattern":"D","legs":"X"},"action":"avoid","summary":"good-avoid","bonus":1.4400000000000008},{"rt":1000,"stimulus":"\n                    <p><b>Action: <em>avoid</em></b></p>\n                    <p>This is the bee that you just saw.</p>\n                    <img src=\"bees-with-color/bee-A1DM.svg\" width=\"200\">\n                    <p><br>Your bonus pay is unchanged, and remains at $0.92.</p>\n            ","response":0,"trial_type":"html-button-response","trial_index":92,"time_elapsed":524044,"internal_node_id":"0.0-4.0-1.42","subject_id":"6138fc6df08e00e96682f9ee","study_id":"6197b3f67c2b5cd3b6d9596a","session_id":"619beeeb245ad97b723e6c6e","condition":"contingent","relevant_dimensions":["antennae","pattern"],"bee_group":{"antennae":"A","wings":"X","pattern":"D","legs":"X"},"bonus":1.4400000000000008},{"rt":887.5999999996275,"stimulus":"bees-with-color/bee-B2SM.svg","response":0,"trial_type":"image-button-response","trial_index":93,"time_elapsed":524933,"internal_node_id":"0.0-4.0-0.43","subject_id":"6138fc6df08e00e96682f9ee","study_id":"6197b3f67c2b5cd3b6d9596a","session_id":"619beeeb245ad97b723e6c6e","condition":"contingent","relevant_dimensions":["antennae","pattern"],"bee_group":{"antennae":"A","wings":"X","pattern":"D","legs":"X"},"action":"harvest","summary":"good-harvest","bonus":1.4400000000000008},{"rt":831.2999999988824,"stimulus":"\n                    <p><b>Action: <em>harvest</em></b></p>\n                    <p>This is the bee that you just saw.</p>\n                    <img src=\"bees-with-color/bee-B2SM.svg\" width=\"200\">\n                    <p><span class=\"greenText\"><b>Successful harvest!</b></span><br>Your pay has increased by $0.02. Your bonus pay is now $0.94.</p>\n            ","response":0,"trial_type":"html-button-response","trial_index":94,"time_elapsed":525765,"internal_node_id":"0.0-4.0-1.43","subject_id":"6138fc6df08e00e96682f9ee","study_id":"6197b3f67c2b5cd3b6d9596a","session_id":"619beeeb245ad97b723e6c6e","condition":"contingent","relevant_dimensions":["antennae","pattern"],"bee_group":{"antennae":"A","wings":"X","pattern":"D","legs":"X"},"bonus":1.4400000000000008},{"rt":989,"stimulus":"bees-with-color/bee-A2DF.svg","response":1,"trial_type":"image-button-response","trial_index":95,"time_elapsed":526755,"internal_node_id":"0.0-4.0-0.44","subject_id":"6138fc6df08e00e96682f9ee","study_id":"6197b3f67c2b5cd3b6d9596a","session_id":"619beeeb245ad97b723e6c6e","condition":"contingent","relevant_dimensions":["antennae","pattern"],"bee_group":{"antennae":"A","wings":"X","pattern":"D","legs":"X"},"action":"avoid","summary":"good-avoid","bonus":1.4400000000000008},{"rt":786.2000000011176,"stimulus":"\n                    <p><b>Action: <em>avoid</em></b></p>\n                    <p>This is the bee that you just saw.</p>\n                    <img src=\"bees-with-color/bee-A2DF.svg\" width=\"200\">\n                    <p><br>Your bonus pay is unchanged, and remains at $0.94.</p>\n            ","response":0,"trial_type":"html-button-response","trial_index":96,"time_elapsed":527543,"internal_node_id":"0.0-4.0-1.44","subject_id":"6138fc6df08e00e96682f9ee","study_id":"6197b3f67c2b5cd3b6d9596a","session_id":"619beeeb245ad97b723e6c6e","condition":"contingent","relevant_dimensions":["antennae","pattern"],"bee_group":{"antennae":"A","wings":"X","pattern":"D","legs":"X"},"bonus":1.4400000000000008},{"rt":977.5999999996275,"stimulus":"bees-with-color/bee-B2DF.svg","response":1,"trial_type":"image-button-response","trial_index":97,"time_elapsed":528522,"internal_node_id":"0.0-4.0-0.45","subject_id":"6138fc6df08e00e96682f9ee","study_id":"6197b3f67c2b5cd3b6d9596a","session_id":"619beeeb245ad97b723e6c6e","condition":"contingent","relevant_dimensions":["antennae","pattern"],"bee_group":{"antennae":"A","wings":"X","pattern":"D","legs":"X"},"action":"avoid","summary":"bad-avoid","bonus":1.4400000000000008},{"rt":943.5,"stimulus":"\n                    <p><b>Action: <em>avoid</em></b></p>\n                    <p>This is the bee that you just saw.</p>\n                    <img src=\"bees-with-color/bee-B2DF.svg\" width=\"200\">\n                    <p><br>Your bonus pay is unchanged, and remains at $0.94.</p>\n            ","response":0,"trial_type":"html-button-response","trial_index":98,"time_elapsed":529467,"internal_node_id":"0.0-4.0-1.45","subject_id":"6138fc6df08e00e96682f9ee","study_id":"6197b3f67c2b5cd3b6d9596a","session_id":"619beeeb245ad97b723e6c6e","condition":"contingent","relevant_dimensions":["antennae","pattern"],"bee_group":{"antennae":"A","wings":"X","pattern":"D","legs":"X"},"bonus":1.4400000000000008},{"rt":1506.2999999988824,"stimulus":"bees-with-color/bee-B1DF.svg","response":1,"trial_type":"image-button-response","trial_index":99,"time_elapsed":530974,"internal_node_id":"0.0-4.0-0.46","subject_id":"6138fc6df08e00e96682f9ee","study_id":"6197b3f67c2b5cd3b6d9596a","session_id":"619beeeb245ad97b723e6c6e","condition":"contingent","relevant_dimensions":["antennae","pattern"],"bee_group":{"antennae":"A","wings":"X","pattern":"D","legs":"X"},"action":"avoid","summary":"bad-avoid","bonus":1.4400000000000008},{"rt":684.8000000007451,"stimulus":"\n                    <p><b>Action: <em>avoid</em></b></p>\n                    <p>This is the bee that you just saw.</p>\n                    <img src=\"bees-with-color/bee-B1DF.svg\" width=\"200\">\n                    <p><br>Your bonus pay is unchanged, and remains at $0.94.</p>\n            ","response":0,"trial_type":"html-button-response","trial_index":100,"time_elapsed":531661,"internal_node_id":"0.0-4.0-1.46","subject_id":"6138fc6df08e00e96682f9ee","study_id":"6197b3f67c2b5cd3b6d9596a","session_id":"619beeeb245ad97b723e6c6e","condition":"contingent","relevant_dimensions":["antennae","pattern"],"bee_group":{"antennae":"A","wings":"X","pattern":"D","legs":"X"},"bonus":1.4400000000000008},{"rt":14387.699999999255,"stimulus":"bees-with-color/bee-B1SM.svg","response":0,"trial_type":"image-button-response","trial_index":101,"time_elapsed":546050,"internal_node_id":"0.0-4.0-0.47","subject_id":"6138fc6df08e00e96682f9ee","study_id":"6197b3f67c2b5cd3b6d9596a","session_id":"619beeeb245ad97b723e6c6e","condition":"contingent","relevant_dimensions":["antennae","pattern"],"bee_group":{"antennae":"A","wings":"X","pattern":"D","legs":"X"},"action":"harvest","summary":"good-harvest","bonus":1.4400000000000008},{"rt":1213.699999999255,"stimulus":"\n                    <p><b>Action: <em>harvest</em></b></p>\n                    <p>This is the bee that you just saw.</p>\n                    <img src=\"bees-with-color/bee-B1SM.svg\" width=\"200\">\n                    <p><span class=\"greenText\"><b>Successful harvest!</b></span><br>Your pay has increased by $0.02. Your bonus pay is now $0.96.</p>\n            ","response":0,"trial_type":"html-button-response","trial_index":102,"time_elapsed":547265,"internal_node_id":"0.0-4.0-1.47","subject_id":"6138fc6df08e00e96682f9ee","study_id":"6197b3f67c2b5cd3b6d9596a","session_id":"619beeeb245ad97b723e6c6e","condition":"contingent","relevant_dimensions":["antennae","pattern"],"bee_group":{"antennae":"A","wings":"X","pattern":"D","legs":"X"},"bonus":1.4400000000000008},{"rt":3036,"stimulus":"bees-with-color/bee-A1SF.svg","response":0,"trial_type":"image-button-response","trial_index":103,"time_elapsed":550303,"internal_node_id":"0.0-4.0-0.48","subject_id":"6138fc6df08e00e96682f9ee","study_id":"6197b3f67c2b5cd3b6d9596a","session_id":"619beeeb245ad97b723e6c6e","condition":"contingent","relevant_dimensions":["antennae","pattern"],"bee_group":{"antennae":"A","wings":"X","pattern":"D","legs":"X"},"action":"harvest","summary":"good-harvest","bonus":1.4400000000000008},{"rt":2180.9000000003725,"stimulus":"\n                    <p><b>Action: <em>harvest</em></b></p>\n                    <p>This is the bee that you just saw.</p>\n                    <img src=\"bees-with-color/bee-A1SF.svg\" width=\"200\">\n                    <p><span class=\"greenText\"><b>Successful harvest!</b></span><br>Your pay has increased by $0.02. Your bonus pay is now $0.98.</p>\n            ","response":0,"trial_type":"html-button-response","trial_index":104,"time_elapsed":552485,"internal_node_id":"0.0-4.0-1.48","subject_id":"6138fc6df08e00e96682f9ee","study_id":"6197b3f67c2b5cd3b6d9596a","session_id":"619beeeb245ad97b723e6c6e","condition":"contingent","relevant_dimensions":["antennae","pattern"],"bee_group":{"antennae":"A","wings":"X","pattern":"D","legs":"X"},"bonus":1.4400000000000008},{"rt":1157.0999999996275,"stimulus":"bees-with-color/bee-A2DM.svg","response":1,"trial_type":"image-button-response","trial_index":105,"time_elapsed":553644,"internal_node_id":"0.0-4.0-0.49","subject_id":"6138fc6df08e00e96682f9ee","study_id":"6197b3f67c2b5cd3b6d9596a","session_id":"619beeeb245ad97b723e6c6e","condition":"contingent","relevant_dimensions":["antennae","pattern"],"bee_group":{"antennae":"A","wings":"X","pattern":"D","legs":"X"},"action":"avoid","summary":"good-avoid","bonus":1.4400000000000008},{"rt":718.5999999996275,"stimulus":"\n                    <p><b>Action: <em>avoid</em></b></p>\n                    <p>This is the bee that you just saw.</p>\n                    <img src=\"bees-with-color/bee-A2DM.svg\" width=\"200\">\n                    <p><br>Your bonus pay is unchanged, and remains at $0.98.</p>\n            ","response":0,"trial_type":"html-button-response","trial_index":106,"time_elapsed":554364,"internal_node_id":"0.0-4.0-1.49","subject_id":"6138fc6df08e00e96682f9ee","study_id":"6197b3f67c2b5cd3b6d9596a","session_id":"619beeeb245ad97b723e6c6e","condition":"contingent","relevant_dimensions":["antennae","pattern"],"bee_group":{"antennae":"A","wings":"X","pattern":"D","legs":"X"},"bonus":1.4400000000000008},{"rt":887.0999999996275,"stimulus":"bees-with-color/bee-A1SM.svg","response":0,"trial_type":"image-button-response","trial_index":107,"time_elapsed":555253,"internal_node_id":"0.0-4.0-0.50","subject_id":"6138fc6df08e00e96682f9ee","study_id":"6197b3f67c2b5cd3b6d9596a","session_id":"619beeeb245ad97b723e6c6e","condition":"contingent","relevant_dimensions":["antennae","pattern"],"bee_group":{"antennae":"A","wings":"X","pattern":"D","legs":"X"},"action":"harvest","summary":"good-harvest","bonus":1.4400000000000008},{"rt":707.2000000011176,"stimulus":"\n                    <p><b>Action: <em>harvest</em></b></p>\n                    <p>This is the bee that you just saw.</p>\n                    <img src=\"bees-with-color/bee-A1SM.svg\" width=\"200\">\n                    <p><span class=\"greenText\"><b>Successful harvest!</b></span><br>Your pay has increased by $0.02. Your bonus pay is now $1.00.</p>\n            ","response":0,"trial_type":"html-button-response","trial_index":108,"time_elapsed":555961,"internal_node_id":"0.0-4.0-1.50","subject_id":"6138fc6df08e00e96682f9ee","study_id":"6197b3f67c2b5cd3b6d9596a","session_id":"619beeeb245ad97b723e6c6e","condition":"contingent","relevant_dimensions":["antennae","pattern"],"bee_group":{"antennae":"A","wings":"X","pattern":"D","legs":"X"},"bonus":1.4400000000000008},{"rt":932.7999999988824,"stimulus":"bees-with-color/bee-A2DF.svg","response":1,"trial_type":"image-button-response","trial_index":109,"time_elapsed":556895,"internal_node_id":"0.0-4.0-0.51","subject_id":"6138fc6df08e00e96682f9ee","study_id":"6197b3f67c2b5cd3b6d9596a","session_id":"619beeeb245ad97b723e6c6e","condition":"contingent","relevant_dimensions":["antennae","pattern"],"bee_group":{"antennae":"A","wings":"X","pattern":"D","legs":"X"},"action":"avoid","summary":"good-avoid","bonus":1.4400000000000008},{"rt":775,"stimulus":"\n                    <p><b>Action: <em>avoid</em></b></p>\n                    <p>This is the bee that you just saw.</p>\n                    <img src=\"bees-with-color/bee-A2DF.svg\" width=\"200\">\n                    <p><br>Your bonus pay is unchanged, and remains at $1.00.</p>\n            ","response":0,"trial_type":"html-button-response","trial_index":110,"time_elapsed":557671,"internal_node_id":"0.0-4.0-1.51","subject_id":"6138fc6df08e00e96682f9ee","study_id":"6197b3f67c2b5cd3b6d9596a","session_id":"619beeeb245ad97b723e6c6e","condition":"contingent","relevant_dimensions":["antennae","pattern"],"bee_group":{"antennae":"A","wings":"X","pattern":"D","legs":"X"},"bonus":1.4400000000000008},{"rt":854.4000000003725,"stimulus":"bees-with-color/bee-B1SF.svg","response":0,"trial_type":"image-button-response","trial_index":111,"time_elapsed":558526,"internal_node_id":"0.0-4.0-0.52","subject_id":"6138fc6df08e00e96682f9ee","study_id":"6197b3f67c2b5cd3b6d9596a","session_id":"619beeeb245ad97b723e6c6e","condition":"contingent","relevant_dimensions":["antennae","pattern"],"bee_group":{"antennae":"A","wings":"X","pattern":"D","legs":"X"},"action":"harvest","summary":"good-harvest","bonus":1.4400000000000008},{"rt":842.5999999996275,"stimulus":"\n                    <p><b>Action: <em>harvest</em></b></p>\n                    <p>This is the bee that you just saw.</p>\n                    <img src=\"bees-with-color/bee-B1SF.svg\" width=\"200\">\n                    <p><span class=\"greenText\"><b>Successful harvest!</b></span><br>Your pay has increased by $0.02. Your bonus pay is now $1.02.</p>\n            ","response":0,"trial_type":"html-button-response","trial_index":112,"time_elapsed":559370,"internal_node_id":"0.0-4.0-1.52","subject_id":"6138fc6df08e00e96682f9ee","study_id":"6197b3f67c2b5cd3b6d9596a","session_id":"619beeeb245ad97b723e6c6e","condition":"contingent","relevant_dimensions":["antennae","pattern"],"bee_group":{"antennae":"A","wings":"X","pattern":"D","legs":"X"},"bonus":1.4400000000000008},{"rt":1044.9000000003725,"stimulus":"bees-with-color/bee-B2SF.svg","response":0,"trial_type":"image-button-response","trial_index":113,"time_elapsed":560416,"internal_node_id":"0.0-4.0-0.53","subject_id":"6138fc6df08e00e96682f9ee","study_id":"6197b3f67c2b5cd3b6d9596a","session_id":"619beeeb245ad97b723e6c6e","condition":"contingent","relevant_dimensions":["antennae","pattern"],"bee_group":{"antennae":"A","wings":"X","pattern":"D","legs":"X"},"action":"harvest","summary":"good-harvest","bonus":1.4400000000000008},{"rt":764,"stimulus":"\n                    <p><b>Action: <em>harvest</em></b></p>\n                    <p>This is the bee that you just saw.</p>\n                    <img src=\"bees-with-color/bee-B2SF.svg\" width=\"200\">\n                    <p><span class=\"greenText\"><b>Successful harvest!</b></span><br>Your pay has increased by $0.02. Your bonus pay is now $1.04.</p>\n            ","response":0,"trial_type":"html-button-response","trial_index":114,"time_elapsed":561181,"internal_node_id":"0.0-4.0-1.53","subject_id":"6138fc6df08e00e96682f9ee","study_id":"6197b3f67c2b5cd3b6d9596a","session_id":"619beeeb245ad97b723e6c6e","condition":"contingent","relevant_dimensions":["antennae","pattern"],"bee_group":{"antennae":"A","wings":"X","pattern":"D","legs":"X"},"bonus":1.4400000000000008},{"rt":809.0999999996275,"stimulus":"bees-with-color/bee-B2DF.svg","response":1,"trial_type":"image-button-response","trial_index":115,"time_elapsed":561992,"internal_node_id":"0.0-4.0-0.54","subject_id":"6138fc6df08e00e96682f9ee","study_id":"6197b3f67c2b5cd3b6d9596a","session_id":"619beeeb245ad97b723e6c6e","condition":"contingent","relevant_dimensions":["antennae","pattern"],"bee_group":{"antennae":"A","wings":"X","pattern":"D","legs":"X"},"action":"avoid","summary":"bad-avoid","bonus":1.4400000000000008},{"rt":774.9000000003725,"stimulus":"\n                    <p><b>Action: <em>avoid</em></b></p>\n                    <p>This is the bee that you just saw.</p>\n                    <img src=\"bees-with-color/bee-B2DF.svg\" width=\"200\">\n                    <p><br>Your bonus pay is unchanged, and remains at $1.04.</p>\n            ","response":0,"trial_type":"html-button-response","trial_index":116,"time_elapsed":562768,"internal_node_id":"0.0-4.0-1.54","subject_id":"6138fc6df08e00e96682f9ee","study_id":"6197b3f67c2b5cd3b6d9596a","session_id":"619beeeb245ad97b723e6c6e","condition":"contingent","relevant_dimensions":["antennae","pattern"],"bee_group":{"antennae":"A","wings":"X","pattern":"D","legs":"X"},"bonus":1.4400000000000008},{"rt":1011.5999999996275,"stimulus":"bees-with-color/bee-B1DF.svg","response":1,"trial_type":"image-button-response","trial_index":117,"time_elapsed":563780,"internal_node_id":"0.0-4.0-0.55","subject_id":"6138fc6df08e00e96682f9ee","study_id":"6197b3f67c2b5cd3b6d9596a","session_id":"619beeeb245ad97b723e6c6e","condition":"contingent","relevant_dimensions":["antennae","pattern"],"bee_group":{"antennae":"A","wings":"X","pattern":"D","legs":"X"},"action":"avoid","summary":"bad-avoid","bonus":1.4400000000000008},{"rt":662.5,"stimulus":"\n                    <p><b>Action: <em>avoid</em></b></p>\n                    <p>This is the bee that you just saw.</p>\n                    <img src=\"bees-with-color/bee-B1DF.svg\" width=\"200\">\n                    <p><br>Your bonus pay is unchanged, and remains at $1.04.</p>\n            ","response":0,"trial_type":"html-button-response","trial_index":118,"time_elapsed":564444,"internal_node_id":"0.0-4.0-1.55","subject_id":"6138fc6df08e00e96682f9ee","study_id":"6197b3f67c2b5cd3b6d9596a","session_id":"619beeeb245ad97b723e6c6e","condition":"contingent","relevant_dimensions":["antennae","pattern"],"bee_group":{"antennae":"A","wings":"X","pattern":"D","legs":"X"},"bonus":1.4400000000000008},{"rt":1067.4000000003725,"stimulus":"bees-with-color/bee-A2SM.svg","response":0,"trial_type":"image-button-response","trial_index":119,"time_elapsed":565513,"internal_node_id":"0.0-4.0-0.56","subject_id":"6138fc6df08e00e96682f9ee","study_id":"6197b3f67c2b5cd3b6d9596a","session_id":"619beeeb245ad97b723e6c6e","condition":"contingent","relevant_dimensions":["antennae","pattern"],"bee_group":{"antennae":"A","wings":"X","pattern":"D","legs":"X"},"action":"harvest","summary":"good-harvest","bonus":1.4400000000000008},{"rt":808.9000000003725,"stimulus":"\n                    <p><b>Action: <em>harvest</em></b></p>\n                    <p>This is the bee that you just saw.</p>\n                    <img src=\"bees-with-color/bee-A2SM.svg\" width=\"200\">\n                    <p><span class=\"greenText\"><b>Successful harvest!</b></span><br>Your pay has increased by $0.02. Your bonus pay is now $1.06.</p>\n            ","response":0,"trial_type":"html-button-response","trial_index":120,"time_elapsed":566323,"internal_node_id":"0.0-4.0-1.56","subject_id":"6138fc6df08e00e96682f9ee","study_id":"6197b3f67c2b5cd3b6d9596a","session_id":"619beeeb245ad97b723e6c6e","condition":"contingent","relevant_dimensions":["antennae","pattern"],"bee_group":{"antennae":"A","wings":"X","pattern":"D","legs":"X"},"bonus":1.4400000000000008},{"rt":718.6999999992549,"stimulus":"bees-with-color/bee-B1SM.svg","response":0,"trial_type":"image-button-response","trial_index":121,"time_elapsed":567043,"internal_node_id":"0.0-4.0-0.57","subject_id":"6138fc6df08e00e96682f9ee","study_id":"6197b3f67c2b5cd3b6d9596a","session_id":"619beeeb245ad97b723e6c6e","condition":"contingent","relevant_dimensions":["antennae","pattern"],"bee_group":{"antennae":"A","wings":"X","pattern":"D","legs":"X"},"action":"harvest","summary":"good-harvest","bonus":1.4400000000000008},{"rt":662.5999999996275,"stimulus":"\n                    <p><b>Action: <em>harvest</em></b></p>\n                    <p>This is the bee that you just saw.</p>\n                    <img src=\"bees-with-color/bee-B1SM.svg\" width=\"200\">\n                    <p><span class=\"greenText\"><b>Successful harvest!</b></span><br>Your pay has increased by $0.02. Your bonus pay is now $1.08.</p>\n            ","response":0,"trial_type":"html-button-response","trial_index":122,"time_elapsed":567707,"internal_node_id":"0.0-4.0-1.57","subject_id":"6138fc6df08e00e96682f9ee","study_id":"6197b3f67c2b5cd3b6d9596a","session_id":"619beeeb245ad97b723e6c6e","condition":"contingent","relevant_dimensions":["antennae","pattern"],"bee_group":{"antennae":"A","wings":"X","pattern":"D","legs":"X"},"bonus":1.4400000000000008},{"rt":999.8999999985099,"stimulus":"bees-with-color/bee-B2SM.svg","response":0,"trial_type":"image-button-response","trial_index":123,"time_elapsed":568708,"internal_node_id":"0.0-4.0-0.58","subject_id":"6138fc6df08e00e96682f9ee","study_id":"6197b3f67c2b5cd3b6d9596a","session_id":"619beeeb245ad97b723e6c6e","condition":"contingent","relevant_dimensions":["antennae","pattern"],"bee_group":{"antennae":"A","wings":"X","pattern":"D","legs":"X"},"action":"harvest","summary":"good-harvest","bonus":1.4400000000000008},{"rt":628.7000000011176,"stimulus":"\n                    <p><b>Action: <em>harvest</em></b></p>\n                    <p>This is the bee that you just saw.</p>\n                    <img src=\"bees-with-color/bee-B2SM.svg\" width=\"200\">\n                    <p><span class=\"greenText\"><b>Successful harvest!</b></span><br>Your pay has increased by $0.02. Your bonus pay is now $1.10.</p>\n            ","response":0,"trial_type":"html-button-response","trial_index":124,"time_elapsed":569338,"internal_node_id":"0.0-4.0-1.58","subject_id":"6138fc6df08e00e96682f9ee","study_id":"6197b3f67c2b5cd3b6d9596a","session_id":"619beeeb245ad97b723e6c6e","condition":"contingent","relevant_dimensions":["antennae","pattern"],"bee_group":{"antennae":"A","wings":"X","pattern":"D","legs":"X"},"bonus":1.4400000000000008},{"rt":943.8000000007451,"stimulus":"bees-with-color/bee-A1DF.svg","response":1,"trial_type":"image-button-response","trial_index":125,"time_elapsed":570283,"internal_node_id":"0.0-4.0-0.59","subject_id":"6138fc6df08e00e96682f9ee","study_id":"6197b3f67c2b5cd3b6d9596a","session_id":"619beeeb245ad97b723e6c6e","condition":"contingent","relevant_dimensions":["antennae","pattern"],"bee_group":{"antennae":"A","wings":"X","pattern":"D","legs":"X"},"action":"avoid","summary":"good-avoid","bonus":1.4400000000000008},{"rt":741.0999999996275,"stimulus":"\n                    <p><b>Action: <em>avoid</em></b></p>\n                    <p>This is the bee that you just saw.</p>\n                    <img src=\"bees-with-color/bee-A1DF.svg\" width=\"200\">\n                    <p><br>Your bonus pay is unchanged, and remains at $1.10.</p>\n            ","response":0,"trial_type":"html-button-response","trial_index":126,"time_elapsed":571026,"internal_node_id":"0.0-4.0-1.59","subject_id":"6138fc6df08e00e96682f9ee","study_id":"6197b3f67c2b5cd3b6d9596a","session_id":"619beeeb245ad97b723e6c6e","condition":"contingent","relevant_dimensions":["antennae","pattern"],"bee_group":{"antennae":"A","wings":"X","pattern":"D","legs":"X"},"bonus":1.4400000000000008},{"rt":3767.4000000003725,"stimulus":"bees-with-color/bee-B1DM.svg","response":1,"trial_type":"image-button-response","trial_index":127,"time_elapsed":574795,"internal_node_id":"0.0-4.0-0.60","subject_id":"6138fc6df08e00e96682f9ee","study_id":"6197b3f67c2b5cd3b6d9596a","session_id":"619beeeb245ad97b723e6c6e","condition":"contingent","relevant_dimensions":["antennae","pattern"],"bee_group":{"antennae":"A","wings":"X","pattern":"D","legs":"X"},"action":"avoid","summary":"bad-avoid","bonus":1.4400000000000008},{"rt":864.6999999992549,"stimulus":"\n                    <p><b>Action: <em>avoid</em></b></p>\n                    <p>This is the bee that you just saw.</p>\n                    <img src=\"bees-with-color/bee-B1DM.svg\" width=\"200\">\n                    <p><br>Your bonus pay is unchanged, and remains at $1.10.</p>\n            ","response":0,"trial_type":"html-button-response","trial_index":128,"time_elapsed":575661,"internal_node_id":"0.0-4.0-1.60","subject_id":"6138fc6df08e00e96682f9ee","study_id":"6197b3f67c2b5cd3b6d9596a","session_id":"619beeeb245ad97b723e6c6e","condition":"contingent","relevant_dimensions":["antennae","pattern"],"bee_group":{"antennae":"A","wings":"X","pattern":"D","legs":"X"},"bonus":1.4400000000000008},{"rt":1989.699999999255,"stimulus":"bees-with-color/bee-A2SF.svg","response":0,"trial_type":"image-button-response","trial_index":129,"time_elapsed":577652,"internal_node_id":"0.0-4.0-0.61","subject_id":"6138fc6df08e00e96682f9ee","study_id":"6197b3f67c2b5cd3b6d9596a","session_id":"619beeeb245ad97b723e6c6e","condition":"contingent","relevant_dimensions":["antennae","pattern"],"bee_group":{"antennae":"A","wings":"X","pattern":"D","legs":"X"},"action":"harvest","summary":"good-harvest","bonus":1.4400000000000008},{"rt":684.8000000007451,"stimulus":"\n                    <p><b>Action: <em>harvest</em></b></p>\n                    <p>This is the bee that you just saw.</p>\n                    <img src=\"bees-with-color/bee-A2SF.svg\" width=\"200\">\n                    <p><span class=\"greenText\"><b>Successful harvest!</b></span><br>Your pay has increased by $0.02. Your bonus pay is now $1.12.</p>\n            ","response":0,"trial_type":"html-button-response","trial_index":130,"time_elapsed":578339,"internal_node_id":"0.0-4.0-1.61","subject_id":"6138fc6df08e00e96682f9ee","study_id":"6197b3f67c2b5cd3b6d9596a","session_id":"619beeeb245ad97b723e6c6e","condition":"contingent","relevant_dimensions":["antennae","pattern"],"bee_group":{"antennae":"A","wings":"X","pattern":"D","legs":"X"},"bonus":1.4400000000000008},{"rt":932.4000000003725,"stimulus":"bees-with-color/bee-A1DM.svg","response":1,"trial_type":"image-button-response","trial_index":131,"time_elapsed":579272,"internal_node_id":"0.0-4.0-0.62","subject_id":"6138fc6df08e00e96682f9ee","study_id":"6197b3f67c2b5cd3b6d9596a","session_id":"619beeeb245ad97b723e6c6e","condition":"contingent","relevant_dimensions":["antennae","pattern"],"bee_group":{"antennae":"A","wings":"X","pattern":"D","legs":"X"},"action":"avoid","summary":"good-avoid","bonus":1.4400000000000008},{"rt":797.1000000014901,"stimulus":"\n                    <p><b>Action: <em>avoid</em></b></p>\n                    <p>This is the bee that you just saw.</p>\n                    <img src=\"bees-with-color/bee-A1DM.svg\" width=\"200\">\n                    <p><br>Your bonus pay is unchanged, and remains at $1.12.</p>\n            ","response":0,"trial_type":"html-button-response","trial_index":132,"time_elapsed":580071,"internal_node_id":"0.0-4.0-1.62","subject_id":"6138fc6df08e00e96682f9ee","study_id":"6197b3f67c2b5cd3b6d9596a","session_id":"619beeeb245ad97b723e6c6e","condition":"contingent","relevant_dimensions":["antennae","pattern"],"bee_group":{"antennae":"A","wings":"X","pattern":"D","legs":"X"},"bonus":1.4400000000000008},{"rt":910.1999999992549,"stimulus":"bees-with-color/bee-B2DM.svg","response":1,"trial_type":"image-button-response","trial_index":133,"time_elapsed":580983,"internal_node_id":"0.0-4.0-0.63","subject_id":"6138fc6df08e00e96682f9ee","study_id":"6197b3f67c2b5cd3b6d9596a","session_id":"619beeeb245ad97b723e6c6e","condition":"contingent","relevant_dimensions":["antennae","pattern"],"bee_group":{"antennae":"A","wings":"X","pattern":"D","legs":"X"},"action":"avoid","summary":"bad-avoid","bonus":1.4400000000000008},{"rt":1111.800000000745,"stimulus":"\n                    <p><b>Action: <em>avoid</em></b></p>\n                    <p>This is the bee that you just saw.</p>\n                    <img src=\"bees-with-color/bee-B2DM.svg\" width=\"200\">\n                    <p><br>Your bonus pay is unchanged, and remains at $1.12.</p>\n            ","response":0,"trial_type":"html-button-response","trial_index":134,"time_elapsed":582096,"internal_node_id":"0.0-4.0-1.63","subject_id":"6138fc6df08e00e96682f9ee","study_id":"6197b3f67c2b5cd3b6d9596a","session_id":"619beeeb245ad97b723e6c6e","condition":"contingent","relevant_dimensions":["antennae","pattern"],"bee_group":{"antennae":"A","wings":"X","pattern":"D","legs":"X"},"bonus":1.4400000000000008},{"rt":12025.599999999627,"stimulus":"You have completed the first part of this experiment.<br><br>You will now begin a shorter second part, in which you will receive no feedback.<br>The same rules regarding bonus pay apply.<br><br>Press any key to begin.","response":" ","trial_type":"html-keyboard-response","trial_index":135,"time_elapsed":594123,"internal_node_id":"0.0-5.0","subject_id":"6138fc6df08e00e96682f9ee","study_id":"6197b3f67c2b5cd3b6d9596a","session_id":"619beeeb245ad97b723e6c6e","condition":"contingent","relevant_dimensions":["antennae","pattern"],"bee_group":{"antennae":"A","wings":"X","pattern":"D","legs":"X"},"bonus":1.4400000000000008},{"rt":5731.199999999255,"stimulus":"bees-with-color/bee-B2SM.svg","response":0,"trial_type":"image-button-response","trial_index":136,"time_elapsed":599860,"internal_node_id":"0.0-6.0-0.0","subject_id":"6138fc6df08e00e96682f9ee","study_id":"6197b3f67c2b5cd3b6d9596a","session_id":"619beeeb245ad97b723e6c6e","condition":"contingent","relevant_dimensions":["antennae","pattern"],"bee_group":{"antennae":"A","wings":"X","pattern":"D","legs":"X"},"bonus":1.4400000000000008},{"rt":1978.4000000003725,"stimulus":"bees-with-color/bee-A2DM.svg","response":1,"trial_type":"image-button-response","trial_index":137,"time_elapsed":601840,"internal_node_id":"0.0-6.0-0.1","subject_id":"6138fc6df08e00e96682f9ee","study_id":"6197b3f67c2b5cd3b6d9596a","session_id":"619beeeb245ad97b723e6c6e","condition":"contingent","relevant_dimensions":["antennae","pattern"],"bee_group":{"antennae":"A","wings":"X","pattern":"D","legs":"X"},"bonus":1.4400000000000008},{"rt":1404.7999999988824,"stimulus":"bees-with-color/bee-B2DM.svg","response":1,"trial_type":"image-button-response","trial_index":138,"time_elapsed":603247,"internal_node_id":"0.0-6.0-0.2","subject_id":"6138fc6df08e00e96682f9ee","study_id":"6197b3f67c2b5cd3b6d9596a","session_id":"619beeeb245ad97b723e6c6e","condition":"contingent","relevant_dimensions":["antennae","pattern"],"bee_group":{"antennae":"A","wings":"X","pattern":"D","legs":"X"},"bonus":1.4400000000000008},{"rt":898.3999999985099,"stimulus":"bees-with-color/bee-A2SF.svg","response":0,"trial_type":"image-button-response","trial_index":139,"time_elapsed":604147,"internal_node_id":"0.0-6.0-0.3","subject_id":"6138fc6df08e00e96682f9ee","study_id":"6197b3f67c2b5cd3b6d9596a","session_id":"619beeeb245ad97b723e6c6e","condition":"contingent","relevant_dimensions":["antennae","pattern"],"bee_group":{"antennae":"A","wings":"X","pattern":"D","legs":"X"},"bonus":1.4400000000000008},{"rt":831.1000000014901,"stimulus":"bees-with-color/bee-A2DF.svg","response":1,"trial_type":"image-button-response","trial_index":140,"time_elapsed":604979,"internal_node_id":"0.0-6.0-0.4","subject_id":"6138fc6df08e00e96682f9ee","study_id":"6197b3f67c2b5cd3b6d9596a","session_id":"619beeeb245ad97b723e6c6e","condition":"contingent","relevant_dimensions":["antennae","pattern"],"bee_group":{"antennae":"A","wings":"X","pattern":"D","legs":"X"},"bonus":1.4400000000000008},{"rt":819.4000000003725,"stimulus":"bees-with-color/bee-B1DF.svg","response":1,"trial_type":"image-button-response","trial_index":141,"time_elapsed":605801,"internal_node_id":"0.0-6.0-0.5","subject_id":"6138fc6df08e00e96682f9ee","study_id":"6197b3f67c2b5cd3b6d9596a","session_id":"619beeeb245ad97b723e6c6e","condition":"contingent","relevant_dimensions":["antennae","pattern"],"bee_group":{"antennae":"A","wings":"X","pattern":"D","legs":"X"},"bonus":1.4400000000000008},{"rt":729.5999999996275,"stimulus":"bees-with-color/bee-B1SF.svg","response":0,"trial_type":"image-button-response","trial_index":142,"time_elapsed":606532,"internal_node_id":"0.0-6.0-0.6","subject_id":"6138fc6df08e00e96682f9ee","study_id":"6197b3f67c2b5cd3b6d9596a","session_id":"619beeeb245ad97b723e6c6e","condition":"contingent","relevant_dimensions":["antennae","pattern"],"bee_group":{"antennae":"A","wings":"X","pattern":"D","legs":"X"},"bonus":1.4400000000000008},{"rt":696,"stimulus":"bees-with-color/bee-B1SM.svg","response":0,"trial_type":"image-button-response","trial_index":143,"time_elapsed":607230,"internal_node_id":"0.0-6.0-0.7","subject_id":"6138fc6df08e00e96682f9ee","study_id":"6197b3f67c2b5cd3b6d9596a","session_id":"619beeeb245ad97b723e6c6e","condition":"contingent","relevant_dimensions":["antennae","pattern"],"bee_group":{"antennae":"A","wings":"X","pattern":"D","legs":"X"},"bonus":1.4400000000000008},{"rt":920.8000000007451,"stimulus":"bees-with-color/bee-A1DM.svg","response":1,"trial_type":"image-button-response","trial_index":144,"time_elapsed":608152,"internal_node_id":"0.0-6.0-0.8","subject_id":"6138fc6df08e00e96682f9ee","study_id":"6197b3f67c2b5cd3b6d9596a","session_id":"619beeeb245ad97b723e6c6e","condition":"contingent","relevant_dimensions":["antennae","pattern"],"bee_group":{"antennae":"A","wings":"X","pattern":"D","legs":"X"},"bonus":1.4400000000000008},{"rt":763.3000000007451,"stimulus":"bees-with-color/bee-A1DF.svg","response":1,"trial_type":"image-button-response","trial_index":145,"time_elapsed":608917,"internal_node_id":"0.0-6.0-0.9","subject_id":"6138fc6df08e00e96682f9ee","study_id":"6197b3f67c2b5cd3b6d9596a","session_id":"619beeeb245ad97b723e6c6e","condition":"contingent","relevant_dimensions":["antennae","pattern"],"bee_group":{"antennae":"A","wings":"X","pattern":"D","legs":"X"},"bonus":1.4400000000000008},{"rt":785.8000000007451,"stimulus":"bees-with-color/bee-A1SM.svg","response":0,"trial_type":"image-button-response","trial_index":146,"time_elapsed":609704,"internal_node_id":"0.0-6.0-0.10","subject_id":"6138fc6df08e00e96682f9ee","study_id":"6197b3f67c2b5cd3b6d9596a","session_id":"619beeeb245ad97b723e6c6e","condition":"contingent","relevant_dimensions":["antennae","pattern"],"bee_group":{"antennae":"A","wings":"X","pattern":"D","legs":"X"},"bonus":1.4400000000000008},{"rt":549.6999999992549,"stimulus":"bees-with-color/bee-B2SF.svg","response":0,"trial_type":"image-button-response","trial_index":147,"time_elapsed":610256,"internal_node_id":"0.0-6.0-0.11","subject_id":"6138fc6df08e00e96682f9ee","study_id":"6197b3f67c2b5cd3b6d9596a","session_id":"619beeeb245ad97b723e6c6e","condition":"contingent","relevant_dimensions":["antennae","pattern"],"bee_group":{"antennae":"A","wings":"X","pattern":"D","legs":"X"},"bonus":1.4400000000000008},{"rt":774.7999999988824,"stimulus":"bees-with-color/bee-B2DF.svg","response":1,"trial_type":"image-button-response","trial_index":148,"time_elapsed":611032,"internal_node_id":"0.0-6.0-0.12","subject_id":"6138fc6df08e00e96682f9ee","study_id":"6197b3f67c2b5cd3b6d9596a","session_id":"619beeeb245ad97b723e6c6e","condition":"contingent","relevant_dimensions":["antennae","pattern"],"bee_group":{"antennae":"A","wings":"X","pattern":"D","legs":"X"},"bonus":1.4400000000000008},{"rt":594.5,"stimulus":"bees-with-color/bee-B1DM.svg","response":1,"trial_type":"image-button-response","trial_index":149,"time_elapsed":611628,"internal_node_id":"0.0-6.0-0.13","subject_id":"6138fc6df08e00e96682f9ee","study_id":"6197b3f67c2b5cd3b6d9596a","session_id":"619beeeb245ad97b723e6c6e","condition":"contingent","relevant_dimensions":["antennae","pattern"],"bee_group":{"antennae":"A","wings":"X","pattern":"D","legs":"X"},"bonus":1.4400000000000008},{"rt":741,"stimulus":"bees-with-color/bee-A2SM.svg","response":0,"trial_type":"image-button-response","trial_index":150,"time_elapsed":612371,"internal_node_id":"0.0-6.0-0.14","subject_id":"6138fc6df08e00e96682f9ee","study_id":"6197b3f67c2b5cd3b6d9596a","session_id":"619beeeb245ad97b723e6c6e","condition":"contingent","relevant_dimensions":["antennae","pattern"],"bee_group":{"antennae":"A","wings":"X","pattern":"D","legs":"X"},"bonus":1.4400000000000008},{"rt":673.3000000007451,"stimulus":"bees-with-color/bee-A1SF.svg","response":0,"trial_type":"image-button-response","trial_index":151,"time_elapsed":613046,"internal_node_id":"0.0-6.0-0.15","subject_id":"6138fc6df08e00e96682f9ee","study_id":"6197b3f67c2b5cd3b6d9596a","session_id":"619beeeb245ad97b723e6c6e","condition":"contingent","relevant_dimensions":["antennae","pattern"],"bee_group":{"antennae":"A","wings":"X","pattern":"D","legs":"X"},"bonus":1.4400000000000008},{"rt":639.5999999996275,"stimulus":"bees-with-color/bee-B1SM.svg","response":0,"trial_type":"image-button-response","trial_index":152,"time_elapsed":613687,"internal_node_id":"0.0-6.0-0.16","subject_id":"6138fc6df08e00e96682f9ee","study_id":"6197b3f67c2b5cd3b6d9596a","session_id":"619beeeb245ad97b723e6c6e","condition":"contingent","relevant_dimensions":["antennae","pattern"],"bee_group":{"antennae":"A","wings":"X","pattern":"D","legs":"X"},"bonus":1.4400000000000008},{"rt":864.8000000007451,"stimulus":"bees-with-color/bee-B2SF.svg","response":0,"trial_type":"image-button-response","trial_index":153,"time_elapsed":614553,"internal_node_id":"0.0-6.0-0.17","subject_id":"6138fc6df08e00e96682f9ee","study_id":"6197b3f67c2b5cd3b6d9596a","session_id":"619beeeb245ad97b723e6c6e","condition":"contingent","relevant_dimensions":["antennae","pattern"],"bee_group":{"antennae":"A","wings":"X","pattern":"D","legs":"X"},"bonus":1.4400000000000008},{"rt":1877.3999999985099,"stimulus":"bees-with-color/bee-A1SM.svg","response":0,"trial_type":"image-button-response","trial_index":154,"time_elapsed":616432,"internal_node_id":"0.0-6.0-0.18","subject_id":"6138fc6df08e00e96682f9ee","study_id":"6197b3f67c2b5cd3b6d9596a","session_id":"619beeeb245ad97b723e6c6e","condition":"contingent","relevant_dimensions":["antennae","pattern"],"bee_group":{"antennae":"A","wings":"X","pattern":"D","legs":"X"},"bonus":1.4400000000000008},{"rt":853.5999999996275,"stimulus":"bees-with-color/bee-A2DM.svg","response":1,"trial_type":"image-button-response","trial_index":155,"time_elapsed":617287,"internal_node_id":"0.0-6.0-0.19","subject_id":"6138fc6df08e00e96682f9ee","study_id":"6197b3f67c2b5cd3b6d9596a","session_id":"619beeeb245ad97b723e6c6e","condition":"contingent","relevant_dimensions":["antennae","pattern"],"bee_group":{"antennae":"A","wings":"X","pattern":"D","legs":"X"},"bonus":1.4400000000000008},{"rt":808.8000000007451,"stimulus":"bees-with-color/bee-A2SF.svg","response":0,"trial_type":"image-button-response","trial_index":156,"time_elapsed":618097,"internal_node_id":"0.0-6.0-0.20","subject_id":"6138fc6df08e00e96682f9ee","study_id":"6197b3f67c2b5cd3b6d9596a","session_id":"619beeeb245ad97b723e6c6e","condition":"contingent","relevant_dimensions":["antennae","pattern"],"bee_group":{"antennae":"A","wings":"X","pattern":"D","legs":"X"},"bonus":1.4400000000000008},{"rt":729.9000000003725,"stimulus":"bees-with-color/bee-A1DM.svg","response":1,"trial_type":"image-button-response","trial_index":157,"time_elapsed":618829,"internal_node_id":"0.0-6.0-0.21","subject_id":"6138fc6df08e00e96682f9ee","study_id":"6197b3f67c2b5cd3b6d9596a","session_id":"619beeeb245ad97b723e6c6e","condition":"contingent","relevant_dimensions":["antennae","pattern"],"bee_group":{"antennae":"A","wings":"X","pattern":"D","legs":"X"},"bonus":1.4400000000000008},{"rt":774.7999999988824,"stimulus":"bees-with-color/bee-B2DM.svg","response":1,"trial_type":"image-button-response","trial_index":158,"time_elapsed":619605,"internal_node_id":"0.0-6.0-0.22","subject_id":"6138fc6df08e00e96682f9ee","study_id":"6197b3f67c2b5cd3b6d9596a","session_id":"619beeeb245ad97b723e6c6e","condition":"contingent","relevant_dimensions":["antennae","pattern"],"bee_group":{"antennae":"A","wings":"X","pattern":"D","legs":"X"},"bonus":1.4400000000000008},{"rt":774.9000000003725,"stimulus":"bees-with-color/bee-B1DM.svg","response":1,"trial_type":"image-button-response","trial_index":159,"time_elapsed":620381,"internal_node_id":"0.0-6.0-0.23","subject_id":"6138fc6df08e00e96682f9ee","study_id":"6197b3f67c2b5cd3b6d9596a","session_id":"619beeeb245ad97b723e6c6e","condition":"contingent","relevant_dimensions":["antennae","pattern"],"bee_group":{"antennae":"A","wings":"X","pattern":"D","legs":"X"},"bonus":1.4400000000000008},{"rt":740.9000000003725,"stimulus":"bees-with-color/bee-A2SM.svg","response":0,"trial_type":"image-button-response","trial_index":160,"time_elapsed":621123,"internal_node_id":"0.0-6.0-0.24","subject_id":"6138fc6df08e00e96682f9ee","study_id":"6197b3f67c2b5cd3b6d9596a","session_id":"619beeeb245ad97b723e6c6e","condition":"contingent","relevant_dimensions":["antennae","pattern"],"bee_group":{"antennae":"A","wings":"X","pattern":"D","legs":"X"},"bonus":1.4400000000000008},{"rt":752.5999999996275,"stimulus":"bees-with-color/bee-A2DF.svg","response":1,"trial_type":"image-button-response","trial_index":161,"time_elapsed":621877,"internal_node_id":"0.0-6.0-0.25","subject_id":"6138fc6df08e00e96682f9ee","study_id":"6197b3f67c2b5cd3b6d9596a","session_id":"619beeeb245ad97b723e6c6e","condition":"contingent","relevant_dimensions":["antennae","pattern"],"bee_group":{"antennae":"A","wings":"X","pattern":"D","legs":"X"},"bonus":1.4400000000000008},{"rt":752.1999999992549,"stimulus":"bees-with-color/bee-B2DF.svg","response":1,"trial_type":"image-button-response","trial_index":162,"time_elapsed":622631,"internal_node_id":"0.0-6.0-0.26","subject_id":"6138fc6df08e00e96682f9ee","study_id":"6197b3f67c2b5cd3b6d9596a","session_id":"619beeeb245ad97b723e6c6e","condition":"contingent","relevant_dimensions":["antennae","pattern"],"bee_group":{"antennae":"A","wings":"X","pattern":"D","legs":"X"},"bonus":1.4400000000000008},{"rt":718.6999999992549,"stimulus":"bees-with-color/bee-B2SM.svg","response":0,"trial_type":"image-butto