[{"success":true,"trial_type":"fullscreen","trial_index":0,"time_elapsed":32609,"internal_node_id":"0.0-0.0","subject_id":"5fb813023bdaed4bc4bd3967","study_id":"60edd13110225f80f9f3709b","session_id":"6196c4a8f20d57e86a2da2ef","condition":"contingent","relevant_dimensions":["wings","legs"],"bee_group":{"antennae":"X","wings":"1","pattern":"X","legs":"M"},"bonus":0.6200000000000002},{"success":true,"timeout":false,"failed_images":[],"failed_audio":[],"failed_video":[],"trial_type":"preload","trial_index":1,"time_elapsed":34834,"internal_node_id":"0.0-1.0","subject_id":"5fb813023bdaed4bc4bd3967","study_id":"60edd13110225f80f9f3709b","session_id":"6196c4a8f20d57e86a2da2ef","condition":"contingent","relevant_dimensions":["wings","legs"],"bee_group":{"antennae":"X","wings":"1","pattern":"X","legs":"M"},"bonus":0.6200000000000002},{"rt":2239.60000000149,"stimulus":"Welcome! Press any key to begin.","response":" ","trial_type":"html-keyboard-response","trial_index":2,"time_elapsed":37076,"internal_node_id":"0.0-2.0","subject_id":"5fb813023bdaed4bc4bd3967","study_id":"60edd13110225f80f9f3709b","session_id":"6196c4a8f20d57e86a2da2ef","condition":"contingent","relevant_dimensions":["wings","legs"],"bee_group":{"antennae":"X","wings":"1","pattern":"X","legs":"M"},"bonus":0.6200000000000002},{"view_history":[{"page_index":0,"viewing_time":4695.700000001118},{"page_index":1,"viewing_time":10022.099999999627},{"page_index":2,"viewing_time":26600.199999999255},{"page_index":3,"viewing_time":12454},{"page_index":4,"viewing_time":5774},{"page_index":5,"viewing_time":4438.10000000149},{"page_index":6,"viewing_time":155987.59999999963},{"page_index":7,"viewing_time":4738.4000000003725},{"page_index":8,"viewing_time":10034},{"page_index":9,"viewing_time":7297.89999999851},{"page_index":10,"viewing_time":6110.10000000149},{"page_index":11,"viewing_time":7726.0999999996275},{"page_index":12,"viewing_time":7844},{"page_index":13,"viewing_time":1171.9000000003725},{"page_index":14,"viewing_time":1998}],"rt":266892.30000000075,"trial_type":"instructions","trial_index":3,"time_elapsed":303969,"internal_node_id":"0.0-3.0-0.0","subject_id":"5fb813023bdaed4bc4bd3967","study_id":"60edd13110225f80f9f3709b","session_id":"6196c4a8f20d57e86a2da2ef","condition":"contingent","relevant_dimensions":["wings","legs"],"bee_group":{"antennae":"X","wings":"1","pattern":"X","legs":"M"},"bonus":0.6200000000000002},{"rt":18102.89999999851,"response":{"Q0":["Two or six legs","Stripes or spots on body","Antennae or no antennae"]},"question_order":[0],"trial_type":"survey-multi-select","trial_index":4,"time_elapsed":322075,"internal_node_id":"0.0-3.0-1.0","subject_id":"5fb813023bdaed4bc4bd3967","study_id":"60edd13110225f80f9f3709b","session_id":"6196c4a8f20d57e86a2da2ef","condition":"contingent","relevant_dimensions":["wings","legs"],"bee_group":{"antennae":"X","wings":"1","pattern":"X","legs":"M"},"correct":false,"bonus":0.6200000000000002},{"rt":16210.699999999255,"response":{"Q1":"No.","Q2":"Based on the four features of the bee.","Q3":"You do not learn if it was friendly or dangerous, and do not alter your bonus."},"question_order":[0,1,2],"trial_type":"survey-multi-choice","trial_index":5,"time_elapsed":338290,"internal_node_id":"0.0-3.0-2.0","subject_id":"5fb813023bdaed4bc4bd3967","study_id":"60edd13110225f80f9f3709b","session_id":"6196c4a8f20d57e86a2da2ef","condition":"contingent","relevant_dimensions":["wings","legs"],"bee_group":{"antennae":"X","wings":"1","pattern":"X","legs":"M"},"correct":true,"bonus":0.6200000000000002},{"rt":3488.89999999851,"stimulus":"<p>You did not answer all comprehension questions correctly.<br>Press <b>continue</b> to review the instructions again.</p>","response":0,"trial_type":"html-button-response","trial_index":6,"time_elapsed":341781,"internal_node_id":"0.0-3.0-3.0","subject_id":"5fb813023bdaed4bc4bd3967","study_id":"60edd13110225f80f9f3709b","session_id":"6196c4a8f20d57e86a2da2ef","condition":"contingent","relevant_dimensions":["wings","legs"],"bee_group":{"antennae":"X","wings":"1","pattern":"X","legs":"M"},"bonus":0.6200000000000002},{"view_history":[{"page_index":0,"viewing_time":1477.0999999996275},{"page_index":1,"viewing_time":1566},{"page_index":2,"viewing_time":952.1999999992549},{"page_index":3,"viewing_time":893.8000000007451},{"page_index":4,"viewing_time":872},{"page_index":5,"viewing_time":736},{"page_index":6,"viewing_time":672},{"page_index":7,"viewing_time":1789.7999999988824},{"page_index":8,"viewing_time":2330.2000000011176},{"page_index":9,"viewing_time":512.0999999996275},{"page_index":10,"viewing_time":451.80000000074506},{"page_index":11,"viewing_time":936.0999999996275},{"page_index":12,"viewing_time":880},{"page_index":13,"viewing_time":739.7999999988824},{"page_index":14,"viewing_time":679.8000000007451}],"rt":15488.89999999851,"trial_type":"instructions","trial_index":7,"time_elapsed":357271,"internal_node_id":"0.0-3.0-4.0-0.0","subject_id":"5fb813023bdaed4bc4bd3967","study_id":"60edd13110225f80f9f3709b","session_id":"6196c4a8f20d57e86a2da2ef","condition":"contingent","relevant_dimensions":["wings","legs"],"bee_group":{"antennae":"X","wings":"1","pattern":"X","legs":"M"},"bonus":0.6200000000000002},{"rt":7433.699999999255,"response":{"Q0":["Two or six legs","Stripes or spots on body","Single or double wings","Antennae or no antennae"]},"question_order":[0],"trial_type":"survey-multi-select","trial_index":8,"time_elapsed":364707,"internal_node_id":"0.0-3.0-4.0-1.0","subject_id":"5fb813023bdaed4bc4bd3967","study_id":"60edd13110225f80f9f3709b","session_id":"6196c4a8f20d57e86a2da2ef","condition":"contingent","relevant_dimensions":["wings","legs"],"bee_group":{"antennae":"X","wings":"1","pattern":"X","legs":"M"},"correct":true,"bonus":0.6200000000000002},{"rt":9495.799999998882,"response":{"Q1":"No.","Q2":"Based on the four features of the bee.","Q3":"You do not learn if it was friendly or dangerous, and do not alter your bonus."},"question_order":[0,1,2],"trial_type":"survey-multi-choice","trial_index":9,"time_elapsed":374206,"internal_node_id":"0.0-3.0-4.0-2.0","subject_id":"5fb813023bdaed4bc4bd3967","study_id":"60edd13110225f80f9f3709b","session_id":"6196c4a8f20d57e86a2da2ef","condition":"contingent","relevant_dimensions":["wings","legs"],"bee_group":{"antennae":"X","wings":"1","pattern":"X","legs":"M"},"correct":true,"bonus":0.6200000000000002},{"rt":2237.800000000745,"stimulus":"<p>Congrats, you got everything right<br>When you're ready, click the button below to continue to the experiment.</p>","response":0,"trial_type":"html-button-response","trial_index":10,"time_elapsed":376446,"internal_node_id":"0.0-3.0-4.0-3.0","subject_id":"5fb813023bdaed4bc4bd3967","study_id":"60edd13110225f80f9f3709b","session_id":"6196c4a8f20d57e86a2da2ef","condition":"contingent","relevant_dimensions":["wings","legs"],"bee_group":{"antennae":"X","wings":"1","pattern":"X","legs":"M"},"bonus":0.6200000000000002},{"rt":9076.599999999627,"stimulus":"bees-with-color/bee-A1DF.svg","response":0,"trial_type":"image-button-response","trial_index":11,"time_elapsed":385524,"internal_node_id":"0.0-4.0-0.0","subject_id":"5fb813023bdaed4bc4bd3967","study_id":"60edd13110225f80f9f3709b","session_id":"6196c4a8f20d57e86a2da2ef","condition":"contingent","relevant_dimensions":["wings","legs"],"bee_group":{"antennae":"X","wings":"1","pattern":"X","legs":"M"},"action":"harvest","summary":"good-harvest","bonus":0.6200000000000002},{"rt":4951.4000000003725,"stimulus":"\n                    <p><b>Action: <em>harvest</em></b></p>\n                    <p>This is the bee that you just saw.</p>\n                    <img src=\"bees-with-color/bee-A1DF.svg\" width=\"200\">\n                    <p><span class=\"greenText\"><b>Successful harvest!</b></span><br>Your pay has increased by $0.02. Your bonus pay is now $0.56.</p>\n            ","response":0,"trial_type":"html-button-response","trial_index":12,"time_elapsed":390477,"internal_node_id":"0.0-4.0-1.0","subject_id":"5fb813023bdaed4bc4bd3967","study_id":"60edd13110225f80f9f3709b","session_id":"6196c4a8f20d57e86a2da2ef","condition":"contingent","relevant_dimensions":["wings","legs"],"bee_group":{"antennae":"X","wings":"1","pattern":"X","legs":"M"},"bonus":0.6200000000000002},{"rt":2838.800000000745,"stimulus":"bees-with-color/bee-A2SM.svg","response":0,"trial_type":"image-button-response","trial_index":13,"time_elapsed":393317,"internal_node_id":"0.0-4.0-0.1","subject_id":"5fb813023bdaed4bc4bd3967","study_id":"60edd13110225f80f9f3709b","session_id":"6196c4a8f20d57e86a2da2ef","condition":"contingent","relevant_dimensions":["wings","legs"],"bee_group":{"antennae":"X","wings":"1","pattern":"X","legs":"M"},"action":"harvest","summary":"good-harvest","bonus":0.6200000000000002},{"rt":7660.800000000745,"stimulus":"\n                    <p><b>Action: <em>harvest</em></b></p>\n                    <p>This is the bee that you just saw.</p>\n                    <img src=\"bees-with-color/bee-A2SM.svg\" width=\"200\">\n                    <p><span class=\"greenText\"><b>Successful harvest!</b></span><br>Your pay has increased by $0.02. Your bonus pay is now $0.58.</p>\n            ","response":0,"trial_type":"html-button-response","trial_index":14,"time_elapsed":400979,"internal_node_id":"0.0-4.0-1.1","subject_id":"5fb813023bdaed4bc4bd3967","study_id":"60edd13110225f80f9f3709b","session_id":"6196c4a8f20d57e86a2da2ef","condition":"contingent","relevant_dimensions":["wings","legs"],"bee_group":{"antennae":"X","wings":"1","pattern":"X","legs":"M"},"bonus":0.6200000000000002},{"rt":6424.800000000745,"stimulus":"bees-with-color/bee-A2DF.svg","response":1,"trial_type":"image-button-response","trial_index":15,"time_elapsed":407405,"internal_node_id":"0.0-4.0-0.2","subject_id":"5fb813023bdaed4bc4bd3967","study_id":"60edd13110225f80f9f3709b","session_id":"6196c4a8f20d57e86a2da2ef","condition":"contingent","relevant_dimensions":["wings","legs"],"bee_group":{"antennae":"X","wings":"1","pattern":"X","legs":"M"},"action":"avoid","summary":"bad-avoid","bonus":0.6200000000000002},{"rt":3123.0999999996275,"stimulus":"\n                    <p><b>Action: <em>avoid</em></b></p>\n                    <p>This is the bee that you just saw.</p>\n                    <img src=\"bees-with-color/bee-A2DF.svg\" width=\"200\">\n                    <p><br>Your bonus pay is unchanged, and remains at $0.58.</p>\n            ","response":0,"trial_type":"html-button-response","trial_index":16,"time_elapsed":410529,"internal_node_id":"0.0-4.0-1.2","subject_id":"5fb813023bdaed4bc4bd3967","study_id":"60edd13110225f80f9f3709b","session_id":"6196c4a8f20d57e86a2da2ef","condition":"contingent","relevant_dimensions":["wings","legs"],"bee_group":{"antennae":"X","wings":"1","pattern":"X","legs":"M"},"bonus":0.6200000000000002},{"rt":5904.200000001118,"stimulus":"bees-with-color/bee-A1SM.svg","response":0,"trial_type":"image-button-response","trial_index":17,"time_elapsed":416435,"internal_node_id":"0.0-4.0-0.3","subject_id":"5fb813023bdaed4bc4bd3967","study_id":"60edd13110225f80f9f3709b","session_id":"6196c4a8f20d57e86a2da2ef","condition":"contingent","relevant_dimensions":["wings","legs"],"bee_group":{"antennae":"X","wings":"1","pattern":"X","legs":"M"},"action":"harvest","summary":"bad-harvest","bonus":0.6200000000000002},{"rt":5881.800000000745,"stimulus":"\n                    <p><b>Action: <em>harvest</em></b></p>\n                    <p>This is the bee that you just saw.</p>\n                    <img src=\"bees-with-color/bee-A1SM.svg\" width=\"200\">\n                    <p><span class=\"redText\">Bad choice, the bee was angry.</span><br><b>You have been stung!</b><br>Your pay has been decreased by $0.10. Your bonus pay is now $0.48.</p>\n            ","response":0,"trial_type":"html-button-response","trial_index":18,"time_elapsed":422317,"internal_node_id":"0.0-4.0-1.3","subject_id":"5fb813023bdaed4bc4bd3967","study_id":"60edd13110225f80f9f3709b","session_id":"6196c4a8f20d57e86a2da2ef","condition":"contingent","relevant_dimensions":["wings","legs"],"bee_group":{"antennae":"X","wings":"1","pattern":"X","legs":"M"},"bonus":0.6200000000000002},{"rt":6594.800000000745,"stimulus":"bees-with-color/bee-A1DM.svg","response":0,"trial_type":"image-button-response","trial_index":19,"time_elapsed":428913,"internal_node_id":"0.0-4.0-0.4","subject_id":"5fb813023bdaed4bc4bd3967","study_id":"60edd13110225f80f9f3709b","session_id":"6196c4a8f20d57e86a2da2ef","condition":"contingent","relevant_dimensions":["wings","legs"],"bee_group":{"antennae":"X","wings":"1","pattern":"X","legs":"M"},"action":"harvest","summary":"bad-harvest","bonus":0.6200000000000002},{"rt":4652.799999998882,"stimulus":"\n                    <p><b>Action: <em>harvest</em></b></p>\n                    <p>This is the bee that you just saw.</p>\n                    <img src=\"bees-with-color/bee-A1DM.svg\" width=\"200\">\n                    <p><span class=\"redText\">Bad choice, the bee was angry.</span><br><b>You have been stung!</b><br>Your pay has been decreased by $0.10. Your bonus pay is now $0.38.</p>\n            ","response":0,"trial_type":"html-button-response","trial_index":20,"time_elapsed":433567,"internal_node_id":"0.0-4.0-1.4","subject_id":"5fb813023bdaed4bc4bd3967","study_id":"60edd13110225f80f9f3709b","session_id":"6196c4a8f20d57e86a2da2ef","condition":"contingent","relevant_dimensions":["wings","legs"],"bee_group":{"antennae":"X","wings":"1","pattern":"X","legs":"M"},"bonus":0.6200000000000002},{"rt":6057,"stimulus":"bees-with-color/bee-A2SF.svg","response":0,"trial_type":"image-button-response","trial_index":21,"time_elapsed":439625,"internal_node_id":"0.0-4.0-0.5","subject_id":"5fb813023bdaed4bc4bd3967","study_id":"60edd13110225f80f9f3709b","session_id":"6196c4a8f20d57e86a2da2ef","condition":"contingent","relevant_dimensions":["wings","legs"],"bee_group":{"antennae":"X","wings":"1","pattern":"X","legs":"M"},"action":"harvest","summary":"good-harvest","bonus":0.6200000000000002},{"rt":1385.300000000745,"stimulus":"\n                    <p><b>Action: <em>harvest</em></b></p>\n                    <p>This is the bee that you just saw.</p>\n                    <img src=\"bees-with-color/bee-A2SF.svg\" width=\"200\">\n                    <p><span class=\"greenText\"><b>Successful harvest!</b></span><br>Your pay has increased by $0.02. Your bonus pay is now $0.40.</p>\n            ","response":0,"trial_type":"html-button-response","trial_index":22,"time_elapsed":441011,"internal_node_id":"0.0-4.0-1.5","subject_id":"5fb813023bdaed4bc4bd3967","study_id":"60edd13110225f80f9f3709b","session_id":"6196c4a8f20d57e86a2da2ef","condition":"contingent","relevant_dimensions":["wings","legs"],"bee_group":{"antennae":"X","wings":"1","pattern":"X","legs":"M"},"bonus":0.6200000000000002},{"rt":7249,"stimulus":"bees-with-color/bee-B2DF.svg","response":0,"trial_type":"image-button-response","trial_index":23,"time_elapsed":448261,"internal_node_id":"0.0-4.0-0.6","subject_id":"5fb813023bdaed4bc4bd3967","study_id":"60edd13110225f80f9f3709b","session_id":"6196c4a8f20d57e86a2da2ef","condition":"contingent","relevant_dimensions":["wings","legs"],"bee_group":{"antennae":"X","wings":"1","pattern":"X","legs":"M"},"action":"harvest","summary":"good-harvest","bonus":0.6200000000000002},{"rt":1185.0999999996275,"stimulus":"\n                    <p><b>Action: <em>harvest</em></b></p>\n                    <p>This is the bee that you just saw.</p>\n                    <img src=\"bees-with-color/bee-B2DF.svg\" width=\"200\">\n                    <p><span class=\"greenText\"><b>Successful harvest!</b></span><br>Your pay has increased by $0.02. Your bonus pay is now $0.42.</p>\n            ","response":0,"trial_type":"html-button-response","trial_index":24,"time_elapsed":449447,"internal_node_id":"0.0-4.0-1.6","subject_id":"5fb813023bdaed4bc4bd3967","study_id":"60edd13110225f80f9f3709b","session_id":"6196c4a8f20d57e86a2da2ef","condition":"contingent","relevant_dimensions":["wings","legs"],"bee_group":{"antennae":"X","wings":"1","pattern":"X","legs":"M"},"bonus":0.6200000000000002},{"rt":1452.9000000003725,"stimulus":"bees-with-color/bee-B1DF.svg","response":0,"trial_type":"image-button-response","trial_index":25,"time_elapsed":450901,"internal_node_id":"0.0-4.0-0.7","subject_id":"5fb813023bdaed4bc4bd3967","study_id":"60edd13110225f80f9f3709b","session_id":"6196c4a8f20d57e86a2da2ef","condition":"contingent","relevant_dimensions":["wings","legs"],"bee_group":{"antennae":"X","wings":"1","pattern":"X","legs":"M"},"action":"harvest","summary":"good-harvest","bonus":0.6200000000000002},{"rt":1014.5999999996275,"stimulus":"\n                    <p><b>Action: <em>harvest</em></b></p>\n                    <p>This is the bee that you just saw.</p>\n                    <img src=\"bees-with-color/bee-B1DF.svg\" width=\"200\">\n                    <p><span class=\"greenText\"><b>Successful harvest!</b></span><br>Your pay has increased by $0.02. Your bonus pay is now $0.44.</p>\n            ","response":0,"trial_type":"html-button-response","trial_index":26,"time_elapsed":451917,"internal_node_id":"0.0-4.0-1.7","subject_id":"5fb813023bdaed4bc4bd3967","study_id":"60edd13110225f80f9f3709b","session_id":"6196c4a8f20d57e86a2da2ef","condition":"contingent","relevant_dimensions":["wings","legs"],"bee_group":{"antennae":"X","wings":"1","pattern":"X","legs":"M"},"bonus":0.6200000000000002},{"rt":938.8000000007451,"stimulus":"bees-with-color/bee-A2DM.svg","response":0,"trial_type":"image-button-response","trial_index":27,"time_elapsed":452857,"internal_node_id":"0.0-4.0-0.8","subject_id":"5fb813023bdaed4bc4bd3967","study_id":"60edd13110225f80f9f3709b","session_id":"6196c4a8f20d57e86a2da2ef","condition":"contingent","relevant_dimensions":["wings","legs"],"bee_group":{"antennae":"X","wings":"1","pattern":"X","legs":"M"},"action":"harvest","summary":"good-harvest","bonus":0.6200000000000002},{"rt":831,"stimulus":"\n                    <p><b>Action: <em>harvest</em></b></p>\n                    <p>This is the bee that you just saw.</p>\n                    <img src=\"bees-with-color/bee-A2DM.svg\" width=\"200\">\n                    <p><span class=\"greenText\"><b>Successful harvest!</b></span><br>Your pay has increased by $0.02. Your bonus pay is now $0.46.</p>\n            ","response":0,"trial_type":"html-button-response","trial_index":28,"time_elapsed":453690,"internal_node_id":"0.0-4.0-1.8","subject_id":"5fb813023bdaed4bc4bd3967","study_id":"60edd13110225f80f9f3709b","session_id":"6196c4a8f20d57e86a2da2ef","condition":"contingent","relevant_dimensions":["wings","legs"],"bee_group":{"antennae":"X","wings":"1","pattern":"X","legs":"M"},"bonus":0.6200000000000002},{"rt":1061.199999999255,"stimulus":"bees-with-color/bee-B2SM.svg","response":1,"trial_type":"image-button-response","trial_index":29,"time_elapsed":454752,"internal_node_id":"0.0-4.0-0.9","subject_id":"5fb813023bdaed4bc4bd3967","study_id":"60edd13110225f80f9f3709b","session_id":"6196c4a8f20d57e86a2da2ef","condition":"contingent","relevant_dimensions":["wings","legs"],"bee_group":{"antennae":"X","wings":"1","pattern":"X","legs":"M"},"action":"avoid","summary":"bad-avoid","bonus":0.6200000000000002},{"rt":753.0999999996275,"stimulus":"\n                    <p><b>Action: <em>avoid</em></b></p>\n                    <p>This is the bee that you just saw.</p>\n                    <img src=\"bees-with-color/bee-B2SM.svg\" width=\"200\">\n                    <p><br>Your bonus pay is unchanged, and remains at $0.46.</p>\n            ","response":0,"trial_type":"html-button-response","trial_index":30,"time_elapsed":455506,"internal_node_id":"0.0-4.0-1.9","subject_id":"5fb813023bdaed4bc4bd3967","study_id":"60edd13110225f80f9f3709b","session_id":"6196c4a8f20d57e86a2da2ef","condition":"contingent","relevant_dimensions":["wings","legs"],"bee_group":{"antennae":"X","wings":"1","pattern":"X","legs":"M"},"bonus":0.6200000000000002},{"rt":894.6999999992549,"stimulus":"bees-with-color/bee-B1DM.svg","response":0,"trial_type":"image-button-response","trial_index":31,"time_elapsed":456401,"internal_node_id":"0.0-4.0-0.10","subject_id":"5fb813023bdaed4bc4bd3967","study_id":"60edd13110225f80f9f3709b","session_id":"6196c4a8f20d57e86a2da2ef","condition":"contingent","relevant_dimensions":["wings","legs"],"bee_group":{"antennae":"X","wings":"1","pattern":"X","legs":"M"},"action":"harvest","summary":"bad-harvest","bonus":0.6200000000000002},{"rt":6695.199999999255,"stimulus":"\n                    <p><b>Action: <em>harvest</em></b></p>\n                    <p>This is the bee that you just saw.</p>\n                    <img src=\"bees-with-color/bee-B1DM.svg\" width=\"200\">\n                    <p><span class=\"redText\">Bad choice, the bee was angry.</span><br><b>You have been stung!</b><br>Your pay has been decreased by $0.10. Your bonus pay is now $0.36.</p>\n            ","response":0,"trial_type":"html-button-response","trial_index":32,"time_elapsed":463097,"internal_node_id":"0.0-4.0-1.10","subject_id":"5fb813023bdaed4bc4bd3967","study_id":"60edd13110225f80f9f3709b","session_id":"6196c4a8f20d57e86a2da2ef","condition":"contingent","relevant_dimensions":["wings","legs"],"bee_group":{"antennae":"X","wings":"1","pattern":"X","legs":"M"},"bonus":0.6200000000000002},{"rt":6115.0999999996275,"stimulus":"bees-with-color/bee-B1SF.svg","response":1,"trial_type":"image-button-response","trial_index":33,"time_elapsed":469214,"internal_node_id":"0.0-4.0-0.11","subject_id":"5fb813023bdaed4bc4bd3967","study_id":"60edd13110225f80f9f3709b","session_id":"6196c4a8f20d57e86a2da2ef","condition":"contingent","relevant_dimensions":["wings","legs"],"bee_group":{"antennae":"X","wings":"1","pattern":"X","legs":"M"},"action":"avoid","summary":"bad-avoid","bonus":0.6200000000000002},{"rt":857,"stimulus":"\n                    <p><b>Action: <em>avoid</em></b></p>\n                    <p>This is the bee that you just saw.</p>\n                    <img src=\"bees-with-color/bee-B1SF.svg\" width=\"200\">\n                    <p><br>Your bonus pay is unchanged, and remains at $0.36.</p>\n            ","response":0,"trial_type":"html-button-response","trial_index":34,"time_elapsed":470071,"internal_node_id":"0.0-4.0-1.11","subject_id":"5fb813023bdaed4bc4bd3967","study_id":"60edd13110225f80f9f3709b","session_id":"6196c4a8f20d57e86a2da2ef","condition":"contingent","relevant_dimensions":["wings","legs"],"bee_group":{"antennae":"X","wings":"1","pattern":"X","legs":"M"},"bonus":0.6200000000000002},{"rt":1909.199999999255,"stimulus":"bees-with-color/bee-B1SM.svg","response":0,"trial_type":"image-button-response","trial_index":35,"time_elapsed":471982,"internal_node_id":"0.0-4.0-0.12","subject_id":"5fb813023bdaed4bc4bd3967","study_id":"60edd13110225f80f9f3709b","session_id":"6196c4a8f20d57e86a2da2ef","condition":"contingent","relevant_dimensions":["wings","legs"],"bee_group":{"antennae":"X","wings":"1","pattern":"X","legs":"M"},"action":"harvest","summary":"bad-harvest","bonus":0.6200000000000002},{"rt":904.8999999985099,"stimulus":"\n                    <p><b>Action: <em>harvest</em></b></p>\n                    <p>This is the bee that you just saw.</p>\n                    <img src=\"bees-with-color/bee-B1SM.svg\" width=\"200\">\n                    <p><span class=\"redText\">Bad choice, the bee was angry.</span><br><b>You have been stung!</b><br>Your pay has been decreased by $0.10. Your bonus pay is now $0.26.</p>\n            ","response":0,"trial_type":"html-button-response","trial_index":36,"time_elapsed":472887,"internal_node_id":"0.0-4.0-1.12","subject_id":"5fb813023bdaed4bc4bd3967","study_id":"60edd13110225f80f9f3709b","session_id":"6196c4a8f20d57e86a2da2ef","condition":"contingent","relevant_dimensions":["wings","legs"],"bee_group":{"antennae":"X","wings":"1","pattern":"X","legs":"M"},"bonus":0.6200000000000002},{"rt":1709.300000000745,"stimulus":"bees-with-color/bee-A1SF.svg","response":1,"trial_type":"image-button-response","trial_index":37,"time_elapsed":474597,"internal_node_id":"0.0-4.0-0.13","subject_id":"5fb813023bdaed4bc4bd3967","study_id":"60edd13110225f80f9f3709b","session_id":"6196c4a8f20d57e86a2da2ef","condition":"contingent","relevant_dimensions":["wings","legs"],"bee_group":{"antennae":"X","wings":"1","pattern":"X","legs":"M"},"action":"avoid","summary":"bad-avoid","bonus":0.6200000000000002},{"rt":705.4000000003725,"stimulus":"\n                    <p><b>Action: <em>avoid</em></b></p>\n                    <p>This is the bee that you just saw.</p>\n                    <img src=\"bees-with-color/bee-A1SF.svg\" width=\"200\">\n                    <p><br>Your bonus pay is unchanged, and remains at $0.26.</p>\n            ","response":0,"trial_type":"html-button-response","trial_index":38,"time_elapsed":475304,"internal_node_id":"0.0-4.0-1.13","subject_id":"5fb813023bdaed4bc4bd3967","study_id":"60edd13110225f80f9f3709b","session_id":"6196c4a8f20d57e86a2da2ef","condition":"contingent","relevant_dimensions":["wings","legs"],"bee_group":{"antennae":"X","wings":"1","pattern":"X","legs":"M"},"bonus":0.6200000000000002},{"rt":1175.4000000003725,"stimulus":"bees-with-color/bee-B2DM.svg","response":0,"trial_type":"image-button-response","trial_index":39,"time_elapsed":476480,"internal_node_id":"0.0-4.0-0.14","subject_id":"5fb813023bdaed4bc4bd3967","study_id":"60edd13110225f80f9f3709b","session_id":"6196c4a8f20d57e86a2da2ef","condition":"contingent","relevant_dimensions":["wings","legs"],"bee_group":{"antennae":"X","wings":"1","pattern":"X","legs":"M"},"action":"harvest","summary":"good-harvest","bonus":0.6200000000000002},{"rt":871.0999999996275,"stimulus":"\n                    <p><b>Action: <em>harvest</em></b></p>\n                    <p>This is the bee that you just saw.</p>\n                    <img src=\"bees-with-color/bee-B2DM.svg\" width=\"200\">\n                    <p><span class=\"greenText\"><b>Successful harvest!</b></span><br>Your pay has increased by $0.02. Your bonus pay is now $0.28.</p>\n            ","response":0,"trial_type":"html-button-response","trial_index":40,"time_elapsed":477352,"internal_node_id":"0.0-4.0-1.14","subject_id":"5fb813023bdaed4bc4bd3967","study_id":"60edd13110225f80f9f3709b","session_id":"6196c4a8f20d57e86a2da2ef","condition":"contingent","relevant_dimensions":["wings","legs"],"bee_group":{"antennae":"X","wings":"1","pattern":"X","legs":"M"},"bonus":0.6200000000000002},{"rt":1245.0999999996275,"stimulus":"bees-with-color/bee-B2SF.svg","response":1,"trial_type":"image-button-response","trial_index":41,"time_elapsed":478598,"internal_node_id":"0.0-4.0-0.15","subject_id":"5fb813023bdaed4bc4bd3967","study_id":"60edd13110225f80f9f3709b","session_id":"6196c4a8f20d57e86a2da2ef","condition":"contingent","relevant_dimensions":["wings","legs"],"bee_group":{"antennae":"X","wings":"1","pattern":"X","legs":"M"},"action":"avoid","summary":"bad-avoid","bonus":0.6200000000000002},{"rt":687.1999999992549,"stimulus":"\n                    <p><b>Action: <em>avoid</em></b></p>\n                    <p>This is the bee that you just saw.</p>\n                    <img src=\"bees-with-color/bee-B2SF.svg\" width=\"200\">\n                    <p><br>Your bonus pay is unchanged, and remains at $0.28.</p>\n            ","response":0,"trial_type":"html-button-response","trial_index":42,"time_elapsed":479286,"internal_node_id":"0.0-4.0-1.15","subject_id":"5fb813023bdaed4bc4bd3967","study_id":"60edd13110225f80f9f3709b","session_id":"6196c4a8f20d57e86a2da2ef","condition":"contingent","relevant_dimensions":["wings","legs"],"bee_group":{"antennae":"X","wings":"1","pattern":"X","legs":"M"},"bonus":0.6200000000000002},{"rt":4265.199999999255,"stimulus":"bees-with-color/bee-B1SM.svg","response":0,"trial_type":"image-button-response","trial_index":43,"time_elapsed":483552,"internal_node_id":"0.0-4.0-0.16","subject_id":"5fb813023bdaed4bc4bd3967","study_id":"60edd13110225f80f9f3709b","session_id":"6196c4a8f20d57e86a2da2ef","condition":"contingent","relevant_dimensions":["wings","legs"],"bee_group":{"antennae":"X","wings":"1","pattern":"X","legs":"M"},"action":"harvest","summary":"bad-harvest","bonus":0.6200000000000002},{"rt":1095,"stimulus":"\n                    <p><b>Action: <em>harvest</em></b></p>\n                    <p>This is the bee that you just saw.</p>\n                    <img src=\"bees-with-color/bee-B1SM.svg\" width=\"200\">\n                    <p><span class=\"redText\">Bad choice, the bee was angry.</span><br><b>You have been stung!</b><br>Your pay has been decreased by $0.10. Your bonus pay is now $0.18.</p>\n            ","response":0,"trial_type":"html-button-response","trial_index":44,"time_elapsed":484648,"internal_node_id":"0.0-4.0-1.16","subject_id":"5fb813023bdaed4bc4bd3967","study_id":"60edd13110225f80f9f3709b","session_id":"6196c4a8f20d57e86a2da2ef","condition":"contingent","relevant_dimensions":["wings","legs"],"bee_group":{"antennae":"X","wings":"1","pattern":"X","legs":"M"},"bonus":0.6200000000000002},{"rt":1596.9000000003725,"stimulus":"bees-with-color/bee-B2DM.svg","response":0,"trial_type":"image-button-response","trial_index":45,"time_elapsed":486246,"internal_node_id":"0.0-4.0-0.17","subject_id":"5fb813023bdaed4bc4bd3967","study_id":"60edd13110225f80f9f3709b","session_id":"6196c4a8f20d57e86a2da2ef","condition":"contingent","relevant_dimensions":["wings","legs"],"bee_group":{"antennae":"X","wings":"1","pattern":"X","legs":"M"},"action":"harvest","summary":"good-harvest","bonus":0.6200000000000002},{"rt":4751.199999999255,"stimulus":"\n                    <p><b>Action: <em>harvest</em></b></p>\n                    <p>This is the bee that you just saw.</p>\n                    <img src=\"bees-with-color/bee-B2DM.svg\" width=\"200\">\n                    <p><span class=\"greenText\"><b>Successful harvest!</b></span><br>Your pay has increased by $0.02. Your bonus pay is now $0.20.</p>\n            ","response":0,"trial_type":"html-button-response","trial_index":46,"time_elapsed":490998,"internal_node_id":"0.0-4.0-1.17","subject_id":"5fb813023bdaed4bc4bd3967","study_id":"60edd13110225f80f9f3709b","session_id":"6196c4a8f20d57e86a2da2ef","condition":"contingent","relevant_dimensions":["wings","legs"],"bee_group":{"antennae":"X","wings":"1","pattern":"X","legs":"M"},"bonus":0.6200000000000002},{"rt":18402.60000000149,"stimulus":"bees-with-color/bee-A2DF.svg","response":0,"trial_type":"image-button-response","trial_index":47,"time_elapsed":509401,"internal_node_id":"0.0-4.0-0.18","subject_id":"5fb813023bdaed4bc4bd3967","study_id":"60edd13110225f80f9f3709b","session_id":"6196c4a8f20d57e86a2da2ef","condition":"contingent","relevant_dimensions":["wings","legs"],"bee_group":{"antennae":"X","wings":"1","pattern":"X","legs":"M"},"action":"harvest","summary":"good-harvest","bonus":0.6200000000000002},{"rt":745.5,"stimulus":"\n                    <p><b>Action: <em>harvest</em></b></p>\n                    <p>This is the bee that you just saw.</p>\n                    <img src=\"bees-with-color/bee-A2DF.svg\" width=\"200\">\n                    <p><span class=\"greenText\"><b>Successful harvest!</b></span><br>Your pay has increased by $0.02. Your bonus pay is now $0.22.</p>\n            ","response":0,"trial_type":"html-button-response","trial_index":48,"time_elapsed":510148,"internal_node_id":"0.0-4.0-1.18","subject_id":"5fb813023bdaed4bc4bd3967","study_id":"60edd13110225f80f9f3709b","session_id":"6196c4a8f20d57e86a2da2ef","condition":"contingent","relevant_dimensions":["wings","legs"],"bee_group":{"antennae":"X","wings":"1","pattern":"X","legs":"M"},"bonus":0.6200000000000002},{"rt":1116.7000000011176,"stimulus":"bees-with-color/bee-B1DF.svg","response":1,"trial_type":"image-button-response","trial_index":49,"time_elapsed":511266,"internal_node_id":"0.0-4.0-0.19","subject_id":"5fb813023bdaed4bc4bd3967","study_id":"60edd13110225f80f9f3709b","session_id":"6196c4a8f20d57e86a2da2ef","condition":"contingent","relevant_dimensions":["wings","legs"],"bee_group":{"antennae":"X","wings":"1","pattern":"X","legs":"M"},"action":"avoid","summary":"bad-avoid","bonus":0.6200000000000002},{"rt":674.9000000003725,"stimulus":"\n                    <p><b>Action: <em>avoid</em></b></p>\n                    <p>This is the bee that you just saw.</p>\n                    <img src=\"bees-with-color/bee-B1DF.svg\" width=\"200\">\n                    <p><br>Your bonus pay is unchanged, and remains at $0.22.</p>\n            ","response":0,"trial_type":"html-button-response","trial_index":50,"time_elapsed":511942,"internal_node_id":"0.0-4.0-1.19","subject_id":"5fb813023bdaed4bc4bd3967","study_id":"60edd13110225f80f9f3709b","session_id":"6196c4a8f20d57e86a2da2ef","condition":"contingent","relevant_dimensions":["wings","legs"],"bee_group":{"antennae":"X","wings":"1","pattern":"X","legs":"M"},"bonus":0.6200000000000002},{"rt":881.5,"stimulus":"bees-with-color/bee-A2SF.svg","response":0,"trial_type":"image-button-response","trial_index":51,"time_elapsed":512824,"internal_node_id":"0.0-4.0-0.20","subject_id":"5fb813023bdaed4bc4bd3967","study_id":"60edd13110225f80f9f3709b","session_id":"6196c4a8f20d57e86a2da2ef","condition":"contingent","relevant_dimensions":["wings","legs"],"bee_group":{"antennae":"X","wings":"1","pattern":"X","legs":"M"},"action":"harvest","summary":"good-harvest","bonus":0.6200000000000002},{"rt":725.0999999996275,"stimulus":"\n                    <p><b>Action: <em>harvest</em></b></p>\n                    <p>This is the bee that you just saw.</p>\n                    <img src=\"bees-with-color/bee-A2SF.svg\" width=\"200\">\n                    <p><span class=\"greenText\"><b>Successful harvest!</b></span><br>Your pay has increased by $0.02. Your bonus pay is now $0.24.</p>\n            ","response":0,"trial_type":"html-button-response","trial_index":52,"time_elapsed":513549,"internal_node_id":"0.0-4.0-1.20","subject_id":"5fb813023bdaed4bc4bd3967","study_id":"60edd13110225f80f9f3709b","session_id":"6196c4a8f20d57e86a2da2ef","condition":"contingent","relevant_dimensions":["wings","legs"],"bee_group":{"antennae":"X","wings":"1","pattern":"X","legs":"M"},"bonus":0.6200000000000002},{"rt":1066.5999999996275,"stimulus":"bees-with-color/bee-B2SF.svg","response":1,"trial_type":"image-button-response","trial_index":53,"time_elapsed":514617,"internal_node_id":"0.0-4.0-0.21","subject_id":"5fb813023bdaed4bc4bd3967","study_id":"60edd13110225f80f9f3709b","session_id":"6196c4a8f20d57e86a2da2ef","condition":"contingent","relevant_dimensions":["wings","legs"],"bee_group":{"antennae":"X","wings":"1","pattern":"X","legs":"M"},"action":"avoid","summary":"bad-avoid","bonus":0.6200000000000002},{"rt":733.9000000003725,"stimulus":"\n                    <p><b>Action: <em>avoid</em></b></p>\n                    <p>This is the bee that you just saw.</p>\n                    <img src=\"bees-with-color/bee-B2SF.svg\" width=\"200\">\n                    <p><br>Your bonus pay is unchanged, and remains at $0.24.</p>\n            ","response":0,"trial_type":"html-button-response","trial_index":54,"time_elapsed":515351,"internal_node_id":"0.0-4.0-1.21","subject_id":"5fb813023bdaed4bc4bd3967","study_id":"60edd13110225f80f9f3709b","session_id":"6196c4a8f20d57e86a2da2ef","condition":"contingent","relevant_dimensions":["wings","legs"],"bee_group":{"antennae":"X","wings":"1","pattern":"X","legs":"M"},"bonus":0.6200000000000002},{"rt":1045.4000000003725,"stimulus":"bees-with-color/bee-B1DM.svg","response":1,"trial_type":"image-button-response","trial_index":55,"time_elapsed":516397,"internal_node_id":"0.0-4.0-0.22","subject_id":"5fb813023bdaed4bc4bd3967","study_id":"60edd13110225f80f9f3709b","session_id":"6196c4a8f20d57e86a2da2ef","condition":"contingent","relevant_dimensions":["wings","legs"],"bee_group":{"antennae":"X","wings":"1","pattern":"X","legs":"M"},"action":"avoid","summary":"good-avoid","bonus":0.6200000000000002},{"rt":521.0999999996275,"stimulus":"\n                    <p><b>Action: <em>avoid</em></b></p>\n                    <p>This is the bee that you just saw.</p>\n                    <img src=\"bees-with-color/bee-B1DM.svg\" width=\"200\">\n                    <p><br>Your bonus pay is unchanged, and remains at $0.24.</p>\n            ","response":0,"trial_type":"html-button-response","trial_index":56,"time_elapsed":516919,"internal_node_id":"0.0-4.0-1.22","subject_id":"5fb813023bdaed4bc4bd3967","study_id":"60edd13110225f80f9f3709b","session_id":"6196c4a8f20d57e86a2da2ef","condition":"contingent","relevant_dimensions":["wings","legs"],"bee_group":{"antennae":"X","wings":"1","pattern":"X","legs":"M"},"bonus":0.6200000000000002},{"rt":943.1999999992549,"stimulus":"bees-with-color/bee-B2DF.svg","response":1,"trial_type":"image-button-response","trial_index":57,"time_elapsed":517863,"internal_node_id":"0.0-4.0-0.23","subject_id":"5fb813023bdaed4bc4bd3967","study_id":"60edd13110225f80f9f3709b","session_id":"6196c4a8f20d57e86a2da2ef","condition":"contingent","relevant_dimensions":["wings","legs"],"bee_group":{"antennae":"X","wings":"1","pattern":"X","legs":"M"},"action":"avoid","summary":"bad-avoid","bonus":0.6200000000000002},{"rt":525.1999999992549,"stimulus":"\n                    <p><b>Action: <em>avoid</em></b></p>\n                    <p>This is the bee that you just saw.</p>\n                    <img src=\"bees-with-color/bee-B2DF.svg\" width=\"200\">\n                    <p><br>Your bonus pay is unchanged, and remains at $0.24.</p>\n            ","response":0,"trial_type":"html-button-response","trial_index":58,"time_elapsed":518389,"internal_node_id":"0.0-4.0-1.23","subject_id":"5fb813023bdaed4bc4bd3967","study_id":"60edd13110225f80f9f3709b","session_id":"6196c4a8f20d57e86a2da2ef","condition":"contingent","relevant_dimensions":["wings","legs"],"bee_group":{"antennae":"X","wings":"1","pattern":"X","legs":"M"},"bonus":0.6200000000000002},{"rt":813.1999999992549,"stimulus":"bees-with-color/bee-A1DM.svg","response":0,"trial_type":"image-button-response","trial_index":59,"time_elapsed":519203,"internal_node_id":"0.0-4.0-0.24","subject_id":"5fb813023bdaed4bc4bd3967","study_id":"60edd13110225f80f9f3709b","session_id":"6196c4a8f20d57e86a2da2ef","condition":"contingent","relevant_dimensions":["wings","legs"],"bee_group":{"antennae":"X","wings":"1","pattern":"X","legs":"M"},"action":"harvest","summary":"bad-harvest","bonus":0.6200000000000002},{"rt":1380.699999999255,"stimulus":"\n                    <p><b>Action: <em>harvest</em></b></p>\n                    <p>This is the bee that you just saw.</p>\n                    <img src=\"bees-with-color/bee-A1DM.svg\" width=\"200\">\n                    <p><span class=\"redText\">Bad choice, the bee was angry.</span><br><b>You have been stung!</b><br>Your pay has been decreased by $0.10. Your bonus pay is now $0.14.</p>\n            ","response":0,"trial_type":"html-button-response","trial_index":60,"time_elapsed":520585,"internal_node_id":"0.0-4.0-1.24","subject_id":"5fb813023bdaed4bc4bd3967","study_id":"60edd13110225f80f9f3709b","session_id":"6196c4a8f20d57e86a2da2ef","condition":"contingent","relevant_dimensions":["wings","legs"],"bee_group":{"antennae":"X","wings":"1","pattern":"X","legs":"M"},"bonus":0.6200000000000002},{"rt":6013.300000000745,"stimulus":"bees-with-color/bee-B2SM.svg","response":0,"trial_type":"image-button-response","trial_index":61,"time_elapsed":526599,"internal_node_id":"0.0-4.0-0.25","subject_id":"5fb813023bdaed4bc4bd3967","study_id":"60edd13110225f80f9f3709b","session_id":"6196c4a8f20d57e86a2da2ef","condition":"contingent","relevant_dimensions":["wings","legs"],"bee_group":{"antennae":"X","wings":"1","pattern":"X","legs":"M"},"action":"harvest","summary":"good-harvest","bonus":0.6200000000000002},{"rt":1065.2000000011176,"stimulus":"\n                    <p><b>Action: <em>harvest</em></b></p>\n                    <p>This is the bee that you just saw.</p>\n                    <img src=\"bees-with-color/bee-B2SM.svg\" width=\"200\">\n                    <p><span class=\"greenText\"><b>Successful harvest!</b></span><br>Your pay has increased by $0.02. Your bonus pay is now $0.16.</p>\n            ","response":0,"trial_type":"html-button-response","trial_index":62,"time_elapsed":527665,"internal_node_id":"0.0-4.0-1.25","subject_id":"5fb813023bdaed4bc4bd3967","study_id":"60edd13110225f80f9f3709b","session_id":"6196c4a8f20d57e86a2da2ef","condition":"contingent","relevant_dimensions":["wings","legs"],"bee_group":{"antennae":"X","wings":"1","pattern":"X","legs":"M"},"bonus":0.6200000000000002},{"rt":3097.0999999996275,"stimulus":"bees-with-color/bee-A1DF.svg","response":1,"trial_type":"image-button-response","trial_index":63,"time_elapsed":530763,"internal_node_id":"0.0-4.0-0.26","subject_id":"5fb813023bdaed4bc4bd3967","study_id":"60edd13110225f80f9f3709b","session_id":"6196c4a8f20d57e86a2da2ef","condition":"contingent","relevant_dimensions":["wings","legs"],"bee_group":{"antennae":"X","wings":"1","pattern":"X","legs":"M"},"action":"avoid","summary":"bad-avoid","bonus":0.6200000000000002},{"rt":538.5999999996275,"stimulus":"\n                    <p><b>Action: <em>avoid</em></b></p>\n                    <p>This is the bee that you just saw.</p>\n                    <img src=\"bees-with-color/bee-A1DF.svg\" width=\"200\">\n                    <p><br>Your bonus pay is unchanged, and remains at $0.16.</p>\n            ","response":0,"trial_type":"html-button-response","trial_index":64,"time_elapsed":531303,"internal_node_id":"0.0-4.0-1.26","subject_id":"5fb813023bdaed4bc4bd3967","study_id":"60edd13110225f80f9f3709b","session_id":"6196c4a8f20d57e86a2da2ef","condition":"contingent","relevant_dimensions":["wings","legs"],"bee_group":{"antennae":"X","wings":"1","pattern":"X","legs":"M"},"bonus":0.6200000000000002},{"rt":1839.300000000745,"stimulus":"bees-with-color/bee-A2DM.svg","response":1,"trial_type":"image-button-response","trial_index":65,"time_elapsed":533143,"internal_node_id":"0.0-4.0-0.27","subject_id":"5fb813023bdaed4bc4bd3967","study_id":"60edd13110225f80f9f3709b","session_id":"6196c4a8f20d57e86a2da2ef","condition":"contingent","relevant_dimensions":["wings","legs"],"bee_group":{"antennae":"X","wings":"1","pattern":"X","legs":"M"},"action":"avoid","summary":"bad-avoid","bonus":0.6200000000000002},{"rt":458.7999999988824,"stimulus":"\n                    <p><b>Action: <em>avoid</em></b></p>\n                    <p>This is the bee that you just saw.</p>\n                    <img src=\"bees-with-color/bee-A2DM.svg\" width=\"200\">\n                    <p><br>Your bonus pay is unchanged, and remains at $0.16.</p>\n            ","response":0,"trial_type":"html-button-response","trial_index":66,"time_elapsed":533603,"internal_node_id":"0.0-4.0-1.27","subject_id":"5fb813023bdaed4bc4bd3967","study_id":"60edd13110225f80f9f3709b","session_id":"6196c4a8f20d57e86a2da2ef","condition":"contingent","relevant_dimensions":["wings","legs"],"bee_group":{"antennae":"X","wings":"1","pattern":"X","legs":"M"},"bonus":0.6200000000000002},{"rt":883.7999999988824,"stimulus":"bees-with-color/bee-A1SF.svg","response":0,"trial_type":"image-button-response","trial_index":67,"time_elapsed":534487,"internal_node_id":"0.0-4.0-0.28","subject_id":"5fb813023bdaed4bc4bd3967","study_id":"60edd13110225f80f9f3709b","session_id":"6196c4a8f20d57e86a2da2ef","condition":"contingent","relevant_dimensions":["wings","legs"],"bee_group":{"antennae":"X","wings":"1","pattern":"X","legs":"M"},"action":"harvest","summary":"good-harvest","bonus":0.6200000000000002},{"rt":929.0999999996275,"stimulus":"\n                    <p><b>Action: <em>harvest</em></b></p>\n                    <p>This is the bee that you just saw.</p>\n                    <img src=\"bees-with-color/bee-A1SF.svg\" width=\"200\">\n                    <p><span class=\"greenText\"><b>Successful harvest!</b></span><br>Your pay has increased by $0.02. Your bonus pay is now $0.18.</p>\n            ","response":0,"trial_type":"html-button-response","trial_index":68,"time_elapsed":535417,"internal_node_id":"0.0-4.0-1.28","subject_id":"5fb813023bdaed4bc4bd3967","study_id":"60edd13110225f80f9f3709b","session_id":"6196c4a8f20d57e86a2da2ef","condition":"contingent","relevant_dimensions":["wings","legs"],"bee_group":{"antennae":"X","wings":"1","pattern":"X","legs":"M"},"bonus":0.6200000000000002},{"rt":1153.199999999255,"stimulus":"bees-with-color/bee-A1SM.svg","response":0,"trial_type":"image-button-response","trial_index":69,"time_elapsed":536571,"internal_node_id":"0.0-4.0-0.29","subject_id":"5fb813023bdaed4bc4bd3967","study_id":"60edd13110225f80f9f3709b","session_id":"6196c4a8f20d57e86a2da2ef","condition":"contingent","relevant_dimensions":["wings","legs"],"bee_group":{"antennae":"X","wings":"1","pattern":"X","legs":"M"},"action":"harvest","summary":"bad-harvest","bonus":0.6200000000000002},{"rt":1215.0999999996275,"stimulus":"\n                    <p><b>Action: <em>harvest</em></b></p>\n                    <p>This is the bee that you just saw.</p>\n                    <img src=\"bees-with-color/bee-A1SM.svg\" width=\"200\">\n                    <p><span class=\"redText\">Bad choice, the bee was angry.</span><br><b>You have been stung!</b><br>Your pay has been decreased by $0.10. Your bonus pay is now $0.08.</p>\n            ","response":0,"trial_type":"html-button-response","trial_index":70,"time_elapsed":537787,"internal_node_id":"0.0-4.0-1.29","subject_id":"5fb813023bdaed4bc4bd3967","study_id":"60edd13110225f80f9f3709b","session_id":"6196c4a8f20d57e86a2da2ef","condition":"contingent","relevant_dimensions":["wings","legs"],"bee_group":{"antennae":"X","wings":"1","pattern":"X","legs":"M"},"bonus":0.6200000000000002},{"rt":565.1999999992549,"stimulus":"bees-with-color/bee-A2SM.svg","response":1,"trial_type":"image-button-response","trial_index":71,"time_elapsed":538353,"internal_node_id":"0.0-4.0-0.30","subject_id":"5fb813023bdaed4bc4bd3967","study_id":"60edd13110225f80f9f3709b","session_id":"6196c4a8f20d57e86a2da2ef","condition":"contingent","relevant_dimensions":["wings","legs"],"bee_group":{"antennae":"X","wings":"1","pattern":"X","legs":"M"},"action":"avoid","summary":"bad-avoid","bonus":0.6200000000000002},{"rt":1150.9000000003725,"stimulus":"\n                    <p><b>Action: <em>avoid</em></b></p>\n                    <p>This is the bee that you just saw.</p>\n                    <img src=\"bees-with-color/bee-A2SM.svg\" width=\"200\">\n                    <p><br>Your bonus pay is unchanged, and remains at $0.08.</p>\n            ","response":0,"trial_type":"html-button-response","trial_index":72,"time_elapsed":539505,"internal_node_id":"0.0-4.0-1.30","subject_id":"5fb813023bdaed4bc4bd3967","study_id":"60edd13110225f80f9f3709b","session_id":"6196c4a8f20d57e86a2da2ef","condition":"contingent","relevant_dimensions":["wings","legs"],"bee_group":{"antennae":"X","wings":"1","pattern":"X","legs":"M"},"bonus":0.6200000000000002},{"rt":1703.2999999988824,"stimulus":"bees-with-color/bee-B1SF.svg","response":0,"trial_type":"image-button-response","trial_index":73,"time_elapsed":541210,"internal_node_id":"0.0-4.0-0.31","subject_id":"5fb813023bdaed4bc4bd3967","study_id":"60edd13110225f80f9f3709b","session_id":"6196c4a8f20d57e86a2da2ef","condition":"contingent","relevant_dimensions":["wings","legs"],"bee_group":{"antennae":"X","wings":"1","pattern":"X","legs":"M"},"action":"harvest","summary":"good-harvest","bonus":0.6200000000000002},{"rt":932.9000000003725,"stimulus":"\n                    <p><b>Action: <em>harvest</em></b></p>\n                    <p>This is the bee that you just saw.</p>\n                    <img src=\"bees-with-color/bee-B1SF.svg\" width=\"200\">\n                    <p><span class=\"greenText\"><b>Successful harvest!</b></span><br>Your pay has increased by $0.02. Your bonus pay is now $0.10.</p>\n            ","response":0,"trial_type":"html-button-response","trial_index":74,"time_elapsed":542143,"internal_node_id":"0.0-4.0-1.31","subject_id":"5fb813023bdaed4bc4bd3967","study_id":"60edd13110225f80f9f3709b","session_id":"6196c4a8f20d57e86a2da2ef","condition":"contingent","relevant_dimensions":["wings","legs"],"bee_group":{"antennae":"X","wings":"1","pattern":"X","legs":"M"},"bonus":0.6200000000000002},{"rt":1047.0999999996275,"stimulus":"bees-with-color/bee-B2DM.svg","response":1,"trial_type":"image-button-response","trial_index":75,"time_elapsed":543191,"internal_node_id":"0.0-4.0-0.32","subject_id":"5fb813023bdaed4bc4bd3967","study_id":"60edd13110225f80f9f3709b","session_id":"6196c4a8f20d57e86a2da2ef","condition":"contingent","relevant_dimensions":["wings","legs"],"bee_group":{"antennae":"X","wings":"1","pattern":"X","legs":"M"},"action":"avoid","summary":"bad-avoid","bonus":0.6200000000000002},{"rt":1247.0999999996275,"stimulus":"\n                    <p><b>Action: <em>avoid</em></b></p>\n                    <p>This is the bee that you just saw.</p>\n                    <img src=\"bees-with-color/bee-B2DM.svg\" width=\"200\">\n                    <p><br>Your bonus pay is unchanged, and remains at $0.10.</p>\n            ","response":0,"trial_type":"html-button-response","trial_index":76,"time_elapsed":544439,"internal_node_id":"0.0-4.0-1.32","subject_id":"5fb813023bdaed4bc4bd3967","study_id":"60edd13110225f80f9f3709b","session_id":"6196c4a8f20d57e86a2da2ef","condition":"contingent","relevant_dimensions":["wings","legs"],"bee_group":{"antennae":"X","wings":"1","pattern":"X","legs":"M"},"bonus":0.6200000000000002},{"rt":1440.7000000011176,"stimulus":"bees-with-color/bee-B2SM.svg","response":0,"trial_type":"image-button-response","trial_index":77,"time_elapsed":545881,"internal_node_id":"0.0-4.0-0.33","subject_id":"5fb813023bdaed4bc4bd3967","study_id":"60edd13110225f80f9f3709b","session_id":"6196c4a8f20d57e86a2da2ef","condition":"contingent","relevant_dimensions":["wings","legs"],"bee_group":{"antennae":"X","wings":"1","pattern":"X","legs":"M"},"action":"harvest","summary":"good-harvest","bonus":0.6200000000000002},{"rt":821,"stimulus":"\n                    <p><b>Action: <em>harvest</em></b></p>\n                    <p>This is the bee that you just saw.</p>\n                    <img src=\"bees-with-color/bee-B2SM.svg\" width=\"200\">\n                    <p><span class=\"greenText\"><b>Successful harvest!</b></span><br>Your pay has increased by $0.02. Your bonus pay is now $0.12.</p>\n            ","response":0,"trial_type":"html-button-response","trial_index":78,"time_elapsed":546703,"internal_node_id":"0.0-4.0-1.33","subject_id":"5fb813023bdaed4bc4bd3967","study_id":"60edd13110225f80f9f3709b","session_id":"6196c4a8f20d57e86a2da2ef","condition":"contingent","relevant_dimensions":["wings","legs"],"bee_group":{"antennae":"X","wings":"1","pattern":"X","legs":"M"},"bonus":0.6200000000000002},{"rt":18723,"stimulus":"bees-with-color/bee-A1DM.svg","response":0,"trial_type":"image-button-response","trial_index":79,"time_elapsed":565427,"internal_node_id":"0.0-4.0-0.34","subject_id":"5fb813023bdaed4bc4bd3967","study_id":"60edd13110225f80f9f3709b","session_id":"6196c4a8f20d57e86a2da2ef","condition":"contingent","relevant_dimensions":["wings","legs"],"bee_group":{"antennae":"X","wings":"1","pattern":"X","legs":"M"},"action":"harvest","summary":"bad-harvest","bonus":0.6200000000000002},{"rt":1127.199999999255,"stimulus":"\n                    <p><b>Action: <em>harvest</em></b></p>\n                    <p>This is the bee that you just saw.</p>\n                    <img src=\"bees-with-color/bee-A1DM.svg\" width=\"200\">\n                    <p><span class=\"redText\">Bad choice, the bee was angry.</span><br><b>You have been stung!</b><br>Your pay has been decreased by $0.10. Your bonus pay is now $0.02.</p>\n            ","response":0,"trial_type":"html-button-response","trial_index":80,"time_elapsed":566555,"internal_node_id":"0.0-4.0-1.34","subject_id":"5fb813023bdaed4bc4bd3967","study_id":"60edd13110225f80f9f3709b","session_id":"6196c4a8f20d57e86a2da2ef","condition":"contingent","relevant_dimensions":["wings","legs"],"bee_group":{"antennae":"X","wings":"1","pattern":"X","legs":"M"},"bonus":0.6200000000000002},{"rt":4884.700000001118,"stimulus":"bees-with-color/bee-A2DM.svg","response":0,"trial_type":"image-button-response","trial_index":81,"time_elapsed":571441,"internal_node_id":"0.0-4.0-0.35","subject_id":"5fb813023bdaed4bc4bd3967","study_id":"60edd13110225f80f9f3709b","session_id":"6196c4a8f20d57e86a2da2ef","condition":"contingent","relevant_dimensions":["wings","legs"],"bee_group":{"antennae":"X","wings":"1","pattern":"X","legs":"M"},"action":"harvest","summary":"good-harvest","bonus":0.6200000000000002},{"rt":2043.300000000745,"stimulus":"\n                    <p><b>Action: <em>harvest</em></b></p>\n                    <p>This is the bee that you just saw.</p>\n                    <img src=\"bees-with-color/bee-A2DM.svg\" width=\"200\">\n                    <p><span class=\"greenText\"><b>Successful harvest!</b></span><br>Your pay has increased by $0.02. Your bonus pay is now $0.04.</p>\n            ","response":0,"trial_type":"html-button-response","trial_index":82,"time_elapsed":573485,"internal_node_id":"0.0-4.0-1.35","subject_id":"5fb813023bdaed4bc4bd3967","study_id":"60edd13110225f80f9f3709b","session_id":"6196c4a8f20d57e86a2da2ef","condition":"contingent","relevant_dimensions":["wings","legs"],"bee_group":{"antennae":"X","wings":"1","pattern":"X","legs":"M"},"bonus":0.6200000000000002},{"rt":4752.800000000745,"stimulus":"bees-with-color/bee-B1SM.svg","response":0,"trial_type":"image-button-response","trial_index":83,"time_elapsed":578239,"internal_node_id":"0.0-4.0-0.36","subject_id":"5fb813023bdaed4bc4bd3967","study_id":"60edd13110225f80f9f3709b","session_id":"6196c4a8f20d57e86a2da2ef","condition":"contingent","relevant_dimensions":["wings","legs"],"bee_group":{"antennae":"X","wings":"1","pattern":"X","legs":"M"},"action":"harvest","summary":"bad-harvest","bonus":0.6200000000000002},{"rt":1841.0999999996275,"stimulus":"\n                    <p><b>Action: <em>harvest</em></b></p>\n                    <p>This is the bee that you just saw.</p>\n                    <img src=\"bees-with-color/bee-B1SM.svg\" width=\"200\">\n                    <p><span class=\"redText\">Bad choice, the bee was angry.</span><br><b>You have been stung!</b><br>Your pay has been decreased by $0.10. Your bonus pay is now $0.00.</p>\n            ","response":0,"trial_type":"html-button-response","trial_index":84,"time_elapsed":580081,"internal_node_id":"0.0-4.0-1.36","subject_id":"5fb813023bdaed4bc4bd3967","study_id":"60edd13110225f80f9f3709b","session_id":"6196c4a8f20d57e86a2da2ef","condition":"contingent","relevant_dimensions":["wings","legs"],"bee_group":{"antennae":"X","wings":"1","pattern":"X","legs":"M"},"bonus":0.6200000000000002},{"rt":4664.9000000003725,"stimulus":"bees-with-color/bee-A1DF.svg","response":1,"trial_type":"image-button-response","trial_index":85,"time_elapsed":584747,"internal_node_id":"0.0-4.0-0.37","subject_id":"5fb813023bdaed4bc4bd3967","study_id":"60edd13110225f80f9f3709b","session_id":"6196c4a8f20d57e86a2da2ef","condition":"contingent","relevant_dimensions":["wings","legs"],"bee_group":{"antennae":"X","wings":"1","pattern":"X","legs":"M"},"action":"avoid","summary":"bad-avoid","bonus":0.6200000000000002},{"rt":839.2999999988824,"stimulus":"\n                    <p><b>Action: <em>avoid</em></b></p>\n                    <p>This is the bee that you just saw.</p>\n                    <img src=\"bees-with-color/bee-A1DF.svg\" width=\"200\">\n                    <p><br>Your bonus pay is unchanged, and remains at $0.00.</p>\n            ","response":0,"trial_type":"html-button-response","trial_index":86,"time_elapsed":585587,"internal_node_id":"0.0-4.0-1.37","subject_id":"5fb813023bdaed4bc4bd3967","study_id":"60edd13110225f80f9f3709b","session_id":"6196c4a8f20d57e86a2da2ef","condition":"contingent","relevant_dimensions":["wings","legs"],"bee_group":{"antennae":"X","wings":"1","pattern":"X","legs":"M"},"bonus":0.6200000000000002},{"rt":634.8000000007451,"stimulus":"bees-with-color/bee-A1SF.svg","response":0,"trial_type":"image-button-response","trial_index":87,"time_elapsed":586223,"internal_node_id":"0.0-4.0-0.38","subject_id":"5fb813023bdaed4bc4bd3967","study_id":"60edd13110225f80f9f3709b","session_id":"6196c4a8f20d57e86a2da2ef","condition":"contingent","relevant_dimensions":["wings","legs"],"bee_group":{"antennae":"X","wings":"1","pattern":"X","legs":"M"},"action":"harvest","summary":"good-harvest","bonus":0.6200000000000002},{"rt":1249,"stimulus":"\n                    <p><b>Action: <em>harvest</em></b></p>\n                    <p>This is the bee that you just saw.</p>\n                    <img src=\"bees-with-color/bee-A1SF.svg\" width=\"200\">\n                    <p><span class=\"greenText\"><b>Successful harvest!</b></span><br>Your pay has increased by $0.02. Your bonus pay is now $0.02.</p>\n            ","response":0,"trial_type":"html-button-response","trial_index":88,"time_elapsed":587473,"internal_node_id":"0.0-4.0-1.38","subject_id":"5fb813023bdaed4bc4bd3967","study_id":"60edd13110225f80f9f3709b","session_id":"6196c4a8f20d57e86a2da2ef","condition":"contingent","relevant_dimensions":["wings","legs"],"bee_group":{"antennae":"X","wings":"1","pattern":"X","legs":"M"},"bonus":0.6200000000000002},{"rt":795,"stimulus":"bees-with-color/bee-B1DF.svg","response":0,"trial_type":"image-button-response","trial_index":89,"time_elapsed":588269,"internal_node_id":"0.0-4.0-0.39","subject_id":"5fb813023bdaed4bc4bd3967","study_id":"60edd13110225f80f9f3709b","session_id":"6196c4a8f20d57e86a2da2ef","condition":"contingent","relevant_dimensions":["wings","legs"],"bee_group":{"antennae":"X","wings":"1","pattern":"X","legs":"M"},"action":"harvest","summary":"good-harvest","bonus":0.6200000000000002},{"rt":1903.199999999255,"stimulus":"\n                    <p><b>Action: <em>harvest</em></b></p>\n                    <p>This is the bee that you just saw.</p>\n                    <img src=\"bees-with-color/bee-B1DF.svg\" width=\"200\">\n                    <p><span class=\"greenText\"><b>Successful harvest!</b></span><br>Your pay has increased by $0.02. Your bonus pay is now $0.04.</p>\n            ","response":0,"trial_type":"html-button-response","trial_index":90,"time_elapsed":590173,"internal_node_id":"0.0-4.0-1.39","subject_id":"5fb813023bdaed4bc4bd3967","study_id":"60edd13110225f80f9f3709b","session_id":"6196c4a8f20d57e86a2da2ef","condition":"contingent","relevant_dimensions":["wings","legs"],"bee_group":{"antennae":"X","wings":"1","pattern":"X","legs":"M"},"bonus":0.6200000000000002},{"rt":2751.199999999255,"stimulus":"bees-with-color/bee-A2SF.svg","response":0,"trial_type":"image-button-response","trial_index":91,"time_elapsed":592925,"internal_node_id":"0.0-4.0-0.40","subject_id":"5fb813023bdaed4bc4bd3967","study_id":"60edd13110225f80f9f3709b","session_id":"6196c4a8f20d57e86a2da2ef","condition":"contingent","relevant_dimensions":["wings","legs"],"bee_group":{"antennae":"X","wings":"1","pattern":"X","legs":"M"},"action":"harvest","summary":"good-harvest","bonus":0.6200000000000002},{"rt":9261.099999999627,"stimulus":"\n                    <p><b>Action: <em>harvest</em></b></p>\n                    <p>This is the bee that you just saw.</p>\n                    <img src=\"bees-with-color/bee-A2SF.svg\" width=\"200\">\n                    <p><span class=\"greenText\"><b>Successful harvest!</b></span><br>Your pay has increased by $0.02. Your bonus pay is now $0.06.</p>\n            ","response":0,"trial_type":"html-button-response","trial_index":92,"time_elapsed":602187,"internal_node_id":"0.0-4.0-1.40","subject_id":"5fb813023bdaed4bc4bd3967","study_id":"60edd13110225f80f9f3709b","session_id":"6196c4a8f20d57e86a2da2ef","condition":"contingent","relevant_dimensions":["wings","legs"],"bee_group":{"antennae":"X","wings":"1","pattern":"X","legs":"M"},"bonus":0.6200000000000002},{"rt":1265.4000000003725,"stimulus":"bees-with-color/bee-B2SF.svg","response":0,"trial_type":"image-button-response","trial_index":93,"time_elapsed":603454,"internal_node_id":"0.0-4.0-0.41","subject_id":"5fb813023bdaed4bc4bd3967","study_id":"60edd13110225f80f9f3709b","session_id":"6196c4a8f20d57e86a2da2ef","condition":"contingent","relevant_dimensions":["wings","legs"],"bee_group":{"antennae":"X","wings":"1","pattern":"X","legs":"M"},"action":"harvest","summary":"good-harvest","bonus":0.6200000000000002},{"rt":3218.699999999255,"stimulus":"\n                    <p><b>Action: <em>harvest</em></b></p>\n                    <p>This is the bee that you just saw.</p>\n                    <img src=\"bees-with-color/bee-B2SF.svg\" width=\"200\">\n                    <p><span class=\"greenText\"><b>Successful harvest!</b></span><br>Your pay has increased by $0.02. Your bonus pay is now $0.08.</p>\n            ","response":0,"trial_type":"html-button-response","trial_index":94,"time_elapsed":606673,"internal_node_id":"0.0-4.0-1.41","subject_id":"5fb813023bdaed4bc4bd3967","study_id":"60edd13110225f80f9f3709b","session_id":"6196c4a8f20d57e86a2da2ef","condition":"contingent","relevant_dimensions":["wings","legs"],"bee_group":{"antennae":"X","wings":"1","pattern":"X","legs":"M"},"bonus":0.6200000000000002},{"rt":3828.7999999988824,"stimulus":"bees-with-color/bee-A2SM.svg","response":0,"trial_type":"image-button-response","trial_index":95,"time_elapsed":610503,"internal_node_id":"0.0-4.0-0.42","subject_id":"5fb813023bdaed4bc4bd3967","study_id":"60edd13110225f80f9f3709b","session_id":"6196c4a8f20d57e86a2da2ef","condition":"contingent","relevant_dimensions":["wings","legs"],"bee_group":{"antennae":"X","wings":"1","pattern":"X","legs":"M"},"action":"harvest","summary":"good-harvest","bonus":0.6200000000000002},{"rt":2061.199999999255,"stimulus":"\n                    <p><b>Action: <em>harvest</em></b></p>\n                    <p>This is the bee that you just saw.</p>\n                    <img src=\"bees-with-color/bee-A2SM.svg\" width=\"200\">\n                    <p><span class=\"greenText\"><b>Successful harvest!</b></span><br>Your pay has increased by $0.02. Your bonus pay is now $0.10.</p>\n            ","response":0,"trial_type":"html-button-response","trial_index":96,"time_elapsed":612565,"internal_node_id":"0.0-4.0-1.42","subject_id":"5fb813023bdaed4bc4bd3967","study_id":"60edd13110225f80f9f3709b","session_id":"6196c4a8f20d57e86a2da2ef","condition":"contingent","relevant_dimensions":["wings","legs"],"bee_group":{"antennae":"X","wings":"1","pattern":"X","legs":"M"},"bonus":0.6200000000000002},{"rt":1142.6000000014901,"stimulus":"bees-with-color/bee-B1SF.svg","response":1,"trial_type":"image-button-response","trial_index":97,"time_elapsed":613709,"internal_node_id":"0.0-4.0-0.43","subject_id":"5fb813023bdaed4bc4bd3967","study_id":"60edd13110225f80f9f3709b","session_id":"6196c4a8f20d57e86a2da2ef","condition":"contingent","relevant_dimensions":["wings","legs"],"bee_group":{"antennae":"X","wings":"1","pattern":"X","legs":"M"},"action":"avoid","summary":"bad-avoid","bonus":0.6200000000000002},{"rt":1129.4000000003725,"stimulus":"\n                    <p><b>Action: <em>avoid</em></b></p>\n                    <p>This is the bee that you just saw.</p>\n                    <img src=\"bees-with-color/bee-B1SF.svg\" width=\"200\">\n                    <p><br>Your bonus pay is unchanged, and remains at $0.10.</p>\n            ","response":0,"trial_type":"html-button-response","trial_index":98,"time_elapsed":614839,"internal_node_id":"0.0-4.0-1.43","subject_id":"5fb813023bdaed4bc4bd3967","study_id":"60edd13110225f80f9f3709b","session_id":"6196c4a8f20d57e86a2da2ef","condition":"contingent","relevant_dimensions":["wings","legs"],"bee_group":{"antennae":"X","wings":"1","pattern":"X","legs":"M"},"bonus":0.6200000000000002},{"rt":1443.2999999988824,"stimulus":"bees-with-color/bee-A2DF.svg","response":0,"trial_type":"image-button-response","trial_index":99,"time_elapsed":616283,"internal_node_id":"0.0-4.0-0.44","subject_id":"5fb813023bdaed4bc4bd3967","study_id":"60edd13110225f80f9f3709b","session_id":"6196c4a8f20d57e86a2da2ef","condition":"contingent","relevant_dimensions":["wings","legs"],"bee_group":{"antennae":"X","wings":"1","pattern":"X","legs":"M"},"action":"harvest","summary":"good-harvest","bonus":0.6200000000000002},{"rt":993,"stimulus":"\n                    <p><b>Action: <em>harvest</em></b></p>\n                    <p>This is the bee that you just saw.</p>\n                    <img src=\"bees-with-color/bee-A2DF.svg\" width=\"200\">\n                    <p><span class=\"greenText\"><b>Successful harvest!</b></span><br>Your pay has increased by $0.02. Your bonus pay is now $0.12.</p>\n            ","response":0,"trial_type":"html-button-response","trial_index":100,"time_elapsed":617277,"internal_node_id":"0.0-4.0-1.44","subject_id":"5fb813023bdaed4bc4bd3967","study_id":"60edd13110225f80f9f3709b","session_id":"6196c4a8f20d57e86a2da2ef","condition":"contingent","relevant_dimensions":["wings","legs"],"bee_group":{"antennae":"X","wings":"1","pattern":"X","legs":"M"},"bonus":0.6200000000000002},{"rt":919.5999999996275,"stimulus":"bees-with-color/bee-A1SM.svg","response":1,"trial_type":"image-button-response","trial_index":101,"time_elapsed":618197,"internal_node_id":"0.0-4.0-0.45","subject_id":"5fb813023bdaed4bc4bd3967","study_id":"60edd13110225f80f9f3709b","session_id":"6196c4a8f20d57e86a2da2ef","condition":"contingent","relevant_dimensions":["wings","legs"],"bee_group":{"antennae":"X","wings":"1","pattern":"X","legs":"M"},"action":"avoid","summary":"good-avoid","bonus":0.6200000000000002},{"rt":749,"stimulus":"\n                    <p><b>Action: <em>avoid</em></b></p>\n                    <p>This is the bee that you just saw.</p>\n                    <img src=\"bees-with-color/bee-A1SM.svg\" width=\"200\">\n                    <p><br>Your bonus pay is unchanged, and remains at $0.12.</p>\n            ","response":0,"trial_type":"html-button-response","trial_index":102,"time_elapsed":618947,"internal_node_id":"0.0-4.0-1.45","subject_id":"5fb813023bdaed4bc4bd3967","study_id":"60edd13110225f80f9f3709b","session_id":"6196c4a8f20d57e86a2da2ef","condition":"contingent","relevant_dimensions":["wings","legs"],"bee_group":{"antennae":"X","wings":"1","pattern":"X","legs":"M"},"bonus":0.6200000000000002},{"rt":1099.5,"stimulus":"bees-with-color/bee-B1DM.svg","response":1,"trial_type":"image-button-response","trial_index":103,"time_elapsed":620047,"internal_node_id":"0.0-4.0-0.46","subject_id":"5fb813023bdaed4bc4bd3967","study_id":"60edd13110225f80f9f3709b","session_id":"6196c4a8f20d57e86a2da2ef","condition":"contingent","relevant_dimensions":["wings","legs"],"bee_group":{"antennae":"X","wings":"1","pattern":"X","legs":"M"},"action":"avoid","summary":"good-avoid","bonus":0.6200000000000002},{"rt":569.0999999996275,"stimulus":"\n                    <p><b>Action: <em>avoid</em></b></p>\n                    <p>This is the bee that you just saw.</p>\n                    <img src=\"bees-with-color/bee-B1DM.svg\" width=\"200\">\n                    <p><br>Your bonus pay is unchanged, and remains at $0.12.</p>\n            ","response":0,"trial_type":"html-button-response","trial_index":104,"time_elapsed":620617,"internal_node_id":"0.0-4.0-1.46","subject_id":"5fb813023bdaed4bc4bd3967","study_id":"60edd13110225f80f9f3709b","session_id":"6196c4a8f20d57e86a2da2ef","condition":"contingent","relevant_dimensions":["wings","legs"],"bee_group":{"antennae":"X","wings":"1","pattern":"X","legs":"M"},"bonus":0.6200000000000002},{"rt":827.1999999992549,"stimulus":"bees-with-color/bee-B2DF.svg","response":0,"trial_type":"image-button-response","trial_index":105,"time_elapsed":621445,"internal_node_id":"0.0-4.0-0.47","subject_id":"5fb813023bdaed4bc4bd3967","study_id":"60edd13110225f80f9f3709b","session_id":"6196c4a8f20d57e86a2da2ef","condition":"contingent","relevant_dimensions":["wings","legs"],"bee_group":{"antennae":"X","wings":"1","pattern":"X","legs":"M"},"action":"harvest","summary":"good-harvest","bonus":0.6200000000000002},{"rt":775,"stimulus":"\n                    <p><b>Action: <em>harvest</em></b></p>\n                    <p>This is the bee that you just saw.</p>\n                    <img src=\"bees-with-color/bee-B2DF.svg\" width=\"200\">\n                    <p><span class=\"greenText\"><b>Successful harvest!</b></span><br>Your pay has increased by $0.02. Your bonus pay is now $0.14.</p>\n            ","response":0,"trial_type":"html-button-response","trial_index":106,"time_elapsed":622221,"internal_node_id":"0.0-4.0-1.47","subject_id":"5fb813023bdaed4bc4bd3967","study_id":"60edd13110225f80f9f3709b","session_id":"6196c4a8f20d57e86a2da2ef","condition":"contingent","relevant_dimensions":["wings","legs"],"bee_group":{"antennae":"X","wings":"1","pattern":"X","legs":"M"},"bonus":0.6200000000000002},{"rt":1153.2999999988824,"stimulus":"bees-with-color/bee-B1DF.svg","response":1,"trial_type":"image-button-response","trial_index":107,"time_elapsed":623375,"internal_node_id":"0.0-4.0-0.48","subject_id":"5fb813023bdaed4bc4bd3967","study_id":"60edd13110225f80f9f3709b","session_id":"6196c4a8f20d57e86a2da2ef","condition":"contingent","relevant_dimensions":["wings","legs"],"bee_group":{"antennae":"X","wings":"1","pattern":"X","legs":"M"},"action":"avoid","summary":"bad-avoid","bonus":0.6200000000000002},{"rt":581.0999999996275,"stimulus":"\n                    <p><b>Action: <em>avoid</em></b></p>\n                    <p>This is the bee that you just saw.</p>\n                    <img src=\"bees-with-color/bee-B1DF.svg\" width=\"200\">\n                    <p><br>Your bonus pay is unchanged, and remains at $0.14.</p>\n            ","response":0,"trial_type":"html-button-response","trial_index":108,"time_elapsed":623957,"internal_node_id":"0.0-4.0-1.48","subject_id":"5fb813023bdaed4bc4bd3967","study_id":"60edd13110225f80f9f3709b","session_id":"6196c4a8f20d57e86a2da2ef","condition":"contingent","relevant_dimensions":["wings","legs"],"bee_group":{"antennae":"X","wings":"1","pattern":"X","legs":"M"},"bonus":0.6200000000000002},{"rt":623.1999999992549,"stimulus":"bees-with-color/bee-B2DF.svg","response":0,"trial_type":"image-button-response","trial_index":109,"time_elapsed":624581,"internal_node_id":"0.0-4.0-0.49","subject_id":"5fb813023bdaed4bc4bd3967","study_id":"60edd13110225f80f9f3709b","session_id":"6196c4a8f20d57e86a2da2ef","condition":"contingent","relevant_dimensions":["wings","legs"],"bee_group":{"antennae":"X","wings":"1","pattern":"X","legs":"M"},"action":"harvest","summary":"good-harvest","bonus":0.6200000000000002},{"rt":942.9000000003725,"stimulus":"\n                    <p><b>Action: <em>harvest</em></b></p>\n                    <p>This is the bee that you just saw.</p>\n                    <img src=\"bees-with-color/bee-B2DF.svg\" width=\"200\">\n                    <p><span class=\"greenText\"><b>Successful harvest!</b></span><br>Your pay has increased by $0.02. Your bonus pay is now $0.16.</p>\n            ","response":0,"trial_type":"html-button-response","trial_index":110,"time_elapsed":625525,"internal_node_id":"0.0-4.0-1.49","subject_id":"5fb813023bdaed4bc4bd3967","study_id":"60edd13110225f80f9f3709b","session_id":"6196c4a8f20d57e86a2da2ef","condition":"contingent","relevant_dimensions":["wings","legs"],"bee_group":{"antennae":"X","wings":"1","pattern":"X","legs":"M"},"bonus":0.6200000000000002},{"rt":1577.300000000745,"stimulus":"bees-with-color/bee-B2SF.svg","response":0,"trial_type":"image-button-response","trial_index":111,"time_elapsed":627103,"internal_node_id":"0.0-4.0-0.50","subject_id":"5fb813023bdaed4bc4bd3967","study_id":"60edd13110225f80f9f3709b","session_id":"6196c4a8f20d57e86a2da2ef","condition":"contingent","relevant_dimensions":["wings","legs"],"bee_group":{"antennae":"X","wings":"1","pattern":"X","legs":"M"},"action":"harvest","summary":"good-harvest","bonus":0.6200000000000002},{"rt":551,"stimulus":"\n                    <p><b>Action: <em>harvest</em></b></p>\n                    <p>This is the bee that you just saw.</p>\n                    <img src=\"bees-with-color/bee-B2SF.svg\" width=\"200\">\n                    <p><span class=\"greenText\"><b>Successful harvest!</b></span><br>Your pay has increased by $0.02. Your bonus pay is now $0.18.</p>\n            ","response":0,"trial_type":"html-button-response","trial_index":112,"time_elapsed":627655,"internal_node_id":"0.0-4.0-1.50","subject_id":"5fb813023bdaed4bc4bd3967","study_id":"60edd13110225f80f9f3709b","session_id":"6196c4a8f20d57e86a2da2ef","condition":"contingent","relevant_dimensions":["wings","legs"],"bee_group":{"antennae":"X","wings":"1","pattern":"X","legs":"M"},"bonus":0.6200000000000002},{"rt":705,"stimulus":"bees-with-color/bee-B1DM.svg","response":1,"trial_type":"image-button-response","trial_index":113,"time_elapsed":628361,"internal_node_id":"0.0-4.0-0.51","subject_id":"5fb813023bdaed4bc4bd3967","study_id":"60edd13110225f80f9f3709b","session_id":"6196c4a8f20d57e86a2da2ef","condition":"contingent","relevant_dimensions":["wings","legs"],"bee_group":{"antennae":"X","wings":"1","pattern":"X","legs":"M"},"action":"avoid","summary":"good-avoid","bonus":0.6200000000000002},{"rt":513.3999999985099,"stimulus":"\n                    <p><b>Action: <em>avoid</em></b></p>\n                    <p>This is the bee that you just saw.</p>\n                    <img src=\"bees-with-color/bee-B1DM.svg\" width=\"200\">\n                    <p><br>Your bonus pay is unchanged, and remains at $0.18.</p>\n            ","response":0,"trial_type":"html-button-response","trial_index":114,"time_elapsed":628875,"internal_node_id":"0.0-4.0-1.51","subject_id":"5fb813023bdaed4bc4bd3967","study_id":"60edd13110225f80f9f3709b","session_id":"6196c4a8f20d57e86a2da2ef","condition":"contingent","relevant_dimensions":["wings","legs"],"bee_group":{"antennae":"X","wings":"1","pattern":"X","legs":"M"},"bonus":0.6200000000000002},{"rt":922.9000000003725,"stimulus":"bees-with-color/bee-A2SF.svg","response":0,"trial_type":"image-button-response","trial_index":115,"time_elapsed":629799,"internal_node_id":"0.0-4.0-0.52","subject_id":"5fb813023bdaed4bc4bd3967","study_id":"60edd13110225f80f9f3709b","session_id":"6196c4a8f20d57e86a2da2ef","condition":"contingent","relevant_dimensions":["wings","legs"],"bee_group":{"antennae":"X","wings":"1","pattern":"X","legs":"M"},"action":"harvest","summary":"good-harvest","bonus":0.6200000000000002},{"rt":513.3999999985099,"stimulus":"\n                    <p><b>Action: <em>harvest</em></b></p>\n                    <p>This is the bee that you just saw.</p>\n                    <img src=\"bees-with-color/bee-A2SF.svg\" width=\"200\">\n                    <p><span class=\"greenText\"><b>Successful harvest!</b></span><br>Your pay has increased by $0.02. Your bonus pay is now $0.20.</p>\n            ","response":0,"trial_type":"html-button-response","trial_index":116,"time_elapsed":630313,"internal_node_id":"0.0-4.0-1.52","subject_id":"5fb813023bdaed4bc4bd3967","study_id":"60edd13110225f80f9f3709b","session_id":"6196c4a8f20d57e86a2da2ef","condition":"contingent","relevant_dimensions":["wings","legs"],"bee_group":{"antennae":"X","wings":"1","pattern":"X","legs":"M"},"bonus":0.6200000000000002},{"rt":703.1999999992549,"stimulus":"bees-with-color/bee-A1SM.svg","response":1,"trial_type":"image-button-response","trial_index":117,"time_elapsed":631017,"internal_node_id":"0.0-4.0-0.53","subject_id":"5fb813023bdaed4bc4bd3967","study_id":"60edd13110225f80f9f3709b","session_id":"6196c4a8f20d57e86a2da2ef","condition":"contingent","relevant_dimensions":["wings","legs"],"bee_group":{"antennae":"X","wings":"1","pattern":"X","legs":"M"},"action":"avoid","summary":"good-avoid","bonus":0.6200000000000002},{"rt":524.9000000003725,"stimulus":"\n                    <p><b>Action: <em>avoid</em></b></p>\n                    <p>This is the bee that you just saw.</p>\n                    <img src=\"bees-with-color/bee-A1SM.svg\" width=\"200\">\n                    <p><br>Your bonus pay is unchanged, and remains at $0.20.</p>\n            ","response":0,"trial_type":"html-button-response","trial_index":118,"time_elapsed":631543,"internal_node_id":"0.0-4.0-1.53","subject_id":"5fb813023bdaed4bc4bd3967","study_id":"60edd13110225f80f9f3709b","session_id":"6196c4a8f20d57e86a2da2ef","condition":"contingent","relevant_dimensions":["wings","legs"],"bee_group":{"antennae":"X","wings":"1","pattern":"X","legs":"M"},"bonus":0.6200000000000002},{"rt":983.2999999988824,"stimulus":"bees-with-color/bee-B1SF.svg","response":1,"trial_type":"image-button-response","trial_index":119,"time_elapsed":632527,"internal_node_id":"0.0-4.0-0.54","subject_id":"5fb813023bdaed4bc4bd3967","study_id":"60edd13110225f80f9f3709b","session_id":"6196c4a8f20d57e86a2da2ef","condition":"contingent","relevant_dimensions":["wings","legs"],"bee_group":{"antennae":"X","wings":"1","pattern":"X","legs":"M"},"action":"avoid","summary":"bad-avoid","bonus":0.6200000000000002},{"rt":497.09999999962747,"stimulus":"\n                    <p><b>Action: <em>avoid</em></b></p>\n                    <p>This is the bee that you just saw.</p>\n                    <img src=\"bees-with-color/bee-B1SF.svg\" width=\"200\">\n                    <p><br>Your bonus pay is unchanged, and remains at $0.20.</p>\n            ","response":0,"trial_type":"html-button-response","trial_index":120,"time_elapsed":633025,"internal_node_id":"0.0-4.0-1.54","subject_id":"5fb813023bdaed4bc4bd3967","study_id":"60edd13110225f80f9f3709b","session_id":"6196c4a8f20d57e86a2da2ef","condition":"contingent","relevant_dimensions":["wings","legs"],"bee_group":{"antennae":"X","wings":"1","pattern":"X","legs":"M"},"bonus":0.6200000000000002},{"rt":700.9000000003725,"stimulus":"bees-with-color/bee-B2DM.svg","response":0,"trial_type":"image-button-response","trial_index":121,"time_elapsed":633727,"internal_node_id":"0.0-4.0-0.55","subject_id":"5fb813023bdaed4bc4bd3967","study_id":"60edd13110225f80f9f3709b","session_id":"6196c4a8f20d57e86a2da2ef","condition":"contingent","relevant_dimensions":["wings","legs"],"bee_group":{"antennae":"X","wings":"1","pattern":"X","legs":"M"},"action":"harvest","summary":"good-harvest","bonus":0.6200000000000002},{"rt":575,"stimulus":"\n                    <p><b>Action: <em>harvest</em></b></p>\n                    <p>This is the bee that you just saw.</p>\n                    <img src=\"bees-with-color/bee-B2DM.svg\" width=\"200\">\n                    <p><span class=\"greenText\"><b>Successful harvest!</b></span><br>Your pay has increased by $0.02. Your bonus pay is now $0.22.</p>\n            ","response":0,"trial_type":"html-button-response","trial_index":122,"time_elapsed":634303,"internal_node_id":"0.0-4.0-1.55","subject_id":"5fb813023bdaed4bc4bd3967","study_id":"60edd13110225f80f9f3709b","session_id":"6196c4a8f20d57e86a2da2ef","condition":"contingent","relevant_dimensions":["wings","legs"],"bee_group":{"antennae":"X","wings":"1","pattern":"X","legs":"M"},"bonus":0.6200000000000002},{"rt":767.5,"stimulus":"bees-with-color/bee-A1DF.svg","response":1,"trial_type":"image-button-response","trial_index":123,"time_elapsed":635071,"internal_node_id":"0.0-4.0-0.56","subject_id":"5fb813023bdaed4bc4bd3967","study_id":"60edd13110225f80f9f3709b","session_id":"6196c4a8f20d57e86a2da2ef","condition":"contingent","relevant_dimensions":["wings","legs"],"bee_group":{"antennae":"X","wings":"1","pattern":"X","legs":"M"},"action":"avoid","summary":"bad-avoid","bonus":0.6200000000000002},{"rt":743.1999999992549,"stimulus":"\n                    <p><b>Action: <em>avoid</em></b></p>\n                    <p>This is the bee that you just saw.</p>\n                    <img src=\"bees-with-color/bee-A1DF.svg\" width=\"200\">\n                    <p><br>Your bonus pay is unchanged, and remains at $0.22.</p>\n            ","response":0,"trial_type":"html-button-response","trial_index":124,"time_elapsed":635815,"internal_node_id":"0.0-4.0-1.56","subject_id":"5fb813023bdaed4bc4bd3967","study_id":"60edd13110225f80f9f3709b","session_id":"6196c4a8f20d57e86a2da2ef","condition":"contingent","relevant_dimensions":["wings","legs"],"bee_group":{"antennae":"X","wings":"1","pattern":"X","legs":"M"},"bonus":0.6200000000000002},{"rt":1363.2999999988824,"stimulus":"bees-with-color/bee-A1DM.svg","response":1,"trial_type":"image-button-response","trial_index":125,"time_elapsed":637179,"internal_node_id":"0.0-4.0-0.57","subject_id":"5fb813023bdaed4bc4bd3967","study_id":"60edd13110225f80f9f3709b","session_id":"6196c4a8f20d57e86a2da2ef","condition":"contingent","relevant_dimensions":["wings","legs"],"bee_group":{"antennae":"X","wings":"1","pattern":"X","legs":"M"},"action":"avoid","summary":"good-avoid","bonus":0.6200000000000002},{"rt":436.7000000011176,"stimulus":"\n                    <p><b>Action: <em>avoid</em></b></p>\n                    <p>This is the bee that you just saw.</p>\n                    <img src=\"bees-with-color/bee-A1DM.svg\" width=\"200\">\n                    <p><br>Your bonus pay is unchanged, and remains at $0.22.</p>\n            ","response":0,"trial_type":"html-button-response","trial_index":126,"time_elapsed":637617,"internal_node_id":"0.0-4.0-1.57","subject_id":"5fb813023bdaed4bc4bd3967","study_id":"60edd13110225f80f9f3709b","session_id":"6196c4a8f20d57e86a2da2ef","condition":"contingent","relevant_dimensions":["wings","legs"],"bee_group":{"antennae":"X","wings":"1","pattern":"X","legs":"M"},"bonus":0.6200000000000002},{"rt":755.2000000011176,"stimulus":"bees-with-color/bee-A2DM.svg","response":0,"trial_type":"image-button-response","trial_index":127,"time_elapsed":638373,"internal_node_id":"0.0-4.0-0.58","subject_id":"5fb813023bdaed4bc4bd3967","study_id":"60edd13110225f80f9f3709b","session_id":"6196c4a8f20d57e86a2da2ef","condition":"contingent","relevant_dimensions":["wings","legs"],"bee_group":{"antennae":"X","wings":"1","pattern":"X","legs":"M"},"action":"harvest","summary":"good-harvest","bonus":0.6200000000000002},{"rt":565.8000000007451,"stimulus":"\n                    <p><b>Action: <em>harvest</em></b></p>\n                    <p>This is the bee that you just saw.</p>\n                    <img src=\"bees-with-color/bee-A2DM.svg\" width=\"200\">\n                    <p><span class=\"greenText\"><b>Successful harvest!</b></span><br>Your pay has increased by $0.02. Your bonus pay is now $0.24.</p>\n            ","response":0,"trial_type":"html-button-response","trial_index":128,"time_elapsed":638940,"internal_node_id":"0.0-4.0-1.58","subject_id":"5fb813023bdaed4bc4bd3967","study_id":"60edd13110225f80f9f3709b","session_id":"6196c4a8f20d57e86a2da2ef","condition":"contingent","relevant_dimensions":["wings","legs"],"bee_group":{"antennae":"X","wings":"1","pattern":"X","legs":"M"},"bonus":0.6200000000000002},{"rt":768.6999999992549,"stimulus":"bees-with-color/bee-A1SF.svg","response":1,"trial_type":"image-button-response","trial_index":129,"time_elapsed":639709,"internal_node_id":"0.0-4.0-0.59","subject_id":"5fb813023bdaed4bc4bd3967","study_id":"60edd13110225f80f9f3709b","session_id":"6196c4a8f20d57e86a2da2ef","condition":"contingent","relevant_dimensions":["wings","legs"],"bee_group":{"antennae":"X","wings":"1","pattern":"X","legs":"M"},"action":"avoid","summary":"bad-avoid","bonus":0.6200000000000002},{"rt":557.2999999988824,"stimulus":"\n                    <p><b>Action: <em>avoid</em></b></p>\n                    <p>This is the bee that you just saw.</p>\n                    <img src=\"bees-with-color/bee-A1SF.svg\" width=\"200\">\n                    <p><br>Your bonus pay is unchanged, and remains at $0.24.</p>\n            ","response":0,"trial_type":"html-button-response","trial_index":130,"time_elapsed":640267,"internal_node_id":"0.0-4.0-1.59","subject_id":"5fb813023bdaed4bc4bd3967","study_id":"60edd13110225f80f9f3709b","session_id":"6196c4a8f20d57e86a2da2ef","condition":"contingent","relevant_dimensions":["wings","legs"],"bee_group":{"antennae":"X","wings":"1","pattern":"X","legs":"M"},"bonus":0.6200000000000002},{"rt":694.7999999988824,"stimulus":"bees-with-color/bee-A2DF.svg","response":0,"trial_type":"image-button-response","trial_index":131,"time_elapsed":640963,"internal_node_id":"0.0-4.0-0.60","subject_id":"5fb813023bdaed4bc4bd3967","study_id":"60edd13110225f80f9f3709b","session_id":"6196c4a8f20d57e86a2da2ef","condition":"contingent","relevant_dimensions":["wings","legs"],"bee_group":{"antennae":"X","wings":"1","pattern":"X","legs":"M"},"action":"harvest","summary":"good-harvest","bonus":0.6200000000000002},{"rt":581.6999999992549,"stimulus":"\n                    <p><b>Action: <em>harvest</em></b></p>\n                    <p>This is the bee that you just saw.</p>\n                    <img src=\"bees-with-color/bee-A2DF.svg\" width=\"200\">\n                    <p><span class=\"greenText\"><b>Successful harvest!</b></span><br>Your pay has increased by $0.02. Your bonus pay is now $0.26.</p>\n            ","response":0,"trial_type":"html-button-response","trial_index":132,"time_elapsed":641545,"internal_node_id":"0.0-4.0-1.60","subject_id":"5fb813023bdaed4bc4bd3967","study_id":"60edd13110225f80f9f3709b","session_id":"6196c4a8f20d57e86a2da2ef","condition":"contingent","relevant_dimensions":["wings","legs"],"bee_group":{"antennae":"X","wings":"1","pattern":"X","legs":"M"},"bonus":0.6200000000000002},{"rt":1425.3999999985099,"stimulus":"bees-with-color/bee-B1SM.svg","response":1,"trial_type":"image-button-response","trial_index":133,"time_elapsed":642971,"internal_node_id":"0.0-4.0-0.61","subject_id":"5fb813023bdaed4bc4bd3967","study_id":"60edd13110225f80f9f3709b","session_id":"6196c4a8f20d57e86a2da2ef","condition":"contingent","relevant_dimensions":["wings","legs"],"bee_group":{"antennae":"X","wings":"1","pattern":"X","legs":"M"},"action":"avoid","summary":"good-avoid","bonus":0.6200000000000002},{"rt":482.90000000037253,"stimulus":"\n                    <p><b>Action: <em>avoid</em></b></p>\n                    <p>This is the bee that you just saw.</p>\n                    <img src=\"bees-with-color/bee-B1SM.svg\" width=\"200\">\n                    <p><br>Your bonus pay is unchanged, and remains at $0.26.</p>\n            ","response":0,"trial_type":"html-button-response","trial_index":134,"time_elapsed":643455,"internal_node_id":"0.0-4.0-1.61","subject_id":"5fb813023bdaed4bc4bd3967","study_id":"60edd13110225f80f9f3709b","session_id":"6196c4a8f20d57e86a2da2ef","condition":"contingent","relevant_dimensions":["wings","legs"],"bee_group":{"antennae":"X","wings":"1","pattern":"X","legs":"M"},"bonus":0.6200000000000002},{"rt":583.6999999992549,"stimulus":"bees-with-color/bee-A2SM.svg","response":0,"trial_type":"image-button-response","trial_index":135,"time_elapsed":644039,"internal_node_id":"0.0-4.0-0.62","subject_id":"5fb813023bdaed4bc4bd3967","study_id":"60edd13110225f80f9f3709b","session_id":"6196c4a8f20d57e86a2da2ef","condition":"contingent","relevant_dimensions":["wings","legs"],"bee_group":{"antennae":"X","wings":"1","pattern":"X","legs":"M"},"action":"harvest","summary":"good-harvest","bonus":0.6200000000000002},{"rt":505,"stimulus":"\n                    <p><b>Action: <em>harvest</em></b></p>\n                    <p>This is the bee that you just saw.</p>\n                    <img src=\"bees-with-color/bee-A2SM.svg\" width=\"200\">\n                    <p><span class=\"greenText\"><b>Successful harvest!</b></span><br>Your pay has increased by $0.02. Your bonus pay is now $0.28.</p>\n            ","response":0,"trial_type":"html-button-response","trial_index":136,"time_elapsed":644545,"internal_node_id":"0.0-4.0-1.62","subject_id":"5fb813023bdaed4bc4bd3967","study_id":"60edd13110225f80f9f3709b","session_id":"6196c4a8f20d57e86a2da2ef","condition":"contingent","relevant_dimensions":["wings","legs"],"bee_group":{"antennae":"X","wings":"1","pattern":"X","legs":"M"},"bonus":0.6200000000000002},{"rt":887.3000000007451,"stimulus":"bees-with-color/bee-B2SM.svg","response":0,"trial_type":"image-button-response","trial_index":137,"time_elapsed":645433,"internal_node_id":"0.0-4.0-0.63","subject_id":"5fb813023bdaed4bc4bd3967","study_id":"60edd13110225f80f9f3709b","session_id":"6196c4a8f20d57e86a2da2ef","condition":"contingent","relevant_dimensions":["wings","legs"],"bee_group":{"antennae":"X","wings":"1","pattern":"X","legs":"M"},"action":"harvest","summary":"good-harvest","bonus":0.6200000000000002},{"rt":451.2999999988824,"stimulus":"\n                    <p><b>Action: <em>harvest</em></b></p>\n                    <p>This is the bee that you just saw.</p>\n                    <img src=\"bees-with-color/bee-B2SM.svg\" width=\"200\">\n                    <p><span class=\"greenText\"><b>Successful harvest!</b></span><br>Your pay has increased by $0.02. Your bonus pay is now $0.30.</p>\n            ","response":0,"trial_type":"html-button-response","trial_index":138,"time_elapsed":645885,"internal_node_id":"0.0-4.0-1.63","subject_id":"5fb813023bdaed4bc4bd3967","study_id":"60edd13110225f80f9f3709b","session_id":"6196c4a8f20d57e86a2da2ef","condition":"contingent","relevant_dimensions":["wings","legs"],"bee_group":{"antennae":"X","wings":"1","pattern":"X","legs":"M"},"bonus":0.6200000000000002},{"rt":6408.9000000003725,"stimulus":"You have completed the first part of this experiment.<br><br>You will now begin a shorter second part, in which you will receive no feedback.<br>The same rules regarding bonus pay apply.<br><br>Press any key to begin.","response":" ","trial_type":"html-keyboard-response","trial_index":139,"time_elapsed":652297,"internal_node_id":"0.0-5.0","subject_id":"5fb813023bdaed4bc4bd3967","study_id":"60edd13110225f80f9f3709b","session_id":"6196c4a8f20d57e86a2da2ef","condition":"contingent","relevant_dimensions":["wings","legs"],"bee_group":{"antennae":"X","wings":"1","pattern":"X","legs":"M"},"bonus":0.6200000000000002},{"rt":4358.9000000003725,"stimulus":"bees-with-color/bee-B1SM.svg","response":1,"trial_type":"image-button-response","trial_index":140,"time_elapsed":656663,"internal_node_id":"0.0-6.0-0.0","subject_id":"5fb813023bdaed4bc4bd3967","study_id":"60edd13110225f80f9f3709b","session_id":"6196c4a8f20d57e86a2da2ef","condition":"contingent","relevant_dimensions":["wings","legs"],"bee_group":{"antennae":"X","wings":"1","pattern":"X","legs":"M"},"bonus":0.6200000000000002},{"rt":3654.5,"stimulus":"bees-with-color/bee-B1SF.svg","response":1,"trial_type":"image-button-response","trial_index":141,"time_elapsed":660319,"internal_node_id":"0.0-6.0-0.1","subject_id":"5fb813023bdaed4bc4bd3967","study_id":"60edd13110225f80f9f3709b","session_id":"6196c4a8f20d57e86a2da2ef","condition":"contingent","relevant_dimensions":["wings","legs"],"bee_group":{"antennae":"X","wings":"1","pattern":"X","legs":"M"},"bonus":0.6200000000000002},{"rt":859.5,"stimulus":"bees-with-color/bee-B2SM.svg","response":0,"trial_type":"image-button-response","trial_index":142,"time_elapsed":661180,"internal_node_id":"0.0-6.0-0.2","subject_id":"5fb813023bdaed4bc4bd3967","study_id":"60edd13110225f80f9f3709b","session_id":"6196c4a8f20d57e86a2da2ef","condition":"contingent","relevant_dimensions":["wings","legs"],"bee_group":{"antennae":"X","wings":"1","pattern":"X","legs":"M"},"bonus":0.6200000000000002},{"rt":2524.5999999996275,"stimulus":"bees-with-color/bee-A1SF.svg","response":1,"trial_type":"image-button-response","trial_index":143,"time_elapsed":663706,"internal_node_id":"0.0-6.0-0.3","subject_id":"5fb813023bdaed4bc4bd3967","study_id":"60edd13110225f80f9f3709b","session_id":"6196c4a8f20d57e86a2da2ef","condition":"contingent","relevant_dimensions":["wings","legs"],"bee_group":{"antennae":"X","wings":"1","pattern":"X","legs":"M"},"bonus":0.6200000000000002},{"rt":1438.800000000745,"stimulus":"bees-with-color/bee-B1DF.svg","response":1,"trial_type":"image-button-response","trial_index":144,"time_elapsed":665146,"internal_node_id":"0.0-6.0-0.4","subject_id":"5fb813023bdaed4bc4bd3967","study_id":"60edd13110225f80f9f3709b","session_id":"6196c4a8f20d57e86a2da2ef","condition":"contingent","relevant_dimensions":["wings","legs"],"bee_group":{"antennae":"X","wings":"1","pattern":"X","legs":"M"},"bonus":0.6200000000000002},{"rt":870.8000000007451,"stimulus":"bees-with-color/bee-A2SF.svg","response":0,"trial_type":"image-button-response","trial_index":145,"time_elapsed":666018,"internal_node_id":"0.0-6.0-0.5","subject_id":"5fb813023bdaed4bc4bd3967","study_id":"60edd13110225f80f9f3709b","session_id":"6196c4a8f20d57e86a2da2ef","condition":"contingent","relevant_dimensions":["wings","legs"],"bee_group":{"antennae":"X","wings":"1","pattern":"X","legs":"M"},"bonus":0.6200000000000002},{"rt":907.0999999996275,"stimulus":"bees-with-color/bee-A2SM.svg","response":0,"trial_type":"image-button-response","trial_index":146,"time_elapsed":666926,"internal_node_id":"0.0-6.0-0.6","subject_id":"5fb813023bdaed4bc4bd3967","study_id":"60edd13110225f80f9f3709b","session_id":"6196c4a8f20d57e86a2da2ef","condition":"contingent","relevant_dimensions":["wings","legs"],"bee_group":{"antennae":"X","wings":"1","pattern":"X","legs":"M"},"bonus":0.6200000000000002},{"rt":820.7999999988824,"stimulus":"bees-with-color/bee-A1SM.svg","response":1,"trial_type":"image-button-response","trial_index":147,"time_elapsed":667748,"internal_node_id":"0.0-6.0-0.7","subject_id":"5fb813023bdaed4bc4bd3967","study_id":"60edd13110225f80f9f3709b","session_id":"6196c4a8f20d57e86a2da2ef","condition":"contingent","relevant_dimensions":["wings","legs"],"bee_group":{"antennae":"X","wings":"1","pattern":"X","legs":"M"},"bonus":0.6200000000000002},{"rt":1848.4000000003725,"stimulus":"bees-with-color/bee-B2SF.svg","response":0,"trial_type":"image-button-response","trial_index":148,"time_elapsed":669598,"internal_node_id":"0.0-6.0-0.8","subject_id":"5fb813023bdaed4bc4bd3967","study_id":"60edd13110225f80f9f3709b","session_id":"6196c4a8f20d57e86a2da2ef","condition":"contingent","relevant_dimensions":["wings","legs"],"bee_group":{"antennae":"X","wings":"1","pattern":"X","legs":"M"},"bonus":0.6200000000000002},{"rt":956.6999999992549,"stimulus":"bees-with-color/bee-B2DM.svg","response":0,"trial_type":"image-button-response","trial_index":149,"time_elapsed":670556,"internal_node_id":"0.0-6.0-0.9","subject_id":"5fb813023bdaed4bc4bd3967","study_id":"60edd13110225f80f9f3709b","session_id":"6196c4a8f20d57e86a2da2ef","condition":"contingent","relevant_dimensions":["wings","legs"],"bee_group":{"antennae":"X","wings":"1","pattern":"X","legs":"M"},"bonus":0.6200000000000002},{"rt":926.4000000003725,"stimulus":"bees-with-color/bee-A1DM.svg","response":1,"trial_type":"image-button-response","trial_index":150,"time_elapsed":671484,"internal_node_id":"0.0-6.0-0.10","subject_id":"5fb813023bdaed4bc4bd3967","study_id":"60edd13110225f80f9f3709b","session_id":"6196c4a8f20d57e86a2da2ef","condition":"contingent","relevant_dimensions":["wings","legs"],"bee_group":{"antennae":"X","wings":"1","pattern":"X","legs":"M"},"bonus":0.6200000000000002},{"rt":741.1999999992549,"stimulus":"bees-with-color/bee-B2DF.svg","response":0,"trial_type":"image-button-response","trial_index":151,"time_elapsed":672226,"internal_node_id":"0.0-6.0-0.11","subject_id":"5fb813023bdaed4bc4bd3967","study_id":"60edd13110225f80f9f3709b","session_id":"6196c4a8f20d57e86a2da2ef","condition":"contingent","relevant_dimensions":["wings","legs"],"bee_group":{"antennae":"X","wings":"1","pattern":"X","legs":"M"},"bonus":0.6200000000000002},{"rt":972.8999999985099,"stimulus":"bees-with-color/bee-A2DF.svg","response":0,"trial_type":"image-button-response","trial_index":152,"time_elapsed":673200,"internal_node_id":"0.0-6.0-0.12","subject_id":"5fb813023bdaed4bc4bd3967","study_id":"60edd13110225f80f9f3709b","session_id":"6196c4a8f20d57e86a2da2ef","condition":"contingent","relevant_dimensions":["wings","legs"],"bee_group":{"antennae":"X","wings":"1","pattern":"X","legs":"M"},"bonus":0.6200000000000002},{"rt":912.7999999988824,"stimulus":"bees-with-color/bee-A2DM.svg","response":0,"trial_type":"image-button-response","trial_index":153,"time_elapsed":674114,"internal_node_id":"0.0-6.0-0.13","subject_id":"5fb813023bdaed4bc4bd3967","study_id":"60edd13110225f80f9f3709b","session_id":"6196c4a8f20d57e86a2da2ef","condition":"contingent","relevant_dimensions":["wings","legs"],"bee_group":{"antennae":"X","wings":"1","pattern":"X","legs":"M"},"bonus":0.6200000000000002},{"rt":906.8999999985099,"stimulus":"bees-with-color/bee-B1DM.svg","response":1,"trial_type":"image-button-response","trial_index":154,"time_elapsed":675022,"internal_node_id":"0.0-6.0-0.14","subject_id":"5fb813023bdaed4bc4bd3967","study_id":"60edd13110225f80f9f3709b","session_id":"6196c4a8f20d57e86a2da2ef","condition":"contingent","relevant_dimensions":["wings","legs"],"bee_group":{"antennae":"X","wings":"1","pattern":"X","legs":"M"},"bonus":0.6200000000000002},{"rt":820.6999999992549,"stimulus":"bees-with-color/bee-A1DF.svg","response":1,"trial_type":"image-button-response","trial_index":155,"time_elapsed":675844,"internal_node_id":"0.0-6.0-0.15","subject_id":"5fb813023bdaed4bc4bd3967","study_id":"60edd13110225f80f9f3709b","session_id":"6196c4a8f20d57e86a2da2ef","condition":"contingent","relevant_dimensions":["wings","legs"],"bee_group":{"antennae":"X","wings":"1","pattern":"X","legs":"M"},"bonus":0.6200000000000002},{"rt":745,"stimulus":"bees-with-color/bee-B2DF.svg","response":0,"trial_type":"image-button-response","trial_index":156,"time_elapsed":676590,"internal_node_id":"0.0-6.0-0.16","subject_id":"5fb813023bdaed4bc4bd3967","study_id":"60edd13110225f80f9f3709b","session_id":"6196c4a8f20d57e86a2da2ef","condition":"contingent","relevant_dimensions":["wings","legs"],"bee_group":{"antennae":"X","wings":"1","pattern":"X","legs":"M"},"bonus":0.6200000000000002},{"rt":869.0999999996275,"stimulus":"bees-with-color/bee-B1SF.svg","response":1,"trial_type":"image-button-response","trial_index":157,"time_elapsed":677460,"internal_node_id":"0.0-6.0-0.17","subject_id":"5fb813023bdaed4bc4bd3967","study_id":"60edd13110225f80f9f3709b","session_id":"6196c4a8f20d57e86a2da2ef","condition":"contingent","relevant_dimensions":["wings","legs"],"bee_group":{"antennae":"X","wings":"1","pattern":"X","legs":"M"},"bonus":0.6200000000000002},{"rt":951.1999999992549,"stimulus":"bees-with-color/bee-B1SM.svg","response":1,"trial_type":"image-button-response","trial_index":158,"time_elapsed":678412,"internal_node_id":"0.0-6.0-0.18","subject_id":"5fb813023bdaed4bc4bd3967","study_id":"60edd13110225f80f9f3709b","session_id":"6196c4a8f20d57e86a2da2ef","condition":"contingent","relevant_dimensions":["wings","legs"],"bee_group":{"antennae":"X","wings":"1","pattern":"X","legs":"M"},"bonus":0.6200000000000002},{"rt":878.9000000003725,"stimulus":"bees-with-color/bee-B2SF.svg","response":0,"trial_type":"image-button-response","trial_index":159,"time_elapsed":679292,"internal_node_id":"0.0-6.0-0.19","subject_id":"5fb813023bdaed4bc4bd3967","study_id":"60edd13110225f80f9f3709b","session_id":"6196c4a8f20d57e86a2da2ef","condition":"contingent","relevant_dimensions":["wings","legs"],"bee_group":{"antennae":"X","wings":"1","pattern":"X","legs":"M"},"bonus":0.6200000000000002},{"rt":661.1999999992549,"stimulus":"bees-with-color/bee-A2SM.svg","response":0,"trial_type":"image-button-response","trial_index":160,"time_elapsed":679954,"internal_node_id":"0.0-6.0-0.20","subject_id":"5fb813023bdaed4bc4bd3967","study_id":"60edd13110225f80f9f3709b","session_id":"6196c4a8f20d57e86a2da2ef","condition":"contingent","relevant_dimensions":["wings","legs"],"bee_group":{"antennae":"X","wings":"1","pattern":"X","legs":"M"},"bonus":0.6200000000000002},{"rt":820.7000000011176,"stimulus":"bees-with-color/bee-A1SM.svg","response":1,"trial_type":"image-button-response","trial_index":161,"time_elapsed":680776,"internal_node_id":"0.0-6.0-0.21","subject_id":"5fb813023bdaed4bc4bd3967","study_id":"60edd13110225f80f9f3709b","session_id":"6196c4a8f20d57e86a2da2ef","condition":"contingent","relevant_dimensions":["wings","legs"],"bee_group":{"antennae":"X","wings":"1","pattern":"X","legs