[{"success":true,"trial_type":"fullscreen","trial_index":0,"time_elapsed":5956,"internal_node_id":"0.0-0.0","subject_id":"601d97602ac2ab13eb2a5ce5","study_id":"6197b3f67c2b5cd3b6d9596a","session_id":"6197b9eef0715d01751cea02","condition":"contingent","relevant_dimensions":["antennae","wings"],"bee_group":{"antennae":"B","wings":"1","pattern":"X","legs":"X"},"bonus":1.360000000000001},{"success":true,"timeout":false,"failed_images":[],"failed_audio":[],"failed_video":[],"trial_type":"preload","trial_index":1,"time_elapsed":7804,"internal_node_id":"0.0-1.0","subject_id":"601d97602ac2ab13eb2a5ce5","study_id":"6197b3f67c2b5cd3b6d9596a","session_id":"6197b9eef0715d01751cea02","condition":"contingent","relevant_dimensions":["antennae","wings"],"bee_group":{"antennae":"B","wings":"1","pattern":"X","legs":"X"},"bonus":1.360000000000001},{"rt":2521.800000011921,"stimulus":"Welcome! Press any key to begin.","response":" ","trial_type":"html-keyboard-response","trial_index":2,"time_elapsed":10326,"internal_node_id":"0.0-2.0","subject_id":"601d97602ac2ab13eb2a5ce5","study_id":"6197b3f67c2b5cd3b6d9596a","session_id":"6197b9eef0715d01751cea02","condition":"contingent","relevant_dimensions":["antennae","wings"],"bee_group":{"antennae":"B","wings":"1","pattern":"X","legs":"X"},"bonus":1.360000000000001},{"view_history":[{"page_index":0,"viewing_time":2922.7999999523163},{"page_index":1,"viewing_time":11834.900000035763},{"page_index":2,"viewing_time":9293.899999976158},{"page_index":3,"viewing_time":9297.400000035763},{"page_index":4,"viewing_time":7189.599999964237},{"page_index":5,"viewing_time":5777.199999988079},{"page_index":6,"viewing_time":7008.800000011921},{"page_index":7,"viewing_time":3973.199999988079},{"page_index":8,"viewing_time":4440.800000011921},{"page_index":9,"viewing_time":2282},{"page_index":10,"viewing_time":1814},{"page_index":11,"viewing_time":8955},{"page_index":12,"viewing_time":6138.199999988079},{"page_index":13,"viewing_time":1304.7000000476837},{"page_index":14,"viewing_time":2595.399999976158}],"rt":84828.09999996424,"trial_type":"instructions","trial_index":3,"time_elapsed":95155,"internal_node_id":"0.0-3.0-0.0","subject_id":"601d97602ac2ab13eb2a5ce5","study_id":"6197b3f67c2b5cd3b6d9596a","session_id":"6197b9eef0715d01751cea02","condition":"contingent","relevant_dimensions":["antennae","wings"],"bee_group":{"antennae":"B","wings":"1","pattern":"X","legs":"X"},"bonus":1.360000000000001},{"rt":14488.800000011921,"response":{"Q0":["Two or six legs","Stripes or spots on body","Single or double wings","Antennae or no antennae"]},"question_order":[0],"trial_type":"survey-multi-select","trial_index":4,"time_elapsed":109646,"internal_node_id":"0.0-3.0-1.0","subject_id":"601d97602ac2ab13eb2a5ce5","study_id":"6197b3f67c2b5cd3b6d9596a","session_id":"6197b9eef0715d01751cea02","condition":"contingent","relevant_dimensions":["antennae","wings"],"bee_group":{"antennae":"B","wings":"1","pattern":"X","legs":"X"},"correct":true,"bonus":1.360000000000001},{"rt":20751.69999998808,"response":{"Q1":"No.","Q2":"Based on the four features of the bee.","Q3":"You do not learn if it was friendly or dangerous, and do not alter your bonus."},"question_order":[0,1,2],"trial_type":"survey-multi-choice","trial_index":5,"time_elapsed":130399,"internal_node_id":"0.0-3.0-2.0","subject_id":"601d97602ac2ab13eb2a5ce5","study_id":"6197b3f67c2b5cd3b6d9596a","session_id":"6197b9eef0715d01751cea02","condition":"contingent","relevant_dimensions":["antennae","wings"],"bee_group":{"antennae":"B","wings":"1","pattern":"X","legs":"X"},"correct":true,"bonus":1.360000000000001},{"rt":2823,"stimulus":"<p>Congrats, you got everything right<br>When you're ready, click the button below to continue to the experiment.</p>","response":0,"trial_type":"html-button-response","trial_index":6,"time_elapsed":133223,"internal_node_id":"0.0-3.0-3.0","subject_id":"601d97602ac2ab13eb2a5ce5","study_id":"6197b3f67c2b5cd3b6d9596a","session_id":"6197b9eef0715d01751cea02","condition":"contingent","relevant_dimensions":["antennae","wings"],"bee_group":{"antennae":"B","wings":"1","pattern":"X","legs":"X"},"bonus":1.360000000000001},{"rt":11214.300000011921,"stimulus":"bees-with-color/bee-A1DM.svg","response":0,"trial_type":"image-button-response","trial_index":7,"time_elapsed":144439,"internal_node_id":"0.0-4.0-0.0","subject_id":"601d97602ac2ab13eb2a5ce5","study_id":"6197b3f67c2b5cd3b6d9596a","session_id":"6197b9eef0715d01751cea02","condition":"contingent","relevant_dimensions":["antennae","wings"],"bee_group":{"antennae":"B","wings":"1","pattern":"X","legs":"X"},"action":"harvest","summary":"good-harvest","bonus":1.360000000000001},{"rt":7354.899999976158,"stimulus":"\n                    <p><b>Action: <em>harvest</em></b></p>\n                    <p>This is the bee that you just saw.</p>\n                    <img src=\"bees-with-color/bee-A1DM.svg\" width=\"200\">\n                    <p><span class=\"greenText\"><b>Successful harvest!</b></span><br>Your pay has increased by $0.02. Your bonus pay is now $0.56.</p>\n            ","response":0,"trial_type":"html-button-response","trial_index":8,"time_elapsed":151796,"internal_node_id":"0.0-4.0-1.0","subject_id":"601d97602ac2ab13eb2a5ce5","study_id":"6197b3f67c2b5cd3b6d9596a","session_id":"6197b9eef0715d01751cea02","condition":"contingent","relevant_dimensions":["antennae","wings"],"bee_group":{"antennae":"B","wings":"1","pattern":"X","legs":"X"},"bonus":1.360000000000001},{"rt":6409.199999988079,"stimulus":"bees-with-color/bee-B2SM.svg","response":0,"trial_type":"image-button-response","trial_index":9,"time_elapsed":158206,"internal_node_id":"0.0-4.0-0.1","subject_id":"601d97602ac2ab13eb2a5ce5","study_id":"6197b3f67c2b5cd3b6d9596a","session_id":"6197b9eef0715d01751cea02","condition":"contingent","relevant_dimensions":["antennae","wings"],"bee_group":{"antennae":"B","wings":"1","pattern":"X","legs":"X"},"action":"harvest","summary":"good-harvest","bonus":1.360000000000001},{"rt":7117.099999964237,"stimulus":"\n                    <p><b>Action: <em>harvest</em></b></p>\n                    <p>This is the bee that you just saw.</p>\n                    <img src=\"bees-with-color/bee-B2SM.svg\" width=\"200\">\n                    <p><span class=\"greenText\"><b>Successful harvest!</b></span><br>Your pay has increased by $0.02. Your bonus pay is now $0.58.</p>\n            ","response":0,"trial_type":"html-button-response","trial_index":10,"time_elapsed":165324,"internal_node_id":"0.0-4.0-1.1","subject_id":"601d97602ac2ab13eb2a5ce5","study_id":"6197b3f67c2b5cd3b6d9596a","session_id":"6197b9eef0715d01751cea02","condition":"contingent","relevant_dimensions":["antennae","wings"],"bee_group":{"antennae":"B","wings":"1","pattern":"X","legs":"X"},"bonus":1.360000000000001},{"rt":4566.399999976158,"stimulus":"bees-with-color/bee-B2DM.svg","response":0,"trial_type":"image-button-response","trial_index":11,"time_elapsed":169892,"internal_node_id":"0.0-4.0-0.2","subject_id":"601d97602ac2ab13eb2a5ce5","study_id":"6197b3f67c2b5cd3b6d9596a","session_id":"6197b9eef0715d01751cea02","condition":"contingent","relevant_dimensions":["antennae","wings"],"bee_group":{"antennae":"B","wings":"1","pattern":"X","legs":"X"},"action":"harvest","summary":"good-harvest","bonus":1.360000000000001},{"rt":2124.300000011921,"stimulus":"\n                    <p><b>Action: <em>harvest</em></b></p>\n                    <p>This is the bee that you just saw.</p>\n                    <img src=\"bees-with-color/bee-B2DM.svg\" width=\"200\">\n                    <p><span class=\"greenText\"><b>Successful harvest!</b></span><br>Your pay has increased by $0.02. Your bonus pay is now $0.60.</p>\n            ","response":0,"trial_type":"html-button-response","trial_index":12,"time_elapsed":172017,"internal_node_id":"0.0-4.0-1.2","subject_id":"601d97602ac2ab13eb2a5ce5","study_id":"6197b3f67c2b5cd3b6d9596a","session_id":"6197b9eef0715d01751cea02","condition":"contingent","relevant_dimensions":["antennae","wings"],"bee_group":{"antennae":"B","wings":"1","pattern":"X","legs":"X"},"bonus":1.360000000000001},{"rt":5340.800000011921,"stimulus":"bees-with-color/bee-B1SM.svg","response":0,"trial_type":"image-button-response","trial_index":13,"time_elapsed":177359,"internal_node_id":"0.0-4.0-0.3","subject_id":"601d97602ac2ab13eb2a5ce5","study_id":"6197b3f67c2b5cd3b6d9596a","session_id":"6197b9eef0715d01751cea02","condition":"contingent","relevant_dimensions":["antennae","wings"],"bee_group":{"antennae":"B","wings":"1","pattern":"X","legs":"X"},"action":"harvest","summary":"bad-harvest","bonus":1.360000000000001},{"rt":5333.200000047684,"stimulus":"\n                    <p><b>Action: <em>harvest</em></b></p>\n                    <p>This is the bee that you just saw.</p>\n                    <img src=\"bees-with-color/bee-B1SM.svg\" width=\"200\">\n                    <p><span class=\"redText\">Bad choice, the bee was angry.</span><br><b>You have been stung!</b><br>Your pay has been decreased by $0.10. Your bonus pay is now $0.50.</p>\n            ","response":0,"trial_type":"html-button-response","trial_index":14,"time_elapsed":182693,"internal_node_id":"0.0-4.0-1.3","subject_id":"601d97602ac2ab13eb2a5ce5","study_id":"6197b3f67c2b5cd3b6d9596a","session_id":"6197b9eef0715d01751cea02","condition":"contingent","relevant_dimensions":["antennae","wings"],"bee_group":{"antennae":"B","wings":"1","pattern":"X","legs":"X"},"bonus":1.360000000000001},{"rt":5109.900000035763,"stimulus":"bees-with-color/bee-A1SM.svg","response":0,"trial_type":"image-button-response","trial_index":15,"time_elapsed":187804,"internal_node_id":"0.0-4.0-0.4","subject_id":"601d97602ac2ab13eb2a5ce5","study_id":"6197b3f67c2b5cd3b6d9596a","session_id":"6197b9eef0715d01751cea02","condition":"contingent","relevant_dimensions":["antennae","wings"],"bee_group":{"antennae":"B","wings":"1","pattern":"X","legs":"X"},"action":"harvest","summary":"good-harvest","bonus":1.360000000000001},{"rt":2395.899999976158,"stimulus":"\n                    <p><b>Action: <em>harvest</em></b></p>\n                    <p>This is the bee that you just saw.</p>\n                    <img src=\"bees-with-color/bee-A1SM.svg\" width=\"200\">\n                    <p><span class=\"greenText\"><b>Successful harvest!</b></span><br>Your pay has increased by $0.02. Your bonus pay is now $0.52.</p>\n            ","response":0,"trial_type":"html-button-response","trial_index":16,"time_elapsed":190201,"internal_node_id":"0.0-4.0-1.4","subject_id":"601d97602ac2ab13eb2a5ce5","study_id":"6197b3f67c2b5cd3b6d9596a","session_id":"6197b9eef0715d01751cea02","condition":"contingent","relevant_dimensions":["antennae","wings"],"bee_group":{"antennae":"B","wings":"1","pattern":"X","legs":"X"},"bonus":1.360000000000001},{"rt":3762.300000011921,"stimulus":"bees-with-color/bee-B2SF.svg","response":1,"trial_type":"image-button-response","trial_index":17,"time_elapsed":193965,"internal_node_id":"0.0-4.0-0.5","subject_id":"601d97602ac2ab13eb2a5ce5","study_id":"6197b3f67c2b5cd3b6d9596a","session_id":"6197b9eef0715d01751cea02","condition":"contingent","relevant_dimensions":["antennae","wings"],"bee_group":{"antennae":"B","wings":"1","pattern":"X","legs":"X"},"action":"avoid","summary":"bad-avoid","bonus":1.360000000000001},{"rt":1736.800000011921,"stimulus":"\n                    <p><b>Action: <em>avoid</em></b></p>\n                    <p>This is the bee that you just saw.</p>\n                    <img src=\"bees-with-color/bee-B2SF.svg\" width=\"200\">\n                    <p><br>Your bonus pay is unchanged, and remains at $0.52.</p>\n            ","response":0,"trial_type":"html-button-response","trial_index":18,"time_elapsed":195703,"internal_node_id":"0.0-4.0-1.5","subject_id":"601d97602ac2ab13eb2a5ce5","study_id":"6197b3f67c2b5cd3b6d9596a","session_id":"6197b9eef0715d01751cea02","condition":"contingent","relevant_dimensions":["antennae","wings"],"bee_group":{"antennae":"B","wings":"1","pattern":"X","legs":"X"},"bonus":1.360000000000001},{"rt":1879.9000000357628,"stimulus":"bees-with-color/bee-B1SF.svg","response":1,"trial_type":"image-button-response","trial_index":19,"time_elapsed":197584,"internal_node_id":"0.0-4.0-0.6","subject_id":"601d97602ac2ab13eb2a5ce5","study_id":"6197b3f67c2b5cd3b6d9596a","session_id":"6197b9eef0715d01751cea02","condition":"contingent","relevant_dimensions":["antennae","wings"],"bee_group":{"antennae":"B","wings":"1","pattern":"X","legs":"X"},"action":"avoid","summary":"good-avoid","bonus":1.360000000000001},{"rt":1194.6000000238419,"stimulus":"\n                    <p><b>Action: <em>avoid</em></b></p>\n                    <p>This is the bee that you just saw.</p>\n                    <img src=\"bees-with-color/bee-B1SF.svg\" width=\"200\">\n                    <p><br>Your bonus pay is unchanged, and remains at $0.52.</p>\n            ","response":0,"trial_type":"html-button-response","trial_index":20,"time_elapsed":198780,"internal_node_id":"0.0-4.0-1.6","subject_id":"601d97602ac2ab13eb2a5ce5","study_id":"6197b3f67c2b5cd3b6d9596a","session_id":"6197b9eef0715d01751cea02","condition":"contingent","relevant_dimensions":["antennae","wings"],"bee_group":{"antennae":"B","wings":"1","pattern":"X","legs":"X"},"bonus":1.360000000000001},{"rt":3644,"stimulus":"bees-with-color/bee-A2SF.svg","response":0,"trial_type":"image-button-response","trial_index":21,"time_elapsed":202425,"internal_node_id":"0.0-4.0-0.7","subject_id":"601d97602ac2ab13eb2a5ce5","study_id":"6197b3f67c2b5cd3b6d9596a","session_id":"6197b9eef0715d01751cea02","condition":"contingent","relevant_dimensions":["antennae","wings"],"bee_group":{"antennae":"B","wings":"1","pattern":"X","legs":"X"},"action":"harvest","summary":"good-harvest","bonus":1.360000000000001},{"rt":1583,"stimulus":"\n                    <p><b>Action: <em>harvest</em></b></p>\n                    <p>This is the bee that you just saw.</p>\n                    <img src=\"bees-with-color/bee-A2SF.svg\" width=\"200\">\n                    <p><span class=\"greenText\"><b>Successful harvest!</b></span><br>Your pay has increased by $0.02. Your bonus pay is now $0.54.</p>\n            ","response":0,"trial_type":"html-button-response","trial_index":22,"time_elapsed":204009,"internal_node_id":"0.0-4.0-1.7","subject_id":"601d97602ac2ab13eb2a5ce5","study_id":"6197b3f67c2b5cd3b6d9596a","session_id":"6197b9eef0715d01751cea02","condition":"contingent","relevant_dimensions":["antennae","wings"],"bee_group":{"antennae":"B","wings":"1","pattern":"X","legs":"X"},"bonus":1.360000000000001},{"rt":2477.5,"stimulus":"bees-with-color/bee-B2DF.svg","response":1,"trial_type":"image-button-response","trial_index":23,"time_elapsed":206488,"internal_node_id":"0.0-4.0-0.8","subject_id":"601d97602ac2ab13eb2a5ce5","study_id":"6197b3f67c2b5cd3b6d9596a","session_id":"6197b9eef0715d01751cea02","condition":"contingent","relevant_dimensions":["antennae","wings"],"bee_group":{"antennae":"B","wings":"1","pattern":"X","legs":"X"},"action":"avoid","summary":"bad-avoid","bonus":1.360000000000001},{"rt":1279.300000011921,"stimulus":"\n                    <p><b>Action: <em>avoid</em></b></p>\n                    <p>This is the bee that you just saw.</p>\n                    <img src=\"bees-with-color/bee-B2DF.svg\" width=\"200\">\n                    <p><br>Your bonus pay is unchanged, and remains at $0.54.</p>\n            ","response":0,"trial_type":"html-button-response","trial_index":24,"time_elapsed":207768,"internal_node_id":"0.0-4.0-1.8","subject_id":"601d97602ac2ab13eb2a5ce5","study_id":"6197b3f67c2b5cd3b6d9596a","session_id":"6197b9eef0715d01751cea02","condition":"contingent","relevant_dimensions":["antennae","wings"],"bee_group":{"antennae":"B","wings":"1","pattern":"X","legs":"X"},"bonus":1.360000000000001},{"rt":2004.3999999761581,"stimulus":"bees-with-color/bee-B1DM.svg","response":1,"trial_type":"image-button-response","trial_index":25,"time_elapsed":209774,"internal_node_id":"0.0-4.0-0.9","subject_id":"601d97602ac2ab13eb2a5ce5","study_id":"6197b3f67c2b5cd3b6d9596a","session_id":"6197b9eef0715d01751cea02","condition":"contingent","relevant_dimensions":["antennae","wings"],"bee_group":{"antennae":"B","wings":"1","pattern":"X","legs":"X"},"action":"avoid","summary":"good-avoid","bonus":1.360000000000001},{"rt":938.1999999880791,"stimulus":"\n                    <p><b>Action: <em>avoid</em></b></p>\n                    <p>This is the bee that you just saw.</p>\n                    <img src=\"bees-with-color/bee-B1DM.svg\" width=\"200\">\n                    <p><br>Your bonus pay is unchanged, and remains at $0.54.</p>\n            ","response":0,"trial_type":"html-button-response","trial_index":26,"time_elapsed":210713,"internal_node_id":"0.0-4.0-1.9","subject_id":"601d97602ac2ab13eb2a5ce5","study_id":"6197b3f67c2b5cd3b6d9596a","session_id":"6197b9eef0715d01751cea02","condition":"contingent","relevant_dimensions":["antennae","wings"],"bee_group":{"antennae":"B","wings":"1","pattern":"X","legs":"X"},"bonus":1.360000000000001},{"rt":1610.300000011921,"stimulus":"bees-with-color/bee-A1DF.svg","response":0,"trial_type":"image-button-response","trial_index":27,"time_elapsed":212324,"internal_node_id":"0.0-4.0-0.10","subject_id":"601d97602ac2ab13eb2a5ce5","study_id":"6197b3f67c2b5cd3b6d9596a","session_id":"6197b9eef0715d01751cea02","condition":"contingent","relevant_dimensions":["antennae","wings"],"bee_group":{"antennae":"B","wings":"1","pattern":"X","legs":"X"},"action":"harvest","summary":"good-harvest","bonus":1.360000000000001},{"rt":903.8999999761581,"stimulus":"\n                    <p><b>Action: <em>harvest</em></b></p>\n                    <p>This is the bee that you just saw.</p>\n                    <img src=\"bees-with-color/bee-A1DF.svg\" width=\"200\">\n                    <p><span class=\"greenText\"><b>Successful harvest!</b></span><br>Your pay has increased by $0.02. Your bonus pay is now $0.56.</p>\n            ","response":0,"trial_type":"html-button-response","trial_index":28,"time_elapsed":213229,"internal_node_id":"0.0-4.0-1.10","subject_id":"601d97602ac2ab13eb2a5ce5","study_id":"6197b3f67c2b5cd3b6d9596a","session_id":"6197b9eef0715d01751cea02","condition":"contingent","relevant_dimensions":["antennae","wings"],"bee_group":{"antennae":"B","wings":"1","pattern":"X","legs":"X"},"bonus":1.360000000000001},{"rt":1620.9000000357628,"stimulus":"bees-with-color/bee-A2SM.svg","response":0,"trial_type":"image-button-response","trial_index":29,"time_elapsed":214851,"internal_node_id":"0.0-4.0-0.11","subject_id":"601d97602ac2ab13eb2a5ce5","study_id":"6197b3f67c2b5cd3b6d9596a","session_id":"6197b9eef0715d01751cea02","condition":"contingent","relevant_dimensions":["antennae","wings"],"bee_group":{"antennae":"B","wings":"1","pattern":"X","legs":"X"},"action":"harvest","summary":"good-harvest","bonus":1.360000000000001},{"rt":781.6000000238419,"stimulus":"\n                    <p><b>Action: <em>harvest</em></b></p>\n                    <p>This is the bee that you just saw.</p>\n                    <img src=\"bees-with-color/bee-A2SM.svg\" width=\"200\">\n                    <p><span class=\"greenText\"><b>Successful harvest!</b></span><br>Your pay has increased by $0.02. Your bonus pay is now $0.58.</p>\n            ","response":0,"trial_type":"html-button-response","trial_index":30,"time_elapsed":215634,"internal_node_id":"0.0-4.0-1.11","subject_id":"601d97602ac2ab13eb2a5ce5","study_id":"6197b3f67c2b5cd3b6d9596a","session_id":"6197b9eef0715d01751cea02","condition":"contingent","relevant_dimensions":["antennae","wings"],"bee_group":{"antennae":"B","wings":"1","pattern":"X","legs":"X"},"bonus":1.360000000000001},{"rt":1453.1000000238419,"stimulus":"bees-with-color/bee-B1DF.svg","response":1,"trial_type":"image-button-response","trial_index":31,"time_elapsed":217088,"internal_node_id":"0.0-4.0-0.12","subject_id":"601d97602ac2ab13eb2a5ce5","study_id":"6197b3f67c2b5cd3b6d9596a","session_id":"6197b9eef0715d01751cea02","condition":"contingent","relevant_dimensions":["antennae","wings"],"bee_group":{"antennae":"B","wings":"1","pattern":"X","legs":"X"},"action":"avoid","summary":"good-avoid","bonus":1.360000000000001},{"rt":840.2000000476837,"stimulus":"\n                    <p><b>Action: <em>avoid</em></b></p>\n                    <p>This is the bee that you just saw.</p>\n                    <img src=\"bees-with-color/bee-B1DF.svg\" width=\"200\">\n                    <p><br>Your bonus pay is unchanged, and remains at $0.58.</p>\n            ","response":0,"trial_type":"html-button-response","trial_index":32,"time_elapsed":217929,"internal_node_id":"0.0-4.0-1.12","subject_id":"601d97602ac2ab13eb2a5ce5","study_id":"6197b3f67c2b5cd3b6d9596a","session_id":"6197b9eef0715d01751cea02","condition":"contingent","relevant_dimensions":["antennae","wings"],"bee_group":{"antennae":"B","wings":"1","pattern":"X","legs":"X"},"bonus":1.360000000000001},{"rt":2801,"stimulus":"bees-with-color/bee-A1SF.svg","response":0,"trial_type":"image-button-response","trial_index":33,"time_elapsed":220731,"internal_node_id":"0.0-4.0-0.13","subject_id":"601d97602ac2ab13eb2a5ce5","study_id":"6197b3f67c2b5cd3b6d9596a","session_id":"6197b9eef0715d01751cea02","condition":"contingent","relevant_dimensions":["antennae","wings"],"bee_group":{"antennae":"B","wings":"1","pattern":"X","legs":"X"},"action":"harvest","summary":"good-harvest","bonus":1.360000000000001},{"rt":843.3999999761581,"stimulus":"\n                    <p><b>Action: <em>harvest</em></b></p>\n                    <p>This is the bee that you just saw.</p>\n                    <img src=\"bees-with-color/bee-A1SF.svg\" width=\"200\">\n                    <p><span class=\"greenText\"><b>Successful harvest!</b></span><br>Your pay has increased by $0.02. Your bonus pay is now $0.60.</p>\n            ","response":0,"trial_type":"html-button-response","trial_index":34,"time_elapsed":221575,"internal_node_id":"0.0-4.0-1.13","subject_id":"601d97602ac2ab13eb2a5ce5","study_id":"6197b3f67c2b5cd3b6d9596a","session_id":"6197b9eef0715d01751cea02","condition":"contingent","relevant_dimensions":["antennae","wings"],"bee_group":{"antennae":"B","wings":"1","pattern":"X","legs":"X"},"bonus":1.360000000000001},{"rt":3173.600000023842,"stimulus":"bees-with-color/bee-A2DF.svg","response":0,"trial_type":"image-button-response","trial_index":35,"time_elapsed":224750,"internal_node_id":"0.0-4.0-0.14","subject_id":"601d97602ac2ab13eb2a5ce5","study_id":"6197b3f67c2b5cd3b6d9596a","session_id":"6197b9eef0715d01751cea02","condition":"contingent","relevant_dimensions":["antennae","wings"],"bee_group":{"antennae":"B","wings":"1","pattern":"X","legs":"X"},"action":"harvest","summary":"good-harvest","bonus":1.360000000000001},{"rt":809.1000000238419,"stimulus":"\n                    <p><b>Action: <em>harvest</em></b></p>\n                    <p>This is the bee that you just saw.</p>\n                    <img src=\"bees-with-color/bee-A2DF.svg\" width=\"200\">\n                    <p><span class=\"greenText\"><b>Successful harvest!</b></span><br>Your pay has increased by $0.02. Your bonus pay is now $0.62.</p>\n            ","response":0,"trial_type":"html-button-response","trial_index":36,"time_elapsed":225561,"internal_node_id":"0.0-4.0-1.14","subject_id":"601d97602ac2ab13eb2a5ce5","study_id":"6197b3f67c2b5cd3b6d9596a","session_id":"6197b9eef0715d01751cea02","condition":"contingent","relevant_dimensions":["antennae","wings"],"bee_group":{"antennae":"B","wings":"1","pattern":"X","legs":"X"},"bonus":1.360000000000001},{"rt":1308.300000011921,"stimulus":"bees-with-color/bee-A2DM.svg","response":0,"trial_type":"image-button-response","trial_index":37,"time_elapsed":226870,"internal_node_id":"0.0-4.0-0.15","subject_id":"601d97602ac2ab13eb2a5ce5","study_id":"6197b3f67c2b5cd3b6d9596a","session_id":"6197b9eef0715d01751cea02","condition":"contingent","relevant_dimensions":["antennae","wings"],"bee_group":{"antennae":"B","wings":"1","pattern":"X","legs":"X"},"action":"harvest","summary":"good-harvest","bonus":1.360000000000001},{"rt":678.8000000119209,"stimulus":"\n                    <p><b>Action: <em>harvest</em></b></p>\n                    <p>This is the bee that you just saw.</p>\n                    <img src=\"bees-with-color/bee-A2DM.svg\" width=\"200\">\n                    <p><span class=\"greenText\"><b>Successful harvest!</b></span><br>Your pay has increased by $0.02. Your bonus pay is now $0.64.</p>\n            ","response":0,"trial_type":"html-button-response","trial_index":38,"time_elapsed":227550,"internal_node_id":"0.0-4.0-1.15","subject_id":"601d97602ac2ab13eb2a5ce5","study_id":"6197b3f67c2b5cd3b6d9596a","session_id":"6197b9eef0715d01751cea02","condition":"contingent","relevant_dimensions":["antennae","wings"],"bee_group":{"antennae":"B","wings":"1","pattern":"X","legs":"X"},"bonus":1.360000000000001},{"rt":1416.300000011921,"stimulus":"bees-with-color/bee-A1SF.svg","response":0,"trial_type":"image-button-response","trial_index":39,"time_elapsed":228967,"internal_node_id":"0.0-4.0-0.16","subject_id":"601d97602ac2ab13eb2a5ce5","study_id":"6197b3f67c2b5cd3b6d9596a","session_id":"6197b9eef0715d01751cea02","condition":"contingent","relevant_dimensions":["antennae","wings"],"bee_group":{"antennae":"B","wings":"1","pattern":"X","legs":"X"},"action":"harvest","summary":"good-harvest","bonus":1.360000000000001},{"rt":626,"stimulus":"\n                    <p><b>Action: <em>harvest</em></b></p>\n                    <p>This is the bee that you just saw.</p>\n                    <img src=\"bees-with-color/bee-A1SF.svg\" width=\"200\">\n                    <p><span class=\"greenText\"><b>Successful harvest!</b></span><br>Your pay has increased by $0.02. Your bonus pay is now $0.66.</p>\n            ","response":0,"trial_type":"html-button-response","trial_index":40,"time_elapsed":229594,"internal_node_id":"0.0-4.0-1.16","subject_id":"601d97602ac2ab13eb2a5ce5","study_id":"6197b3f67c2b5cd3b6d9596a","session_id":"6197b9eef0715d01751cea02","condition":"contingent","relevant_dimensions":["antennae","wings"],"bee_group":{"antennae":"B","wings":"1","pattern":"X","legs":"X"},"bonus":1.360000000000001},{"rt":1081.1000000238419,"stimulus":"bees-with-color/bee-A1SM.svg","response":0,"trial_type":"image-button-response","trial_index":41,"time_elapsed":230676,"internal_node_id":"0.0-4.0-0.17","subject_id":"601d97602ac2ab13eb2a5ce5","study_id":"6197b3f67c2b5cd3b6d9596a","session_id":"6197b9eef0715d01751cea02","condition":"contingent","relevant_dimensions":["antennae","wings"],"bee_group":{"antennae":"B","wings":"1","pattern":"X","legs":"X"},"action":"harvest","summary":"good-harvest","bonus":1.360000000000001},{"rt":579.1000000238419,"stimulus":"\n                    <p><b>Action: <em>harvest</em></b></p>\n                    <p>This is the bee that you just saw.</p>\n                    <img src=\"bees-with-color/bee-A1SM.svg\" width=\"200\">\n                    <p><span class=\"greenText\"><b>Successful harvest!</b></span><br>Your pay has increased by $0.02. Your bonus pay is now $0.68.</p>\n            ","response":0,"trial_type":"html-button-response","trial_index":42,"time_elapsed":231256,"internal_node_id":"0.0-4.0-1.17","subject_id":"601d97602ac2ab13eb2a5ce5","study_id":"6197b3f67c2b5cd3b6d9596a","session_id":"6197b9eef0715d01751cea02","condition":"contingent","relevant_dimensions":["antennae","wings"],"bee_group":{"antennae":"B","wings":"1","pattern":"X","legs":"X"},"bonus":1.360000000000001},{"rt":1073.6000000238419,"stimulus":"bees-with-color/bee-A2SF.svg","response":0,"trial_type":"image-button-response","trial_index":43,"time_elapsed":232330,"internal_node_id":"0.0-4.0-0.18","subject_id":"601d97602ac2ab13eb2a5ce5","study_id":"6197b3f67c2b5cd3b6d9596a","session_id":"6197b9eef0715d01751cea02","condition":"contingent","relevant_dimensions":["antennae","wings"],"bee_group":{"antennae":"B","wings":"1","pattern":"X","legs":"X"},"action":"harvest","summary":"good-harvest","bonus":1.360000000000001},{"rt":527.6999999880791,"stimulus":"\n                    <p><b>Action: <em>harvest</em></b></p>\n                    <p>This is the bee that you just saw.</p>\n                    <img src=\"bees-with-color/bee-A2SF.svg\" width=\"200\">\n                    <p><span class=\"greenText\"><b>Successful harvest!</b></span><br>Your pay has increased by $0.02. Your bonus pay is now $0.70.</p>\n            ","response":0,"trial_type":"html-button-response","trial_index":44,"time_elapsed":232859,"internal_node_id":"0.0-4.0-1.18","subject_id":"601d97602ac2ab13eb2a5ce5","study_id":"6197b3f67c2b5cd3b6d9596a","session_id":"6197b9eef0715d01751cea02","condition":"contingent","relevant_dimensions":["antennae","wings"],"bee_group":{"antennae":"B","wings":"1","pattern":"X","legs":"X"},"bonus":1.360000000000001},{"rt":1784.0999999642372,"stimulus":"bees-with-color/bee-A2DF.svg","response":0,"trial_type":"image-button-response","trial_index":45,"time_elapsed":234644,"internal_node_id":"0.0-4.0-0.19","subject_id":"601d97602ac2ab13eb2a5ce5","study_id":"6197b3f67c2b5cd3b6d9596a","session_id":"6197b9eef0715d01751cea02","condition":"contingent","relevant_dimensions":["antennae","wings"],"bee_group":{"antennae":"B","wings":"1","pattern":"X","legs":"X"},"action":"harvest","summary":"good-harvest","bonus":1.360000000000001},{"rt":573.1000000238419,"stimulus":"\n                    <p><b>Action: <em>harvest</em></b></p>\n                    <p>This is the bee that you just saw.</p>\n                    <img src=\"bees-with-color/bee-A2DF.svg\" width=\"200\">\n                    <p><span class=\"greenText\"><b>Successful harvest!</b></span><br>Your pay has increased by $0.02. Your bonus pay is now $0.72.</p>\n            ","response":0,"trial_type":"html-button-response","trial_index":46,"time_elapsed":235218,"internal_node_id":"0.0-4.0-1.19","subject_id":"601d97602ac2ab13eb2a5ce5","study_id":"6197b3f67c2b5cd3b6d9596a","session_id":"6197b9eef0715d01751cea02","condition":"contingent","relevant_dimensions":["antennae","wings"],"bee_group":{"antennae":"B","wings":"1","pattern":"X","legs":"X"},"bonus":1.360000000000001},{"rt":1031.199999988079,"stimulus":"bees-with-color/bee-B1DF.svg","response":1,"trial_type":"image-button-response","trial_index":47,"time_elapsed":236250,"internal_node_id":"0.0-4.0-0.20","subject_id":"601d97602ac2ab13eb2a5ce5","study_id":"6197b3f67c2b5cd3b6d9596a","session_id":"6197b9eef0715d01751cea02","condition":"contingent","relevant_dimensions":["antennae","wings"],"bee_group":{"antennae":"B","wings":"1","pattern":"X","legs":"X"},"action":"avoid","summary":"good-avoid","bonus":1.360000000000001},{"rt":867.3000000119209,"stimulus":"\n                    <p><b>Action: <em>avoid</em></b></p>\n                    <p>This is the bee that you just saw.</p>\n                    <img src=\"bees-with-color/bee-B1DF.svg\" width=\"200\">\n                    <p><br>Your bonus pay is unchanged, and remains at $0.72.</p>\n            ","response":0,"trial_type":"html-button-response","trial_index":48,"time_elapsed":237118,"internal_node_id":"0.0-4.0-1.20","subject_id":"601d97602ac2ab13eb2a5ce5","study_id":"6197b3f67c2b5cd3b6d9596a","session_id":"6197b9eef0715d01751cea02","condition":"contingent","relevant_dimensions":["antennae","wings"],"bee_group":{"antennae":"B","wings":"1","pattern":"X","legs":"X"},"bonus":1.360000000000001},{"rt":799.1999999880791,"stimulus":"bees-with-color/bee-A2SM.svg","response":0,"trial_type":"image-button-response","trial_index":49,"time_elapsed":237918,"internal_node_id":"0.0-4.0-0.21","subject_id":"601d97602ac2ab13eb2a5ce5","study_id":"6197b3f67c2b5cd3b6d9596a","session_id":"6197b9eef0715d01751cea02","condition":"contingent","relevant_dimensions":["antennae","wings"],"bee_group":{"antennae":"B","wings":"1","pattern":"X","legs":"X"},"action":"harvest","summary":"good-harvest","bonus":1.360000000000001},{"rt":562.1000000238419,"stimulus":"\n                    <p><b>Action: <em>harvest</em></b></p>\n                    <p>This is the bee that you just saw.</p>\n                    <img src=\"bees-with-color/bee-A2SM.svg\" width=\"200\">\n                    <p><span class=\"greenText\"><b>Successful harvest!</b></span><br>Your pay has increased by $0.02. Your bonus pay is now $0.74.</p>\n            ","response":0,"trial_type":"html-button-response","trial_index":50,"time_elapsed":238481,"internal_node_id":"0.0-4.0-1.21","subject_id":"601d97602ac2ab13eb2a5ce5","study_id":"6197b3f67c2b5cd3b6d9596a","session_id":"6197b9eef0715d01751cea02","condition":"contingent","relevant_dimensions":["antennae","wings"],"bee_group":{"antennae":"B","wings":"1","pattern":"X","legs":"X"},"bonus":1.360000000000001},{"rt":1228.4000000357628,"stimulus":"bees-with-color/bee-B2SF.svg","response":1,"trial_type":"image-button-response","trial_index":51,"time_elapsed":239710,"internal_node_id":"0.0-4.0-0.22","subject_id":"601d97602ac2ab13eb2a5ce5","study_id":"6197b3f67c2b5cd3b6d9596a","session_id":"6197b9eef0715d01751cea02","condition":"contingent","relevant_dimensions":["antennae","wings"],"bee_group":{"antennae":"B","wings":"1","pattern":"X","legs":"X"},"action":"avoid","summary":"bad-avoid","bonus":1.360000000000001},{"rt":504,"stimulus":"\n                    <p><b>Action: <em>avoid</em></b></p>\n                    <p>This is the bee that you just saw.</p>\n                    <img src=\"bees-with-color/bee-B2SF.svg\" width=\"200\">\n                    <p><br>Your bonus pay is unchanged, and remains at $0.74.</p>\n            ","response":0,"trial_type":"html-button-response","trial_index":52,"time_elapsed":240215,"internal_node_id":"0.0-4.0-1.22","subject_id":"601d97602ac2ab13eb2a5ce5","study_id":"6197b3f67c2b5cd3b6d9596a","session_id":"6197b9eef0715d01751cea02","condition":"contingent","relevant_dimensions":["antennae","wings"],"bee_group":{"antennae":"B","wings":"1","pattern":"X","legs":"X"},"bonus":1.360000000000001},{"rt":3845.400000035763,"stimulus":"bees-with-color/bee-B1SM.svg","response":0,"trial_type":"image-button-response","trial_index":53,"time_elapsed":244061,"internal_node_id":"0.0-4.0-0.23","subject_id":"601d97602ac2ab13eb2a5ce5","study_id":"6197b3f67c2b5cd3b6d9596a","session_id":"6197b9eef0715d01751cea02","condition":"contingent","relevant_dimensions":["antennae","wings"],"bee_group":{"antennae":"B","wings":"1","pattern":"X","legs":"X"},"action":"harvest","summary":"bad-harvest","bonus":1.360000000000001},{"rt":4257.300000011921,"stimulus":"\n                    <p><b>Action: <em>harvest</em></b></p>\n                    <p>This is the bee that you just saw.</p>\n                    <img src=\"bees-with-color/bee-B1SM.svg\" width=\"200\">\n                    <p><span class=\"redText\">Bad choice, the bee was angry.</span><br><b>You have been stung!</b><br>Your pay has been decreased by $0.10. Your bonus pay is now $0.64.</p>\n            ","response":0,"trial_type":"html-button-response","trial_index":54,"time_elapsed":248319,"internal_node_id":"0.0-4.0-1.23","subject_id":"601d97602ac2ab13eb2a5ce5","study_id":"6197b3f67c2b5cd3b6d9596a","session_id":"6197b9eef0715d01751cea02","condition":"contingent","relevant_dimensions":["antennae","wings"],"bee_group":{"antennae":"B","wings":"1","pattern":"X","legs":"X"},"bonus":1.360000000000001},{"rt":1063.800000011921,"stimulus":"bees-with-color/bee-A2DM.svg","response":0,"trial_type":"image-button-response","trial_index":55,"time_elapsed":249384,"internal_node_id":"0.0-4.0-0.24","subject_id":"601d97602ac2ab13eb2a5ce5","study_id":"6197b3f67c2b5cd3b6d9596a","session_id":"6197b9eef0715d01751cea02","condition":"contingent","relevant_dimensions":["antennae","wings"],"bee_group":{"antennae":"B","wings":"1","pattern":"X","legs":"X"},"action":"harvest","summary":"good-harvest","bonus":1.360000000000001},{"rt":683.1000000238419,"stimulus":"\n                    <p><b>Action: <em>harvest</em></b></p>\n                    <p>This is the bee that you just saw.</p>\n                    <img src=\"bees-with-color/bee-A2DM.svg\" width=\"200\">\n                    <p><span class=\"greenText\"><b>Successful harvest!</b></span><br>Your pay has increased by $0.02. Your bonus pay is now $0.66.</p>\n            ","response":0,"trial_type":"html-button-response","trial_index":56,"time_elapsed":250068,"internal_node_id":"0.0-4.0-1.24","subject_id":"601d97602ac2ab13eb2a5ce5","study_id":"6197b3f67c2b5cd3b6d9596a","session_id":"6197b9eef0715d01751cea02","condition":"contingent","relevant_dimensions":["antennae","wings"],"bee_group":{"antennae":"B","wings":"1","pattern":"X","legs":"X"},"bonus":1.360000000000001},{"rt":876.6999999880791,"stimulus":"bees-with-color/bee-B1DM.svg","response":1,"trial_type":"image-button-response","trial_index":57,"time_elapsed":250946,"internal_node_id":"0.0-4.0-0.25","subject_id":"601d97602ac2ab13eb2a5ce5","study_id":"6197b3f67c2b5cd3b6d9596a","session_id":"6197b9eef0715d01751cea02","condition":"contingent","relevant_dimensions":["antennae","wings"],"bee_group":{"antennae":"B","wings":"1","pattern":"X","legs":"X"},"action":"avoid","summary":"good-avoid","bonus":1.360000000000001},{"rt":1451.1000000238419,"stimulus":"\n                    <p><b>Action: <em>avoid</em></b></p>\n                    <p>This is the bee that you just saw.</p>\n                    <img src=\"bees-with-color/bee-B1DM.svg\" width=\"200\">\n                    <p><br>Your bonus pay is unchanged, and remains at $0.66.</p>\n            ","response":0,"trial_type":"html-button-response","trial_index":58,"time_elapsed":252398,"internal_node_id":"0.0-4.0-1.25","subject_id":"601d97602ac2ab13eb2a5ce5","study_id":"6197b3f67c2b5cd3b6d9596a","session_id":"6197b9eef0715d01751cea02","condition":"contingent","relevant_dimensions":["antennae","wings"],"bee_group":{"antennae":"B","wings":"1","pattern":"X","legs":"X"},"bonus":1.360000000000001},{"rt":1232.4000000357628,"stimulus":"bees-with-color/bee-B2DF.svg","response":1,"trial_type":"image-button-response","trial_index":59,"time_elapsed":253631,"internal_node_id":"0.0-4.0-0.26","subject_id":"601d97602ac2ab13eb2a5ce5","study_id":"6197b3f67c2b5cd3b6d9596a","session_id":"6197b9eef0715d01751cea02","condition":"contingent","relevant_dimensions":["antennae","wings"],"bee_group":{"antennae":"B","wings":"1","pattern":"X","legs":"X"},"action":"avoid","summary":"bad-avoid","bonus":1.360000000000001},{"rt":641.8000000119209,"stimulus":"\n                    <p><b>Action: <em>avoid</em></b></p>\n                    <p>This is the bee that you just saw.</p>\n                    <img src=\"bees-with-color/bee-B2DF.svg\" width=\"200\">\n                    <p><br>Your bonus pay is unchanged, and remains at $0.66.</p>\n            ","response":0,"trial_type":"html-button-response","trial_index":60,"time_elapsed":254274,"internal_node_id":"0.0-4.0-1.26","subject_id":"601d97602ac2ab13eb2a5ce5","study_id":"6197b3f67c2b5cd3b6d9596a","session_id":"6197b9eef0715d01751cea02","condition":"contingent","relevant_dimensions":["antennae","wings"],"bee_group":{"antennae":"B","wings":"1","pattern":"X","legs":"X"},"bonus":1.360000000000001},{"rt":2001.1000000238419,"stimulus":"bees-with-color/bee-B2SM.svg","response":1,"trial_type":"image-button-response","trial_index":61,"time_elapsed":256276,"internal_node_id":"0.0-4.0-0.27","subject_id":"601d97602ac2ab13eb2a5ce5","study_id":"6197b3f67c2b5cd3b6d9596a","session_id":"6197b9eef0715d01751cea02","condition":"contingent","relevant_dimensions":["antennae","wings"],"bee_group":{"antennae":"B","wings":"1","pattern":"X","legs":"X"},"action":"avoid","summary":"bad-avoid","bonus":1.360000000000001},{"rt":629.1000000238419,"stimulus":"\n                    <p><b>Action: <em>avoid</em></b></p>\n                    <p>This is the bee that you just saw.</p>\n                    <img src=\"bees-with-color/bee-B2SM.svg\" width=\"200\">\n                    <p><br>Your bonus pay is unchanged, and remains at $0.66.</p>\n            ","response":0,"trial_type":"html-button-response","trial_index":62,"time_elapsed":256906,"internal_node_id":"0.0-4.0-1.27","subject_id":"601d97602ac2ab13eb2a5ce5","study_id":"6197b3f67c2b5cd3b6d9596a","session_id":"6197b9eef0715d01751cea02","condition":"contingent","relevant_dimensions":["antennae","wings"],"bee_group":{"antennae":"B","wings":"1","pattern":"X","legs":"X"},"bonus":1.360000000000001},{"rt":1100.8999999761581,"stimulus":"bees-with-color/bee-B1SF.svg","response":1,"trial_type":"image-button-response","trial_index":63,"time_elapsed":258008,"internal_node_id":"0.0-4.0-0.28","subject_id":"601d97602ac2ab13eb2a5ce5","study_id":"6197b3f67c2b5cd3b6d9596a","session_id":"6197b9eef0715d01751cea02","condition":"contingent","relevant_dimensions":["antennae","wings"],"bee_group":{"antennae":"B","wings":"1","pattern":"X","legs":"X"},"action":"avoid","summary":"good-avoid","bonus":1.360000000000001},{"rt":595.1999999880791,"stimulus":"\n                    <p><b>Action: <em>avoid</em></b></p>\n                    <p>This is the bee that you just saw.</p>\n                    <img src=\"bees-with-color/bee-B1SF.svg\" width=\"200\">\n                    <p><br>Your bonus pay is unchanged, and remains at $0.66.</p>\n            ","response":0,"trial_type":"html-button-response","trial_index":64,"time_elapsed":258604,"internal_node_id":"0.0-4.0-1.28","subject_id":"601d97602ac2ab13eb2a5ce5","study_id":"6197b3f67c2b5cd3b6d9596a","session_id":"6197b9eef0715d01751cea02","condition":"contingent","relevant_dimensions":["antennae","wings"],"bee_group":{"antennae":"B","wings":"1","pattern":"X","legs":"X"},"bonus":1.360000000000001},{"rt":1069.4000000357628,"stimulus":"bees-with-color/bee-A1DF.svg","response":0,"trial_type":"image-button-response","trial_index":65,"time_elapsed":259674,"internal_node_id":"0.0-4.0-0.29","subject_id":"601d97602ac2ab13eb2a5ce5","study_id":"6197b3f67c2b5cd3b6d9596a","session_id":"6197b9eef0715d01751cea02","condition":"contingent","relevant_dimensions":["antennae","wings"],"bee_group":{"antennae":"B","wings":"1","pattern":"X","legs":"X"},"action":"harvest","summary":"good-harvest","bonus":1.360000000000001},{"rt":895.3000000119209,"stimulus":"\n                    <p><b>Action: <em>harvest</em></b></p>\n                    <p>This is the bee that you just saw.</p>\n                    <img src=\"bees-with-color/bee-A1DF.svg\" width=\"200\">\n                    <p><span class=\"greenText\"><b>Successful harvest!</b></span><br>Your pay has increased by $0.02. Your bonus pay is now $0.68.</p>\n            ","response":0,"trial_type":"html-button-response","trial_index":66,"time_elapsed":260570,"internal_node_id":"0.0-4.0-1.29","subject_id":"601d97602ac2ab13eb2a5ce5","study_id":"6197b3f67c2b5cd3b6d9596a","session_id":"6197b9eef0715d01751cea02","condition":"contingent","relevant_dimensions":["antennae","wings"],"bee_group":{"antennae":"B","wings":"1","pattern":"X","legs":"X"},"bonus":1.360000000000001},{"rt":943,"stimulus":"bees-with-color/bee-B2DM.svg","response":1,"trial_type":"image-button-response","trial_index":67,"time_elapsed":261514,"internal_node_id":"0.0-4.0-0.30","subject_id":"601d97602ac2ab13eb2a5ce5","study_id":"6197b3f67c2b5cd3b6d9596a","session_id":"6197b9eef0715d01751cea02","condition":"contingent","relevant_dimensions":["antennae","wings"],"bee_group":{"antennae":"B","wings":"1","pattern":"X","legs":"X"},"action":"avoid","summary":"bad-avoid","bonus":1.360000000000001},{"rt":830.3000000119209,"stimulus":"\n                    <p><b>Action: <em>avoid</em></b></p>\n                    <p>This is the bee that you just saw.</p>\n                    <img src=\"bees-with-color/bee-B2DM.svg\" width=\"200\">\n                    <p><br>Your bonus pay is unchanged, and remains at $0.68.</p>\n            ","response":0,"trial_type":"html-button-response","trial_index":68,"time_elapsed":262345,"internal_node_id":"0.0-4.0-1.30","subject_id":"601d97602ac2ab13eb2a5ce5","study_id":"6197b3f67c2b5cd3b6d9596a","session_id":"6197b9eef0715d01751cea02","condition":"contingent","relevant_dimensions":["antennae","wings"],"bee_group":{"antennae":"B","wings":"1","pattern":"X","legs":"X"},"bonus":1.360000000000001},{"rt":1677.300000011921,"stimulus":"bees-with-color/bee-A1DM.svg","response":0,"trial_type":"image-button-response","trial_index":69,"time_elapsed":264023,"internal_node_id":"0.0-4.0-0.31","subject_id":"601d97602ac2ab13eb2a5ce5","study_id":"6197b3f67c2b5cd3b6d9596a","session_id":"6197b9eef0715d01751cea02","condition":"contingent","relevant_dimensions":["antennae","wings"],"bee_group":{"antennae":"B","wings":"1","pattern":"X","legs":"X"},"action":"harvest","summary":"good-harvest","bonus":1.360000000000001},{"rt":595.5,"stimulus":"\n                    <p><b>Action: <em>harvest</em></b></p>\n                    <p>This is the bee that you just saw.</p>\n                    <img src=\"bees-with-color/bee-A1DM.svg\" width=\"200\">\n                    <p><span class=\"greenText\"><b>Successful harvest!</b></span><br>Your pay has increased by $0.02. Your bonus pay is now $0.70.</p>\n            ","response":0,"trial_type":"html-button-response","trial_index":70,"time_elapsed":264619,"internal_node_id":"0.0-4.0-1.31","subject_id":"601d97602ac2ab13eb2a5ce5","study_id":"6197b3f67c2b5cd3b6d9596a","session_id":"6197b9eef0715d01751cea02","condition":"contingent","relevant_dimensions":["antennae","wings"],"bee_group":{"antennae":"B","wings":"1","pattern":"X","legs":"X"},"bonus":1.360000000000001},{"rt":963.5999999642372,"stimulus":"bees-with-color/bee-B1DM.svg","response":1,"trial_type":"image-button-response","trial_index":71,"time_elapsed":265584,"internal_node_id":"0.0-4.0-0.32","subject_id":"601d97602ac2ab13eb2a5ce5","study_id":"6197b3f67c2b5cd3b6d9596a","session_id":"6197b9eef0715d01751cea02","condition":"contingent","relevant_dimensions":["antennae","wings"],"bee_group":{"antennae":"B","wings":"1","pattern":"X","legs":"X"},"action":"avoid","summary":"good-avoid","bonus":1.360000000000001},{"rt":514.1999999880791,"stimulus":"\n                    <p><b>Action: <em>avoid</em></b></p>\n                    <p>This is the bee that you just saw.</p>\n                    <img src=\"bees-with-color/bee-B1DM.svg\" width=\"200\">\n                    <p><br>Your bonus pay is unchanged, and remains at $0.70.</p>\n            ","response":0,"trial_type":"html-button-response","trial_index":72,"time_elapsed":266099,"internal_node_id":"0.0-4.0-1.32","subject_id":"601d97602ac2ab13eb2a5ce5","study_id":"6197b3f67c2b5cd3b6d9596a","session_id":"6197b9eef0715d01751cea02","condition":"contingent","relevant_dimensions":["antennae","wings"],"bee_group":{"antennae":"B","wings":"1","pattern":"X","legs":"X"},"bonus":1.360000000000001},{"rt":818.0999999642372,"stimulus":"bees-with-color/bee-A2SF.svg","response":0,"trial_type":"image-button-response","trial_index":73,"time_elapsed":266918,"internal_node_id":"0.0-4.0-0.33","subject_id":"601d97602ac2ab13eb2a5ce5","study_id":"6197b3f67c2b5cd3b6d9596a","session_id":"6197b9eef0715d01751cea02","condition":"contingent","relevant_dimensions":["antennae","wings"],"bee_group":{"antennae":"B","wings":"1","pattern":"X","legs":"X"},"action":"harvest","summary":"good-harvest","bonus":1.360000000000001},{"rt":620.0999999642372,"stimulus":"\n                    <p><b>Action: <em>harvest</em></b></p>\n                    <p>This is the bee that you just saw.</p>\n                    <img src=\"bees-with-color/bee-A2SF.svg\" width=\"200\">\n                    <p><span class=\"greenText\"><b>Successful harvest!</b></span><br>Your pay has increased by $0.02. Your bonus pay is now $0.72.</p>\n            ","response":0,"trial_type":"html-button-response","trial_index":74,"time_elapsed":267539,"internal_node_id":"0.0-4.0-1.33","subject_id":"601d97602ac2ab13eb2a5ce5","study_id":"6197b3f67c2b5cd3b6d9596a","session_id":"6197b9eef0715d01751cea02","condition":"contingent","relevant_dimensions":["antennae","wings"],"bee_group":{"antennae":"B","wings":"1","pattern":"X","legs":"X"},"bonus":1.360000000000001},{"rt":1614,"stimulus":"bees-with-color/bee-A1SM.svg","response":0,"trial_type":"image-button-response","trial_index":75,"time_elapsed":269154,"internal_node_id":"0.0-4.0-0.34","subject_id":"601d97602ac2ab13eb2a5ce5","study_id":"6197b3f67c2b5cd3b6d9596a","session_id":"6197b9eef0715d01751cea02","condition":"contingent","relevant_dimensions":["antennae","wings"],"bee_group":{"antennae":"B","wings":"1","pattern":"X","legs":"X"},"action":"harvest","summary":"good-harvest","bonus":1.360000000000001},{"rt":557.8000000119209,"stimulus":"\n                    <p><b>Action: <em>harvest</em></b></p>\n                    <p>This is the bee that you just saw.</p>\n                    <img src=\"bees-with-color/bee-A1SM.svg\" width=\"200\">\n                    <p><span class=\"greenText\"><b>Successful harvest!</b></span><br>Your pay has increased by $0.02. Your bonus pay is now $0.74.</p>\n            ","response":0,"trial_type":"html-button-response","trial_index":76,"time_elapsed":269713,"internal_node_id":"0.0-4.0-1.34","subject_id":"601d97602ac2ab13eb2a5ce5","study_id":"6197b3f67c2b5cd3b6d9596a","session_id":"6197b9eef0715d01751cea02","condition":"contingent","relevant_dimensions":["antennae","wings"],"bee_group":{"antennae":"B","wings":"1","pattern":"X","legs":"X"},"bonus":1.360000000000001},{"rt":1276,"stimulus":"bees-with-color/bee-A2DF.svg","response":0,"trial_type":"image-button-response","trial_index":77,"time_elapsed":270990,"internal_node_id":"0.0-4.0-0.35","subject_id":"601d97602ac2ab13eb2a5ce5","study_id":"6197b3f67c2b5cd3b6d9596a","session_id":"6197b9eef0715d01751cea02","condition":"contingent","relevant_dimensions":["antennae","wings"],"bee_group":{"antennae":"B","wings":"1","pattern":"X","legs":"X"},"action":"harvest","summary":"good-harvest","bonus":1.360000000000001},{"rt":558.0999999642372,"stimulus":"\n                    <p><b>Action: <em>harvest</em></b></p>\n                    <p>This is the bee that you just saw.</p>\n                    <img src=\"bees-with-color/bee-A2DF.svg\" width=\"200\">\n                    <p><span class=\"greenText\"><b>Successful harvest!</b></span><br>Your pay has increased by $0.02. Your bonus pay is now $0.76.</p>\n            ","response":0,"trial_type":"html-button-response","trial_index":78,"time_elapsed":271549,"internal_node_id":"0.0-4.0-1.35","subject_id":"601d97602ac2ab13eb2a5ce5","study_id":"6197b3f67c2b5cd3b6d9596a","session_id":"6197b9eef0715d01751cea02","condition":"contingent","relevant_dimensions":["antennae","wings"],"bee_group":{"antennae":"B","wings":"1","pattern":"X","legs":"X"},"bonus":1.360000000000001},{"rt":674.3000000119209,"stimulus":"bees-with-color/bee-B2SM.svg","response":1,"trial_type":"image-button-response","trial_index":79,"time_elapsed":272224,"internal_node_id":"0.0-4.0-0.36","subject_id":"601d97602ac2ab13eb2a5ce5","study_id":"6197b3f67c2b5cd3b6d9596a","session_id":"6197b9eef0715d01751cea02","condition":"contingent","relevant_dimensions":["antennae","wings"],"bee_group":{"antennae":"B","wings":"1","pattern":"X","legs":"X"},"action":"avoid","summary":"bad-avoid","bonus":1.360000000000001},{"rt":1379.1000000238419,"stimulus":"\n                    <p><b>Action: <em>avoid</em></b></p>\n                    <p>This is the bee that you just saw.</p>\n                    <img src=\"bees-with-color/bee-B2SM.svg\" width=\"200\">\n                    <p><br>Your bonus pay is unchanged, and remains at $0.76.</p>\n            ","response":0,"trial_type":"html-button-response","trial_index":80,"time_elapsed":273604,"internal_node_id":"0.0-4.0-1.36","subject_id":"601d97602ac2ab13eb2a5ce5","study_id":"6197b3f67c2b5cd3b6d9596a","session_id":"6197b9eef0715d01751cea02","condition":"contingent","relevant_dimensions":["antennae","wings"],"bee_group":{"antennae":"B","wings":"1","pattern":"X","legs":"X"},"bonus":1.360000000000001},{"rt":2284.399999976158,"stimulus":"bees-with-color/bee-B2DF.svg","response":1,"trial_type":"image-button-response","trial_index":81,"time_elapsed":275889,"internal_node_id":"0.0-4.0-0.37","subject_id":"601d97602ac2ab13eb2a5ce5","study_id":"6197b3f67c2b5cd3b6d9596a","session_id":"6197b9eef0715d01751cea02","condition":"contingent","relevant_dimensions":["antennae","wings"],"bee_group":{"antennae":"B","wings":"1","pattern":"X","legs":"X"},"action":"avoid","summary":"bad-avoid","bonus":1.360000000000001},{"rt":540.6999999880791,"stimulus":"\n                    <p><b>Action: <em>avoid</em></b></p>\n                    <p>This is the bee that you just saw.</p>\n                    <img src=\"bees-with-color/bee-B2DF.svg\" width=\"200\">\n                    <p><br>Your bonus pay is unchanged, and remains at $0.76.</p>\n            ","response":0,"trial_type":"html-button-response","trial_index":82,"time_elapsed":276431,"internal_node_id":"0.0-4.0-1.37","subject_id":"601d97602ac2ab13eb2a5ce5","study_id":"6197b3f67c2b5cd3b6d9596a","session_id":"6197b9eef0715d01751cea02","condition":"contingent","relevant_dimensions":["antennae","wings"],"bee_group":{"antennae":"B","wings":"1","pattern":"X","legs":"X"},"bonus":1.360000000000001},{"rt":913.1999999880791,"stimulus":"bees-with-color/bee-B2DM.svg","response":1,"trial_type":"image-button-response","trial_index":83,"time_elapsed":277345,"internal_node_id":"0.0-4.0-0.38","subject_id":"601d97602ac2ab13eb2a5ce5","study_id":"6197b3f67c2b5cd3b6d9596a","session_id":"6197b9eef0715d01751cea02","condition":"contingent","relevant_dimensions":["antennae","wings"],"bee_group":{"antennae":"B","wings":"1","pattern":"X","legs":"X"},"action":"avoid","summary":"bad-avoid","bonus":1.360000000000001},{"rt":561.3999999761581,"stimulus":"\n                    <p><b>Action: <em>avoid</em></b></p>\n                    <p>This is the bee that you just saw.</p>\n                    <img src=\"bees-with-color/bee-B2DM.svg\" width=\"200\">\n                    <p><br>Your bonus pay is unchanged, and remains at $0.76.</p>\n            ","response":0,"trial_type":"html-button-response","trial_index":84,"time_elapsed":277907,"internal_node_id":"0.0-4.0-1.38","subject_id":"601d97602ac2ab13eb2a5ce5","study_id":"6197b3f67c2b5cd3b6d9596a","session_id":"6197b9eef0715d01751cea02","condition":"contingent","relevant_dimensions":["antennae","wings"],"bee_group":{"antennae":"B","wings":"1","pattern":"X","legs":"X"},"bonus":1.360000000000001},{"rt":1012.2000000476837,"stimulus":"bees-with-color/bee-B1SF.svg","response":1,"trial_type":"image-button-response","trial_index":85,"time_elapsed":278920,"internal_node_id":"0.0-4.0-0.39","subject_id":"601d97602ac2ab13eb2a5ce5","study_id":"6197b3f67c2b5cd3b6d9596a","session_id":"6197b9eef0715d01751cea02","condition":"contingent","relevant_dimensions":["antennae","wings"],"bee_group":{"antennae":"B","wings":"1","pattern":"X","legs":"X"},"action":"avoid","summary":"good-avoid","bonus":1.360000000000001},{"rt":491.39999997615814,"stimulus":"\n                    <p><b>Action: <em>avoid</em></b></p>\n                    <p>This is the bee that you just saw.</p>\n                    <img src=\"bees-with-color/bee-B1SF.svg\" width=\"200\">\n                    <p><br>Your bonus pay is unchanged, and remains at $0.76.</p>\n            ","response":0,"trial_type":"html-button-response","trial_index":86,"time_elapsed":279412,"internal_node_id":"0.0-4.0-1.39","subject_id":"601d97602ac2ab13eb2a5ce5","study_id":"6197b3f67c2b5cd3b6d9596a","session_id":"6197b9eef0715d01751cea02","condition":"contingent","relevant_dimensions":["antennae","wings"],"bee_group":{"antennae":"B","wings":"1","pattern":"X","legs":"X"},"bonus":1.360000000000001},{"rt":745.8999999761581,"stimulus":"bees-with-color/bee-B2SF.svg","response":1,"trial_type":"image-button-response","trial_index":87,"time_elapsed":280159,"internal_node_id":"0.0-4.0-0.40","subject_id":"601d97602ac2ab13eb2a5ce5","study_id":"6197b3f67c2b5cd3b6d9596a","session_id":"6197b9eef0715d01751cea02","condition":"contingent","relevant_dimensions":["antennae","wings"],"bee_group":{"antennae":"B","wings":"1","pattern":"X","legs":"X"},"action":"avoid","summary":"bad-avoid","bonus":1.360000000000001},{"rt":508.30000001192093,"stimulus":"\n                    <p><b>Action: <em>avoid</em></b></p>\n                    <p>This is the bee that you just saw.</p>\n                    <img src=\"bees-with-color/bee-B2SF.svg\" width=\"200\">\n                    <p><br>Your bonus pay is unchanged, and remains at $0.76.</p>\n            ","response":0,"trial_type":"html-button-response","trial_index":88,"time_elapsed":280668,"internal_node_id":"0.0-4.0-1.40","subject_id":"601d97602ac2ab13eb2a5ce5","study_id":"6197b3f67c2b5cd3b6d9596a","session_id":"6197b9eef0715d01751cea02","condition":"contingent","relevant_dimensions":["antennae","wings"],"bee_group":{"antennae":"B","wings":"1","pattern":"X","legs":"X"},"bonus":1.360000000000001},{"rt":3054.7999999523163,"stimulus":"bees-with-color/bee-A1DM.svg","response":0,"trial_type":"image-button-response","trial_index":89,"time_elapsed":283724,"internal_node_id":"0.0-4.0-0.41","subject_id":"601d97602ac2ab13eb2a5ce5","study_id":"6197b3f67c2b5cd3b6d9596a","session_id":"6197b9eef0715d01751cea02","condition":"contingent","relevant_dimensions":["antennae","wings"],"bee_group":{"antennae":"B","wings":"1","pattern":"X","legs":"X"},"action":"harvest","summary":"good-harvest","bonus":1.360000000000001},{"rt":746.3000000119209,"stimulus":"\n                    <p><b>Action: <em>harvest</em></b></p>\n                    <p>This is the bee that you just saw.</p>\n                    <img src=\"bees-with-color/bee-A1DM.svg\" width=\"200\">\n                    <p><span class=\"greenText\"><b>Successful harvest!</b></span><br>Your pay has increased by $0.02. Your bonus pay is now $0.78.</p>\n            ","response":0,"trial_type":"html-button-response","trial_index":90,"time_elapsed":284471,"internal_node_id":"0.0-4.0-1.41","subject_id":"601d97602ac2ab13eb2a5ce5","study_id":"6197b3f67c2b5cd3b6d9596a","session_id":"6197b9eef0715d01751cea02","condition":"contingent","relevant_dimensions":["antennae","wings"],"bee_group":{"antennae":"B","wings":"1","pattern":"X","legs":"X"},"bonus":1.360000000000001},{"rt":811,"stimulus":"bees-with-color/bee-B1DF.svg","response":1,"trial_type":"image-button-response","trial_index":91,"time_elapsed":285283,"internal_node_id":"0.0-4.0-0.42","subject_id":"601d97602ac2ab13eb2a5ce5","study_id":"6197b3f67c2b5cd3b6d9596a","session_id":"6197b9eef0715d01751cea02","condition":"contingent","relevant_dimensions":["antennae","wings"],"bee_group":{"antennae":"B","wings":"1","pattern":"X","legs":"X"},"action":"avoid","summary":"good-avoid","bonus":1.360000000000001},{"rt":610.1999999880791,"stimulus":"\n                    <p><b>Action: <em>avoid</em></b></p>\n                    <p>This is the bee that you just saw.</p>\n                    <img src=\"bees-with-color/bee-B1DF.svg\" width=\"200\">\n                    <p><br>Your bonus pay is unchanged, and remains at $0.78.</p>\n            ","response":0,"trial_type":"html-button-response","trial_index":92,"time_elapsed":285894,"internal_node_id":"0.0-4.0-1.42","subject_id":"601d97602ac2ab13eb2a5ce5","study_id":"6197b3f67c2b5cd3b6d9596a","session_id":"6197b9eef0715d01751cea02","condition":"contingent","relevant_dimensions":["antennae","wings"],"bee_group":{"antennae":"B","wings":"1","pattern":"X","legs":"X"},"bonus":1.360000000000001},{"rt":781.1000000238419,"stimulus":"bees-with-color/bee-A2DM.svg","response":0,"trial_type":"image-button-response","trial_index":93,"time_elapsed":286676,"internal_node_id":"0.0-4.0-0.43","subject_id":"601d97602ac2ab13eb2a5ce5","study_id":"6197b3f67c2b5cd3b6d9596a","session_id":"6197b9eef0715d01751cea02","condition":"contingent","relevant_dimensions":["antennae","wings"],"bee_group":{"antennae":"B","wings":"1","pattern":"X","legs":"X"},"action":"harvest","summary":"good-harvest","bonus":1.360000000000001},{"rt":573.3000000119209,"stimulus":"\n                    <p><b>Action: <em>harvest</em></b></p>\n                    <p>This is the bee that you just saw.</p>\n                    <img src=\"bees-with-color/bee-A2DM.svg\" width=\"200\">\n                    <p><span class=\"greenText\"><b>Successful harvest!</b></span><br>Your pay has increased by $0.02. Your bonus pay is now $0.80.</p>\n            ","response":0,"trial_type":"html-button-response","trial_index":94,"time_elapsed":287250,"internal_node_id":"0.0-4.0-1.43","subject_id":"601d97602ac2ab13eb2a5ce5","study_id":"6197b3f67c2b5cd3b6d9596a","session_id":"6197b9eef0715d01751cea02","condition":"contingent","relevant_dimensions":["antennae","wings"],"bee_group":{"antennae":"B","wings":"1","pattern":"X","legs":"X"},"bonus":1.360000000000001},{"rt":1210.7999999523163,"stimulus":"bees-with-color/bee-A1SF.svg","response":0,"trial_type":"image-button-response","trial_index":95,"time_elapsed":288462,"internal_node_id":"0.0-4.0-0.44","subject_id":"601d97602ac2ab13eb2a5ce5","study_id":"6197b3f67c2b5cd3b6d9596a","session_id":"6197b9eef0715d01751cea02","condition":"contingent","relevant_dimensions":["antennae","wings"],"bee_group":{"antennae":"B","wings":"1","pattern":"X","legs":"X"},"action":"harvest","summary":"good-harvest","bonus":1.360000000000001},{"rt":532.0999999642372,"stimulus":"\n                    <p><b>Action: <em>harvest</em></b></p>\n                    <p>This is the bee that you just saw.</p>\n                    <img src=\"bees-with-color/bee-A1SF.svg\" width=\"200\">\n                    <p><span class=\"greenText\"><b>Successful harvest!</b></span><br>Your pay has increased by $0.02. Your bonus pay is now $0.82.</p>\n            ","response":0,"trial_type":"html-button-response","trial_index":96,"time_elapsed":288995,"internal_node_id":"0.0-4.0-1.44","subject_id":"601d97602ac2ab13eb2a5ce5","study_id":"6197b3f67c2b5cd3b6d9596a","session_id":"6197b9eef0715d01751cea02","condition":"contingent","relevant_dimensions":["antennae","wings"],"bee_group":{"antennae":"B","wings":"1","pattern":"X","legs":"X"},"bonus":1.360000000000001},{"rt":1049.199999988079,"stimulus":"bees-with-color/bee-A1DF.svg","response":0,"trial_type":"image-button-response","trial_index":97,"time_elapsed":290045,"internal_node_id":"0.0-4.0-0.45","subject_id":"601d97602ac2ab13eb2a5ce5","study_id":"6197b3f67c2b5cd3b6d9596a","session_id":"6197b9eef0715d01751cea02","condition":"contingent","relevant_dimensions":["antennae","wings"],"bee_group":{"antennae":"B","wings":"1","pattern":"X","legs":"X"},"action":"harvest","summary":"good-harvest","bonus":1.360000000000001},{"rt":539.3999999761581,"stimulus":"\n                    <p><b>Action: <em>harvest</em></b></p>\n                    <p>This is the bee that you just saw.</p>\n                    <img src=\"bees-with-color/bee-A1DF.svg\" width=\"200\">\n                    <p><span class=\"greenText\"><b>Successful harvest!</b></span><br>Your pay has increased by $0.02. Your bonus pay is now $0.84.</p>\n            ","response":0,"trial_type":"html-button-response","trial_index":98,"time_elapsed":290585,"internal_node_id":"0.0-4.0-1.45","subject_id":"601d97602ac2ab13eb2a5ce5","study_id":"6197b3f67c2b5cd3b6d9596a","session_id":"6197b9eef0715d01751cea02","condition":"contingent","relevant_dimensions":["antennae","wings"],"bee_group":{"antennae":"B","wings":"1","pattern":"X","legs":"X"},"bonus":1.360000000000001},{"rt":883,"stimulus":"bees-with-color/bee-B1SM.svg","response":1,"trial_type":"image-button-response","trial_index":99,"time_elapsed":291469,"internal_node_id":"0.0-4.0-0.46","subject_id":"601d97602ac2ab13eb2a5ce5","study_id":"6197b3f67c2b5cd3b6d9596a","session_id":"6197b9eef0715d01751cea02","condition":"contingent","relevant_dimensions":["antennae","wings"],"bee_group":{"antennae":"B","wings":"1","pattern":"X","legs":"X"},"action":"avoid","summary":"good-avoid","bonus":1.360000000000001},{"rt":637.3999999761581,"stimulus":"\n                    <p><b>Action: <em>avoid</em></b></p>\n                    <p>This is the bee that you just saw.</p>\n                    <img src=\"bees-with-color/bee-B1SM.svg\" width=\"200\">\n                    <p><br>Your bonus pay is unchanged, and remains at $0.84.</p>\n            ","response":0,"trial_type":"html-button-response","trial_index":100,"time_elapsed":292108,"internal_node_id":"0.0-4.0-1.46","subject_id":"601d97602ac2ab13eb2a5ce5","study_id":"6197b3f67c2b5cd3b6d9596a","session_id":"6197b9eef0715d01751cea02","condition":"contingent","relevant_dimensions":["antennae","wings"],"bee_group":{"antennae":"B","wings":"1","pattern":"X","legs":"X"},"bonus":1.360000000000001},{"rt":935.1999999880791,"stimulus":"bees-with-color/bee-A2SM.svg","response":0,"trial_type":"image-button-response","trial_index":101,"time_elapsed":293044,"internal_node_id":"0.0-4.0-0.47","subject_id":"601d97602ac2ab13eb2a5ce5","study_id":"6197b3f67c2b5cd3b6d9596a","session_id":"6197b9eef0715d01751cea02","condition":"contingent","relevant_dimensions":["antennae","wings"],"bee_group":{"antennae":"B","wings":"1","pattern":"X","legs":"X"},"action":"harvest","summary":"good-harvest","bonus":1.360000000000001},{"rt":647.1000000238419,"stimulus":"\n                    <p><b>Action: <em>harvest</em></b></p>\n                    <p>This is the bee that you just saw.</p>\n                    <img src=\"bees-with-color/bee-A2SM.svg\" width=\"200\">\n                    <p><span class=\"greenText\"><b>Successful harvest!</b></span><br>Your pay has increased by $0.02. Your bonus pay is now $0.86.</p>\n            ","response":0,"trial_type":"html-button-response","trial_index":102,"time_elapsed":293692,"internal_node_id":"0.0-4.0-1.47","subject_id":"601d97602ac2ab13eb2a5ce5","study_id":"6197b3f67c2b5cd3b6d9596a","session_id":"6197b9eef0715d01751cea02","condition":"contingent","relevant_dimensions":["antennae","wings"],"bee_group":{"antennae":"B","wings":"1","pattern":"X","legs":"X"},"bonus":1.360000000000001},{"rt":1202.1000000238419,"stimulus":"bees-with-color/bee-B1DM.svg","response":1,"trial_type":"image-button-response","trial_index":103,"time_elapsed":294895,"internal_node_id":"0.0-4.0-0.48","subject_id":"601d97602ac2ab13eb2a5ce5","study_id":"6197b3f67c2b5cd3b6d9596a","session_id":"6197b9eef0715d01751cea02","condition":"contingent","relevant_dimensions":["antennae","wings"],"bee_group":{"antennae":"B","wings":"1","pattern":"X","legs":"X"},"action":"avoid","summary":"good-avoid","bonus":1.360000000000001},{"rt":562.8999999761581,"stimulus":"\n                    <p><b>Action: <em>avoid</em></b></p>\n                    <p>This is the bee that you just saw.</p>\n                    <img src=\"bees-with-color/bee-B1DM.svg\" width=\"200\">\n                    <p><br>Your bonus pay is unchanged, and remains at $0.86.</p>\n            ","response":0,"trial_type":"html-button-response","trial_index":104,"time_elapsed":295459,"internal_node_id":"0.0-4.0-1.48","subject_id":"601d97602ac2ab13eb2a5ce5","study_id":"6197b3f67c2b5cd3b6d9596a","session_id":"6197b9eef0715d01751cea02","condition":"contingent","relevant_dimensions":["antennae","wings"],"bee_group":{"antennae":"B","wings":"1","pattern":"X","legs":"X"},"bonus":1.360000000000001},{"rt":808.1999999880791,"stimulus":"bees-with-color/bee-A2SM.svg","response":0,"trial_type":"image-button-response","trial_index":105,"time_elapsed":296268,"internal_node_id":"0.0-4.0-0.49","subject_id":"601d97602ac2ab13eb2a5ce5","study_id":"6197b3f67c2b5cd3b6d9596a","session_id":"6197b9eef0715d01751cea02","condition":"contingent","relevant_dimensions":["antennae","wings"],"bee_group":{"antennae":"B","wings":"1","pattern":"X","legs":"X"},"action":"harvest","summary":"good-harvest","bonus":1.360000000000001},{"rt":666,"stimulus":"\n                    <p><b>Action: <em>harvest</em></b></p>\n                    <p>This is the bee that you just saw.</p>\n                    <img src=\"bees-with-color/bee-A2SM.svg\" width=\"200\">\n                    <p><span class=\"greenText\"><b>Successful harvest!</b></span><br>Your pay has increased by $0.02. Your bonus pay is now $0.88.</p>\n            ","response":0,"trial_type":"html-button-response","trial_index":106,"time_elapsed":296935,"internal_node_id":"0.0-4.0-1.49","subject_id":"601d97602ac2ab13eb2a5ce5","study_id":"6197b3f67c2b5cd3b6d9596a","session_id":"6197b9eef0715d01751cea02","condition":"contingent","relevant_dimensions":["antennae","wings"],"bee_group":{"antennae":"B","wings":"1","pattern":"X","legs":"X"},"bonus":1.360000000000001},{"rt":1091.4000000357628,"stimulus":"bees-with-color/bee-B2SF.svg","response":1,"trial_type":"image-button-response","trial_index":107,"time_elapsed":298027,"internal_node_id":"0.0-4.0-0.50","subject_id":"601d97602ac2ab13eb2a5ce5","study_id":"6197b3f67c2b5cd3b6d9596a","session_id":"6197b9eef0715d01751cea02","condition":"contingent","relevant_dimensions":["antennae","wings"],"bee_group":{"antennae":"B","wings":"1","pattern":"X","legs":"X"},"action":"avoid","summary":"bad-avoid","bonus":1.360000000000001},{"rt":568.2000000476837,"stimulus":"\n                    <p><b>Action: <em>avoid</em></b></p>\n                    <p>This is the bee that you just saw.</p>\n                    <img src=\"bees-with-color/bee-B2SF.svg\" width=\"200\">\n                    <p><br>Your bonus pay is unchanged, and remains at $0.88.</p>\n            ","response":0,"trial_type":"html-button-response","trial_index":108,"time_elapsed":298596,"internal_node_id":"0.0-4.0-1.50","subject_id":"601d97602ac2ab13eb2a5ce5","study_id":"6197b3f67c2b5cd3b6d9596a","session_id":"6197b9eef0715d01751cea02","condition":"contingent","relevant_dimensions":["antennae","wings"],"bee_group":{"antennae":"B","wings":"1","pattern":"X","legs":"X"},"bonus":1.360000000000001},{"rt":1056.2000000476837,"stimulus":"bees-with-color/bee-B2DM.svg","response":1,"trial_type":"image-button-response","trial_index":109,"time_elapsed":299653,"internal_node_id":"0.0-4.0-0.51","subject_id":"601d97602ac2ab13eb2a5ce5","study_id":"6197b3f67c2b5cd3b6d9596a","session_id":"6197b9eef0715d01751cea02","condition":"contingent","relevant_dimensions":["antennae","wings"],"bee_group":{"antennae":"B","wings":"1","pattern":"X","legs":"X"},"action":"avoid","summary":"bad-avoid","bonus":1.360000000000001},{"rt":532,"stimulus":"\n                    <p><b>Action: <em>avoid</em></b></p>\n                    <p>This is the bee that you just saw.</p>\n                    <img src=\"bees-with-color/bee-B2DM.svg\" width=\"200\">\n                    <p><br>Your bonus pay is unchanged, and remains at $0.88.</p>\n            ","response":0,"trial_type":"html-button-response","trial_index":110,"time_elapsed":300186,"internal_node_id":"0.0-4.0-1.51","subject_id":"601d97602ac2ab13eb2a5ce5","study_id":"6197b3f67c2b5cd3b6d9596a","session_id":"6197b9eef0715d01751cea02","condition":"contingent","relevant_dimensions":["antennae","wings"],"bee_group":{"antennae":"B","wings":"1","pattern":"X","legs":"X"},"bonus":1.360000000000001},{"rt":1017.3999999761581,"stimulus":"bees-with-color/bee-B1SM.svg","response":1,"trial_type":"image-button-response","trial_index":111,"time_elapsed":301204,"internal_node_id":"0.0-4.0-0.52","subject_id":"601d97602ac2ab13eb2a5ce5","study_id":"6197b3f67c2b5cd3b6d9596a","session_id":"6197b9eef0715d01751cea02","condition":"contingent","relevant_dimensions":["antennae","wings"],"bee_group":{"antennae":"B","wings":"1","pattern":"X","legs":"X"},"action":"avoid","summary":"good-avoid","bonus":1.360000000000001},{"rt":519,"stimulus":"\n                    <p><b>Action: <em>avoid</em></b></p>\n                    <p>This is the bee that you just saw.</p>\n                    <img src=\"bees-with-color/bee-B1SM.svg\" width=\"200\">\n                    <p><br>Your bonus pay is unchanged, and remains at $0.88.</p>\n            ","response":0,"trial_type":"html-button-response","trial_index":112,"time_elapsed":301724,"internal_node_id":"0.0-4.0-1.52","subject_id":"601d97602ac2ab13eb2a5ce5","study_id":"6197b3f67c2b5cd3b6d9596a","session_id":"6197b9eef0715d01751cea02","condition":"contingent","relevant_dimensions":["antennae","wings"],"bee_group":{"antennae":"B","wings":"1","pattern":"X","legs":"X"},"bonus":1.360000000000001},{"rt":957.1999999880791,"stimulus":"bees-with-color/bee-B2SM.svg","response":1,"trial_type":"image-button-response","trial_index":113,"time_elapsed":302682,"internal_node_id":"0.0-4.0-0.53","subject_id":"601d97602ac2ab13eb2a5ce5","study_id":"6197b3f67c2b5cd3b6d9596a","session_id":"6197b9eef0715d01751cea02","condition":"contingent","relevant_dimensions":["antennae","wings"],"bee_group":{"antennae":"B","wings":"1","pattern":"X","legs":"X"},"action":"avoid","summary":"bad-avoid","bonus":1.360000000000001},{"rt":518.3000000119209,"stimulus":"\n                    <p><b>Action: <em>avoid</em></b></p>\n                    <p>This is the bee that you just saw.</p>\n                    <img src=\"bees-with-color/bee-B2SM.svg\" width=\"200\">\n                    <p><br>Your bonus pay is unchanged, and remains at $0.88.</p>\n            ","response":0,"trial_type":"html-button-response","trial_index":114,"time_elapsed":303201,"internal_node_id":"0.0-4.0-1.53","subject_id":"601d97602ac2ab13eb2a5ce5","study_id":"6197b3f67c2b5cd3b6d9596a","session_id":"6197b9eef0715d01751cea02","condition":"contingent","relevant_dimensions":["antennae","wings"],"bee_group":{"antennae":"B","wings":"1","pattern":"X","legs":"X"},"bonus":1.360000000000001},{"rt":872.8999999761581,"stimulus":"bees-with-color/bee-A1SF.svg","response":0,"trial_type":"image-button-response","trial_index":115,"time_elapsed":304075,"internal_node_id":"0.0-4.0-0.54","subject_id":"601d97602ac2ab13eb2a5ce5","study_id":"6197b3f67c2b5cd3b6d9596a","session_id":"6197b9eef0715d01751cea02","condition":"contingent","relevant_dimensions":["antennae","wings"],"bee_group":{"antennae":"B","wings":"1","pattern":"X","legs":"X"},"action":"harvest","summary":"good-harvest","bonus":1.360000000000001},{"rt":687.1999999880791,"stimulus":"\n                    <p><b>Action: <em>harvest</em></b></p>\n                    <p>This is the bee that you just saw.</p>\n                    <img src=\"bees-with-color/bee-A1SF.svg\" width=\"200\">\n                    <p><span class=\"greenText\"><b>Successful harvest!</b></span><br>Your pay has increased by $0.02. Your bonus pay is now $0.90.</p>\n            ","response":0,"trial_type":"html-button-response","trial_index":116,"time_elapsed":304763,"internal_node_id":"0.0-4.0-1.54","subject_id":"601d97602ac2ab13eb2a5ce5","study_id":"6197b3f67c2b5cd3b6d9596a","session_id":"6197b9eef0715d01751cea02","condition":"contingent","relevant_dimensions":["antennae","wings"],"bee_group":{"antennae":"B","wings":"1","pattern":"X","legs":"X"},"bonus":1.360000000000001},{"rt":832.3000000119209,"stimulus":"bees-with-color/bee-A1DM.svg","response":0,"trial_type":"image-button-response","trial_index":117,"time_elapsed":305596,"internal_node_id":"0.0-4.0-0.55","subject_id":"601d97602ac2ab13eb2a5ce5","study_id":"6197b3f67c2b5cd3b6d9596a","session_id":"6197b9eef0715d01751cea02","condition":"contingent","relevant_dimensions":["antennae","wings"],"bee_group":{"antennae":"B","wings":"1","pattern":"X","legs":"X"},"action":"harvest","summary":"good-harvest","bonus":1.360000000000001},{"rt":549,"stimulus":"\n                    <p><b>Action: <em>harvest</em></b></p>\n                    <p>This is the bee that you just saw.</p>\n                    <img src=\"bees-with-color/bee-A1DM.svg\" width=\"200\">\n                    <p><span class=\"greenText\"><b>Successful harvest!</b></span><br>Your pay has increased by $0.02. Your bonus pay is now $0.92.</p>\n            ","response":0,"trial_type":"html-button-response","trial_index":118,"time_elapsed":306146,"internal_node_id":"0.0-4.0-1.55","subject_id":"601d97602ac2ab13eb2a5ce5","study_id":"6197b3f67c2b5cd3b6d9596a","session_id":"6197b9eef0715d01751cea02","condition":"contingent","relevant_dimensions":["antennae","wings"],"bee_group":{"antennae":"B","wings":"1","pattern":"X","legs":"X"},"bonus":1.360000000000001},{"rt":845.3000000119209,"stimulus":"bees-with-color/bee-A1SM.svg","response":0,"trial_type":"image-button-response","trial_index":119,"time_elapsed":306992,"internal_node_id":"0.0-4.0-0.56","subject_id":"601d97602ac2ab13eb2a5ce5","study_id":"6197b3f67c2b5cd3b6d9596a","session_id":"6197b9eef0715d01751cea02","condition":"contingent","relevant_dimensions":["antennae","wings"],"bee_group":{"antennae":"B","wings":"1","pattern":"X","legs":"X"},"action":"harvest","summary":"good-harvest","bonus":1.360000000000001},{"rt":651.7999999523163,"stimulus":"\n                    <p><b>Action: <em>harvest</em></b></p>\n                    <p>This is the bee that you just saw.</p>\n                    <img src=\"bees-with-color/bee-A1SM.svg\" width=\"200\">\n                    <p><span class=\"greenText\"><b>Successful harvest!</b></span><br>Your pay has increased by $0.02. Your bonus pay is now $0.94.</p>\n            ","response":0,"trial_type":"html-button-response","trial_index":120,"time_elapsed":307645,"internal_node_id":"0.0-4.0-1.56","subject_id":"601d97602ac2ab13eb2a5ce5","study_id":"6197b3f67c2b5cd3b6d9596a","session_id":"6197b9eef0715d01751cea02","condition":"contingent","relevant_dimensions":["antennae","wings"],"bee_group":{"antennae":"B","wings":"1","pattern":"X","legs":"X"},"bonus":1.360000000000001},{"rt":1082.3999999761581,"stimulus":"bees-with-color/bee-B2DF.svg","response":0,"trial_type":"image-button-response","trial_index":121,"time_elapsed":308729,"internal_node_id":"0.0-4.0-0.57","subject_id":"601d97602ac2ab13eb2a5ce5","study_id":"6197b3f67c2b5cd3b6d9596a","session_id":"6197b9eef0715d01751cea02","condition":"contingent","relevant_dimensions":["antennae","wings"],"bee_group":{"antennae":"B","wings":"1","pattern":"X","legs":"X"},"action":"harvest","summary":"good-harvest","bonus":1.360000000000001},{"rt":3661.300000011921,"stimulus":"\n                    <p><b>Action: <em>harvest</em></b></p>\n                    <p>This is the bee that you just saw.</p>\n                    <img src=\"bees-with-color/bee-B2DF.svg\" width=\"200\">\n                    <p><span class=\"greenText\"><b>Successful harvest!</b></span><br>Your pay has increased by $0.02. Your bonus pay is now $0.96.</p>\n            ","response":0,"trial_type":"html-button-response","trial_index":122,"time_elapsed":312391,"internal_node_id":"0.0-4.0-1.57","subject_id":"601d97602ac2ab13eb2a5ce5","study_id":"6197b3f67c2b5cd3b6d9596a","session_id":"6197b9eef0715d01751cea02","condition":"contingent","relevant_dimensions":["antennae","wings"],"bee_group":{"antennae":"B","wings":"1","pattern":"X","legs":"X"},"bonus":1.360000000000001},{"rt":1348,"stimulus":"bees-with-color/bee-B1DF.svg","response":1,"trial_type":"image-button-response","trial_index":123,"time_elapsed":313740,"internal_node_id":"0.0-4.0-0.58","subject_id":"601d97602ac2ab13eb2a5ce5","study_id":"6197b3f67c2b5cd3b6d9596a","session_id":"6197b9eef0715d01751cea02","condition":"contingent","relevant_dimensions":["antennae","wings"],"bee_group":{"antennae":"B","wings":"1","pattern":"X","legs":"X"},"action":"avoid","summary":"good-avoid","bonus":1.360000000000001},{"rt":664.8000000119209,"stimulus":"\n                    <p><b>Action: <em>avoid</em></b></p>\n                    <p>This is the bee that you just saw.</p>\n                    <img src=\"bees-with-color/bee-B1DF.svg\" width=\"200\">\n                    <p><br>Your bonus pay is unchanged, and remains at $0.96.</p>\n            ","response":0,"trial_type":"html-button-response","trial_index":124,"time_elapsed":314406,"internal_node_id":"0.0-4.0-1.58","subject_id":"601d97602ac2ab13eb2a5ce5","study_id":"6197b3f67c2b5cd3b6d9596a","session_id":"6197b9eef0715d01751cea02","condition":"contingent","relevant_dimensions":["antennae","wings"],"bee_group":{"antennae":"B","wings":"1","pattern":"X","legs":"X"},"bonus":1.360000000000001},{"rt":1160.199999988079,"stimulus":"bees-with-color/bee-A2SF.svg","response":0,"trial_type":"image-button-response","trial_index":125,"time_elapsed":315567,"internal_node_id":"0.0-4.0-0.59","subject_id":"601d97602ac2ab13eb2a5ce5","study_id":"6197b3f67c2b5cd3b6d9596a","session_id":"6197b9eef0715d01751cea02","condition":"contingent","relevant_dimensions":["antennae","wings"],"bee_group":{"antennae":"B","wings":"1","pattern":"X","legs":"X"},"action":"harvest","summary":"good-harvest","bonus":1.360000000000001},{"rt":577.7999999523163,"stimulus":"\n                    <p><b>Action: <em>harvest</em></b></p>\n                    <p>This is the bee that you just saw.</p>\n                    <img src=\"bees-with-color/bee-A2SF.svg\" width=\"200\">\n                    <p><span class=\"greenText\"><b>Successful harvest!</b></span><br>Your pay has increased by $0.02. Your bonus pay is now $0.98.</p>\n            ","response":0,"trial_type":"html-button-response","trial_index":126,"time_elapsed":316146,"internal_node_id":"0.0-4.0-1.59","subject_id":"601d97602ac2ab13eb2a5ce5","study_id":"6197b3f67c2b5cd3b6d9596a","session_id":"6197b9eef0715d01751cea02","condition":"contingent","relevant_dimensions":["antennae","wings"],"bee_group":{"antennae":"B","wings":"1","pattern":"X","legs":"X"},"bonus":1.360000000000001},{"rt":726.3000000119209,"stimulus":"bees-with-color/bee-A2DM.svg","response":0,"trial_type":"image-button-response","trial_index":127,"time_elapsed":316873,"internal_node_id":"0.0-4.0-0.60","subject_id":"601d97602ac2ab13eb2a5ce5","study_id":"6197b3f67c2b5cd3b6d9596a","session_id":"6197b9eef0715d01751cea02","condition":"contingent","relevant_dimensions":["antennae","wings"],"bee_group":{"antennae":"B","wings":"1","pattern":"X","legs":"X"},"action":"harvest","summary":"good-harvest","bonus":1.360000000000001},{"rt":793.1999999880791,"stimulus":"\n                    <p><b>Action: <em>harvest</em></b></p>\n                    <p>This is the bee that you just saw.</p>\n                    <img src=\"bees-with-color/bee-A2DM.svg\" width=\"200\">\n                    <p><span class=\"greenText\"><b>Successful harvest!</b></span><br>Your pay has increased by $0.02. Your bonus pay is now $1.00.</p>\n            ","response":0,"trial_type":"html-button-response","trial_index":128,"time_elapsed":317667,"internal_node_id":"0.0-4.0-1.60","subject_id":"601d97602ac2ab13eb2a5ce5","study_id":"6197b3f67c2b5cd3b6d9596a","session_id":"6197b9eef0715d01751cea02","condition":"contingent","relevant_dimensions":["antennae","wings"],"bee_group":{"antennae":"B","wings":"1","pattern":"X","legs":"X"},"bonus":1.360000000000001},{"rt":1134.300000011921,"stimulus":"bees-with-color/bee-A1DF.svg","response":0,"trial_type":"image-button-response","trial_index":129,"time_elapsed":318802,"internal_node_id":"0.0-4.0-0.61","subject_id":"601d97602ac2ab13eb2a5ce5","study_id":"6197b3f67c2b5cd3b6d9596a","session_id":"6197b9eef0715d01751cea02","condition":"contingent","relevant_dimensions":["antennae","wings"],"bee_group":{"antennae":"B","wings":"1","pattern":"X","legs":"X"},"action":"harvest","summary":"good-harvest","bonus":1.360000000000001},{"rt":596.8999999761581,"stimulus":"\n                    <p><b>Action: <em>harvest</em></b></p>\n                    <p>This is the bee that you just saw.</p>\n                    <img src=\"bees-with-color/bee-A1DF.svg\" width=\"200\">\n                    <p><span class=\"greenText\"><b>Successful harvest!</b></span><br>Your pay has increased by $0.02. Your bonus pay is now $1.02.</p>\n            ","response":0,"trial_type":"html-button-response","trial_index":130,"time_elapsed":319400,"internal_node_id":"0.0-4.0-1.61","subject_id":"601d97602ac2ab13eb2a5ce5","study_id":"6197b3f67c2b5cd3b6d9596a","session_id":"6197b9eef0715d01751cea02","condition":"contingent","relevant_dimensions":["antennae","wings"],"bee_group":{"antennae":"B","wings":"1","pattern":"X","legs":"X"},"bonus":1.360000000000001},{"rt":1026.300000011921,"stimulus":"bees-with-color/bee-B1SF.svg","response":1,"trial_type":"image-button-response","trial_index":131,"time_elapsed":320427,"internal_node_id":"0.0-4.0-0.62","subject_id":"601d97602ac2ab13eb2a5ce5","study_id":"6197b3f67c2b5cd3b6d9596a","session_id":"6197b9eef0715d01751cea02","condition":"contingent","relevant_dimensions":["antennae","wings"],"bee_group":{"antennae":"B","wings":"1","pattern":"X","legs":"X"},"action":"avoid","summary":"good-avoid","bonus":1.360000000000001},{"rt":604.1000000238419,"stimulus":"\n                    <p><b>Action: <em>avoid</em></b></p>\n                    <p>This is the bee that you just saw.</p>\n                    <img src=\"bees-with-color/bee-B1SF.svg\" width=\"200\">\n                    <p><br>Your bonus pay is unchanged, and remains at $1.02.</p>\n            ","response":0,"trial_type":"html-button-response","trial_index":132,"time_elapsed":321032,"internal_node_id":"0.0-4.0-1.62","subject_id":"601d97602ac2ab13eb2a5ce5","study_id":"6197b3f67c2b5cd3b6d9596a","session_id":"6197b9eef0715d01751cea02","condition":"contingent","relevant_dimensions":["antennae","wings"],"bee_group":{"antennae":"B","wings":"1","pattern":"X","legs":"X"},"bonus":1.360000000000001},{"rt":2133,"stimulus":"bees-with-color/bee-A2DF.svg","response":0,"trial_type":"image-button-response","trial_index":133,"time_elapsed":323166,"internal_node_id":"0.0-4.0-0.63","subject_id":"601d97602ac2ab13eb2a5ce5","study_id":"6197b3f67c2b5cd3b6d9596a","session_id":"6197b9eef0715d01751cea02","condition":"contingent","relevant_dimensions":["antennae","wings"],"bee_group":{"antennae":"B","wings":"1","pattern":"X","legs":"X"},"action":"harvest","summary":"good-harvest","bonus":1.360000000000001},{"rt":594.0999999642372,"stimulus":"\n                    <p><b>Action: <em>harvest</em></b></p>\n                    <p>This is the bee that you just saw.</p>\n                    <img src=\"bees-with-color/bee-A2DF.svg\" width=\"200\">\n                    <p><span class=\"greenText\"><b>Successful harvest!</b></span><br>Your pay has increased by $0.02. Your bonus pay is now $1.04.</p>\n            ","response":0,"trial_type":"html-button-response","trial_index":134,"time_elapsed":323761,"internal_node_id":"0.0-4.0-1.63","subject_id":"601d97602ac2ab13eb2a5ce5","study_id":"6197b3f67c2b5cd3b6d9596a","session_id":"6197b9eef0715d01751cea02","condition":"contingent","relevant_dimensions":["antennae","wings"],"bee_group":{"antennae":"B","wings":"1","pattern":"X","legs":"X"},"bonus":1.360000000000001},{"rt":7419.600000023842,"stimulus":"You have completed the first part of this experiment.<br><br>You will now begin a shorter second part, in which you will receive no feedback.<br>The same rules regarding bonus pay apply.<br><br>Press any key to begin.","response":" ","trial_type":"html-keyboard-response","trial_index":135,"time_elapsed":331181,"internal_node_id":"0.0-5.0","subject_id":"601d97602ac2ab13eb2a5ce5","study_id":"6197b3f67c2b5cd3b6d9596a","session_id":"6197b9eef0715d01751cea02","condition":"contingent","relevant_dimensions":["antennae","wings"],"bee_group":{"antennae":"B","wings":"1","pattern":"X","legs":"X"},"bonus":1.360000000000001},{"rt":1858.199999988079,"stimulus":"bees-with-color/bee-A1DF.svg","response":0,"trial_type":"image-button-response","trial_index":136,"time_elapsed":333045,"internal_node_id":"0.0-6.0-0.0","subject_id":"601d97602ac2ab13eb2a5ce5","study_id":"6197b3f67c2b5cd3b6d9596a","session_id":"6197b9eef0715d01751cea02","condition":"contingent","relevant_dimensions":["antennae","wings"],"bee_group":{"antennae":"B","wings":"1","pattern":"X","legs":"X"},"bonus":1.360000000000001},{"rt":879.6999999880791,"stimulus":"bees-with-color/bee-B2SF.svg","response":1,"trial_type":"image-button-response","trial_index":137,"time_elapsed":333926,"internal_node_id":"0.0-6.0-0.1","subject_id":"601d97602ac2ab13eb2a5ce5","study_id":"6197b3f67c2b5cd3b6d9596a","session_id":"6197b9eef0715d01751cea02","condition":"contingent","relevant_dimensions":["antennae","wings"],"bee_group":{"antennae":"B","wings":"1","pattern":"X","legs":"X"},"bonus":1.360000000000001},{"rt":1909.800000011921,"stimulus":"bees-with-color/bee-B2DM.svg","response":1,"trial_type":"image-button-response","trial_index":138,"time_elapsed":335837,"internal_node_id":"0.0-6.0-0.2","subject_id":"601d97602ac2ab13eb2a5ce5","study_id":"6197b3f67c2b5cd3b6d9596a","session_id":"6197b9eef0715d01751cea02","condition":"contingent","relevant_dimensions":["antennae","wings"],"bee_group":{"antennae":"B","wings":"1","pattern":"X","legs":"X"},"bonus":1.360000000000001},{"rt":941.3999999761581,"stimulus":"bees-with-color/bee-B1DM.svg","response":1,"trial_type":"image-button-response","trial_index":139,"time_elapsed":336780,"internal_node_id":"0.0-6.0-0.3","subject_id":"601d97602ac2ab13eb2a5ce5","study_id":"6197b3f67c2b5cd3b6d9596a","session_id":"6197b9eef0715d01751cea02","condition":"contingent","relevant_dimensions":["antennae","wings"],"bee_group":{"antennae":"B","wings":"1","pattern":"X","legs":"X"},"bonus":1.360000000000001},{"rt":938.6999999880791,"stimulus":"bees-with-color/bee-A1SM.svg","response":0,"trial_type":"image-button-response","trial_index":140,"time_elapsed":337720,"internal_node_id":"0.0-6.0-0.4","subject_id":"601d97602ac2ab13eb2a5ce5","study_id":"6197b3f67c2b5cd3b6d9596a","session_id":"6197b9eef0715d01751cea02","condition":"contingent","relevant_dimensions":["antennae","wings"],"bee_group":{"antennae":"B","wings":"1","pattern":"X","legs":"X"},"bonus":1.360000000000001},{"rt":860.6999999880791,"stimulus":"bees-with-color/bee-B1SF.svg","response":1,"trial_type":"image-button-response","trial_index":141,"time_elapsed":338582,"internal_node_id":"0.0-6.0-0.5","subject_id":"601d97602ac2ab13eb2a5ce5","study_id":"6197b3f67c2b5cd3b6d9596a","session_id":"6197b9eef0715d01751cea02","condition":"contingent","relevant_dimensions":["antennae","wings"],"bee_group":{"antennae":"B","wings":"1","pattern":"X","legs":"X"},"bonus":1.360000000000001},{"rt":999.0999999642372,"stimulus":"bees-with-color/bee-A2DF.svg","response":0,"trial_type":"image-button-response","trial_index":142,"time_elapsed":339582,"internal_node_id":"0.0-6.0-0.6","subject_id":"601d97602ac2ab13eb2a5ce5","study_id":"6197b3f67c2b5cd3b6d9596a","session_id":"6197b9eef0715d01751cea02","condition":"contingent","relevant_dimensions":["antennae","wings"],"bee_group":{"antennae":"B","wings":"1","pattern":"X","legs":"X"},"bonus":1.360000000000001},{"rt":845.5,"stimulus":"bees-with-color/bee-A1DM.svg","response":0,"trial_type":"image-button-response","trial_index":143,"time_elapsed":340429,"internal_node_id":"0.0-6.0-0.7","subject_id":"601d97602ac2ab13eb2a5ce5","study_id":"6197b3f67c2b5cd3b6d9596a","session_id":"6197b9eef0715d01751cea02","condition":"contingent","relevant_dimensions":["antennae","wings"],"bee_group":{"antennae":"B","wings":"1","pattern":"X","legs":"X"},"bonus":1.360000000000001},{"rt":945.8999999761581,"stimulus":"bees-with-color/bee-A1SF.svg","response":0,"trial_type":"image-button-response","trial_index":144,"time_elapsed":341376,"internal_node_id":"0.0-6.0-0.8","subject_id":"601d97602ac2ab13eb2a5ce5","study_id":"6197b3f67c2b5cd3b6d9596a","session_id":"6197b9eef0715d01751cea02","condition":"contingent","relevant_dimensions":["antennae","wings"],"bee_group":{"antennae":"B","wings":"1","pattern":"X","legs":"X"},"bonus":1.360000000000001},{"rt":1032.5999999642372,"stimulus":"bees-with-color/bee-B1SM.svg","response":1,"trial_type":"image-button-response","trial_index":145,"time_elapsed":342410,"internal_node_id":"0.0-6.0-0.9","subject_id":"601d97602ac2ab13eb2a5ce5","study_id":"6197b3f67c2b5cd3b6d9596a","session_id":"6197b9eef0715d01751cea02","condition":"contingent","relevant_dimensions":["antennae","wings"],"bee_group":{"antennae":"B","wings":"1","pattern":"X","legs":"X"},"bonus":1.360000000000001},{"rt":690.1999999880791,"stimulus":"bees-with-color/bee-A2SM.svg","response":0,"trial_type":"image-button-response","trial_index":146,"time_elapsed":343101,"internal_node_id":"0.0-6.0-0.10","subject_id":"601d97602ac2ab13eb2a5ce5","study_id":"6197b3f67c2b5cd3b6d9596a","session_id":"6197b9eef0715d01751cea02","condition":"contingent","relevant_dimensions":["antennae","wings"],"bee_group":{"antennae":"B","wings":"1","pattern":"X","legs":"X"},"bonus":1.360000000000001},{"rt":1035.8999999761581,"stimulus":"bees-with-color/bee-A2SF.svg","response":0,"trial_type":"image-button-response","trial_index":147,"time_elapsed":344139,"internal_node_id":"0.0-6.0-0.11","subject_id":"601d97602ac2ab13eb2a5ce5","study_id":"6197b3f67c2b5cd3b6d9596a","session_id":"6197b9eef0715d01751cea02","condition":"contingent","relevant_dimensions":["antennae","wings"],"bee_group":{"antennae":"B","wings":"1","pattern":"X","legs":"X"},"bonus":1.360000000000001},{"rt":1163.1000000238419,"stimulus":"bees-with-color/bee-A2DM.svg","response":0,"trial_type":"image-button-response","trial_index":148,"time_elapsed":345303,"internal_node_id":"0.0-6.0-0.12","subject_id":"601d97602ac2ab13eb2a5ce5","study_id":"6197b3f67c2b5cd3b6d9596a","session_id":"6197b9eef0715d01751cea02","condition":"contingent","relevant_dimensions":["antennae","wings"],"bee_group":{"antennae":"B","wings":"1","pattern":"X","legs":"X"},"bonus":1.360000000000001},{"rt":876.6000000238419,"stimulus":"bees-with-color/bee-B2SM.svg","response":1,"trial_type":"image-button-response","trial_index":149,"time_elapsed":346181,"internal_node_id":"0.0-6.0-0.13","subject_id":"601d97602ac2ab13eb2a5ce5","study_id":"6197b3f67c2b5cd3b6d9596a","session_id":"6197b9eef0715d01751cea02","condition":"contingent","relevant_dimensions":["antennae","wings"],"bee_group":{"antennae":"B","wings":"1","pattern":"X","legs":"X"},"bonus":1.360000000000001},{"rt":1087.3999999761581,"stimulus":"bees-with-color/bee-B2DF.svg","response":1,"trial_type":"image-button-response","trial_index":150,"time_elapsed":347270,"internal_node_id":"0.0-6.0-0.14","subject_id":"601d97602ac2ab13eb2a5ce5","study_id":"6197b3f67c2b5cd3b6d9596a","session_id":"6197b9eef0715d01751cea02","condition":"contingent","relevant_dimensions":["antennae","wings"],"bee_group":{"antennae":"B","wings":"1","pattern":"X","legs":"X"},"bonus":1.360000000000001},{"rt":1082.699999988079,"stimulus":"bees-with-color/bee-B1DF.svg","response":1,"trial_type":"image-button-response","trial_index":151,"time_elapsed":348354,"internal_node_id":"0.0-6.0-0.15","subject_id":"601d97602ac2ab13eb2a5ce5","study_id":"6197b3f67c2b5cd3b6d9596a","session_id":"6197b9eef0715d01751cea02","condition":"contingent","relevant_dimensions":["antennae","wings"],"bee_group":{"antennae":"B","wings":"1","pattern":"X","legs":"X"},"bonus":1.360000000000001},{"rt":1009.8999999761581,"stimulus":"bees-with-color/bee-B2DF.svg","response":1,"trial_type":"image-button-response","trial_index":152,"time_elapsed":349365,"internal_node_id":"0.0-6.0-0.16","subject_id":"601d97602ac2ab13eb2a5ce5","study_id":"6197b3f67c2b5cd3b6d9596a","session_id":"6197b9eef0715d01751cea02","condition":"contingent","relevant_dimensions":["antennae","wings"],"bee_group":{"antennae":"B","wings":"1","pattern":"X","legs":"X"},"bonus":1.360000000000001},{"rt":683.1000000238419,"stimulus":"bees-with-color/bee-A1DM.svg","response":0,"trial_type":"image-button-response","trial_index":153,"time_elapsed":350049,"internal_node_id":"0.0-6.0-0.17","subject_id":"601d97602ac2ab13eb2a5ce5","study_id":"6197b3f67c2b5cd3b6d9596a","session_id":"6197b9eef0715d01751cea02","condition":"contingent","relevant_dimensions":["antennae","wings"],"bee_group":{"antennae":"B","wings":"1","pattern":"X","legs":"X"},"bonus":1.360000000000001},{"rt":664.5,"stimulus":"bees-with-color/bee-A1SF.svg","response":0,"trial_type":"image-button-response","trial_index":154,"time_elapsed":350714,"internal_node_id":"0.0-6.0-0.18","subject_id":"601d97602ac2ab13eb2a5ce5","study_id":"6197b3f67c2b5cd3b6d9596a","session_id":"6197b9eef0715d01751cea02","condition":"contingent","relevant_dimensions":["antennae","wings"],"bee_group":{"antennae":"B","wings":"1","pattern":"X","legs":"X"},"bonus":1.360000000000001},{"rt":856.5,"stimulus":"bees-with-color/bee-B1DM.svg","response":1,"trial_type":"image-button-response","trial_index":155,"time_elapsed":351572,"internal_node_id":"0.0-6.0-0.19","subject_id":"601d97602ac2ab13eb2a5ce5","study_id":"6197b3f67c2b5cd3b6d9596a","session_id":"6197b9eef0715d01751cea02","condition":"contingent","relevant_dimensions":["antennae","wings"],"bee_group":{"antennae":"B","wings":"1","pattern":"X","legs":"X"},"bonus":1.360000000000001},{"rt":582,"stimulus":"bees-with-color/bee-A2SF.svg","response":0,"trial_type":"image-button-response","trial_index":156,"time_elapsed":352155,"internal_node_id":"0.0-6.0-0.20","subject_id":"601d97602ac2ab13eb2a5ce5","study_id":"6197b3f67c2b5cd3b6d9596a","session_id":"6197b9eef0715d01751cea02","condition":"contingent","relevant_dimensions":["antennae","wings"],"bee_group":{"antennae":"B","wings":"1","pattern":"X","legs":"X"},"bonus":1.360000000000001},{"rt":751.1000000238419,"stimulus":"bees-with-color/bee-B2SM.svg","response":1,"trial_type":"image-button-response","trial_index":157,"time_elapsed":352907,"internal_node_id":"0.0-6.0-0.21","subject_id":"601d97602ac2ab13eb2a5ce5","study_id":"6197b3f67c2b5cd3b6d9596a","session_id":"6197b9eef0715d01751cea02","condition":"contingent","relevant_dimensions":["antennae","wings"],"bee_group":{"antennae":"B","wings":"1","pattern":"X","legs":"X"},"bonus":1.360000000000001},{"rt":844,"stimulus":"bees-with-color/bee-B2SF.svg","response":1,"trial_type":"image-button-response","trial_index":158,"time_elapsed":353752,"internal_node_id":"0.0-6.0-0.22","subject_id":"601d97602ac2ab13eb2a5ce5","study_id":"6197b3f67c2b5cd3b6d9596a","session_id":"6197b9eef0715d01751cea02","condition":"contingent","relevant_dimensions":["antennae","wings"],"bee_group":{"antennae":"B","wings":"1","pattern":"X","legs":"X"},"bonus":1.360000000000001},{"rt":949.1999999880791,"stimulus":"bees-with-color/bee-B1SM.svg","response":1,"trial_type":"image-button-response","trial_index":159,"time_elapsed":354702,"internal_node_id":"0.0-6.0-0.23","subject_id":"601d97602ac2ab13eb2a5ce5","study_id":"6197b3f67c2b5cd3b6d9596a","session_id":"6197b9eef0715d01751cea02","condition":"contingent","relevant_dimensions":["antennae","wings"],"bee_group":{"antennae":"B","wings":"1","pattern":"X","legs":"X"},"bonus":1.360000000000001},{"rt":1106.699999988079,"stimulus":"bees-with-color/bee-B1SF.svg","response":1,"trial_type":"image-button-response","trial_index":160,"time_elapsed":355810,"internal_node_id":"0.0-6.0-0.24","subject_id":"601d97602ac2ab13eb2a5ce5","study_id":"6197b3f67c2b5cd3b6d9596a","session_id":"6197b9eef0715d01751cea02","condition":"contingent","relevant_dimensions":["antennae","wings"],"bee_group":{"antennae":"B","wings":"1","pattern":"X","legs":"X"},"bonus":1.360000000000001},{"rt":531.8999999761581,"stimulus":"bees-with-color/bee-A2DF.svg","response":0,"trial_type":"image-button-response","trial_index":161,"time_elapsed":356343,"internal_node_id":"0.0-6.0-0.25","subject_id":"601d97602ac2ab13eb2a5ce5","study_id":"6197b3f67c2b5cd3b6d9596a","session_id":"6197b9eef0715d01751cea02","condition":"contingent","relevant_dimensions":["antennae","wings"],"bee_group":{"antennae":"B","wings":"1","pattern":"X","legs":"X"},"bonus":1.360000000000001},{"rt":657.8999999761581,"stimulus":"bees-with-color/bee-A2DM.svg","response":0,"trial_type":"image-button-response","trial_index":162,"time_elapsed":357002,"internal_node_id":"0.0-6.0-0.26","subject_id":"601d97602ac2ab13eb2a5ce5","study_id":"6197b3f67c2b5cd3b6d9596a","session_id":"6197b9eef0715d01751cea02","condition":"contingent","relevant_dimensions":["antennae","wings"],"bee_group":{"antennae":"B","wings":"1","pattern":"X","legs":"X"},"bonus":1.360000000000001},{"rt":1154,"stimulus":"bees-with-color/bee-B1DF.svg","response":1,"trial_type":"image-button-response","trial_index":163,"time_elapsed":358157,"internal_node_id":"0.0-6.0-0.27","subject_id":"601d97602ac2ab13eb2a5ce5","study_id":"6197b3f67c2b5cd3b6d9596a","session_id":"6197b9eef0715d01751cea02","condition":"contingent","relevant_dimensions":["antennae","wings"],"bee_group