[{"success":true,"trial_type":"fullscreen","trial_index":0,"time_elapsed":2996,"internal_node_id":"0.0-0.0","subject_id":"60d33b6571caa14347a61558","study_id":"6197b3f67c2b5cd3b6d9596a","session_id":"6197ba04eb9f832d0f9fee46","condition":"full-information","relevant_dimensions":["antennae","wings"],"bee_group":{"antennae":"B","wings":"2","pattern":"X","legs":"X"},"bonus":0.960000000000001},{"success":true,"timeout":false,"failed_images":[],"failed_audio":[],"failed_video":[],"trial_type":"preload","trial_index":1,"time_elapsed":4561,"internal_node_id":"0.0-1.0","subject_id":"60d33b6571caa14347a61558","study_id":"6197b3f67c2b5cd3b6d9596a","session_id":"6197ba04eb9f832d0f9fee46","condition":"full-information","relevant_dimensions":["antennae","wings"],"bee_group":{"antennae":"B","wings":"2","pattern":"X","legs":"X"},"bonus":0.960000000000001},{"rt":44604.200000047684,"stimulus":"Welcome! Press any key to begin.","response":"enter","trial_type":"html-keyboard-response","trial_index":2,"time_elapsed":49166,"internal_node_id":"0.0-2.0","subject_id":"60d33b6571caa14347a61558","study_id":"6197b3f67c2b5cd3b6d9596a","session_id":"6197ba04eb9f832d0f9fee46","condition":"full-information","relevant_dimensions":["antennae","wings"],"bee_group":{"antennae":"B","wings":"2","pattern":"X","legs":"X"},"bonus":0.960000000000001},{"view_history":[{"page_index":0,"viewing_time":3470.100000023842},{"page_index":1,"viewing_time":21714.80000001192},{"page_index":2,"viewing_time":18097.19999998808},{"page_index":3,"viewing_time":106866.09999996424},{"page_index":4,"viewing_time":17378.200000047684},{"page_index":5,"viewing_time":6949},{"page_index":6,"viewing_time":10265.799999952316},{"page_index":7,"viewing_time":17125.5},{"page_index":8,"viewing_time":3280},{"page_index":7,"viewing_time":864.2000000476837},{"page_index":8,"viewing_time":471.5},{"page_index":9,"viewing_time":1816.7999999523163},{"page_index":10,"viewing_time":1376.4000000357628},{"page_index":11,"viewing_time":13190.5},{"page_index":12,"viewing_time":14235.199999988079},{"page_index":13,"viewing_time":5939.199999988079},{"page_index":14,"viewing_time":2870.400000035763}],"rt":245911.19999998808,"trial_type":"instructions","trial_index":3,"time_elapsed":295077,"internal_node_id":"0.0-3.0-0.0","subject_id":"60d33b6571caa14347a61558","study_id":"6197b3f67c2b5cd3b6d9596a","session_id":"6197ba04eb9f832d0f9fee46","condition":"full-information","relevant_dimensions":["antennae","wings"],"bee_group":{"antennae":"B","wings":"2","pattern":"X","legs":"X"},"bonus":0.960000000000001},{"rt":12471,"response":{"Q0":["Two or six legs","Stripes or spots on body","Single or double wings","Antennae or no antennae"]},"question_order":[0],"trial_type":"survey-multi-select","trial_index":4,"time_elapsed":307552,"internal_node_id":"0.0-3.0-1.0","subject_id":"60d33b6571caa14347a61558","study_id":"6197b3f67c2b5cd3b6d9596a","session_id":"6197ba04eb9f832d0f9fee46","condition":"full-information","relevant_dimensions":["antennae","wings"],"bee_group":{"antennae":"B","wings":"2","pattern":"X","legs":"X"},"correct":true,"bonus":0.960000000000001},{"rt":15213.900000035763,"response":{"Q1":"No.","Q2":"Based on the four features of the bee.","Q3":"You learn if it was friendly or dangerous, but do not alter your bonus."},"question_order":[0,1,2],"trial_type":"survey-multi-choice","trial_index":5,"time_elapsed":322770,"internal_node_id":"0.0-3.0-2.0","subject_id":"60d33b6571caa14347a61558","study_id":"6197b3f67c2b5cd3b6d9596a","session_id":"6197ba04eb9f832d0f9fee46","condition":"full-information","relevant_dimensions":["antennae","wings"],"bee_group":{"antennae":"B","wings":"2","pattern":"X","legs":"X"},"correct":true,"bonus":0.960000000000001},{"rt":648741,"stimulus":"<p>Congrats, you got everything right<br>When you're ready, click the button below to continue to the experiment.</p>","response":0,"trial_type":"html-button-response","trial_index":6,"time_elapsed":971514,"internal_node_id":"0.0-3.0-3.0","subject_id":"60d33b6571caa14347a61558","study_id":"6197b3f67c2b5cd3b6d9596a","session_id":"6197ba04eb9f832d0f9fee46","condition":"full-information","relevant_dimensions":["antennae","wings"],"bee_group":{"antennae":"B","wings":"2","pattern":"X","legs":"X"},"bonus":0.960000000000001},{"rt":119896,"stimulus":"bees-with-color/bee-B1SM.svg","response":0,"trial_type":"image-button-response","trial_index":7,"time_elapsed":1091412,"internal_node_id":"0.0-4.0-0.0","subject_id":"60d33b6571caa14347a61558","study_id":"6197b3f67c2b5cd3b6d9596a","session_id":"6197ba04eb9f832d0f9fee46","condition":"full-information","relevant_dimensions":["antennae","wings"],"bee_group":{"antennae":"B","wings":"2","pattern":"X","legs":"X"},"action":"harvest","summary":"good-harvest","bonus":0.960000000000001},{"rt":24608.19999998808,"stimulus":"\n                    <p><b>Action: <em>harvest</em></b></p>\n                    <p>This is the bee that you just saw.</p>\n                    <img src=\"bees-with-color/bee-B1SM.svg\" width=\"200\">\n                    <p><span class=\"greenText\"><b>Successful harvest!</b></span><br>Your pay has increased by $0.02. Your bonus pay is now $0.56.</p>\n            ","response":0,"trial_type":"html-button-response","trial_index":8,"time_elapsed":1116022,"internal_node_id":"0.0-4.0-1.0","subject_id":"60d33b6571caa14347a61558","study_id":"6197b3f67c2b5cd3b6d9596a","session_id":"6197ba04eb9f832d0f9fee46","condition":"full-information","relevant_dimensions":["antennae","wings"],"bee_group":{"antennae":"B","wings":"2","pattern":"X","legs":"X"},"bonus":0.960000000000001},{"rt":19905.599999964237,"stimulus":"bees-with-color/bee-A2DM.svg","response":0,"trial_type":"image-button-response","trial_index":9,"time_elapsed":1135929,"internal_node_id":"0.0-4.0-0.1","subject_id":"60d33b6571caa14347a61558","study_id":"6197b3f67c2b5cd3b6d9596a","session_id":"6197ba04eb9f832d0f9fee46","condition":"full-information","relevant_dimensions":["antennae","wings"],"bee_group":{"antennae":"B","wings":"2","pattern":"X","legs":"X"},"action":"harvest","summary":"good-harvest","bonus":0.960000000000001},{"rt":30490.599999964237,"stimulus":"\n                    <p><b>Action: <em>harvest</em></b></p>\n                    <p>This is the bee that you just saw.</p>\n                    <img src=\"bees-with-color/bee-A2DM.svg\" width=\"200\">\n                    <p><span class=\"greenText\"><b>Successful harvest!</b></span><br>Your pay has increased by $0.02. Your bonus pay is now $0.58.</p>\n            ","response":0,"trial_type":"html-button-response","trial_index":10,"time_elapsed":1166421,"internal_node_id":"0.0-4.0-1.1","subject_id":"60d33b6571caa14347a61558","study_id":"6197b3f67c2b5cd3b6d9596a","session_id":"6197ba04eb9f832d0f9fee46","condition":"full-information","relevant_dimensions":["antennae","wings"],"bee_group":{"antennae":"B","wings":"2","pattern":"X","legs":"X"},"bonus":0.960000000000001},{"rt":20344.19999998808,"stimulus":"bees-with-color/bee-B1SF.svg","response":0,"trial_type":"image-button-response","trial_index":11,"time_elapsed":1186767,"internal_node_id":"0.0-4.0-0.2","subject_id":"60d33b6571caa14347a61558","study_id":"6197b3f67c2b5cd3b6d9596a","session_id":"6197ba04eb9f832d0f9fee46","condition":"full-information","relevant_dimensions":["antennae","wings"],"bee_group":{"antennae":"B","wings":"2","pattern":"X","legs":"X"},"action":"harvest","summary":"good-harvest","bonus":0.960000000000001},{"rt":151466.30000001192,"stimulus":"\n                    <p><b>Action: <em>harvest</em></b></p>\n                    <p>This is the bee that you just saw.</p>\n                    <img src=\"bees-with-color/bee-B1SF.svg\" width=\"200\">\n                    <p><span class=\"greenText\"><b>Successful harvest!</b></span><br>Your pay has increased by $0.02. Your bonus pay is now $0.60.</p>\n            ","response":0,"trial_type":"html-button-response","trial_index":12,"time_elapsed":1338235,"internal_node_id":"0.0-4.0-1.2","subject_id":"60d33b6571caa14347a61558","study_id":"6197b3f67c2b5cd3b6d9596a","session_id":"6197ba04eb9f832d0f9fee46","condition":"full-information","relevant_dimensions":["antennae","wings"],"bee_group":{"antennae":"B","wings":"2","pattern":"X","legs":"X"},"bonus":0.960000000000001},{"rt":7680,"stimulus":"bees-with-color/bee-A2SF.svg","response":0,"trial_type":"image-button-response","trial_index":13,"time_elapsed":1345916,"internal_node_id":"0.0-4.0-0.3","subject_id":"60d33b6571caa14347a61558","study_id":"6197b3f67c2b5cd3b6d9596a","session_id":"6197ba04eb9f832d0f9fee46","condition":"full-information","relevant_dimensions":["antennae","wings"],"bee_group":{"antennae":"B","wings":"2","pattern":"X","legs":"X"},"action":"harvest","summary":"good-harvest","bonus":0.960000000000001},{"rt":21056.5,"stimulus":"\n                    <p><b>Action: <em>harvest</em></b></p>\n                    <p>This is the bee that you just saw.</p>\n                    <img src=\"bees-with-color/bee-A2SF.svg\" width=\"200\">\n                    <p><span class=\"greenText\"><b>Successful harvest!</b></span><br>Your pay has increased by $0.02. Your bonus pay is now $0.62.</p>\n            ","response":0,"trial_type":"html-button-response","trial_index":14,"time_elapsed":1366974,"internal_node_id":"0.0-4.0-1.3","subject_id":"60d33b6571caa14347a61558","study_id":"6197b3f67c2b5cd3b6d9596a","session_id":"6197ba04eb9f832d0f9fee46","condition":"full-information","relevant_dimensions":["antennae","wings"],"bee_group":{"antennae":"B","wings":"2","pattern":"X","legs":"X"},"bonus":0.960000000000001},{"rt":4534.299999952316,"stimulus":"bees-with-color/bee-B1DM.svg","response":0,"trial_type":"image-button-response","trial_index":15,"time_elapsed":1371510,"internal_node_id":"0.0-4.0-0.4","subject_id":"60d33b6571caa14347a61558","study_id":"6197b3f67c2b5cd3b6d9596a","session_id":"6197ba04eb9f832d0f9fee46","condition":"full-information","relevant_dimensions":["antennae","wings"],"bee_group":{"antennae":"B","wings":"2","pattern":"X","legs":"X"},"action":"harvest","summary":"good-harvest","bonus":0.960000000000001},{"rt":19625.900000035763,"stimulus":"\n                    <p><b>Action: <em>harvest</em></b></p>\n                    <p>This is the bee that you just saw.</p>\n                    <img src=\"bees-with-color/bee-B1DM.svg\" width=\"200\">\n                    <p><span class=\"greenText\"><b>Successful harvest!</b></span><br>Your pay has increased by $0.02. Your bonus pay is now $0.64.</p>\n            ","response":0,"trial_type":"html-button-response","trial_index":16,"time_elapsed":1391137,"internal_node_id":"0.0-4.0-1.4","subject_id":"60d33b6571caa14347a61558","study_id":"6197b3f67c2b5cd3b6d9596a","session_id":"6197ba04eb9f832d0f9fee46","condition":"full-information","relevant_dimensions":["antennae","wings"],"bee_group":{"antennae":"B","wings":"2","pattern":"X","legs":"X"},"bonus":0.960000000000001},{"rt":6767.899999976158,"stimulus":"bees-with-color/bee-A2DF.svg","response":0,"trial_type":"image-button-response","trial_index":17,"time_elapsed":1397906,"internal_node_id":"0.0-4.0-0.5","subject_id":"60d33b6571caa14347a61558","study_id":"6197b3f67c2b5cd3b6d9596a","session_id":"6197ba04eb9f832d0f9fee46","condition":"full-information","relevant_dimensions":["antennae","wings"],"bee_group":{"antennae":"B","wings":"2","pattern":"X","legs":"X"},"action":"harvest","summary":"good-harvest","bonus":0.960000000000001},{"rt":11425.199999988079,"stimulus":"\n                    <p><b>Action: <em>harvest</em></b></p>\n                    <p>This is the bee that you just saw.</p>\n                    <img src=\"bees-with-color/bee-A2DF.svg\" width=\"200\">\n                    <p><span class=\"greenText\"><b>Successful harvest!</b></span><br>Your pay has increased by $0.02. Your bonus pay is now $0.66.</p>\n            ","response":0,"trial_type":"html-button-response","trial_index":18,"time_elapsed":1409332,"internal_node_id":"0.0-4.0-1.5","subject_id":"60d33b6571caa14347a61558","study_id":"6197b3f67c2b5cd3b6d9596a","session_id":"6197ba04eb9f832d0f9fee46","condition":"full-information","relevant_dimensions":["antennae","wings"],"bee_group":{"antennae":"B","wings":"2","pattern":"X","legs":"X"},"bonus":0.960000000000001},{"rt":9343,"stimulus":"bees-with-color/bee-B2SF.svg","response":0,"trial_type":"image-button-response","trial_index":19,"time_elapsed":1418677,"internal_node_id":"0.0-4.0-0.6","subject_id":"60d33b6571caa14347a61558","study_id":"6197b3f67c2b5cd3b6d9596a","session_id":"6197ba04eb9f832d0f9fee46","condition":"full-information","relevant_dimensions":["antennae","wings"],"bee_group":{"antennae":"B","wings":"2","pattern":"X","legs":"X"},"action":"harvest","summary":"bad-harvest","bonus":0.960000000000001},{"rt":99098.80000001192,"stimulus":"\n                    <p><b>Action: <em>harvest</em></b></p>\n                    <p>This is the bee that you just saw.</p>\n                    <img src=\"bees-with-color/bee-B2SF.svg\" width=\"200\">\n                    <p><span class=\"redText\">Bad choice, the bee was angry.</span><br><b>You have been stung!</b><br>Your pay has been decreased by $0.10. Your bonus pay is now $0.56.</p>\n            ","response":0,"trial_type":"html-button-response","trial_index":20,"time_elapsed":1517777,"internal_node_id":"0.0-4.0-1.6","subject_id":"60d33b6571caa14347a61558","study_id":"6197b3f67c2b5cd3b6d9596a","session_id":"6197ba04eb9f832d0f9fee46","condition":"full-information","relevant_dimensions":["antennae","wings"],"bee_group":{"antennae":"B","wings":"2","pattern":"X","legs":"X"},"bonus":0.960000000000001},{"rt":12472.400000035763,"stimulus":"bees-with-color/bee-B2DF.svg","response":0,"trial_type":"image-button-response","trial_index":21,"time_elapsed":1530250,"internal_node_id":"0.0-4.0-0.7","subject_id":"60d33b6571caa14347a61558","study_id":"6197b3f67c2b5cd3b6d9596a","session_id":"6197ba04eb9f832d0f9fee46","condition":"full-information","relevant_dimensions":["antennae","wings"],"bee_group":{"antennae":"B","wings":"2","pattern":"X","legs":"X"},"action":"harvest","summary":"bad-harvest","bonus":0.960000000000001},{"rt":15745.100000023842,"stimulus":"\n                    <p><b>Action: <em>harvest</em></b></p>\n                    <p>This is the bee that you just saw.</p>\n                    <img src=\"bees-with-color/bee-B2DF.svg\" width=\"200\">\n                    <p><span class=\"redText\">Bad choice, the bee was angry.</span><br><b>You have been stung!</b><br>Your pay has been decreased by $0.10. Your bonus pay is now $0.46.</p>\n            ","response":0,"trial_type":"html-button-response","trial_index":22,"time_elapsed":1545997,"internal_node_id":"0.0-4.0-1.7","subject_id":"60d33b6571caa14347a61558","study_id":"6197b3f67c2b5cd3b6d9596a","session_id":"6197ba04eb9f832d0f9fee46","condition":"full-information","relevant_dimensions":["antennae","wings"],"bee_group":{"antennae":"B","wings":"2","pattern":"X","legs":"X"},"bonus":0.960000000000001},{"rt":7999.099999964237,"stimulus":"bees-with-color/bee-A1SF.svg","response":0,"trial_type":"image-button-response","trial_index":23,"time_elapsed":1553997,"internal_node_id":"0.0-4.0-0.8","subject_id":"60d33b6571caa14347a61558","study_id":"6197b3f67c2b5cd3b6d9596a","session_id":"6197ba04eb9f832d0f9fee46","condition":"full-information","relevant_dimensions":["antennae","wings"],"bee_group":{"antennae":"B","wings":"2","pattern":"X","legs":"X"},"action":"harvest","summary":"good-harvest","bonus":0.960000000000001},{"rt":8464,"stimulus":"\n                    <p><b>Action: <em>harvest</em></b></p>\n                    <p>This is the bee that you just saw.</p>\n                    <img src=\"bees-with-color/bee-A1SF.svg\" width=\"200\">\n                    <p><span class=\"greenText\"><b>Successful harvest!</b></span><br>Your pay has increased by $0.02. Your bonus pay is now $0.48.</p>\n            ","response":0,"trial_type":"html-button-response","trial_index":24,"time_elapsed":1562463,"internal_node_id":"0.0-4.0-1.8","subject_id":"60d33b6571caa14347a61558","study_id":"6197b3f67c2b5cd3b6d9596a","session_id":"6197ba04eb9f832d0f9fee46","condition":"full-information","relevant_dimensions":["antennae","wings"],"bee_group":{"antennae":"B","wings":"2","pattern":"X","legs":"X"},"bonus":0.960000000000001},{"rt":7088,"stimulus":"bees-with-color/bee-A1DM.svg","response":0,"trial_type":"image-button-response","trial_index":25,"time_elapsed":1569553,"internal_node_id":"0.0-4.0-0.9","subject_id":"60d33b6571caa14347a61558","study_id":"6197b3f67c2b5cd3b6d9596a","session_id":"6197ba04eb9f832d0f9fee46","condition":"full-information","relevant_dimensions":["antennae","wings"],"bee_group":{"antennae":"B","wings":"2","pattern":"X","legs":"X"},"action":"harvest","summary":"good-harvest","bonus":0.960000000000001},{"rt":28801.400000035763,"stimulus":"\n                    <p><b>Action: <em>harvest</em></b></p>\n                    <p>This is the bee that you just saw.</p>\n                    <img src=\"bees-with-color/bee-A1DM.svg\" width=\"200\">\n                    <p><span class=\"greenText\"><b>Successful harvest!</b></span><br>Your pay has increased by $0.02. Your bonus pay is now $0.50.</p>\n            ","response":0,"trial_type":"html-button-response","trial_index":26,"time_elapsed":1598356,"internal_node_id":"0.0-4.0-1.9","subject_id":"60d33b6571caa14347a61558","study_id":"6197b3f67c2b5cd3b6d9596a","session_id":"6197ba04eb9f832d0f9fee46","condition":"full-information","relevant_dimensions":["antennae","wings"],"bee_group":{"antennae":"B","wings":"2","pattern":"X","legs":"X"},"bonus":0.960000000000001},{"rt":6063.300000011921,"stimulus":"bees-with-color/bee-A2SM.svg","response":0,"trial_type":"image-button-response","trial_index":27,"time_elapsed":1604420,"internal_node_id":"0.0-4.0-0.10","subject_id":"60d33b6571caa14347a61558","study_id":"6197b3f67c2b5cd3b6d9596a","session_id":"6197ba04eb9f832d0f9fee46","condition":"full-information","relevant_dimensions":["antennae","wings"],"bee_group":{"antennae":"B","wings":"2","pattern":"X","legs":"X"},"action":"harvest","summary":"good-harvest","bonus":0.960000000000001},{"rt":5423.399999976158,"stimulus":"\n                    <p><b>Action: <em>harvest</em></b></p>\n                    <p>This is the bee that you just saw.</p>\n                    <img src=\"bees-with-color/bee-A2SM.svg\" width=\"200\">\n                    <p><span class=\"greenText\"><b>Successful harvest!</b></span><br>Your pay has increased by $0.02. Your bonus pay is now $0.52.</p>\n            ","response":0,"trial_type":"html-button-response","trial_index":28,"time_elapsed":1609845,"internal_node_id":"0.0-4.0-1.10","subject_id":"60d33b6571caa14347a61558","study_id":"6197b3f67c2b5cd3b6d9596a","session_id":"6197ba04eb9f832d0f9fee46","condition":"full-information","relevant_dimensions":["antennae","wings"],"bee_group":{"antennae":"B","wings":"2","pattern":"X","legs":"X"},"bonus":0.960000000000001},{"rt":144891.69999998808,"stimulus":"bees-with-color/bee-B1DF.svg","response":0,"trial_type":"image-button-response","trial_index":29,"time_elapsed":1754738,"internal_node_id":"0.0-4.0-0.11","subject_id":"60d33b6571caa14347a61558","study_id":"6197b3f67c2b5cd3b6d9596a","session_id":"6197ba04eb9f832d0f9fee46","condition":"full-information","relevant_dimensions":["antennae","wings"],"bee_group":{"antennae":"B","wings":"2","pattern":"X","legs":"X"},"action":"harvest","summary":"good-harvest","bonus":0.960000000000001},{"rt":21900.19999998808,"stimulus":"\n                    <p><b>Action: <em>harvest</em></b></p>\n                    <p>This is the bee that you just saw.</p>\n                    <img src=\"bees-with-color/bee-B1DF.svg\" width=\"200\">\n                    <p><span class=\"greenText\"><b>Successful harvest!</b></span><br>Your pay has increased by $0.02. Your bonus pay is now $0.54.</p>\n            ","response":0,"trial_type":"html-button-response","trial_index":30,"time_elapsed":1776639,"internal_node_id":"0.0-4.0-1.11","subject_id":"60d33b6571caa14347a61558","study_id":"6197b3f67c2b5cd3b6d9596a","session_id":"6197ba04eb9f832d0f9fee46","condition":"full-information","relevant_dimensions":["antennae","wings"],"bee_group":{"antennae":"B","wings":"2","pattern":"X","legs":"X"},"bonus":0.960000000000001},{"rt":11207.899999976158,"stimulus":"bees-with-color/bee-A1DF.svg","response":0,"trial_type":"image-button-response","trial_index":31,"time_elapsed":1787849,"internal_node_id":"0.0-4.0-0.12","subject_id":"60d33b6571caa14347a61558","study_id":"6197b3f67c2b5cd3b6d9596a","session_id":"6197ba04eb9f832d0f9fee46","condition":"full-information","relevant_dimensions":["antennae","wings"],"bee_group":{"antennae":"B","wings":"2","pattern":"X","legs":"X"},"action":"harvest","summary":"good-harvest","bonus":0.960000000000001},{"rt":11416.699999988079,"stimulus":"\n                    <p><b>Action: <em>harvest</em></b></p>\n                    <p>This is the bee that you just saw.</p>\n                    <img src=\"bees-with-color/bee-A1DF.svg\" width=\"200\">\n                    <p><span class=\"greenText\"><b>Successful harvest!</b></span><br>Your pay has increased by $0.02. Your bonus pay is now $0.56.</p>\n            ","response":0,"trial_type":"html-button-response","trial_index":32,"time_elapsed":1799266,"internal_node_id":"0.0-4.0-1.12","subject_id":"60d33b6571caa14347a61558","study_id":"6197b3f67c2b5cd3b6d9596a","session_id":"6197ba04eb9f832d0f9fee46","condition":"full-information","relevant_dimensions":["antennae","wings"],"bee_group":{"antennae":"B","wings":"2","pattern":"X","legs":"X"},"bonus":0.960000000000001},{"rt":77983.89999997616,"stimulus":"bees-with-color/bee-B2SM.svg","response":0,"trial_type":"image-button-response","trial_index":33,"time_elapsed":1877252,"internal_node_id":"0.0-4.0-0.13","subject_id":"60d33b6571caa14347a61558","study_id":"6197b3f67c2b5cd3b6d9596a","session_id":"6197ba04eb9f832d0f9fee46","condition":"full-information","relevant_dimensions":["antennae","wings"],"bee_group":{"antennae":"B","wings":"2","pattern":"X","legs":"X"},"action":"harvest","summary":"bad-harvest","bonus":0.960000000000001},{"rt":19833.399999976158,"stimulus":"\n                    <p><b>Action: <em>harvest</em></b></p>\n                    <p>This is the bee that you just saw.</p>\n                    <img src=\"bees-with-color/bee-B2SM.svg\" width=\"200\">\n                    <p><span class=\"redText\">Bad choice, the bee was angry.</span><br><b>You have been stung!</b><br>Your pay has been decreased by $0.10. Your bonus pay is now $0.46.</p>\n            ","response":0,"trial_type":"html-button-response","trial_index":34,"time_elapsed":1897086,"internal_node_id":"0.0-4.0-1.13","subject_id":"60d33b6571caa14347a61558","study_id":"6197b3f67c2b5cd3b6d9596a","session_id":"6197ba04eb9f832d0f9fee46","condition":"full-information","relevant_dimensions":["antennae","wings"],"bee_group":{"antennae":"B","wings":"2","pattern":"X","legs":"X"},"bonus":0.960000000000001},{"rt":36372.30000001192,"stimulus":"bees-with-color/bee-B2DM.svg","response":0,"trial_type":"image-button-response","trial_index":35,"time_elapsed":1933460,"internal_node_id":"0.0-4.0-0.14","subject_id":"60d33b6571caa14347a61558","study_id":"6197b3f67c2b5cd3b6d9596a","session_id":"6197ba04eb9f832d0f9fee46","condition":"full-information","relevant_dimensions":["antennae","wings"],"bee_group":{"antennae":"B","wings":"2","pattern":"X","legs":"X"},"action":"harvest","summary":"bad-harvest","bonus":0.960000000000001},{"rt":13057.899999976158,"stimulus":"\n                    <p><b>Action: <em>harvest</em></b></p>\n                    <p>This is the bee that you just saw.</p>\n                    <img src=\"bees-with-color/bee-B2DM.svg\" width=\"200\">\n                    <p><span class=\"redText\">Bad choice, the bee was angry.</span><br><b>You have been stung!</b><br>Your pay has been decreased by $0.10. Your bonus pay is now $0.36.</p>\n            ","response":0,"trial_type":"html-button-response","trial_index":36,"time_elapsed":1946520,"internal_node_id":"0.0-4.0-1.14","subject_id":"60d33b6571caa14347a61558","study_id":"6197b3f67c2b5cd3b6d9596a","session_id":"6197ba04eb9f832d0f9fee46","condition":"full-information","relevant_dimensions":["antennae","wings"],"bee_group":{"antennae":"B","wings":"2","pattern":"X","legs":"X"},"bonus":0.960000000000001},{"rt":88670,"stimulus":"bees-with-color/bee-A1SM.svg","response":0,"trial_type":"image-button-response","trial_index":37,"time_elapsed":2035191,"internal_node_id":"0.0-4.0-0.15","subject_id":"60d33b6571caa14347a61558","study_id":"6197b3f67c2b5cd3b6d9596a","session_id":"6197ba04eb9f832d0f9fee46","condition":"full-information","relevant_dimensions":["antennae","wings"],"bee_group":{"antennae":"B","wings":"2","pattern":"X","legs":"X"},"action":"harvest","summary":"good-harvest","bonus":0.960000000000001},{"rt":32658.30000001192,"stimulus":"\n                    <p><b>Action: <em>harvest</em></b></p>\n                    <p>This is the bee that you just saw.</p>\n                    <img src=\"bees-with-color/bee-A1SM.svg\" width=\"200\">\n                    <p><span class=\"greenText\"><b>Successful harvest!</b></span><br>Your pay has increased by $0.02. Your bonus pay is now $0.38.</p>\n            ","response":0,"trial_type":"html-button-response","trial_index":38,"time_elapsed":2067851,"internal_node_id":"0.0-4.0-1.15","subject_id":"60d33b6571caa14347a61558","study_id":"6197b3f67c2b5cd3b6d9596a","session_id":"6197ba04eb9f832d0f9fee46","condition":"full-information","relevant_dimensions":["antennae","wings"],"bee_group":{"antennae":"B","wings":"2","pattern":"X","legs":"X"},"bonus":0.960000000000001},{"rt":22834.599999964237,"stimulus":"bees-with-color/bee-A2SM.svg","response":0,"trial_type":"image-button-response","trial_index":39,"time_elapsed":2090687,"internal_node_id":"0.0-4.0-0.16","subject_id":"60d33b6571caa14347a61558","study_id":"6197b3f67c2b5cd3b6d9596a","session_id":"6197ba04eb9f832d0f9fee46","condition":"full-information","relevant_dimensions":["antennae","wings"],"bee_group":{"antennae":"B","wings":"2","pattern":"X","legs":"X"},"action":"harvest","summary":"good-harvest","bonus":0.960000000000001},{"rt":2495.099999964237,"stimulus":"\n                    <p><b>Action: <em>harvest</em></b></p>\n                    <p>This is the bee that you just saw.</p>\n                    <img src=\"bees-with-color/bee-A2SM.svg\" width=\"200\">\n                    <p><span class=\"greenText\"><b>Successful harvest!</b></span><br>Your pay has increased by $0.02. Your bonus pay is now $0.40.</p>\n            ","response":0,"trial_type":"html-button-response","trial_index":40,"time_elapsed":2093183,"internal_node_id":"0.0-4.0-1.16","subject_id":"60d33b6571caa14347a61558","study_id":"6197b3f67c2b5cd3b6d9596a","session_id":"6197ba04eb9f832d0f9fee46","condition":"full-information","relevant_dimensions":["antennae","wings"],"bee_group":{"antennae":"B","wings":"2","pattern":"X","legs":"X"},"bonus":0.960000000000001},{"rt":32466.399999976158,"stimulus":"bees-with-color/bee-A1SF.svg","response":0,"trial_type":"image-button-response","trial_index":41,"time_elapsed":2125651,"internal_node_id":"0.0-4.0-0.17","subject_id":"60d33b6571caa14347a61558","study_id":"6197b3f67c2b5cd3b6d9596a","session_id":"6197ba04eb9f832d0f9fee46","condition":"full-information","relevant_dimensions":["antennae","wings"],"bee_group":{"antennae":"B","wings":"2","pattern":"X","legs":"X"},"action":"harvest","summary":"good-harvest","bonus":0.960000000000001},{"rt":790.6000000238419,"stimulus":"\n                    <p><b>Action: <em>harvest</em></b></p>\n                    <p>This is the bee that you just saw.</p>\n                    <img src=\"bees-with-color/bee-A1SF.svg\" width=\"200\">\n                    <p><span class=\"greenText\"><b>Successful harvest!</b></span><br>Your pay has increased by $0.02. Your bonus pay is now $0.42.</p>\n            ","response":0,"trial_type":"html-button-response","trial_index":42,"time_elapsed":2126443,"internal_node_id":"0.0-4.0-1.17","subject_id":"60d33b6571caa14347a61558","study_id":"6197b3f67c2b5cd3b6d9596a","session_id":"6197ba04eb9f832d0f9fee46","condition":"full-information","relevant_dimensions":["antennae","wings"],"bee_group":{"antennae":"B","wings":"2","pattern":"X","legs":"X"},"bonus":0.960000000000001},{"rt":14273.100000023842,"stimulus":"bees-with-color/bee-A1DF.svg","response":0,"trial_type":"image-button-response","trial_index":43,"time_elapsed":2140718,"internal_node_id":"0.0-4.0-0.18","subject_id":"60d33b6571caa14347a61558","study_id":"6197b3f67c2b5cd3b6d9596a","session_id":"6197ba04eb9f832d0f9fee46","condition":"full-information","relevant_dimensions":["antennae","wings"],"bee_group":{"antennae":"B","wings":"2","pattern":"X","legs":"X"},"action":"harvest","summary":"good-harvest","bonus":0.960000000000001},{"rt":766.5,"stimulus":"\n                    <p><b>Action: <em>harvest</em></b></p>\n                    <p>This is the bee that you just saw.</p>\n                    <img src=\"bees-with-color/bee-A1DF.svg\" width=\"200\">\n                    <p><span class=\"greenText\"><b>Successful harvest!</b></span><br>Your pay has increased by $0.02. Your bonus pay is now $0.44.</p>\n            ","response":0,"trial_type":"html-button-response","trial_index":44,"time_elapsed":2141485,"internal_node_id":"0.0-4.0-1.18","subject_id":"60d33b6571caa14347a61558","study_id":"6197b3f67c2b5cd3b6d9596a","session_id":"6197ba04eb9f832d0f9fee46","condition":"full-information","relevant_dimensions":["antennae","wings"],"bee_group":{"antennae":"B","wings":"2","pattern":"X","legs":"X"},"bonus":0.960000000000001},{"rt":10127.899999976158,"stimulus":"bees-with-color/bee-A2DF.svg","response":0,"trial_type":"image-button-response","trial_index":45,"time_elapsed":2151614,"internal_node_id":"0.0-4.0-0.19","subject_id":"60d33b6571caa14347a61558","study_id":"6197b3f67c2b5cd3b6d9596a","session_id":"6197ba04eb9f832d0f9fee46","condition":"full-information","relevant_dimensions":["antennae","wings"],"bee_group":{"antennae":"B","wings":"2","pattern":"X","legs":"X"},"action":"harvest","summary":"good-harvest","bonus":0.960000000000001},{"rt":870.5999999642372,"stimulus":"\n                    <p><b>Action: <em>harvest</em></b></p>\n                    <p>This is the bee that you just saw.</p>\n                    <img src=\"bees-with-color/bee-A2DF.svg\" width=\"200\">\n                    <p><span class=\"greenText\"><b>Successful harvest!</b></span><br>Your pay has increased by $0.02. Your bonus pay is now $0.46.</p>\n            ","response":0,"trial_type":"html-button-response","trial_index":46,"time_elapsed":2152486,"internal_node_id":"0.0-4.0-1.19","subject_id":"60d33b6571caa14347a61558","study_id":"6197b3f67c2b5cd3b6d9596a","session_id":"6197ba04eb9f832d0f9fee46","condition":"full-information","relevant_dimensions":["antennae","wings"],"bee_group":{"antennae":"B","wings":"2","pattern":"X","legs":"X"},"bonus":0.960000000000001},{"rt":8751.899999976158,"stimulus":"bees-with-color/bee-A1SM.svg","response":0,"trial_type":"image-button-response","trial_index":47,"time_elapsed":2161240,"internal_node_id":"0.0-4.0-0.20","subject_id":"60d33b6571caa14347a61558","study_id":"6197b3f67c2b5cd3b6d9596a","session_id":"6197ba04eb9f832d0f9fee46","condition":"full-information","relevant_dimensions":["antennae","wings"],"bee_group":{"antennae":"B","wings":"2","pattern":"X","legs":"X"},"action":"harvest","summary":"good-harvest","bonus":0.960000000000001},{"rt":620.5999999642372,"stimulus":"\n                    <p><b>Action: <em>harvest</em></b></p>\n                    <p>This is the bee that you just saw.</p>\n                    <img src=\"bees-with-color/bee-A1SM.svg\" width=\"200\">\n                    <p><span class=\"greenText\"><b>Successful harvest!</b></span><br>Your pay has increased by $0.02. Your bonus pay is now $0.48.</p>\n            ","response":0,"trial_type":"html-button-response","trial_index":48,"time_elapsed":2161862,"internal_node_id":"0.0-4.0-1.20","subject_id":"60d33b6571caa14347a61558","study_id":"6197b3f67c2b5cd3b6d9596a","session_id":"6197ba04eb9f832d0f9fee46","condition":"full-information","relevant_dimensions":["antennae","wings"],"bee_group":{"antennae":"B","wings":"2","pattern":"X","legs":"X"},"bonus":0.960000000000001},{"rt":7663.400000035763,"stimulus":"bees-with-color/bee-B2DF.svg","response":1,"trial_type":"image-button-response","trial_index":49,"time_elapsed":2169526,"internal_node_id":"0.0-4.0-0.21","subject_id":"60d33b6571caa14347a61558","study_id":"6197b3f67c2b5cd3b6d9596a","session_id":"6197ba04eb9f832d0f9fee46","condition":"full-information","relevant_dimensions":["antennae","wings"],"bee_group":{"antennae":"B","wings":"2","pattern":"X","legs":"X"},"action":"avoid","summary":"good-avoid","bonus":0.960000000000001},{"rt":9744.600000023842,"stimulus":"\n                    <p><b>Action: <em>avoid</em></b></p>\n                    <p>This is the bee that you just saw.</p>\n                    <img src=\"bees-with-color/bee-B2DF.svg\" width=\"200\">\n                    <p><span class=\"greenText\">Good choice!</span>  This bee would have stung you.<br>Your bonus pay is unchanged, and remains at $0.48.</p>\n            ","response":0,"trial_type":"html-button-response","trial_index":50,"time_elapsed":2179272,"internal_node_id":"0.0-4.0-1.21","subject_id":"60d33b6571caa14347a61558","study_id":"6197b3f67c2b5cd3b6d9596a","session_id":"6197ba04eb9f832d0f9fee46","condition":"full-information","relevant_dimensions":["antennae","wings"],"bee_group":{"antennae":"B","wings":"2","pattern":"X","legs":"X"},"bonus":0.960000000000001},{"rt":5174.599999964237,"stimulus":"bees-with-color/bee-B2SF.svg","response":1,"trial_type":"image-button-response","trial_index":51,"time_elapsed":2184448,"internal_node_id":"0.0-4.0-0.22","subject_id":"60d33b6571caa14347a61558","study_id":"6197b3f67c2b5cd3b6d9596a","session_id":"6197ba04eb9f832d0f9fee46","condition":"full-information","relevant_dimensions":["antennae","wings"],"bee_group":{"antennae":"B","wings":"2","pattern":"X","legs":"X"},"action":"avoid","summary":"good-avoid","bonus":0.960000000000001},{"rt":3110.5,"stimulus":"\n                    <p><b>Action: <em>avoid</em></b></p>\n                    <p>This is the bee that you just saw.</p>\n                    <img src=\"bees-with-color/bee-B2SF.svg\" width=\"200\">\n                    <p><span class=\"greenText\">Good choice!</span>  This bee would have stung you.<br>Your bonus pay is unchanged, and remains at $0.48.</p>\n            ","response":0,"trial_type":"html-button-response","trial_index":52,"time_elapsed":2187560,"internal_node_id":"0.0-4.0-1.22","subject_id":"60d33b6571caa14347a61558","study_id":"6197b3f67c2b5cd3b6d9596a","session_id":"6197ba04eb9f832d0f9fee46","condition":"full-information","relevant_dimensions":["antennae","wings"],"bee_group":{"antennae":"B","wings":"2","pattern":"X","legs":"X"},"bonus":0.960000000000001},{"rt":5815,"stimulus":"bees-with-color/bee-B1DF.svg","response":0,"trial_type":"image-button-response","trial_index":53,"time_elapsed":2193377,"internal_node_id":"0.0-4.0-0.23","subject_id":"60d33b6571caa14347a61558","study_id":"6197b3f67c2b5cd3b6d9596a","session_id":"6197ba04eb9f832d0f9fee46","condition":"full-information","relevant_dimensions":["antennae","wings"],"bee_group":{"antennae":"B","wings":"2","pattern":"X","legs":"X"},"action":"harvest","summary":"good-harvest","bonus":0.960000000000001},{"rt":1111.300000011921,"stimulus":"\n                    <p><b>Action: <em>harvest</em></b></p>\n                    <p>This is the bee that you just saw.</p>\n                    <img src=\"bees-with-color/bee-B1DF.svg\" width=\"200\">\n                    <p><span class=\"greenText\"><b>Successful harvest!</b></span><br>Your pay has increased by $0.02. Your bonus pay is now $0.50.</p>\n            ","response":0,"trial_type":"html-button-response","trial_index":54,"time_elapsed":2194489,"internal_node_id":"0.0-4.0-1.23","subject_id":"60d33b6571caa14347a61558","study_id":"6197b3f67c2b5cd3b6d9596a","session_id":"6197ba04eb9f832d0f9fee46","condition":"full-information","relevant_dimensions":["antennae","wings"],"bee_group":{"antennae":"B","wings":"2","pattern":"X","legs":"X"},"bonus":0.960000000000001},{"rt":29922.700000047684,"stimulus":"bees-with-color/bee-B2DM.svg","response":1,"trial_type":"image-button-response","trial_index":55,"time_elapsed":2224413,"internal_node_id":"0.0-4.0-0.24","subject_id":"60d33b6571caa14347a61558","study_id":"6197b3f67c2b5cd3b6d9596a","session_id":"6197ba04eb9f832d0f9fee46","condition":"full-information","relevant_dimensions":["antennae","wings"],"bee_group":{"antennae":"B","wings":"2","pattern":"X","legs":"X"},"action":"avoid","summary":"good-avoid","bonus":0.960000000000001},{"rt":5255.699999988079,"stimulus":"\n                    <p><b>Action: <em>avoid</em></b></p>\n                    <p>This is the bee that you just saw.</p>\n                    <img src=\"bees-with-color/bee-B2DM.svg\" width=\"200\">\n                    <p><span class=\"greenText\">Good choice!</span>  This bee would have stung you.<br>Your bonus pay is unchanged, and remains at $0.50.</p>\n            ","response":0,"trial_type":"html-button-response","trial_index":56,"time_elapsed":2229670,"internal_node_id":"0.0-4.0-1.24","subject_id":"60d33b6571caa14347a61558","study_id":"6197b3f67c2b5cd3b6d9596a","session_id":"6197ba04eb9f832d0f9fee46","condition":"full-information","relevant_dimensions":["antennae","wings"],"bee_group":{"antennae":"B","wings":"2","pattern":"X","legs":"X"},"bonus":0.960000000000001},{"rt":4950.400000035763,"stimulus":"bees-with-color/bee-B2SM.svg","response":1,"trial_type":"image-button-response","trial_index":57,"time_elapsed":2234621,"internal_node_id":"0.0-4.0-0.25","subject_id":"60d33b6571caa14347a61558","study_id":"6197b3f67c2b5cd3b6d9596a","session_id":"6197ba04eb9f832d0f9fee46","condition":"full-information","relevant_dimensions":["antennae","wings"],"bee_group":{"antennae":"B","wings":"2","pattern":"X","legs":"X"},"action":"avoid","summary":"good-avoid","bonus":0.960000000000001},{"rt":1326.7999999523163,"stimulus":"\n                    <p><b>Action: <em>avoid</em></b></p>\n                    <p>This is the bee that you just saw.</p>\n                    <img src=\"bees-with-color/bee-B2SM.svg\" width=\"200\">\n                    <p><span class=\"greenText\">Good choice!</span>  This bee would have stung you.<br>Your bonus pay is unchanged, and remains at $0.50.</p>\n            ","response":0,"trial_type":"html-button-response","trial_index":58,"time_elapsed":2235949,"internal_node_id":"0.0-4.0-1.25","subject_id":"60d33b6571caa14347a61558","study_id":"6197b3f67c2b5cd3b6d9596a","session_id":"6197ba04eb9f832d0f9fee46","condition":"full-information","relevant_dimensions":["antennae","wings"],"bee_group":{"antennae":"B","wings":"2","pattern":"X","legs":"X"},"bonus":0.960000000000001},{"rt":7743.600000023842,"stimulus":"bees-with-color/bee-B1SM.svg","response":0,"trial_type":"image-button-response","trial_index":59,"time_elapsed":2243694,"internal_node_id":"0.0-4.0-0.26","subject_id":"60d33b6571caa14347a61558","study_id":"6197b3f67c2b5cd3b6d9596a","session_id":"6197ba04eb9f832d0f9fee46","condition":"full-information","relevant_dimensions":["antennae","wings"],"bee_group":{"antennae":"B","wings":"2","pattern":"X","legs":"X"},"action":"harvest","summary":"good-harvest","bonus":0.960000000000001},{"rt":14176.200000047684,"stimulus":"\n                    <p><b>Action: <em>harvest</em></b></p>\n                    <p>This is the bee that you just saw.</p>\n                    <img src=\"bees-with-color/bee-B1SM.svg\" width=\"200\">\n                    <p><span class=\"greenText\"><b>Successful harvest!</b></span><br>Your pay has increased by $0.02. Your bonus pay is now $0.52.</p>\n            ","response":0,"trial_type":"html-button-response","trial_index":60,"time_elapsed":2257872,"internal_node_id":"0.0-4.0-1.26","subject_id":"60d33b6571caa14347a61558","study_id":"6197b3f67c2b5cd3b6d9596a","session_id":"6197ba04eb9f832d0f9fee46","condition":"full-information","relevant_dimensions":["antennae","wings"],"bee_group":{"antennae":"B","wings":"2","pattern":"X","legs":"X"},"bonus":0.960000000000001},{"rt":6966.699999988079,"stimulus":"bees-with-color/bee-A2DM.svg","response":0,"trial_type":"image-button-response","trial_index":61,"time_elapsed":2264840,"internal_node_id":"0.0-4.0-0.27","subject_id":"60d33b6571caa14347a61558","study_id":"6197b3f67c2b5cd3b6d9596a","session_id":"6197ba04eb9f832d0f9fee46","condition":"full-information","relevant_dimensions":["antennae","wings"],"bee_group":{"antennae":"B","wings":"2","pattern":"X","legs":"X"},"action":"harvest","summary":"good-harvest","bonus":0.960000000000001},{"rt":1096.5,"stimulus":"\n                    <p><b>Action: <em>harvest</em></b></p>\n                    <p>This is the bee that you just saw.</p>\n                    <img src=\"bees-with-color/bee-A2DM.svg\" width=\"200\">\n                    <p><span class=\"greenText\"><b>Successful harvest!</b></span><br>Your pay has increased by $0.02. Your bonus pay is now $0.54.</p>\n            ","response":0,"trial_type":"html-button-response","trial_index":62,"time_elapsed":2265937,"internal_node_id":"0.0-4.0-1.27","subject_id":"60d33b6571caa14347a61558","study_id":"6197b3f67c2b5cd3b6d9596a","session_id":"6197ba04eb9f832d0f9fee46","condition":"full-information","relevant_dimensions":["antennae","wings"],"bee_group":{"antennae":"B","wings":"2","pattern":"X","legs":"X"},"bonus":0.960000000000001},{"rt":16447.5,"stimulus":"bees-with-color/bee-B1SF.svg","response":0,"trial_type":"image-button-response","trial_index":63,"time_elapsed":2282386,"internal_node_id":"0.0-4.0-0.28","subject_id":"60d33b6571caa14347a61558","study_id":"6197b3f67c2b5cd3b6d9596a","session_id":"6197ba04eb9f832d0f9fee46","condition":"full-information","relevant_dimensions":["antennae","wings"],"bee_group":{"antennae":"B","wings":"2","pattern":"X","legs":"X"},"action":"harvest","summary":"good-harvest","bonus":0.960000000000001},{"rt":3240.199999988079,"stimulus":"\n                    <p><b>Action: <em>harvest</em></b></p>\n                    <p>This is the bee that you just saw.</p>\n                    <img src=\"bees-with-color/bee-B1SF.svg\" width=\"200\">\n                    <p><span class=\"greenText\"><b>Successful harvest!</b></span><br>Your pay has increased by $0.02. Your bonus pay is now $0.56.</p>\n            ","response":0,"trial_type":"html-button-response","trial_index":64,"time_elapsed":2285627,"internal_node_id":"0.0-4.0-1.28","subject_id":"60d33b6571caa14347a61558","study_id":"6197b3f67c2b5cd3b6d9596a","session_id":"6197ba04eb9f832d0f9fee46","condition":"full-information","relevant_dimensions":["antennae","wings"],"bee_group":{"antennae":"B","wings":"2","pattern":"X","legs":"X"},"bonus":0.960000000000001},{"rt":12992.199999988079,"stimulus":"bees-with-color/bee-A1DM.svg","response":0,"trial_type":"image-button-response","trial_index":65,"time_elapsed":2298621,"internal_node_id":"0.0-4.0-0.29","subject_id":"60d33b6571caa14347a61558","study_id":"6197b3f67c2b5cd3b6d9596a","session_id":"6197ba04eb9f832d0f9fee46","condition":"full-information","relevant_dimensions":["antennae","wings"],"bee_group":{"antennae":"B","wings":"2","pattern":"X","legs":"X"},"action":"harvest","summary":"good-harvest","bonus":0.960000000000001},{"rt":742.1000000238419,"stimulus":"\n                    <p><b>Action: <em>harvest</em></b></p>\n                    <p>This is the bee that you just saw.</p>\n                    <img src=\"bees-with-color/bee-A1DM.svg\" width=\"200\">\n                    <p><span class=\"greenText\"><b>Successful harvest!</b></span><br>Your pay has increased by $0.02. Your bonus pay is now $0.58.</p>\n            ","response":0,"trial_type":"html-button-response","trial_index":66,"time_elapsed":2299364,"internal_node_id":"0.0-4.0-1.29","subject_id":"60d33b6571caa14347a61558","study_id":"6197b3f67c2b5cd3b6d9596a","session_id":"6197ba04eb9f832d0f9fee46","condition":"full-information","relevant_dimensions":["antennae","wings"],"bee_group":{"antennae":"B","wings":"2","pattern":"X","legs":"X"},"bonus":0.960000000000001},{"rt":9176.400000035763,"stimulus":"bees-with-color/bee-A2SF.svg","response":0,"trial_type":"image-button-response","trial_index":67,"time_elapsed":2308542,"internal_node_id":"0.0-4.0-0.30","subject_id":"60d33b6571caa14347a61558","study_id":"6197b3f67c2b5cd3b6d9596a","session_id":"6197ba04eb9f832d0f9fee46","condition":"full-information","relevant_dimensions":["antennae","wings"],"bee_group":{"antennae":"B","wings":"2","pattern":"X","legs":"X"},"action":"harvest","summary":"good-harvest","bonus":0.960000000000001},{"rt":519.3999999761581,"stimulus":"\n                    <p><b>Action: <em>harvest</em></b></p>\n                    <p>This is the bee that you just saw.</p>\n                    <img src=\"bees-with-color/bee-A2SF.svg\" width=\"200\">\n                    <p><span class=\"greenText\"><b>Successful harvest!</b></span><br>Your pay has increased by $0.02. Your bonus pay is now $0.60.</p>\n            ","response":0,"trial_type":"html-button-response","trial_index":68,"time_elapsed":2309062,"internal_node_id":"0.0-4.0-1.30","subject_id":"60d33b6571caa14347a61558","study_id":"6197b3f67c2b5cd3b6d9596a","session_id":"6197ba04eb9f832d0f9fee46","condition":"full-information","relevant_dimensions":["antennae","wings"],"bee_group":{"antennae":"B","wings":"2","pattern":"X","legs":"X"},"bonus":0.960000000000001},{"rt":5111.199999988079,"stimulus":"bees-with-color/bee-B1DM.svg","response":0,"trial_type":"image-button-response","trial_index":69,"time_elapsed":2314175,"internal_node_id":"0.0-4.0-0.31","subject_id":"60d33b6571caa14347a61558","study_id":"6197b3f67c2b5cd3b6d9596a","session_id":"6197ba04eb9f832d0f9fee46","condition":"full-information","relevant_dimensions":["antennae","wings"],"bee_group":{"antennae":"B","wings":"2","pattern":"X","legs":"X"},"action":"harvest","summary":"good-harvest","bonus":0.960000000000001},{"rt":863.3999999761581,"stimulus":"\n                    <p><b>Action: <em>harvest</em></b></p>\n                    <p>This is the bee that you just saw.</p>\n                    <img src=\"bees-with-color/bee-B1DM.svg\" width=\"200\">\n                    <p><span class=\"greenText\"><b>Successful harvest!</b></span><br>Your pay has increased by $0.02. Your bonus pay is now $0.62.</p>\n            ","response":0,"trial_type":"html-button-response","trial_index":70,"time_elapsed":2315040,"internal_node_id":"0.0-4.0-1.31","subject_id":"60d33b6571caa14347a61558","study_id":"6197b3f67c2b5cd3b6d9596a","session_id":"6197ba04eb9f832d0f9fee46","condition":"full-information","relevant_dimensions":["antennae","wings"],"bee_group":{"antennae":"B","wings":"2","pattern":"X","legs":"X"},"bonus":0.960000000000001},{"rt":4365.800000011921,"stimulus":"bees-with-color/bee-A1SF.svg","response":0,"trial_type":"image-button-response","trial_index":71,"time_elapsed":2319407,"internal_node_id":"0.0-4.0-0.32","subject_id":"60d33b6571caa14347a61558","study_id":"6197b3f67c2b5cd3b6d9596a","session_id":"6197ba04eb9f832d0f9fee46","condition":"full-information","relevant_dimensions":["antennae","wings"],"bee_group":{"antennae":"B","wings":"2","pattern":"X","legs":"X"},"action":"harvest","summary":"good-harvest","bonus":0.960000000000001},{"rt":631.8999999761581,"stimulus":"\n                    <p><b>Action: <em>harvest</em></b></p>\n                    <p>This is the bee that you just saw.</p>\n                    <img src=\"bees-with-color/bee-A1SF.svg\" width=\"200\">\n                    <p><span class=\"greenText\"><b>Successful harvest!</b></span><br>Your pay has increased by $0.02. Your bonus pay is now $0.64.</p>\n            ","response":0,"trial_type":"html-button-response","trial_index":72,"time_elapsed":2320040,"internal_node_id":"0.0-4.0-1.32","subject_id":"60d33b6571caa14347a61558","study_id":"6197b3f67c2b5cd3b6d9596a","session_id":"6197ba04eb9f832d0f9fee46","condition":"full-information","relevant_dimensions":["antennae","wings"],"bee_group":{"antennae":"B","wings":"2","pattern":"X","legs":"X"},"bonus":0.960000000000001},{"rt":3438.400000035763,"stimulus":"bees-with-color/bee-B1SF.svg","response":0,"trial_type":"image-button-response","trial_index":73,"time_elapsed":2323480,"internal_node_id":"0.0-4.0-0.33","subject_id":"60d33b6571caa14347a61558","study_id":"6197b3f67c2b5cd3b6d9596a","session_id":"6197ba04eb9f832d0f9fee46","condition":"full-information","relevant_dimensions":["antennae","wings"],"bee_group":{"antennae":"B","wings":"2","pattern":"X","legs":"X"},"action":"harvest","summary":"good-harvest","bonus":0.960000000000001},{"rt":558.5,"stimulus":"\n                    <p><b>Action: <em>harvest</em></b></p>\n                    <p>This is the bee that you just saw.</p>\n                    <img src=\"bees-with-color/bee-B1SF.svg\" width=\"200\">\n                    <p><span class=\"greenText\"><b>Successful harvest!</b></span><br>Your pay has increased by $0.02. Your bonus pay is now $0.66.</p>\n            ","response":0,"trial_type":"html-button-response","trial_index":74,"time_elapsed":2324040,"internal_node_id":"0.0-4.0-1.33","subject_id":"60d33b6571caa14347a61558","study_id":"6197b3f67c2b5cd3b6d9596a","session_id":"6197ba04eb9f832d0f9fee46","condition":"full-information","relevant_dimensions":["antennae","wings"],"bee_group":{"antennae":"B","wings":"2","pattern":"X","legs":"X"},"bonus":0.960000000000001},{"rt":2654.900000035763,"stimulus":"bees-with-color/bee-B2SF.svg","response":1,"trial_type":"image-button-response","trial_index":75,"time_elapsed":2326696,"internal_node_id":"0.0-4.0-0.34","subject_id":"60d33b6571caa14347a61558","study_id":"6197b3f67c2b5cd3b6d9596a","session_id":"6197ba04eb9f832d0f9fee46","condition":"full-information","relevant_dimensions":["antennae","wings"],"bee_group":{"antennae":"B","wings":"2","pattern":"X","legs":"X"},"action":"avoid","summary":"good-avoid","bonus":0.960000000000001},{"rt":982.2999999523163,"stimulus":"\n                    <p><b>Action: <em>avoid</em></b></p>\n                    <p>This is the bee that you just saw.</p>\n                    <img src=\"bees-with-color/bee-B2SF.svg\" width=\"200\">\n                    <p><span class=\"greenText\">Good choice!</span>  This bee would have stung you.<br>Your bonus pay is unchanged, and remains at $0.66.</p>\n            ","response":0,"trial_type":"html-button-response","trial_index":76,"time_elapsed":2327680,"internal_node_id":"0.0-4.0-1.34","subject_id":"60d33b6571caa14347a61558","study_id":"6197b3f67c2b5cd3b6d9596a","session_id":"6197ba04eb9f832d0f9fee46","condition":"full-information","relevant_dimensions":["antennae","wings"],"bee_group":{"antennae":"B","wings":"2","pattern":"X","legs":"X"},"bonus":0.960000000000001},{"rt":4759.5,"stimulus":"bees-with-color/bee-B1SM.svg","response":0,"trial_type":"image-button-response","trial_index":77,"time_elapsed":2332441,"internal_node_id":"0.0-4.0-0.35","subject_id":"60d33b6571caa14347a61558","study_id":"6197b3f67c2b5cd3b6d9596a","session_id":"6197ba04eb9f832d0f9fee46","condition":"full-information","relevant_dimensions":["antennae","wings"],"bee_group":{"antennae":"B","wings":"2","pattern":"X","legs":"X"},"action":"harvest","summary":"good-harvest","bonus":0.960000000000001},{"rt":558.6000000238419,"stimulus":"\n                    <p><b>Action: <em>harvest</em></b></p>\n                    <p>This is the bee that you just saw.</p>\n                    <img src=\"bees-with-color/bee-B1SM.svg\" width=\"200\">\n                    <p><span class=\"greenText\"><b>Successful harvest!</b></span><br>Your pay has increased by $0.02. Your bonus pay is now $0.68.</p>\n            ","response":0,"trial_type":"html-button-response","trial_index":78,"time_elapsed":2333001,"internal_node_id":"0.0-4.0-1.35","subject_id":"60d33b6571caa14347a61558","study_id":"6197b3f67c2b5cd3b6d9596a","session_id":"6197ba04eb9f832d0f9fee46","condition":"full-information","relevant_dimensions":["antennae","wings"],"bee_group":{"antennae":"B","wings":"2","pattern":"X","legs":"X"},"bonus":0.960000000000001},{"rt":6192.299999952316,"stimulus":"bees-with-color/bee-A1DM.svg","response":0,"trial_type":"image-button-response","trial_index":79,"time_elapsed":2339195,"internal_node_id":"0.0-4.0-0.36","subject_id":"60d33b6571caa14347a61558","study_id":"6197b3f67c2b5cd3b6d9596a","session_id":"6197ba04eb9f832d0f9fee46","condition":"full-information","relevant_dimensions":["antennae","wings"],"bee_group":{"antennae":"B","wings":"2","pattern":"X","legs":"X"},"action":"harvest","summary":"good-harvest","bonus":0.960000000000001},{"rt":565.8000000119209,"stimulus":"\n                    <p><b>Action: <em>harvest</em></b></p>\n                    <p>This is the bee that you just saw.</p>\n                    <img src=\"bees-with-color/bee-A1DM.svg\" width=\"200\">\n                    <p><span class=\"greenText\"><b>Successful harvest!</b></span><br>Your pay has increased by $0.02. Your bonus pay is now $0.70.</p>\n            ","response":0,"trial_type":"html-button-response","trial_index":80,"time_elapsed":2339762,"internal_node_id":"0.0-4.0-1.36","subject_id":"60d33b6571caa14347a61558","study_id":"6197b3f67c2b5cd3b6d9596a","session_id":"6197ba04eb9f832d0f9fee46","condition":"full-information","relevant_dimensions":["antennae","wings"],"bee_group":{"antennae":"B","wings":"2","pattern":"X","legs":"X"},"bonus":0.960000000000001},{"rt":10645.699999988079,"stimulus":"bees-with-color/bee-B2SM.svg","response":1,"trial_type":"image-button-response","trial_index":81,"time_elapsed":2350410,"internal_node_id":"0.0-4.0-0.37","subject_id":"60d33b6571caa14347a61558","study_id":"6197b3f67c2b5cd3b6d9596a","session_id":"6197ba04eb9f832d0f9fee46","condition":"full-information","relevant_dimensions":["antennae","wings"],"bee_group":{"antennae":"B","wings":"2","pattern":"X","legs":"X"},"action":"avoid","summary":"good-avoid","bonus":0.960000000000001},{"rt":861.9000000357628,"stimulus":"\n                    <p><b>Action: <em>avoid</em></b></p>\n                    <p>This is the bee that you just saw.</p>\n                    <img src=\"bees-with-color/bee-B2SM.svg\" width=\"200\">\n                    <p><span class=\"greenText\">Good choice!</span>  This bee would have stung you.<br>Your bonus pay is unchanged, and remains at $0.70.</p>\n            ","response":0,"trial_type":"html-button-response","trial_index":82,"time_elapsed":2351273,"internal_node_id":"0.0-4.0-1.37","subject_id":"60d33b6571caa14347a61558","study_id":"6197b3f67c2b5cd3b6d9596a","session_id":"6197ba04eb9f832d0f9fee46","condition":"full-information","relevant_dimensions":["antennae","wings"],"bee_group":{"antennae":"B","wings":"2","pattern":"X","legs":"X"},"bonus":0.960000000000001},{"rt":7648.800000011921,"stimulus":"bees-with-color/bee-A1SM.svg","response":0,"trial_type":"image-button-response","trial_index":83,"time_elapsed":2358923,"internal_node_id":"0.0-4.0-0.38","subject_id":"60d33b6571caa14347a61558","study_id":"6197b3f67c2b5cd3b6d9596a","session_id":"6197ba04eb9f832d0f9fee46","condition":"full-information","relevant_dimensions":["antennae","wings"],"bee_group":{"antennae":"B","wings":"2","pattern":"X","legs":"X"},"action":"harvest","summary":"good-harvest","bonus":0.960000000000001},{"rt":806.8000000119209,"stimulus":"\n                    <p><b>Action: <em>harvest</em></b></p>\n                    <p>This is the bee that you just saw.</p>\n                    <img src=\"bees-with-color/bee-A1SM.svg\" width=\"200\">\n                    <p><span class=\"greenText\"><b>Successful harvest!</b></span><br>Your pay has increased by $0.02. Your bonus pay is now $0.72.</p>\n            ","response":0,"trial_type":"html-button-response","trial_index":84,"time_elapsed":2359731,"internal_node_id":"0.0-4.0-1.38","subject_id":"60d33b6571caa14347a61558","study_id":"6197b3f67c2b5cd3b6d9596a","session_id":"6197ba04eb9f832d0f9fee46","condition":"full-information","relevant_dimensions":["antennae","wings"],"bee_group":{"antennae":"B","wings":"2","pattern":"X","legs":"X"},"bonus":0.960000000000001},{"rt":16159.800000011921,"stimulus":"bees-with-color/bee-B1DM.svg","response":0,"trial_type":"image-button-response","trial_index":85,"time_elapsed":2375892,"internal_node_id":"0.0-4.0-0.39","subject_id":"60d33b6571caa14347a61558","study_id":"6197b3f67c2b5cd3b6d9596a","session_id":"6197ba04eb9f832d0f9fee46","condition":"full-information","relevant_dimensions":["antennae","wings"],"bee_group":{"antennae":"B","wings":"2","pattern":"X","legs":"X"},"action":"harvest","summary":"good-harvest","bonus":0.960000000000001},{"rt":534.6000000238419,"stimulus":"\n                    <p><b>Action: <em>harvest</em></b></p>\n                    <p>This is the bee that you just saw.</p>\n                    <img src=\"bees-with-color/bee-B1DM.svg\" width=\"200\">\n                    <p><span class=\"greenText\"><b>Successful harvest!</b></span><br>Your pay has increased by $0.02. Your bonus pay is now $0.74.</p>\n            ","response":0,"trial_type":"html-button-response","trial_index":86,"time_elapsed":2376428,"internal_node_id":"0.0-4.0-1.39","subject_id":"60d33b6571caa14347a61558","study_id":"6197b3f67c2b5cd3b6d9596a","session_id":"6197ba04eb9f832d0f9fee46","condition":"full-information","relevant_dimensions":["antennae","wings"],"bee_group":{"antennae":"B","wings":"2","pattern":"X","legs":"X"},"bonus":0.960000000000001},{"rt":3719.600000023842,"stimulus":"bees-with-color/bee-B2DF.svg","response":1,"trial_type":"image-button-response","trial_index":87,"time_elapsed":2380149,"internal_node_id":"0.0-4.0-0.40","subject_id":"60d33b6571caa14347a61558","study_id":"6197b3f67c2b5cd3b6d9596a","session_id":"6197ba04eb9f832d0f9fee46","condition":"full-information","relevant_dimensions":["antennae","wings"],"bee_group":{"antennae":"B","wings":"2","pattern":"X","legs":"X"},"action":"avoid","summary":"good-avoid","bonus":0.960000000000001},{"rt":942.4000000357628,"stimulus":"\n                    <p><b>Action: <em>avoid</em></b></p>\n                    <p>This is the bee that you just saw.</p>\n                    <img src=\"bees-with-color/bee-B2DF.svg\" width=\"200\">\n                    <p><span class=\"greenText\">Good choice!</span>  This bee would have stung you.<br>Your bonus pay is unchanged, and remains at $0.74.</p>\n            ","response":0,"trial_type":"html-button-response","trial_index":88,"time_elapsed":2381093,"internal_node_id":"0.0-4.0-1.40","subject_id":"60d33b6571caa14347a61558","study_id":"6197b3f67c2b5cd3b6d9596a","session_id":"6197ba04eb9f832d0f9fee46","condition":"full-information","relevant_dimensions":["antennae","wings"],"bee_group":{"antennae":"B","wings":"2","pattern":"X","legs":"X"},"bonus":0.960000000000001},{"rt":3302.800000011921,"stimulus":"bees-with-color/bee-A2SM.svg","response":0,"trial_type":"image-button-response","trial_index":89,"time_elapsed":2384397,"internal_node_id":"0.0-4.0-0.41","subject_id":"60d33b6571caa14347a61558","study_id":"6197b3f67c2b5cd3b6d9596a","session_id":"6197ba04eb9f832d0f9fee46","condition":"full-information","relevant_dimensions":["antennae","wings"],"bee_group":{"antennae":"B","wings":"2","pattern":"X","legs":"X"},"action":"harvest","summary":"good-harvest","bonus":0.960000000000001},{"rt":639.6000000238419,"stimulus":"\n                    <p><b>Action: <em>harvest</em></b></p>\n                    <p>This is the bee that you just saw.</p>\n                    <img src=\"bees-with-color/bee-A2SM.svg\" width=\"200\">\n                    <p><span class=\"greenText\"><b>Successful harvest!</b></span><br>Your pay has increased by $0.02. Your bonus pay is now $0.76.</p>\n            ","response":0,"trial_type":"html-button-response","trial_index":90,"time_elapsed":2385038,"internal_node_id":"0.0-4.0-1.41","subject_id":"60d33b6571caa14347a61558","study_id":"6197b3f67c2b5cd3b6d9596a","session_id":"6197ba04eb9f832d0f9fee46","condition":"full-information","relevant_dimensions":["antennae","wings"],"bee_group":{"antennae":"B","wings":"2","pattern":"X","legs":"X"},"bonus":0.960000000000001},{"rt":8208,"stimulus":"bees-with-color/bee-A2DF.svg","response":0,"trial_type":"image-button-response","trial_index":91,"time_elapsed":2393247,"internal_node_id":"0.0-4.0-0.42","subject_id":"60d33b6571caa14347a61558","study_id":"6197b3f67c2b5cd3b6d9596a","session_id":"6197ba04eb9f832d0f9fee46","condition":"full-information","relevant_dimensions":["antennae","wings"],"bee_group":{"antennae":"B","wings":"2","pattern":"X","legs":"X"},"action":"harvest","summary":"good-harvest","bonus":0.960000000000001},{"rt":590.6999999880791,"stimulus":"\n                    <p><b>Action: <em>harvest</em></b></p>\n                    <p>This is the bee that you just saw.</p>\n                    <img src=\"bees-with-color/bee-A2DF.svg\" width=\"200\">\n                    <p><span class=\"greenText\"><b>Successful harvest!</b></span><br>Your pay has increased by $0.02. Your bonus pay is now $0.78.</p>\n            ","response":0,"trial_type":"html-button-response","trial_index":92,"time_elapsed":2393839,"internal_node_id":"0.0-4.0-1.42","subject_id":"60d33b6571caa14347a61558","study_id":"6197b3f67c2b5cd3b6d9596a","session_id":"6197ba04eb9f832d0f9fee46","condition":"full-information","relevant_dimensions":["antennae","wings"],"bee_group":{"antennae":"B","wings":"2","pattern":"X","legs":"X"},"bonus":0.960000000000001},{"rt":3286.5,"stimulus":"bees-with-color/bee-B1DF.svg","response":0,"trial_type":"image-button-response","trial_index":93,"time_elapsed":2397127,"internal_node_id":"0.0-4.0-0.43","subject_id":"60d33b6571caa14347a61558","study_id":"6197b3f67c2b5cd3b6d9596a","session_id":"6197ba04eb9f832d0f9fee46","condition":"full-information","relevant_dimensions":["antennae","wings"],"bee_group":{"antennae":"B","wings":"2","pattern":"X","legs":"X"},"action":"harvest","summary":"good-harvest","bonus":0.960000000000001},{"rt":558.1999999880791,"stimulus":"\n                    <p><b>Action: <em>harvest</em></b></p>\n                    <p>This is the bee that you just saw.</p>\n                    <img src=\"bees-with-color/bee-B1DF.svg\" width=\"200\">\n                    <p><span class=\"greenText\"><b>Successful harvest!</b></span><br>Your pay has increased by $0.02. Your bonus pay is now $0.80.</p>\n            ","response":0,"trial_type":"html-button-response","trial_index":94,"time_elapsed":2397687,"internal_node_id":"0.0-4.0-1.43","subject_id":"60d33b6571caa14347a61558","study_id":"6197b3f67c2b5cd3b6d9596a","session_id":"6197ba04eb9f832d0f9fee46","condition":"full-information","relevant_dimensions":["antennae","wings"],"bee_group":{"antennae":"B","wings":"2","pattern":"X","legs":"X"},"bonus":0.960000000000001},{"rt":3431.199999988079,"stimulus":"bees-with-color/bee-A2DM.svg","response":0,"trial_type":"image-button-response","trial_index":95,"time_elapsed":2401120,"internal_node_id":"0.0-4.0-0.44","subject_id":"60d33b6571caa14347a61558","study_id":"6197b3f67c2b5cd3b6d9596a","session_id":"6197ba04eb9f832d0f9fee46","condition":"full-information","relevant_dimensions":["antennae","wings"],"bee_group":{"antennae":"B","wings":"2","pattern":"X","legs":"X"},"action":"harvest","summary":"good-harvest","bonus":0.960000000000001},{"rt":583,"stimulus":"\n                    <p><b>Action: <em>harvest</em></b></p>\n                    <p>This is the bee that you just saw.</p>\n                    <img src=\"bees-with-color/bee-A2DM.svg\" width=\"200\">\n                    <p><span class=\"greenText\"><b>Successful harvest!</b></span><br>Your pay has increased by $0.02. Your bonus pay is now $0.82.</p>\n            ","response":0,"trial_type":"html-button-response","trial_index":96,"time_elapsed":2401704,"internal_node_id":"0.0-4.0-1.44","subject_id":"60d33b6571caa14347a61558","study_id":"6197b3f67c2b5cd3b6d9596a","session_id":"6197ba04eb9f832d0f9fee46","condition":"full-information","relevant_dimensions":["antennae","wings"],"bee_group":{"antennae":"B","wings":"2","pattern":"X","legs":"X"},"bonus":0.960000000000001},{"rt":4871.899999976158,"stimulus":"bees-with-color/bee-B2DM.svg","response":1,"trial_type":"image-button-response","trial_index":97,"time_elapsed":2406577,"internal_node_id":"0.0-4.0-0.45","subject_id":"60d33b6571caa14347a61558","study_id":"6197b3f67c2b5cd3b6d9596a","session_id":"6197ba04eb9f832d0f9fee46","condition":"full-information","relevant_dimensions":["antennae","wings"],"bee_group":{"antennae":"B","wings":"2","pattern":"X","legs":"X"},"action":"avoid","summary":"good-avoid","bonus":0.960000000000001},{"rt":894.3999999761581,"stimulus":"\n                    <p><b>Action: <em>avoid</em></b></p>\n                    <p>This is the bee that you just saw.</p>\n                    <img src=\"bees-with-color/bee-B2DM.svg\" width=\"200\">\n                    <p><span class=\"greenText\">Good choice!</span>  This bee would have stung you.<br>Your bonus pay is unchanged, and remains at $0.82.</p>\n            ","response":0,"trial_type":"html-button-response","trial_index":98,"time_elapsed":2407473,"internal_node_id":"0.0-4.0-1.45","subject_id":"60d33b6571caa14347a61558","study_id":"6197b3f67c2b5cd3b6d9596a","session_id":"6197ba04eb9f832d0f9fee46","condition":"full-information","relevant_dimensions":["antennae","wings"],"bee_group":{"antennae":"B","wings":"2","pattern":"X","legs":"X"},"bonus":0.960000000000001},{"rt":4286.300000011921,"stimulus":"bees-with-color/bee-A2SF.svg","response":0,"trial_type":"image-button-response","trial_index":99,"time_elapsed":2411761,"internal_node_id":"0.0-4.0-0.46","subject_id":"60d33b6571caa14347a61558","study_id":"6197b3f67c2b5cd3b6d9596a","session_id":"6197ba04eb9f832d0f9fee46","condition":"full-information","relevant_dimensions":["antennae","wings"],"bee_group":{"antennae":"B","wings":"2","pattern":"X","legs":"X"},"action":"harvest","summary":"good-harvest","bonus":0.960000000000001},{"rt":703.1000000238419,"stimulus":"\n                    <p><b>Action: <em>harvest</em></b></p>\n                    <p>This is the bee that you just saw.</p>\n                    <img src=\"bees-with-color/bee-A2SF.svg\" width=\"200\">\n                    <p><span class=\"greenText\"><b>Successful harvest!</b></span><br>Your pay has increased by $0.02. Your bonus pay is now $0.84.</p>\n            ","response":0,"trial_type":"html-button-response","trial_index":100,"time_elapsed":2412466,"internal_node_id":"0.0-4.0-1.46","subject_id":"60d33b6571caa14347a61558","study_id":"6197b3f67c2b5cd3b6d9596a","session_id":"6197ba04eb9f832d0f9fee46","condition":"full-information","relevant_dimensions":["antennae","wings"],"bee_group":{"antennae":"B","wings":"2","pattern":"X","legs":"X"},"bonus":0.960000000000001},{"rt":8582.600000023842,"stimulus":"bees-with-color/bee-A1DF.svg","response":0,"trial_type":"image-button-response","trial_index":101,"time_elapsed":2421050,"internal_node_id":"0.0-4.0-0.47","subject_id":"60d33b6571caa14347a61558","study_id":"6197b3f67c2b5cd3b6d9596a","session_id":"6197ba04eb9f832d0f9fee46","condition":"full-information","relevant_dimensions":["antennae","wings"],"bee_group":{"antennae":"B","wings":"2","pattern":"X","legs":"X"},"action":"harvest","summary":"good-harvest","bonus":0.960000000000001},{"rt":743.5,"stimulus":"\n                    <p><b>Action: <em>harvest</em></b></p>\n                    <p>This is the bee that you just saw.</p>\n                    <img src=\"bees-with-color/bee-A1DF.svg\" width=\"200\">\n                    <p><span class=\"greenText\"><b>Successful harvest!</b></span><br>Your pay has increased by $0.02. Your bonus pay is now $0.86.</p>\n            ","response":0,"trial_type":"html-button-response","trial_index":102,"time_elapsed":2421794,"internal_node_id":"0.0-4.0-1.47","subject_id":"60d33b6571caa14347a61558","study_id":"6197b3f67c2b5cd3b6d9596a","session_id":"6197ba04eb9f832d0f9fee46","condition":"full-information","relevant_dimensions":["antennae","wings"],"bee_group":{"antennae":"B","wings":"2","pattern":"X","legs":"X"},"bonus":0.960000000000001},{"rt":5535.800000011921,"stimulus":"bees-with-color/bee-A1SM.svg","response":0,"trial_type":"image-button-response","trial_index":103,"time_elapsed":2427331,"internal_node_id":"0.0-4.0-0.48","subject_id":"60d33b6571caa14347a61558","study_id":"6197b3f67c2b5cd3b6d9596a","session_id":"6197ba04eb9f832d0f9fee46","condition":"full-information","relevant_dimensions":["antennae","wings"],"bee_group":{"antennae":"B","wings":"2","pattern":"X","legs":"X"},"action":"harvest","summary":"good-harvest","bonus":0.960000000000001},{"rt":766.1999999880791,"stimulus":"\n                    <p><b>Action: <em>harvest</em></b></p>\n                    <p>This is the bee that you just saw.</p>\n                    <img src=\"bees-with-color/bee-A1SM.svg\" width=\"200\">\n                    <p><span class=\"greenText\"><b>Successful harvest!</b></span><br>Your pay has increased by $0.02. Your bonus pay is now $0.88.</p>\n            ","response":0,"trial_type":"html-button-response","trial_index":104,"time_elapsed":2428099,"internal_node_id":"0.0-4.0-1.48","subject_id":"60d33b6571caa14347a61558","study_id":"6197b3f67c2b5cd3b6d9596a","session_id":"6197ba04eb9f832d0f9fee46","condition":"full-information","relevant_dimensions":["antennae","wings"],"bee_group":{"antennae":"B","wings":"2","pattern":"X","legs":"X"},"bonus":0.960000000000001},{"rt":4382.800000011921,"stimulus":"bees-with-color/bee-B2DM.svg","response":1,"trial_type":"image-button-response","trial_index":105,"time_elapsed":2432483,"internal_node_id":"0.0-4.0-0.49","subject_id":"60d33b6571caa14347a61558","study_id":"6197b3f67c2b5cd3b6d9596a","session_id":"6197ba04eb9f832d0f9fee46","condition":"full-information","relevant_dimensions":["antennae","wings"],"bee_group":{"antennae":"B","wings":"2","pattern":"X","legs":"X"},"action":"avoid","summary":"good-avoid","bonus":0.960000000000001},{"rt":958.5,"stimulus":"\n                    <p><b>Action: <em>avoid</em></b></p>\n                    <p>This is the bee that you just saw.</p>\n                    <img src=\"bees-with-color/bee-B2DM.svg\" width=\"200\">\n                    <p><span class=\"greenText\">Good choice!</span>  This bee would have stung you.<br>Your bonus pay is unchanged, and remains at $0.88.</p>\n            ","response":0,"trial_type":"html-button-response","trial_index":106,"time_elapsed":2433443,"internal_node_id":"0.0-4.0-1.49","subject_id":"60d33b6571caa14347a61558","study_id":"6197b3f67c2b5cd3b6d9596a","session_id":"6197ba04eb9f832d0f9fee46","condition":"full-information","relevant_dimensions":["antennae","wings"],"bee_group":{"antennae":"B","wings":"2","pattern":"X","legs":"X"},"bonus":0.960000000000001},{"rt":3872,"stimulus":"bees-with-color/bee-A2DF.svg","response":0,"trial_type":"image-button-response","trial_index":107,"time_elapsed":2437316,"internal_node_id":"0.0-4.0-0.50","subject_id":"60d33b6571caa14347a61558","study_id":"6197b3f67c2b5cd3b6d9596a","session_id":"6197ba04eb9f832d0f9fee46","condition":"full-information","relevant_dimensions":["antennae","wings"],"bee_group":{"antennae":"B","wings":"2","pattern":"X","legs":"X"},"action":"harvest","summary":"good-harvest","bonus":0.960000000000001},{"rt":550.5,"stimulus":"\n                    <p><b>Action: <em>harvest</em></b></p>\n                    <p>This is the bee that you just saw.</p>\n                    <img src=\"bees-with-color/bee-A2DF.svg\" width=\"200\">\n                    <p><span class=\"greenText\"><b>Successful harvest!</b></span><br>Your pay has increased by $0.02. Your bonus pay is now $0.90.</p>\n            ","response":0,"trial_type":"html-button-response","trial_index":108,"time_elapsed":2437868,"internal_node_id":"0.0-4.0-1.50","subject_id":"60d33b6571caa14347a61558","study_id":"6197b3f67c2b5cd3b6d9596a","session_id":"6197ba04eb9f832d0f9fee46","condition":"full-information","relevant_dimensions":["antennae","wings"],"bee_group":{"antennae":"B","wings":"2","pattern":"X","legs":"X"},"bonus":0.960000000000001},{"rt":2671.300000011921,"stimulus":"bees-with-color/bee-A1SF.svg","response":0,"trial_type":"image-button-response","trial_index":109,"time_elapsed":2440540,"internal_node_id":"0.0-4.0-0.51","subject_id":"60d33b6571caa14347a61558","study_id":"6197b3f67c2b5cd3b6d9596a","session_id":"6197ba04eb9f832d0f9fee46","condition":"full-information","relevant_dimensions":["antennae","wings"],"bee_group":{"antennae":"B","wings":"2","pattern":"X","legs":"X"},"action":"harvest","summary":"good-harvest","bonus":0.960000000000001},{"rt":2286.399999976158,"stimulus":"\n                    <p><b>Action: <em>harvest</em></b></p>\n                    <p>This is the bee that you just saw.</p>\n                    <img src=\"bees-with-color/bee-A1SF.svg\" width=\"200\">\n                    <p><span class=\"greenText\"><b>Successful harvest!</b></span><br>Your pay has increased by $0.02. Your bonus pay is now $0.92.</p>\n            ","response":0,"trial_type":"html-button-response","trial_index":110,"time_elapsed":2442828,"internal_node_id":"0.0-4.0-1.51","subject_id":"60d33b6571caa14347a61558","study_id":"6197b3f67c2b5cd3b6d9596a","session_id":"6197ba04eb9f832d0f9fee46","condition":"full-information","relevant_dimensions":["antennae","wings"],"bee_group":{"antennae":"B","wings":"2","pattern":"X","legs":"X"},"bonus":0.960000000000001},{"rt":942.6000000238419,"stimulus":"bees-with-color/bee-B1SM.svg","response":0,"trial_type":"image-button-response","trial_index":111,"time_elapsed":2443772,"internal_node_id":"0.0-4.0-0.52","subject_id":"60d33b6571caa14347a61558","study_id":"6197b3f67c2b5cd3b6d9596a","session_id":"6197ba04eb9f832d0f9fee46","condition":"full-information","relevant_dimensions":["antennae","wings"],"bee_group":{"antennae":"B","wings":"2","pattern":"X","legs":"X"},"action":"harvest","summary":"good-harvest","bonus":0.960000000000001},{"rt":471,"stimulus":"\n                    <p><b>Action: <em>harvest</em></b></p>\n                    <p>This is the bee that you just saw.</p>\n                    <img src=\"bees-with-color/bee-B1SM.svg\" width=\"200\">\n                    <p><span class=\"greenText\"><b>Successful harvest!</b></span><br>Your pay has increased by $0.02. Your bonus pay is now $0.94.</p>\n            ","response":0,"trial_type":"html-button-response","trial_index":112,"time_elapsed":2444244,"internal_node_id":"0.0-4.0-1.52","subject_id":"60d33b6571caa14347a61558","study_id":"6197b3f67c2b5cd3b6d9596a","session_id":"6197ba04eb9f832d0f9fee46","condition":"full-information","relevant_dimensions":["antennae","wings"],"bee_group":{"antennae":"B","wings":"2","pattern":"X","legs":"X"},"bonus":0.960000000000001},{"rt":3662.899999976158,"stimulus":"bees-with-color/bee-B2SF.svg","response":1,"trial_type":"image-button-response","trial_index":113,"time_elapsed":2447908,"internal_node_id":"0.0-4.0-0.53","subject_id":"60d33b6571caa14347a61558","study_id":"6197b3f67c2b5cd3b6d9596a","session_id":"6197ba04eb9f832d0f9fee46","condition":"full-information","relevant_dimensions":["antennae","wings"],"bee_group":{"antennae":"B","wings":"2","pattern":"X","legs":"X"},"action":"avoid","summary":"good-avoid","bonus":0.960000000000001},{"rt":671.1000000238419,"stimulus":"\n                    <p><b>Action: <em>avoid</em></b></p>\n                    <p>This is the bee that you just saw.</p>\n                    <img src=\"bees-with-color/bee-B2SF.svg\" width=\"200\">\n                    <p><span class=\"greenText\">Good choice!</span>  This bee would have stung you.<br>Your bonus pay is unchanged, and remains at $0.94.</p>\n            ","response":0,"trial_type":"html-button-response","trial_index":114,"time_elapsed":2448581,"internal_node_id":"0.0-4.0-1.53","subject_id":"60d33b6571caa14347a61558","study_id":"6197b3f67c2b5cd3b6d9596a","session_id":"6197ba04eb9f832d0f9fee46","condition":"full-information","relevant_dimensions":["antennae","wings"],"bee_group":{"antennae":"B","wings":"2","pattern":"X","legs":"X"},"bonus":0.960000000000001},{"rt":1446.800000011921,"stimulus":"bees-with-color/bee-B1SF.svg","response":0,"trial_type":"image-button-response","trial_index":115,"time_elapsed":2450029,"internal_node_id":"0.0-4.0-0.54","subject_id":"60d33b6571caa14347a61558","study_id":"6197b3f67c2b5cd3b6d9596a","session_id":"6197ba04eb9f832d0f9fee46","condition":"full-information","relevant_dimensions":["antennae","wings"],"bee_group":{"antennae":"B","wings":"2","pattern":"X","legs":"X"},"action":"harvest","summary":"good-harvest","bonus":0.960000000000001},{"rt":462.7000000476837,"stimulus":"\n                    <p><b>Action: <em>harvest</em></b></p>\n                    <p>This is the bee that you just saw.</p>\n                    <img src=\"bees-with-color/bee-B1SF.svg\" width=\"200\">\n                    <p><span class=\"greenText\"><b>Successful harvest!</b></span><br>Your pay has increased by $0.02. Your bonus pay is now $0.96.</p>\n            ","response":0,"trial_type":"html-button-response","trial_index":116,"time_elapsed":2450493,"internal_node_id":"0.0-4.0-1.54","subject_id":"60d33b6571caa14347a61558","study_id":"6197b3f67c2b5cd3b6d9596a","session_id":"6197ba04eb9f832d0f9fee46","condition":"full-information","relevant_dimensions":["antennae","wings"],"bee_group":{"antennae":"B","wings":"2","pattern":"X","legs":"X"},"bonus":0.960000000000001},{"rt":846.9000000357628,"stimulus":"bees-with-color/bee-B1DF.svg","response":0,"trial_type":"image-button-response","trial_index":117,"time_elapsed":2451341,"internal_node_id":"0.0-4.0-0.55","subject_id":"60d33b6571caa14347a61558","study_id":"6197b3f67c2b5cd3b6d9596a","session_id":"6197ba04eb9f832d0f9fee46","condition":"full-information","relevant_dimensions":["antennae","wings"],"bee_group":{"antennae":"B","wings":"2","pattern":"X","legs":"X"},"action":"harvest","summary":"good-harvest","bonus":0.960000000000001},{"rt":446.60000002384186,"stimulus":"\n                    <p><b>Action: <em>harvest</em></b></p>\n                    <p>This is the bee that you just saw.</p>\n                    <img src=\"bees-with-color/bee-B1DF.svg\" width=\"200\">\n                    <p><span class=\"greenText\"><b>Successful harvest!</b></span><br>Your pay has increased by $0.02. Your bonus pay is now $0.98.</p>\n            ","response":0,"trial_type":"html-button-response","trial_index":118,"time_elapsed":2451790,"internal_node_id":"0.0-4.0-1.55","subject_id":"60d33b6571caa14347a61558","study_id":"6197b3f67c2b5cd3b6d9596a","session_id":"6197ba04eb9f832d0f9fee46","condition":"full-information","relevant_dimensions":["antennae","wings"],"bee_group":{"antennae":"B","wings":"2","pattern":"X","legs":"X"},"bonus":0.960000000000001},{"rt":589.7999999523163,"stimulus":"bees-with-color/bee-A1DM.svg","response":0,"trial_type":"image-button-response","trial_index":119,"time_elapsed":2452381,"internal_node_id":"0.0-4.0-0.56","subject_id":"60d33b6571caa14347a61558","study_id":"6197b3f67c2b5cd3b6d9596a","session_id":"6197ba04eb9f832d0f9fee46","condition":"full-information","relevant_dimensions":["antennae","wings"],"bee_group":{"antennae":"B","wings":"2","pattern":"X","legs":"X"},"action":"harvest","summary":"good-harvest","bonus":0.960000000000001},{"rt":591,"stimulus":"\n                    <p><b>Action: <em>harvest</em></b></p>\n                    <p>This is the bee that you just saw.</p>\n                    <img src=\"bees-with-color/bee-A1DM.svg\" width=\"200\">\n                    <p><span class=\"greenText\"><b>Successful harvest!</b></span><br>Your pay has increased by $0.02. Your bonus pay is now $1.00.</p>\n            ","response":0,"trial_type":"html-button-response","trial_index":120,"time_elapsed":2452973,"internal_node_id":"0.0-4.0-1.56","subject_id":"60d33b6571caa14347a61558","study_id":"6197b3f67c2b5cd3b6d9596a","session_id":"6197ba04eb9f832d0f9fee46","condition":"full-information","relevant_dimensions":["antennae","wings"],"bee_group":{"antennae":"B","wings":"2","pattern":"X","legs":"X"},"bonus":0.960000000000001},{"rt":5718.899999976158,"stimulus":"bees-with-color/bee-B2SM.svg","response":1,"trial_type":"image-button-response","trial_index":121,"time_elapsed":2458694,"internal_node_id":"0.0-4.0-0.57","subject_id":"60d33b6571caa14347a61558","study_id":"6197b3f67c2b5cd3b6d9596a","session_id":"6197ba04eb9f832d0f9fee46","condition":"full-information","relevant_dimensions":["antennae","wings"],"bee_group":{"antennae":"B","wings":"2","pattern":"X","legs":"X"},"action":"avoid","summary":"good-avoid","bonus":0.960000000000001},{"rt":1430.300000011921,"stimulus":"\n                    <p><b>Action: <em>avoid</em></b></p>\n                    <p>This is the bee that you just saw.</p>\n                    <img src=\"bees-with-color/bee-B2SM.svg\" width=\"200\">\n                    <p><span class=\"greenText\">Good choice!</span>  This bee would have stung you.<br>Your bonus pay is unchanged, and remains at $1.00.</p>\n            ","response":0,"trial_type":"html-button-response","trial_index":122,"time_elapsed":2460126,"internal_node_id":"0.0-4.0-1.57","subject_id":"60d33b6571caa14347a61558","study_id":"6197b3f67c2b5cd3b6d9596a","session_id":"6197ba04eb9f832d0f9fee46","condition":"full-information","relevant_dimensions":["antennae","wings"],"bee_group":{"antennae":"B","wings":"2","pattern":"X","legs":"X"},"bonus":0.960000000000001},{"rt":7496.300000011921,"stimulus":"bees-with-color/bee-A2SF.svg","response":0,"trial_type":"image-button-response","trial_index":123,"time_elapsed":2467624,"internal_node_id":"0.0-4.0-0.58","subject_id":"60d33b6571caa14347a61558","study_id":"6197b3f67c2b5cd3b6d9596a","session_id":"6197ba04eb9f832d0f9fee46","condition":"full-information","relevant_dimensions":["antennae","wings"],"bee_group":{"antennae":"B","wings":"2","pattern":"X","legs":"X"},"action":"harvest","summary":"good-harvest","bonus":0.960000000000001},{"rt":462.19999998807907,"stimulus":"\n                    <p><b>Action: <em>harvest</em></b></p>\n                    <p>This is the bee that you just saw.</p>\n                    <img src=\"bees-with-color/bee-A2SF.svg\" width=\"200\">\n                    <p><span class=\"greenText\"><b>Successful harvest!</b></span><br>Your pay has increased by $0.02. Your bonus pay is now $1.02.</p>\n            ","response":0,"trial_type":"html-button-response","trial_index":124,"time_elapsed":2468087,"internal_node_id":"0.0-4.0-1.58","subject_id":"60d33b6571caa14347a61558","study_id":"6197b3f67c2b5cd3b6d9596a","session_id":"6197ba04eb9f832d0f9fee46","condition":"full-information","relevant_dimensions":["antennae","wings"],"bee_group":{"antennae":"B","wings":"2","pattern":"X","legs":"X"},"bonus":0.960000000000001},{"rt":2750.399999976158,"stimulus":"bees-with-color/bee-B2DF.svg","response":1,"trial_type":"image-button-response","trial_index":125,"time_elapsed":2470839,"internal_node_id":"0.0-4.0-0.59","subject_id":"60d33b6571caa14347a61558","study_id":"6197b3f67c2b5cd3b6d9596a","session_id":"6197ba04eb9f832d0f9fee46","condition":"full-information","relevant_dimensions":["antennae","wings"],"bee_group":{"antennae":"B","wings":"2","pattern":"X","legs":"X"},"action":"avoid","summary":"good-avoid","bonus":0.960000000000001},{"rt":574.8999999761581,"stimulus":"\n                    <p><b>Action: <em>avoid</em></b></p>\n                    <p>This is the bee that you just saw.</p>\n                    <img src=\"bees-with-color/bee-B2DF.svg\" width=\"200\">\n                    <p><span class=\"greenText\">Good choice!</span>  This bee would have stung you.<br>Your bonus pay is unchanged, and remains at $1.02.</p>\n            ","response":0,"trial_type":"html-button-response","trial_index":126,"time_elapsed":2471416,"internal_node_id":"0.0-4.0-1.59","subject_id":"60d33b6571caa14347a61558","study_id":"6197b3f67c2b5cd3b6d9596a","session_id":"6197ba04eb9f832d0f9fee46","condition":"full-information","relevant_dimensions":["antennae","wings"],"bee_group":{"antennae":"B","wings":"2","pattern":"X","legs":"X"},"bonus":0.960000000000001},{"rt":1198.8999999761581,"stimulus":"bees-with-color/bee-A1DF.svg","response":0,"trial_type":"image-button-response","trial_index":127,"time_elapsed":2472616,"internal_node_id":"0.0-4.0-0.60","subject_id":"60d33b6571caa14347a61558","study_id":"6197b3f67c2b5cd3b6d9596a","session_id":"6197ba04eb9f832d0f9fee46","condition":"full-information","relevant_dimensions":["antennae","wings"],"bee_group":{"antennae":"B","wings":"2","pattern":"X","legs":"X"},"action":"harvest","summary":"good-harvest","bonus":0.960000000000001},{"rt":382.0999999642372,"stimulus":"\n                    <p><b>Action: <em>harvest</em></b></p>\n                    <p>This is the bee that you just saw.</p>\n                    <img src=\"bees-with-color/bee-A1DF.svg\" width=\"200\">\n                    <p><span class=\"greenText\"><b>Successful harvest!</b></span><br>Your pay has increased by $0.02. Your bonus pay is now $1.04.</p>\n            ","response":0,"trial_type":"html-button-response","trial_index":128,"time_elapsed":2472999,"internal_node_id":"0.0-4.0-1.60","subject_id":"60d33b6571caa14347a61558","study_id":"6197b3f67c2b5cd3b6d9596a","session_id":"6197ba04eb9f832d0f9fee46","condition":"full-information","relevant_dimensions":["antennae","wings"],"bee_group":{"antennae":"B","wings":"2","pattern":"X","legs":"X"},"bonus":0.960000000000001},{"rt":5047.699999988079,"stimulus":"bees-with-color/bee-A2DM.svg","response":0,"trial_type":"image-button-response","trial_index":129,"time_elapsed":2478049,"internal_node_id":"0.0-4.0-0.61","subject_id":"60d33b6571caa14347a61558","study_id":"6197b3f67c2b5cd3b6d9596a","session_id":"6197ba04eb9f832d0f9fee46","condition":"full-information","relevant_dimensions":["antennae","wings"],"bee_group":{"antennae":"B","wings":"2","pattern":"X","legs":"X"},"action":"harvest","summary":"good-harvest","bonus":0.960000000000001},{"rt":471.39999997615814,"stimulus":"\n                    <p><b>Action: <em>harvest</em></b></p>\n                    <p>This is the bee that you just saw.</p>\n                    <img src=\"bees-with-color/bee-A2DM.svg\" width=\"200\">\n                    <p><span class=\"greenText\"><b>Successful harvest!</b></span><br>Your pay has increased by $0.02. Your bonus pay is now $1.06.</p>\n            ","response":0,"trial_type":"html-button-response","trial_index":130,"time_elapsed":2478521,"internal_node_id":"0.0-4.0-1.61","subject_id":"60d33b6571caa14347a61558","study_id":"6197b3f67c2b5cd3b6d9596a","session_id":"6197ba04eb9f832d0f9fee46","condition":"full-information","relevant_dimensions":["antennae","wings"],"bee_group":{"antennae":"B","wings":"2","pattern":"X","legs":"X"},"bonus":0.960000000000001},{"rt":2478.699999988079,"stimulus":"bees-with-color/bee-B1DM.svg","response":0,"trial_type":"image-button-response","trial_index":131,"time_elapsed":2481001,"internal_node_id":"0.0-4.0-0.62","subject_id":"60d33b6571caa14347a61558","study_id":"6197b3f67c2b5cd3b6d9596a","session_id":"6197ba04eb9f832d0f9fee46","condition":"full-information","relevant_dimensions":["antennae","wings"],"bee_group":{"antennae":"B","wings":"2","pattern":"X","legs":"X"},"action":"harvest","summary":"good-harvest","bonus":0.960000000000001},{"rt":742.6999999880791,"stimulus":"\n                    <p><b>Action: <em>harvest</em></b></p>\n                    <p>This is the bee that you just saw.</p>\n                    <img src=\"bees-with-color/bee-B1DM.svg\" width=\"200\">\n                    <p><span class=\"greenText\"><b>Successful harvest!</b></span><br>Your pay has increased by $0.02. Your bonus pay is now $1.08.</p>\n            ","response":0,"trial_type":"html-button-response","trial_index":132,"time_elapsed":2481745,"internal_node_id":"0.0-4.0-1.62","subject_id":"60d33b6571caa14347a61558","study_id":"6197b3f67c2b5cd3b6d9596a","session_id":"6197ba04eb9f832d0f9fee46","condition":"full-information","relevant_dimensions":["antennae","wings"],"bee_group":{"antennae":"B","wings":"2","pattern":"X","legs":"X"},"bonus":0.960000000000001},{"rt":58149.69999998808,"stimulus":"bees-with-color/bee-A2SM.svg","response":0,"trial_type":"image-button-response","trial_index":133,"time_elapsed":2539896,"internal_node_id":"0.0-4.0-0.63","subject_id":"60d33b6571caa14347a61558","study_id":"6197b3f67c2b5cd3b6d9596a","session_id":"6197ba04eb9f832d0f9fee46","condition":"full-information","relevant_dimensions":["antennae","wings"],"bee_group":{"antennae":"B","wings":"2","pattern":"X","legs":"X"},"action":"harvest","summary":"good-harvest","bonus":0.960000000000001},{"rt":8712.199999988079,"stimulus":"\n                    <p><b>Action: <em>harvest</em></b></p>\n                    <p>This is the bee that you just saw.</p>\n                    <img src=\"bees-with-color/bee-A2SM.svg\" width=\"200\">\n                    <p><span class=\"greenText\"><b>Successful harvest!</b></span><br>Your pay has increased by $0.02. Your bonus pay is now $1.10.</p>\n            ","response":0,"trial_type":"html-button-response","trial_index":134,"time_elapsed":2548609,"internal_node_id":"0.0-4.0-1.63","subject_id":"60d33b6571caa14347a61558","study_id":"6197b3f67c2b5cd3b6d9596a","session_id":"6197ba04eb9f832d0f9fee46","condition":"full-information","relevant_dimensions":["antennae","wings"],"bee_group":{"antennae":"B","wings":"2","pattern":"X","legs":"X"},"bonus":0.960000000000001},{"rt":4164.299999952316,"stimulus":"You have completed the first part of this experiment.<br><br>You will now begin a shorter second part, in which you will receive no feedback.<br>The same rules regarding bonus pay apply.<br><br>Press any key to begin.","response":"enter","trial_type":"html-keyboard-response","trial_index":135,"time_elapsed":2552775,"internal_node_id":"0.0-5.0","subject_id":"60d33b6571caa14347a61558","study_id":"6197b3f67c2b5cd3b6d9596a","session_id":"6197ba04eb9f832d0f9fee46","condition":"full-information","relevant_dimensions":["antennae","wings"],"bee_group":{"antennae":"B","wings":"2","pattern":"X","legs":"X"},"bonus":0.960000000000001},{"rt":6797.100000023842,"stimulus":"bees-with-color/bee-A1DF.svg","response":0,"trial_type":"image-button-response","trial_index":136,"time_elapsed":2559579,"internal_node_id":"0.0-6.0-0.0","subject_id":"60d33b6571caa14347a61558","study_id":"6197b3f67c2b5cd3b6d9596a","session_id":"6197ba04eb9f832d0f9fee46","condition":"full-information","relevant_dimensions":["antennae","wings"],"bee_group":{"antennae":"B","wings":"2","pattern":"X","legs":"X"},"bonus":0.960000000000001},{"rt":4990.400000035763,"stimulus":"bees-with-color/bee-A2DM.svg","response":1,"trial_type":"image-button-response","trial_index":137,"time_elapsed":2564572,"internal_node_id":"0.0-6.0-0.1","subject_id":"60d33b6571caa14347a61558","study_id":"6197b3f67c2b5cd3b6d9596a","session_id":"6197ba04eb9f832d0f9fee46","condition":"full-information","relevant_dimensions":["antennae","wings"],"bee_group":{"antennae":"B","wings":"2","pattern":"X","legs":"X"},"bonus":0.960000000000001},{"rt":6231.300000011921,"stimulus":"bees-with-color/bee-B2SM.svg","response":1,"trial_type":"image-button-response","trial_index":138,"time_elapsed":2570805,"internal_node_id":"0.0-6.0-0.2","subject_id":"60d33b6571caa14347a61558","study_id":"6197b3f67c2b5cd3b6d9596a","session_id":"6197ba04eb9f832d0f9fee46","condition":"full-information","relevant_dimensions":["antennae","wings"],"bee_group":{"antennae":"B","wings":"2","pattern":"X","legs":"X"},"bonus":0.960000000000001},{"rt":6719.400000035763,"stimulus":"bees-with-color/bee-B2SF.svg","response":1,"trial_type":"image-button-response","trial_index":139,"time_elapsed":2577526,"internal_node_id":"0.0-6.0-0.3","subject_id":"60d33b6571caa14347a61558","study_id":"6197b3f67c2b5cd3b6d9596a","session_id":"6197ba04eb9f832d0f9fee46","condition":"full-information","relevant_dimensions":["antennae","wings"],"bee_group":{"antennae":"B","wings":"2","pattern":"X","legs":"X"},"bonus":0.960000000000001},{"rt":2182,"stimulus":"bees-with-color/bee-A2DF.svg","response":1,"trial_type":"image-button-response","trial_index":140,"time_elapsed":2579710,"internal_node_id":"0.0-6.0-0.4","subject_id":"60d33b6571caa14347a61558","study_id":"6197b3f67c2b5cd3b6d9596a","session_id":"6197ba04eb9f832d0f9fee46","condition":"full-information","relevant_dimensions":["antennae","wings"],"bee_group":{"antennae":"B","wings":"2","pattern":"X","legs":"X"},"bonus":0.960000000000001},{"rt":334.10000002384186,"stimulus":"bees-with-color/bee-B1SM.svg","response":0,"trial_type":"image-button-response","trial_index":141,"time_elapsed":2580046,"internal_node_id":"0.0-6.0-0.5","subject_id":"60d33b6571caa14347a61558","study_id":"6197b3f67c2b5cd3b6d9596a","session_id":"6197ba04eb9f832d0f9fee46","condition":"full-information","relevant_dimensions":["antennae","wings"],"bee_group":{"antennae":"B","wings":"2","pattern":"X","legs":"X"},"bonus":0.960000000000001},{"rt":294.19999998807907,"stimulus":"bees-with-color/bee-A2SF.svg","response":1,"trial_type":"image-button-response","trial_index":142,"time_elapsed":2580342,"internal_node_id":"0.0-6.0-0.6","subject_id":"60d33b6571caa14347a61558","study_id":"6197b3f67c2b5cd3b6d9596a","session_id":"6197ba04eb9f832d0f9fee46","condition":"full-information","relevant_dimensions":["antennae","wings"],"bee_group":{"antennae":"B","wings":"2","pattern":"X","legs":"X"},"bonus":0.960000000000001},{"rt":302.80000001192093,"stimulus":"bees-with-color/bee-A1SF.svg","response":0,"trial_type":"image-button-response","trial_index":143,"time_elapsed":2580646,"internal_node_id":"0.0-6.0-0.7","subject_id":"60d33b6571caa14347a61558","study_id":"6197b3f67c2b5cd3b6d9596a","session_id":"6197ba04eb9f832d0f9fee46","condition":"full-information","relevant_dimensions":["antennae","wings"],"bee_group":{"antennae":"B","wings":"2","pattern":"X","legs":"X"},"bonus":0.960000000000001},{"rt":182.19999998807907,"stimulus":"bees-with-color/bee-A1SM.svg","response":0,"trial_type":"image-button-response","trial_index":144,"time_elapsed":2580830,"internal_node_id":"0.0-6.0-0.8","subject_id":"60d33b6571caa14347a61558","study_id":"6197b3f67c2b5cd3b6d9596a","session_id":"6197ba04eb9f832d0f9fee46","condition":"full-information","relevant_dimensions":["antennae","wings"],"bee_group":{"antennae":"B","wings":"2","pattern":"X","legs":"X"},"bonus":0.960000000000001},{"rt":318.5999999642372,"stimulus":"bees-with-color/bee-A1DM.svg","response":1,"trial_type":"image-button-response","trial_index":145,"time_elapsed":2581150,"internal_node_id":"0.0-6.0-0.9","subject_id":"60d33b6571caa14347a61558","study_id":"6197b3f67c2b5cd3b6d9596a","session_id":"6197ba04eb9f832d0f9fee46","condition":"full-information","relevant_dimensions":["antennae","wings"],"bee_group":{"antennae":"B","wings":"2","pattern":"X","legs":"X"},"bonus":0.960000000000001},{"rt":310.80000001192093,"stimulus":"bees-with-color/bee-B1DF.svg","response":0,"trial_type":"image-button-response","trial_index":146,"time_elapsed":2581462,"internal_node_id":"0.0-6.0-0.10","subject_id":"60d33b6571caa14347a61558","study_id":"6197b3f67c2b5cd3b6d9596a","session_id":"6197ba04eb9f832d0f9fee46","condition":"full-information","relevant_dimensions":["antennae","wings"],"bee_group":{"antennae":"B","wings":"2","pattern":"X","legs":"X"},"bonus":0.960000000000001},{"rt":182.69999998807907,"stimulus":"bees-with-color/bee-B1SF.svg","response":0,"trial_type":"image-button-response","trial_index":147,"time_elapsed":2581646,"internal_node_id":"0.0-6.0-0.11","subject_id":"60d33b6571caa14347a61558","study_id":"6197b3f67c2b5cd3b6d9596a","session_id":"6197ba04eb9f832d0f9fee46","condition":"full-information","relevant_dimensions":["antennae","wings"],"bee_group":{"antennae":"B","wings":"2","pattern":"X","legs":"X"},"bonus":0.960000000000001},{"rt":440.30000001192093,"stimulus":"bees-with-color/bee-B2DF.svg","response":1,"trial_type":"image-button-response","trial_index":148,"time_elapsed":2582087,"internal_node_id":"0.0-6.0-0.12","subject_id":"60d33b6571caa14347a61558","study_id":"6197b3f67c2b5cd3b6d9596a","session_id":"6197ba04eb9f832d0f9fee46","condition":"full-information","relevant_dimensions":["antennae","wings"],"bee_group":{"antennae":"B","wings":"2","pattern":"X","legs":"X"},"bonus":0.960000000000001},{"rt":445.30000001192093,"stimulus":"bees-with-color/bee-A2SM.svg","response":1,"trial_type":"image-button-response","trial_index":149,"time_elapsed":2582535,"internal_node_id":"0.0-6.0-0.13","subject_id":"60d33b6571caa14347a61558","study_id":"6197b3f67c2b5cd3b6d9596a","session_id":"6197ba04eb9f832d0f9fee46","condition":"full-information","relevant_dimensions":["antennae","wings"],"bee_group":{"antennae":"B","wings":"2","pattern":"X","legs":"X"},"bonus":0.960000000000001},{"rt":126.5,"stimulus":"bees-with-color/bee-B1DM.svg","response":1,"trial_type":"image-button-response","trial_index":150,"time_elapsed":2582663,"internal_node_id":"0.0-6.0-0.14","subject_id":"60d33b6571caa14347a61558","study_id":"6197b3f67c2b5cd3b6d9596a","session_id":"6197ba04eb9f832d0f9fee46","condition":"full-information","relevant_dimensions":["antennae","wings"],"bee_group":{"antennae":"B","wings":"2","pattern":"X","legs":"X"},"bonus":0.960000000000001},{"rt":230.4000000357628,"stimulus":"bees-with-color/bee-B2DM.svg","response":0,"trial_type":"image-button-response","trial_index":151,"time_elapsed":2582894,"internal_node_id":"0.0-6.0-0.15","subject_id":"60d33b6571caa14347a61558","study_id":"6197b3f67c2b5cd3b6d9596a","session_id":"6197ba04eb9f832d0f9fee46","condition":"full-information","relevant_dimensions":["antennae","wings"],"bee_group":{"antennae":"B","wings":"2","pattern":"X","legs":"X"},"bonus":0.960000000000001},{"rt":151.70000004768372,"stimulus":"bees-with-color/bee-A2DM.svg","response":0,"trial_type":"image-button-response","trial_index":152,"time_elapsed":2583047,"internal_node_id":"0.0-6.0-0.16","subject_id":"60d33b6571caa14347a61558","study_id":"6197b3f67c2b5cd3b6d9596a","session_id":"6197ba04eb9f832d0f9fee46","condition":"full-information","relevant_dimensions":["antennae","wings"],"bee_group":{"antennae":"B","wings":"2","pattern":"X","legs":"X"},"bonus":0.960000000000001},{"rt":116.60000002384186,"stimulus":"bees-with-color/bee-B2SF.svg","response":0,"trial_type":"image-button-response","trial_index":153,"time_elapsed":2583165,"internal_node_id":"0.0-6.0-0.17","subject_id":"60d33b6571caa14347a61558","study_id":"6197b3f67c2b5cd3b6d9596a","session_id":"6197ba04eb9f832d0f9fee46","condition":"full-information","relevant_dimensions":["antennae","wings"],"bee_group":{"antennae":"B","wings":"2","pattern":"X","legs":"X"},"bonus":0.960000000000001},{"rt":160.5999999642372,"stimulus":"bees-with-color/bee-A1DF.svg","response":0,"trial_type":"image-button-response","trial_index":154,"time_elapsed":2583327,"internal_node_id":"0.0-6.0-0.18","subject_id":"60d33b6571caa14347a61558","study_id":"6197b3f67c2b5cd3b6d9596a","session_id":"6197ba04eb9f832d0f9fee46","condition":"full-information","relevant_dimensions":["antennae","wings"],"bee_group":{"antennae":"B","wings":"2","pattern":"X","legs":"X"},"bonus":0.960000000000001},{"rt":261.10000002384186,"stimulus":"bees-with-color/bee-B1SF.svg","response":1,"trial_type":"image-button-response","trial_index":155,"time_elapsed":2583590,"internal_node_id":"0.0-6.0-0.19","subject_id":"60d33b6571caa14347a61558","study_id":"6197b3f67c2b5cd3b6d9596a","session_id":"6197ba04eb9f832d0f9fee46","condition":"full-information","relevant_dimensions":["antennae","wings"],"bee_group":{"antennae":"B","wings":"2","pattern":"X","legs":"X"},"bonus":0.960000000000001},{"rt":337,"stimulus":"bees-with-color/bee-A2DF.svg","response":0,"trial_type":"image-button-response","trial_index":156,"time_elapsed":2583928,"internal_node_id":"0.0-6.0-0.20","subject_id":"60d33b6571caa14347a61558","study_id":"6197b3f67c2b5cd3b6d9596a","session_id":"6197ba04eb9f832d0f9fee46","condition":"full-information","relevant_