[{"success":true,"trial_type":"fullscreen","trial_index":0,"time_elapsed":6604,"internal_node_id":"0.0-0.0","subject_id":"5feb64b3341f42bb63200e36","study_id":"60edd13110225f80f9f3709b","session_id":"6196c81272ce4fa03f3e3d3f","condition":"full-information","relevant_dimensions":["wings","legs"],"bee_group":{"antennae":"X","wings":"1","pattern":"X","legs":"M"},"bonus":0.1000000000000008},{"success":true,"timeout":false,"failed_images":[],"failed_audio":[],"failed_video":[],"trial_type":"preload","trial_index":1,"time_elapsed":8175,"internal_node_id":"0.0-1.0","subject_id":"5feb64b3341f42bb63200e36","study_id":"60edd13110225f80f9f3709b","session_id":"6196c81272ce4fa03f3e3d3f","condition":"full-information","relevant_dimensions":["wings","legs"],"bee_group":{"antennae":"X","wings":"1","pattern":"X","legs":"M"},"bonus":0.1000000000000008},{"rt":2091.0999999940395,"stimulus":"Welcome! Press any key to begin.","response":" ","trial_type":"html-keyboard-response","trial_index":2,"time_elapsed":10267,"internal_node_id":"0.0-2.0","subject_id":"5feb64b3341f42bb63200e36","study_id":"60edd13110225f80f9f3709b","session_id":"6196c81272ce4fa03f3e3d3f","condition":"full-information","relevant_dimensions":["wings","legs"],"bee_group":{"antennae":"X","wings":"1","pattern":"X","legs":"M"},"bonus":0.1000000000000008},{"view_history":[{"page_index":0,"viewing_time":7003.800000011921},{"page_index":1,"viewing_time":51125.59999999404},{"page_index":2,"viewing_time":71552},{"page_index":3,"viewing_time":20314.30000001192},{"page_index":4,"viewing_time":11865.299999982119},{"page_index":5,"viewing_time":9697.100000023842},{"page_index":6,"viewing_time":34131.89999997616},{"page_index":7,"viewing_time":13729.5},{"page_index":8,"viewing_time":4945.300000011921},{"page_index":9,"viewing_time":5744.199999988079},{"page_index":10,"viewing_time":4280.200000017881},{"page_index":11,"viewing_time":14594.199999988079},{"page_index":12,"viewing_time":25098.30000001192},{"page_index":13,"viewing_time":1272.199999988079},{"page_index":14,"viewing_time":3488.4000000059605}],"rt":278842.60000002384,"trial_type":"instructions","trial_index":3,"time_elapsed":289110,"internal_node_id":"0.0-3.0-0.0","subject_id":"5feb64b3341f42bb63200e36","study_id":"60edd13110225f80f9f3709b","session_id":"6196c81272ce4fa03f3e3d3f","condition":"full-information","relevant_dimensions":["wings","legs"],"bee_group":{"antennae":"X","wings":"1","pattern":"X","legs":"M"},"bonus":0.1000000000000008},{"rt":21663.90000000596,"response":{"Q0":["Two or six legs","Stripes or spots on body","Single or double wings","Antennae or no antennae"]},"question_order":[0],"trial_type":"survey-multi-select","trial_index":4,"time_elapsed":310777,"internal_node_id":"0.0-3.0-1.0","subject_id":"5feb64b3341f42bb63200e36","study_id":"60edd13110225f80f9f3709b","session_id":"6196c81272ce4fa03f3e3d3f","condition":"full-information","relevant_dimensions":["wings","legs"],"bee_group":{"antennae":"X","wings":"1","pattern":"X","legs":"M"},"correct":true,"bonus":0.1000000000000008},{"rt":30217.29999998212,"response":{"Q1":"No.","Q2":"Based on the four features of the bee.","Q3":"You do not learn if it was friendly or dangerous, and do not alter your bonus."},"question_order":[0,1,2],"trial_type":"survey-multi-choice","trial_index":5,"time_elapsed":340996,"internal_node_id":"0.0-3.0-2.0","subject_id":"5feb64b3341f42bb63200e36","study_id":"60edd13110225f80f9f3709b","session_id":"6196c81272ce4fa03f3e3d3f","condition":"full-information","relevant_dimensions":["wings","legs"],"bee_group":{"antennae":"X","wings":"1","pattern":"X","legs":"M"},"correct":false,"bonus":0.1000000000000008},{"rt":3223.199999988079,"stimulus":"<p>You did not answer all comprehension questions correctly.<br>Press <b>continue</b> to review the instructions again.</p>","response":0,"trial_type":"html-button-response","trial_index":6,"time_elapsed":344220,"internal_node_id":"0.0-3.0-3.0","subject_id":"5feb64b3341f42bb63200e36","study_id":"60edd13110225f80f9f3709b","session_id":"6196c81272ce4fa03f3e3d3f","condition":"full-information","relevant_dimensions":["wings","legs"],"bee_group":{"antennae":"X","wings":"1","pattern":"X","legs":"M"},"bonus":0.1000000000000008},{"view_history":[{"page_index":0,"viewing_time":6951.300000011921},{"page_index":1,"viewing_time":2032.300000011921},{"page_index":2,"viewing_time":944.5999999940395},{"page_index":3,"viewing_time":639.5},{"page_index":4,"viewing_time":544.0999999940395},{"page_index":5,"viewing_time":335.90000000596046},{"page_index":6,"viewing_time":384.09999999403954},{"page_index":7,"viewing_time":2032.300000011921},{"page_index":8,"viewing_time":712},{"page_index":9,"viewing_time":792.0999999940395},{"page_index":10,"viewing_time":648.0999999940395},{"page_index":11,"viewing_time":864},{"page_index":12,"viewing_time":832.0999999940395},{"page_index":13,"viewing_time":1048.2000000178814},{"page_index":14,"viewing_time":776.0999999940395}],"rt":19536.90000000596,"trial_type":"instructions","trial_index":7,"time_elapsed":363758,"internal_node_id":"0.0-3.0-4.0-0.0","subject_id":"5feb64b3341f42bb63200e36","study_id":"60edd13110225f80f9f3709b","session_id":"6196c81272ce4fa03f3e3d3f","condition":"full-information","relevant_dimensions":["wings","legs"],"bee_group":{"antennae":"X","wings":"1","pattern":"X","legs":"M"},"bonus":0.1000000000000008},{"rt":7157.9000000059605,"response":{"Q0":["Two or six legs","Stripes or spots on body","Single or double wings","Antennae or no antennae"]},"question_order":[0],"trial_type":"survey-multi-select","trial_index":8,"time_elapsed":370919,"internal_node_id":"0.0-3.0-4.0-1.0","subject_id":"5feb64b3341f42bb63200e36","study_id":"60edd13110225f80f9f3709b","session_id":"6196c81272ce4fa03f3e3d3f","condition":"full-information","relevant_dimensions":["wings","legs"],"bee_group":{"antennae":"X","wings":"1","pattern":"X","legs":"M"},"correct":true,"bonus":0.1000000000000008},{"rt":24697.5,"response":{"Q1":"No.","Q2":"Based on the four features of the bee.","Q3":"You learn if it was friendly or dangerous, but do not alter your bonus."},"question_order":[0,1,2],"trial_type":"survey-multi-choice","trial_index":9,"time_elapsed":395618,"internal_node_id":"0.0-3.0-4.0-2.0","subject_id":"5feb64b3341f42bb63200e36","study_id":"60edd13110225f80f9f3709b","session_id":"6196c81272ce4fa03f3e3d3f","condition":"full-information","relevant_dimensions":["wings","legs"],"bee_group":{"antennae":"X","wings":"1","pattern":"X","legs":"M"},"correct":true,"bonus":0.1000000000000008},{"rt":6487.700000017881,"stimulus":"<p>Congrats, you got everything right<br>When you're ready, click the button below to continue to the experiment.</p>","response":0,"trial_type":"html-button-response","trial_index":10,"time_elapsed":402107,"internal_node_id":"0.0-3.0-4.0-3.0","subject_id":"5feb64b3341f42bb63200e36","study_id":"60edd13110225f80f9f3709b","session_id":"6196c81272ce4fa03f3e3d3f","condition":"full-information","relevant_dimensions":["wings","legs"],"bee_group":{"antennae":"X","wings":"1","pattern":"X","legs":"M"},"bonus":0.1000000000000008},{"rt":9111.09999999404,"stimulus":"bees-with-color/bee-B2SM.svg","response":0,"trial_type":"image-button-response","trial_index":11,"time_elapsed":411220,"internal_node_id":"0.0-4.0-0.0","subject_id":"5feb64b3341f42bb63200e36","study_id":"60edd13110225f80f9f3709b","session_id":"6196c81272ce4fa03f3e3d3f","condition":"full-information","relevant_dimensions":["wings","legs"],"bee_group":{"antennae":"X","wings":"1","pattern":"X","legs":"M"},"action":"harvest","summary":"good-harvest","bonus":0.1000000000000008},{"rt":23224.100000023842,"stimulus":"\n                    <p><b>Action: <em>harvest</em></b></p>\n                    <p>This is the bee that you just saw.</p>\n                    <img src=\"bees-with-color/bee-B2SM.svg\" width=\"200\">\n                    <p><span class=\"greenText\"><b>Successful harvest!</b></span><br>Your pay has increased by $0.02. Your bonus pay is now $0.56.</p>\n            ","response":0,"trial_type":"html-button-response","trial_index":12,"time_elapsed":434446,"internal_node_id":"0.0-4.0-1.0","subject_id":"5feb64b3341f42bb63200e36","study_id":"60edd13110225f80f9f3709b","session_id":"6196c81272ce4fa03f3e3d3f","condition":"full-information","relevant_dimensions":["wings","legs"],"bee_group":{"antennae":"X","wings":"1","pattern":"X","legs":"M"},"bonus":0.1000000000000008},{"rt":2206.4000000059605,"stimulus":"bees-with-color/bee-A1SF.svg","response":0,"trial_type":"image-button-response","trial_index":13,"time_elapsed":436655,"internal_node_id":"0.0-4.0-0.1","subject_id":"5feb64b3341f42bb63200e36","study_id":"60edd13110225f80f9f3709b","session_id":"6196c81272ce4fa03f3e3d3f","condition":"full-information","relevant_dimensions":["wings","legs"],"bee_group":{"antennae":"X","wings":"1","pattern":"X","legs":"M"},"action":"harvest","summary":"good-harvest","bonus":0.1000000000000008},{"rt":11543.5,"stimulus":"\n                    <p><b>Action: <em>harvest</em></b></p>\n                    <p>This is the bee that you just saw.</p>\n                    <img src=\"bees-with-color/bee-A1SF.svg\" width=\"200\">\n                    <p><span class=\"greenText\"><b>Successful harvest!</b></span><br>Your pay has increased by $0.02. Your bonus pay is now $0.58.</p>\n            ","response":0,"trial_type":"html-button-response","trial_index":14,"time_elapsed":448200,"internal_node_id":"0.0-4.0-1.1","subject_id":"5feb64b3341f42bb63200e36","study_id":"60edd13110225f80f9f3709b","session_id":"6196c81272ce4fa03f3e3d3f","condition":"full-information","relevant_dimensions":["wings","legs"],"bee_group":{"antennae":"X","wings":"1","pattern":"X","legs":"M"},"bonus":0.1000000000000008},{"rt":4174.600000023842,"stimulus":"bees-with-color/bee-B1DF.svg","response":1,"trial_type":"image-button-response","trial_index":15,"time_elapsed":452376,"internal_node_id":"0.0-4.0-0.2","subject_id":"5feb64b3341f42bb63200e36","study_id":"60edd13110225f80f9f3709b","session_id":"6196c81272ce4fa03f3e3d3f","condition":"full-information","relevant_dimensions":["wings","legs"],"bee_group":{"antennae":"X","wings":"1","pattern":"X","legs":"M"},"action":"avoid","summary":"bad-avoid","bonus":0.1000000000000008},{"rt":16680.40000000596,"stimulus":"\n                    <p><b>Action: <em>avoid</em></b></p>\n                    <p>This is the bee that you just saw.</p>\n                    <img src=\"bees-with-color/bee-B1DF.svg\" width=\"200\">\n                    <p><span class=\"redText\">Bad choice,</span> the bee was friendly.<br>Your bonus pay is unchanged, and remains at $0.58.</p>\n            ","response":0,"trial_type":"html-button-response","trial_index":16,"time_elapsed":469058,"internal_node_id":"0.0-4.0-1.2","subject_id":"5feb64b3341f42bb63200e36","study_id":"60edd13110225f80f9f3709b","session_id":"6196c81272ce4fa03f3e3d3f","condition":"full-information","relevant_dimensions":["wings","legs"],"bee_group":{"antennae":"X","wings":"1","pattern":"X","legs":"M"},"bonus":0.1000000000000008},{"rt":1750.4000000059605,"stimulus":"bees-with-color/bee-A2DF.svg","response":1,"trial_type":"image-button-response","trial_index":17,"time_elapsed":470811,"internal_node_id":"0.0-4.0-0.3","subject_id":"5feb64b3341f42bb63200e36","study_id":"60edd13110225f80f9f3709b","session_id":"6196c81272ce4fa03f3e3d3f","condition":"full-information","relevant_dimensions":["wings","legs"],"bee_group":{"antennae":"X","wings":"1","pattern":"X","legs":"M"},"action":"avoid","summary":"bad-avoid","bonus":0.1000000000000008},{"rt":3095.300000011921,"stimulus":"\n                    <p><b>Action: <em>avoid</em></b></p>\n                    <p>This is the bee that you just saw.</p>\n                    <img src=\"bees-with-color/bee-A2DF.svg\" width=\"200\">\n                    <p><span class=\"redText\">Bad choice,</span> the bee was friendly.<br>Your bonus pay is unchanged, and remains at $0.58.</p>\n            ","response":0,"trial_type":"html-button-response","trial_index":18,"time_elapsed":473907,"internal_node_id":"0.0-4.0-1.3","subject_id":"5feb64b3341f42bb63200e36","study_id":"60edd13110225f80f9f3709b","session_id":"6196c81272ce4fa03f3e3d3f","condition":"full-information","relevant_dimensions":["wings","legs"],"bee_group":{"antennae":"X","wings":"1","pattern":"X","legs":"M"},"bonus":0.1000000000000008},{"rt":2358.5,"stimulus":"bees-with-color/bee-B1DM.svg","response":1,"trial_type":"image-button-response","trial_index":19,"time_elapsed":476267,"internal_node_id":"0.0-4.0-0.4","subject_id":"5feb64b3341f42bb63200e36","study_id":"60edd13110225f80f9f3709b","session_id":"6196c81272ce4fa03f3e3d3f","condition":"full-information","relevant_dimensions":["wings","legs"],"bee_group":{"antennae":"X","wings":"1","pattern":"X","legs":"M"},"action":"avoid","summary":"good-avoid","bonus":0.1000000000000008},{"rt":8063.800000011921,"stimulus":"\n                    <p><b>Action: <em>avoid</em></b></p>\n                    <p>This is the bee that you just saw.</p>\n                    <img src=\"bees-with-color/bee-B1DM.svg\" width=\"200\">\n                    <p><span class=\"greenText\">Good choice!</span>  This bee would have stung you.<br>Your bonus pay is unchanged, and remains at $0.58.</p>\n            ","response":0,"trial_type":"html-button-response","trial_index":20,"time_elapsed":484332,"internal_node_id":"0.0-4.0-1.4","subject_id":"5feb64b3341f42bb63200e36","study_id":"60edd13110225f80f9f3709b","session_id":"6196c81272ce4fa03f3e3d3f","condition":"full-information","relevant_dimensions":["wings","legs"],"bee_group":{"antennae":"X","wings":"1","pattern":"X","legs":"M"},"bonus":0.1000000000000008},{"rt":4439.0999999940395,"stimulus":"bees-with-color/bee-A1DM.svg","response":1,"trial_type":"image-button-response","trial_index":21,"time_elapsed":488772,"internal_node_id":"0.0-4.0-0.5","subject_id":"5feb64b3341f42bb63200e36","study_id":"60edd13110225f80f9f3709b","session_id":"6196c81272ce4fa03f3e3d3f","condition":"full-information","relevant_dimensions":["wings","legs"],"bee_group":{"antennae":"X","wings":"1","pattern":"X","legs":"M"},"action":"avoid","summary":"good-avoid","bonus":0.1000000000000008},{"rt":6824.300000011921,"stimulus":"\n                    <p><b>Action: <em>avoid</em></b></p>\n                    <p>This is the bee that you just saw.</p>\n                    <img src=\"bees-with-color/bee-A1DM.svg\" width=\"200\">\n                    <p><span class=\"greenText\">Good choice!</span>  This bee would have stung you.<br>Your bonus pay is unchanged, and remains at $0.58.</p>\n            ","response":0,"trial_type":"html-button-response","trial_index":22,"time_elapsed":495598,"internal_node_id":"0.0-4.0-1.5","subject_id":"5feb64b3341f42bb63200e36","study_id":"60edd13110225f80f9f3709b","session_id":"6196c81272ce4fa03f3e3d3f","condition":"full-information","relevant_dimensions":["wings","legs"],"bee_group":{"antennae":"X","wings":"1","pattern":"X","legs":"M"},"bonus":0.1000000000000008},{"rt":1469.5999999940395,"stimulus":"bees-with-color/bee-B2SF.svg","response":0,"trial_type":"image-button-response","trial_index":23,"time_elapsed":497069,"internal_node_id":"0.0-4.0-0.6","subject_id":"5feb64b3341f42bb63200e36","study_id":"60edd13110225f80f9f3709b","session_id":"6196c81272ce4fa03f3e3d3f","condition":"full-information","relevant_dimensions":["wings","legs"],"bee_group":{"antennae":"X","wings":"1","pattern":"X","legs":"M"},"action":"harvest","summary":"good-harvest","bonus":0.1000000000000008},{"rt":1431.5,"stimulus":"\n                    <p><b>Action: <em>harvest</em></b></p>\n                    <p>This is the bee that you just saw.</p>\n                    <img src=\"bees-with-color/bee-B2SF.svg\" width=\"200\">\n                    <p><span class=\"greenText\"><b>Successful harvest!</b></span><br>Your pay has increased by $0.02. Your bonus pay is now $0.60.</p>\n            ","response":0,"trial_type":"html-button-response","trial_index":24,"time_elapsed":498502,"internal_node_id":"0.0-4.0-1.6","subject_id":"5feb64b3341f42bb63200e36","study_id":"60edd13110225f80f9f3709b","session_id":"6196c81272ce4fa03f3e3d3f","condition":"full-information","relevant_dimensions":["wings","legs"],"bee_group":{"antennae":"X","wings":"1","pattern":"X","legs":"M"},"bonus":0.1000000000000008},{"rt":1542.1000000238419,"stimulus":"bees-with-color/bee-B2DF.svg","response":0,"trial_type":"image-button-response","trial_index":25,"time_elapsed":500046,"internal_node_id":"0.0-4.0-0.7","subject_id":"5feb64b3341f42bb63200e36","study_id":"60edd13110225f80f9f3709b","session_id":"6196c81272ce4fa03f3e3d3f","condition":"full-information","relevant_dimensions":["wings","legs"],"bee_group":{"antennae":"X","wings":"1","pattern":"X","legs":"M"},"action":"harvest","summary":"good-harvest","bonus":0.1000000000000008},{"rt":1150.9000000059605,"stimulus":"\n                    <p><b>Action: <em>harvest</em></b></p>\n                    <p>This is the bee that you just saw.</p>\n                    <img src=\"bees-with-color/bee-B2DF.svg\" width=\"200\">\n                    <p><span class=\"greenText\"><b>Successful harvest!</b></span><br>Your pay has increased by $0.02. Your bonus pay is now $0.62.</p>\n            ","response":0,"trial_type":"html-button-response","trial_index":26,"time_elapsed":501198,"internal_node_id":"0.0-4.0-1.7","subject_id":"5feb64b3341f42bb63200e36","study_id":"60edd13110225f80f9f3709b","session_id":"6196c81272ce4fa03f3e3d3f","condition":"full-information","relevant_dimensions":["wings","legs"],"bee_group":{"antennae":"X","wings":"1","pattern":"X","legs":"M"},"bonus":0.1000000000000008},{"rt":2094.699999988079,"stimulus":"bees-with-color/bee-B1SF.svg","response":0,"trial_type":"image-button-response","trial_index":27,"time_elapsed":503294,"internal_node_id":"0.0-4.0-0.8","subject_id":"5feb64b3341f42bb63200e36","study_id":"60edd13110225f80f9f3709b","session_id":"6196c81272ce4fa03f3e3d3f","condition":"full-information","relevant_dimensions":["wings","legs"],"bee_group":{"antennae":"X","wings":"1","pattern":"X","legs":"M"},"action":"harvest","summary":"good-harvest","bonus":0.1000000000000008},{"rt":1206.8999999761581,"stimulus":"\n                    <p><b>Action: <em>harvest</em></b></p>\n                    <p>This is the bee that you just saw.</p>\n                    <img src=\"bees-with-color/bee-B1SF.svg\" width=\"200\">\n                    <p><span class=\"greenText\"><b>Successful harvest!</b></span><br>Your pay has increased by $0.02. Your bonus pay is now $0.64.</p>\n            ","response":0,"trial_type":"html-button-response","trial_index":28,"time_elapsed":504502,"internal_node_id":"0.0-4.0-1.8","subject_id":"5feb64b3341f42bb63200e36","study_id":"60edd13110225f80f9f3709b","session_id":"6196c81272ce4fa03f3e3d3f","condition":"full-information","relevant_dimensions":["wings","legs"],"bee_group":{"antennae":"X","wings":"1","pattern":"X","legs":"M"},"bonus":0.1000000000000008},{"rt":1454.7000000178814,"stimulus":"bees-with-color/bee-A2SF.svg","response":0,"trial_type":"image-button-response","trial_index":29,"time_elapsed":505958,"internal_node_id":"0.0-4.0-0.9","subject_id":"5feb64b3341f42bb63200e36","study_id":"60edd13110225f80f9f3709b","session_id":"6196c81272ce4fa03f3e3d3f","condition":"full-information","relevant_dimensions":["wings","legs"],"bee_group":{"antennae":"X","wings":"1","pattern":"X","legs":"M"},"action":"harvest","summary":"good-harvest","bonus":0.1000000000000008},{"rt":983,"stimulus":"\n                    <p><b>Action: <em>harvest</em></b></p>\n                    <p>This is the bee that you just saw.</p>\n                    <img src=\"bees-with-color/bee-A2SF.svg\" width=\"200\">\n                    <p><span class=\"greenText\"><b>Successful harvest!</b></span><br>Your pay has increased by $0.02. Your bonus pay is now $0.66.</p>\n            ","response":0,"trial_type":"html-button-response","trial_index":30,"time_elapsed":506943,"internal_node_id":"0.0-4.0-1.9","subject_id":"5feb64b3341f42bb63200e36","study_id":"60edd13110225f80f9f3709b","session_id":"6196c81272ce4fa03f3e3d3f","condition":"full-information","relevant_dimensions":["wings","legs"],"bee_group":{"antennae":"X","wings":"1","pattern":"X","legs":"M"},"bonus":0.1000000000000008},{"rt":1839,"stimulus":"bees-with-color/bee-A1SM.svg","response":0,"trial_type":"image-button-response","trial_index":31,"time_elapsed":508783,"internal_node_id":"0.0-4.0-0.10","subject_id":"5feb64b3341f42bb63200e36","study_id":"60edd13110225f80f9f3709b","session_id":"6196c81272ce4fa03f3e3d3f","condition":"full-information","relevant_dimensions":["wings","legs"],"bee_group":{"antennae":"X","wings":"1","pattern":"X","legs":"M"},"action":"harvest","summary":"bad-harvest","bonus":0.1000000000000008},{"rt":1663,"stimulus":"\n                    <p><b>Action: <em>harvest</em></b></p>\n                    <p>This is the bee that you just saw.</p>\n                    <img src=\"bees-with-color/bee-A1SM.svg\" width=\"200\">\n                    <p><span class=\"redText\">Bad choice, the bee was angry.</span><br><b>You have been stung!</b><br>Your pay has been decreased by $0.10. Your bonus pay is now $0.56.</p>\n            ","response":0,"trial_type":"html-button-response","trial_index":32,"time_elapsed":510447,"internal_node_id":"0.0-4.0-1.10","subject_id":"5feb64b3341f42bb63200e36","study_id":"60edd13110225f80f9f3709b","session_id":"6196c81272ce4fa03f3e3d3f","condition":"full-information","relevant_dimensions":["wings","legs"],"bee_group":{"antennae":"X","wings":"1","pattern":"X","legs":"M"},"bonus":0.1000000000000008},{"rt":2439,"stimulus":"bees-with-color/bee-A1DF.svg","response":0,"trial_type":"image-button-response","trial_index":33,"time_elapsed":512887,"internal_node_id":"0.0-4.0-0.11","subject_id":"5feb64b3341f42bb63200e36","study_id":"60edd13110225f80f9f3709b","session_id":"6196c81272ce4fa03f3e3d3f","condition":"full-information","relevant_dimensions":["wings","legs"],"bee_group":{"antennae":"X","wings":"1","pattern":"X","legs":"M"},"action":"harvest","summary":"good-harvest","bonus":0.1000000000000008},{"rt":790.8000000119209,"stimulus":"\n                    <p><b>Action: <em>harvest</em></b></p>\n                    <p>This is the bee that you just saw.</p>\n                    <img src=\"bees-with-color/bee-A1DF.svg\" width=\"200\">\n                    <p><span class=\"greenText\"><b>Successful harvest!</b></span><br>Your pay has increased by $0.02. Your bonus pay is now $0.58.</p>\n            ","response":0,"trial_type":"html-button-response","trial_index":34,"time_elapsed":513679,"internal_node_id":"0.0-4.0-1.11","subject_id":"5feb64b3341f42bb63200e36","study_id":"60edd13110225f80f9f3709b","session_id":"6196c81272ce4fa03f3e3d3f","condition":"full-information","relevant_dimensions":["wings","legs"],"bee_group":{"antennae":"X","wings":"1","pattern":"X","legs":"M"},"bonus":0.1000000000000008},{"rt":2774.7999999821186,"stimulus":"bees-with-color/bee-B2DM.svg","response":0,"trial_type":"image-button-response","trial_index":35,"time_elapsed":516455,"internal_node_id":"0.0-4.0-0.12","subject_id":"5feb64b3341f42bb63200e36","study_id":"60edd13110225f80f9f3709b","session_id":"6196c81272ce4fa03f3e3d3f","condition":"full-information","relevant_dimensions":["wings","legs"],"bee_group":{"antennae":"X","wings":"1","pattern":"X","legs":"M"},"action":"harvest","summary":"good-harvest","bonus":0.1000000000000008},{"rt":734.5999999940395,"stimulus":"\n                    <p><b>Action: <em>harvest</em></b></p>\n                    <p>This is the bee that you just saw.</p>\n                    <img src=\"bees-with-color/bee-B2DM.svg\" width=\"200\">\n                    <p><span class=\"greenText\"><b>Successful harvest!</b></span><br>Your pay has increased by $0.02. Your bonus pay is now $0.60.</p>\n            ","response":0,"trial_type":"html-button-response","trial_index":36,"time_elapsed":517191,"internal_node_id":"0.0-4.0-1.12","subject_id":"5feb64b3341f42bb63200e36","study_id":"60edd13110225f80f9f3709b","session_id":"6196c81272ce4fa03f3e3d3f","condition":"full-information","relevant_dimensions":["wings","legs"],"bee_group":{"antennae":"X","wings":"1","pattern":"X","legs":"M"},"bonus":0.1000000000000008},{"rt":3175.300000011921,"stimulus":"bees-with-color/bee-B1SM.svg","response":1,"trial_type":"image-button-response","trial_index":37,"time_elapsed":520368,"internal_node_id":"0.0-4.0-0.13","subject_id":"5feb64b3341f42bb63200e36","study_id":"60edd13110225f80f9f3709b","session_id":"6196c81272ce4fa03f3e3d3f","condition":"full-information","relevant_dimensions":["wings","legs"],"bee_group":{"antennae":"X","wings":"1","pattern":"X","legs":"M"},"action":"avoid","summary":"good-avoid","bonus":0.1000000000000008},{"rt":1142.5999999940395,"stimulus":"\n                    <p><b>Action: <em>avoid</em></b></p>\n                    <p>This is the bee that you just saw.</p>\n                    <img src=\"bees-with-color/bee-B1SM.svg\" width=\"200\">\n                    <p><span class=\"greenText\">Good choice!</span>  This bee would have stung you.<br>Your bonus pay is unchanged, and remains at $0.60.</p>\n            ","response":0,"trial_type":"html-button-response","trial_index":38,"time_elapsed":521512,"internal_node_id":"0.0-4.0-1.13","subject_id":"5feb64b3341f42bb63200e36","study_id":"60edd13110225f80f9f3709b","session_id":"6196c81272ce4fa03f3e3d3f","condition":"full-information","relevant_dimensions":["wings","legs"],"bee_group":{"antennae":"X","wings":"1","pattern":"X","legs":"M"},"bonus":0.1000000000000008},{"rt":2766.800000011921,"stimulus":"bees-with-color/bee-A2DM.svg","response":1,"trial_type":"image-button-response","trial_index":39,"time_elapsed":524280,"internal_node_id":"0.0-4.0-0.14","subject_id":"5feb64b3341f42bb63200e36","study_id":"60edd13110225f80f9f3709b","session_id":"6196c81272ce4fa03f3e3d3f","condition":"full-information","relevant_dimensions":["wings","legs"],"bee_group":{"antennae":"X","wings":"1","pattern":"X","legs":"M"},"action":"avoid","summary":"bad-avoid","bonus":0.1000000000000008},{"rt":1422.8999999761581,"stimulus":"\n                    <p><b>Action: <em>avoid</em></b></p>\n                    <p>This is the bee that you just saw.</p>\n                    <img src=\"bees-with-color/bee-A2DM.svg\" width=\"200\">\n                    <p><span class=\"redText\">Bad choice,</span> the bee was friendly.<br>Your bonus pay is unchanged, and remains at $0.60.</p>\n            ","response":0,"trial_type":"html-button-response","trial_index":40,"time_elapsed":525704,"internal_node_id":"0.0-4.0-1.14","subject_id":"5feb64b3341f42bb63200e36","study_id":"60edd13110225f80f9f3709b","session_id":"6196c81272ce4fa03f3e3d3f","condition":"full-information","relevant_dimensions":["wings","legs"],"bee_group":{"antennae":"X","wings":"1","pattern":"X","legs":"M"},"bonus":0.1000000000000008},{"rt":2022.9000000059605,"stimulus":"bees-with-color/bee-A2SM.svg","response":1,"trial_type":"image-button-response","trial_index":41,"time_elapsed":527729,"internal_node_id":"0.0-4.0-0.15","subject_id":"5feb64b3341f42bb63200e36","study_id":"60edd13110225f80f9f3709b","session_id":"6196c81272ce4fa03f3e3d3f","condition":"full-information","relevant_dimensions":["wings","legs"],"bee_group":{"antennae":"X","wings":"1","pattern":"X","legs":"M"},"action":"avoid","summary":"bad-avoid","bonus":0.1000000000000008},{"rt":1622.7999999821186,"stimulus":"\n                    <p><b>Action: <em>avoid</em></b></p>\n                    <p>This is the bee that you just saw.</p>\n                    <img src=\"bees-with-color/bee-A2SM.svg\" width=\"200\">\n                    <p><span class=\"redText\">Bad choice,</span> the bee was friendly.<br>Your bonus pay is unchanged, and remains at $0.60.</p>\n            ","response":0,"trial_type":"html-button-response","trial_index":42,"time_elapsed":529353,"internal_node_id":"0.0-4.0-1.15","subject_id":"5feb64b3341f42bb63200e36","study_id":"60edd13110225f80f9f3709b","session_id":"6196c81272ce4fa03f3e3d3f","condition":"full-information","relevant_dimensions":["wings","legs"],"bee_group":{"antennae":"X","wings":"1","pattern":"X","legs":"M"},"bonus":0.1000000000000008},{"rt":1703,"stimulus":"bees-with-color/bee-B1SF.svg","response":0,"trial_type":"image-button-response","trial_index":43,"time_elapsed":531057,"internal_node_id":"0.0-4.0-0.16","subject_id":"5feb64b3341f42bb63200e36","study_id":"60edd13110225f80f9f3709b","session_id":"6196c81272ce4fa03f3e3d3f","condition":"full-information","relevant_dimensions":["wings","legs"],"bee_group":{"antennae":"X","wings":"1","pattern":"X","legs":"M"},"action":"harvest","summary":"good-harvest","bonus":0.1000000000000008},{"rt":767,"stimulus":"\n                    <p><b>Action: <em>harvest</em></b></p>\n                    <p>This is the bee that you just saw.</p>\n                    <img src=\"bees-with-color/bee-B1SF.svg\" width=\"200\">\n                    <p><span class=\"greenText\"><b>Successful harvest!</b></span><br>Your pay has increased by $0.02. Your bonus pay is now $0.62.</p>\n            ","response":0,"trial_type":"html-button-response","trial_index":44,"time_elapsed":531825,"internal_node_id":"0.0-4.0-1.16","subject_id":"5feb64b3341f42bb63200e36","study_id":"60edd13110225f80f9f3709b","session_id":"6196c81272ce4fa03f3e3d3f","condition":"full-information","relevant_dimensions":["wings","legs"],"bee_group":{"antennae":"X","wings":"1","pattern":"X","legs":"M"},"bonus":0.1000000000000008},{"rt":1015,"stimulus":"bees-with-color/bee-A2SF.svg","response":0,"trial_type":"image-button-response","trial_index":45,"time_elapsed":532841,"internal_node_id":"0.0-4.0-0.17","subject_id":"5feb64b3341f42bb63200e36","study_id":"60edd13110225f80f9f3709b","session_id":"6196c81272ce4fa03f3e3d3f","condition":"full-information","relevant_dimensions":["wings","legs"],"bee_group":{"antennae":"X","wings":"1","pattern":"X","legs":"M"},"action":"harvest","summary":"good-harvest","bonus":0.1000000000000008},{"rt":847.0999999940395,"stimulus":"\n                    <p><b>Action: <em>harvest</em></b></p>\n                    <p>This is the bee that you just saw.</p>\n                    <img src=\"bees-with-color/bee-A2SF.svg\" width=\"200\">\n                    <p><span class=\"greenText\"><b>Successful harvest!</b></span><br>Your pay has increased by $0.02. Your bonus pay is now $0.64.</p>\n            ","response":0,"trial_type":"html-button-response","trial_index":46,"time_elapsed":533689,"internal_node_id":"0.0-4.0-1.17","subject_id":"5feb64b3341f42bb63200e36","study_id":"60edd13110225f80f9f3709b","session_id":"6196c81272ce4fa03f3e3d3f","condition":"full-information","relevant_dimensions":["wings","legs"],"bee_group":{"antennae":"X","wings":"1","pattern":"X","legs":"M"},"bonus":0.1000000000000008},{"rt":1735.199999988079,"stimulus":"bees-with-color/bee-B2SM.svg","response":0,"trial_type":"image-button-response","trial_index":47,"time_elapsed":535425,"internal_node_id":"0.0-4.0-0.18","subject_id":"5feb64b3341f42bb63200e36","study_id":"60edd13110225f80f9f3709b","session_id":"6196c81272ce4fa03f3e3d3f","condition":"full-information","relevant_dimensions":["wings","legs"],"bee_group":{"antennae":"X","wings":"1","pattern":"X","legs":"M"},"action":"harvest","summary":"good-harvest","bonus":0.1000000000000008},{"rt":623.1000000238419,"stimulus":"\n                    <p><b>Action: <em>harvest</em></b></p>\n                    <p>This is the bee that you just saw.</p>\n                    <img src=\"bees-with-color/bee-B2SM.svg\" width=\"200\">\n                    <p><span class=\"greenText\"><b>Successful harvest!</b></span><br>Your pay has increased by $0.02. Your bonus pay is now $0.66.</p>\n            ","response":0,"trial_type":"html-button-response","trial_index":48,"time_elapsed":536049,"internal_node_id":"0.0-4.0-1.18","subject_id":"5feb64b3341f42bb63200e36","study_id":"60edd13110225f80f9f3709b","session_id":"6196c81272ce4fa03f3e3d3f","condition":"full-information","relevant_dimensions":["wings","legs"],"bee_group":{"antennae":"X","wings":"1","pattern":"X","legs":"M"},"bonus":0.1000000000000008},{"rt":1247.3999999761581,"stimulus":"bees-with-color/bee-B2DF.svg","response":0,"trial_type":"image-button-response","trial_index":49,"time_elapsed":537298,"internal_node_id":"0.0-4.0-0.19","subject_id":"5feb64b3341f42bb63200e36","study_id":"60edd13110225f80f9f3709b","session_id":"6196c81272ce4fa03f3e3d3f","condition":"full-information","relevant_dimensions":["wings","legs"],"bee_group":{"antennae":"X","wings":"1","pattern":"X","legs":"M"},"action":"harvest","summary":"good-harvest","bonus":0.1000000000000008},{"rt":494.59999999403954,"stimulus":"\n                    <p><b>Action: <em>harvest</em></b></p>\n                    <p>This is the bee that you just saw.</p>\n                    <img src=\"bees-with-color/bee-B2DF.svg\" width=\"200\">\n                    <p><span class=\"greenText\"><b>Successful harvest!</b></span><br>Your pay has increased by $0.02. Your bonus pay is now $0.68.</p>\n            ","response":0,"trial_type":"html-button-response","trial_index":50,"time_elapsed":537794,"internal_node_id":"0.0-4.0-1.19","subject_id":"5feb64b3341f42bb63200e36","study_id":"60edd13110225f80f9f3709b","session_id":"6196c81272ce4fa03f3e3d3f","condition":"full-information","relevant_dimensions":["wings","legs"],"bee_group":{"antennae":"X","wings":"1","pattern":"X","legs":"M"},"bonus":0.1000000000000008},{"rt":952.0999999940395,"stimulus":"bees-with-color/bee-A1SF.svg","response":0,"trial_type":"image-button-response","trial_index":51,"time_elapsed":538747,"internal_node_id":"0.0-4.0-0.20","subject_id":"5feb64b3341f42bb63200e36","study_id":"60edd13110225f80f9f3709b","session_id":"6196c81272ce4fa03f3e3d3f","condition":"full-information","relevant_dimensions":["wings","legs"],"bee_group":{"antennae":"X","wings":"1","pattern":"X","legs":"M"},"action":"harvest","summary":"good-harvest","bonus":0.1000000000000008},{"rt":805.8999999761581,"stimulus":"\n                    <p><b>Action: <em>harvest</em></b></p>\n                    <p>This is the bee that you just saw.</p>\n                    <img src=\"bees-with-color/bee-A1SF.svg\" width=\"200\">\n                    <p><span class=\"greenText\"><b>Successful harvest!</b></span><br>Your pay has increased by $0.02. Your bonus pay is now $0.70.</p>\n            ","response":0,"trial_type":"html-button-response","trial_index":52,"time_elapsed":539554,"internal_node_id":"0.0-4.0-1.20","subject_id":"5feb64b3341f42bb63200e36","study_id":"60edd13110225f80f9f3709b","session_id":"6196c81272ce4fa03f3e3d3f","condition":"full-information","relevant_dimensions":["wings","legs"],"bee_group":{"antennae":"X","wings":"1","pattern":"X","legs":"M"},"bonus":0.1000000000000008},{"rt":1119.300000011921,"stimulus":"bees-with-color/bee-B1SM.svg","response":0,"trial_type":"image-button-response","trial_index":53,"time_elapsed":540674,"internal_node_id":"0.0-4.0-0.21","subject_id":"5feb64b3341f42bb63200e36","study_id":"60edd13110225f80f9f3709b","session_id":"6196c81272ce4fa03f3e3d3f","condition":"full-information","relevant_dimensions":["wings","legs"],"bee_group":{"antennae":"X","wings":"1","pattern":"X","legs":"M"},"action":"harvest","summary":"bad-harvest","bonus":0.1000000000000008},{"rt":1111,"stimulus":"\n                    <p><b>Action: <em>harvest</em></b></p>\n                    <p>This is the bee that you just saw.</p>\n                    <img src=\"bees-with-color/bee-B1SM.svg\" width=\"200\">\n                    <p><span class=\"redText\">Bad choice, the bee was angry.</span><br><b>You have been stung!</b><br>Your pay has been decreased by $0.10. Your bonus pay is now $0.60.</p>\n            ","response":0,"trial_type":"html-button-response","trial_index":54,"time_elapsed":541786,"internal_node_id":"0.0-4.0-1.21","subject_id":"5feb64b3341f42bb63200e36","study_id":"60edd13110225f80f9f3709b","session_id":"6196c81272ce4fa03f3e3d3f","condition":"full-information","relevant_dimensions":["wings","legs"],"bee_group":{"antennae":"X","wings":"1","pattern":"X","legs":"M"},"bonus":0.1000000000000008},{"rt":1134.7999999821186,"stimulus":"bees-with-color/bee-B1DM.svg","response":0,"trial_type":"image-button-response","trial_index":55,"time_elapsed":542922,"internal_node_id":"0.0-4.0-0.22","subject_id":"5feb64b3341f42bb63200e36","study_id":"60edd13110225f80f9f3709b","session_id":"6196c81272ce4fa03f3e3d3f","condition":"full-information","relevant_dimensions":["wings","legs"],"bee_group":{"antennae":"X","wings":"1","pattern":"X","legs":"M"},"action":"harvest","summary":"bad-harvest","bonus":0.1000000000000008},{"rt":511.09999999403954,"stimulus":"\n                    <p><b>Action: <em>harvest</em></b></p>\n                    <p>This is the bee that you just saw.</p>\n                    <img src=\"bees-with-color/bee-B1DM.svg\" width=\"200\">\n                    <p><span class=\"redText\">Bad choice, the bee was angry.</span><br><b>You have been stung!</b><br>Your pay has been decreased by $0.10. Your bonus pay is now $0.50.</p>\n            ","response":0,"trial_type":"html-button-response","trial_index":56,"time_elapsed":543434,"internal_node_id":"0.0-4.0-1.22","subject_id":"5feb64b3341f42bb63200e36","study_id":"60edd13110225f80f9f3709b","session_id":"6196c81272ce4fa03f3e3d3f","condition":"full-information","relevant_dimensions":["wings","legs"],"bee_group":{"antennae":"X","wings":"1","pattern":"X","legs":"M"},"bonus":0.1000000000000008},{"rt":1335.300000011921,"stimulus":"bees-with-color/bee-A2DF.svg","response":0,"trial_type":"image-button-response","trial_index":57,"time_elapsed":544770,"internal_node_id":"0.0-4.0-0.23","subject_id":"5feb64b3341f42bb63200e36","study_id":"60edd13110225f80f9f3709b","session_id":"6196c81272ce4fa03f3e3d3f","condition":"full-information","relevant_dimensions":["wings","legs"],"bee_group":{"antennae":"X","wings":"1","pattern":"X","legs":"M"},"action":"harvest","summary":"good-harvest","bonus":0.1000000000000008},{"rt":622.5,"stimulus":"\n                    <p><b>Action: <em>harvest</em></b></p>\n                    <p>This is the bee that you just saw.</p>\n                    <img src=\"bees-with-color/bee-A2DF.svg\" width=\"200\">\n                    <p><span class=\"greenText\"><b>Successful harvest!</b></span><br>Your pay has increased by $0.02. Your bonus pay is now $0.52.</p>\n            ","response":0,"trial_type":"html-button-response","trial_index":58,"time_elapsed":545394,"internal_node_id":"0.0-4.0-1.23","subject_id":"5feb64b3341f42bb63200e36","study_id":"60edd13110225f80f9f3709b","session_id":"6196c81272ce4fa03f3e3d3f","condition":"full-information","relevant_dimensions":["wings","legs"],"bee_group":{"antennae":"X","wings":"1","pattern":"X","legs":"M"},"bonus":0.1000000000000008},{"rt":1823.2999999821186,"stimulus":"bees-with-color/bee-A1DM.svg","response":1,"trial_type":"image-button-response","trial_index":59,"time_elapsed":547219,"internal_node_id":"0.0-4.0-0.24","subject_id":"5feb64b3341f42bb63200e36","study_id":"60edd13110225f80f9f3709b","session_id":"6196c81272ce4fa03f3e3d3f","condition":"full-information","relevant_dimensions":["wings","legs"],"bee_group":{"antennae":"X","wings":"1","pattern":"X","legs":"M"},"action":"avoid","summary":"good-avoid","bonus":0.1000000000000008},{"rt":695,"stimulus":"\n                    <p><b>Action: <em>avoid</em></b></p>\n                    <p>This is the bee that you just saw.</p>\n                    <img src=\"bees-with-color/bee-A1DM.svg\" width=\"200\">\n                    <p><span class=\"greenText\">Good choice!</span>  This bee would have stung you.<br>Your bonus pay is unchanged, and remains at $0.52.</p>\n            ","response":0,"trial_type":"html-button-response","trial_index":60,"time_elapsed":547915,"internal_node_id":"0.0-4.0-1.24","subject_id":"5feb64b3341f42bb63200e36","study_id":"60edd13110225f80f9f3709b","session_id":"6196c81272ce4fa03f3e3d3f","condition":"full-information","relevant_dimensions":["wings","legs"],"bee_group":{"antennae":"X","wings":"1","pattern":"X","legs":"M"},"bonus":0.1000000000000008},{"rt":2127.100000023842,"stimulus":"bees-with-color/bee-B1DF.svg","response":0,"trial_type":"image-button-response","trial_index":61,"time_elapsed":550044,"internal_node_id":"0.0-4.0-0.25","subject_id":"5feb64b3341f42bb63200e36","study_id":"60edd13110225f80f9f3709b","session_id":"6196c81272ce4fa03f3e3d3f","condition":"full-information","relevant_dimensions":["wings","legs"],"bee_group":{"antennae":"X","wings":"1","pattern":"X","legs":"M"},"action":"harvest","summary":"good-harvest","bonus":0.1000000000000008},{"rt":526.1999999880791,"stimulus":"\n                    <p><b>Action: <em>harvest</em></b></p>\n                    <p>This is the bee that you just saw.</p>\n                    <img src=\"bees-with-color/bee-B1DF.svg\" width=\"200\">\n                    <p><span class=\"greenText\"><b>Successful harvest!</b></span><br>Your pay has increased by $0.02. Your bonus pay is now $0.54.</p>\n            ","response":0,"trial_type":"html-button-response","trial_index":62,"time_elapsed":550571,"internal_node_id":"0.0-4.0-1.25","subject_id":"5feb64b3341f42bb63200e36","study_id":"60edd13110225f80f9f3709b","session_id":"6196c81272ce4fa03f3e3d3f","condition":"full-information","relevant_dimensions":["wings","legs"],"bee_group":{"antennae":"X","wings":"1","pattern":"X","legs":"M"},"bonus":0.1000000000000008},{"rt":1207.0999999940395,"stimulus":"bees-with-color/bee-A1SM.svg","response":0,"trial_type":"image-button-response","trial_index":63,"time_elapsed":551779,"internal_node_id":"0.0-4.0-0.26","subject_id":"5feb64b3341f42bb63200e36","study_id":"60edd13110225f80f9f3709b","session_id":"6196c81272ce4fa03f3e3d3f","condition":"full-information","relevant_dimensions":["wings","legs"],"bee_group":{"antennae":"X","wings":"1","pattern":"X","legs":"M"},"action":"harvest","summary":"bad-harvest","bonus":0.1000000000000008},{"rt":494.90000000596046,"stimulus":"\n                    <p><b>Action: <em>harvest</em></b></p>\n                    <p>This is the bee that you just saw.</p>\n                    <img src=\"bees-with-color/bee-A1SM.svg\" width=\"200\">\n                    <p><span class=\"redText\">Bad choice, the bee was angry.</span><br><b>You have been stung!</b><br>Your pay has been decreased by $0.10. Your bonus pay is now $0.44.</p>\n            ","response":0,"trial_type":"html-button-response","trial_index":64,"time_elapsed":552275,"internal_node_id":"0.0-4.0-1.26","subject_id":"5feb64b3341f42bb63200e36","study_id":"60edd13110225f80f9f3709b","session_id":"6196c81272ce4fa03f3e3d3f","condition":"full-information","relevant_dimensions":["wings","legs"],"bee_group":{"antennae":"X","wings":"1","pattern":"X","legs":"M"},"bonus":0.1000000000000008},{"rt":1695.1000000238419,"stimulus":"bees-with-color/bee-B2DM.svg","response":0,"trial_type":"image-button-response","trial_index":65,"time_elapsed":553971,"internal_node_id":"0.0-4.0-0.27","subject_id":"5feb64b3341f42bb63200e36","study_id":"60edd13110225f80f9f3709b","session_id":"6196c81272ce4fa03f3e3d3f","condition":"full-information","relevant_dimensions":["wings","legs"],"bee_group":{"antennae":"X","wings":"1","pattern":"X","legs":"M"},"action":"harvest","summary":"good-harvest","bonus":0.1000000000000008},{"rt":974.9000000059605,"stimulus":"\n                    <p><b>Action: <em>harvest</em></b></p>\n                    <p>This is the bee that you just saw.</p>\n                    <img src=\"bees-with-color/bee-B2DM.svg\" width=\"200\">\n                    <p><span class=\"greenText\"><b>Successful harvest!</b></span><br>Your pay has increased by $0.02. Your bonus pay is now $0.46.</p>\n            ","response":0,"trial_type":"html-button-response","trial_index":66,"time_elapsed":554948,"internal_node_id":"0.0-4.0-1.27","subject_id":"5feb64b3341f42bb63200e36","study_id":"60edd13110225f80f9f3709b","session_id":"6196c81272ce4fa03f3e3d3f","condition":"full-information","relevant_dimensions":["wings","legs"],"bee_group":{"antennae":"X","wings":"1","pattern":"X","legs":"M"},"bonus":0.1000000000000008},{"rt":2191.0999999940395,"stimulus":"bees-with-color/bee-B2SF.svg","response":0,"trial_type":"image-button-response","trial_index":67,"time_elapsed":557140,"internal_node_id":"0.0-4.0-0.28","subject_id":"5feb64b3341f42bb63200e36","study_id":"60edd13110225f80f9f3709b","session_id":"6196c81272ce4fa03f3e3d3f","condition":"full-information","relevant_dimensions":["wings","legs"],"bee_group":{"antennae":"X","wings":"1","pattern":"X","legs":"M"},"action":"harvest","summary":"good-harvest","bonus":0.1000000000000008},{"rt":503,"stimulus":"\n                    <p><b>Action: <em>harvest</em></b></p>\n                    <p>This is the bee that you just saw.</p>\n                    <img src=\"bees-with-color/bee-B2SF.svg\" width=\"200\">\n                    <p><span class=\"greenText\"><b>Successful harvest!</b></span><br>Your pay has increased by $0.02. Your bonus pay is now $0.48.</p>\n            ","response":0,"trial_type":"html-button-response","trial_index":68,"time_elapsed":557644,"internal_node_id":"0.0-4.0-1.28","subject_id":"5feb64b3341f42bb63200e36","study_id":"60edd13110225f80f9f3709b","session_id":"6196c81272ce4fa03f3e3d3f","condition":"full-information","relevant_dimensions":["wings","legs"],"bee_group":{"antennae":"X","wings":"1","pattern":"X","legs":"M"},"bonus":0.1000000000000008},{"rt":1574.9000000059605,"stimulus":"bees-with-color/bee-A2DM.svg","response":1,"trial_type":"image-button-response","trial_index":69,"time_elapsed":559220,"internal_node_id":"0.0-4.0-0.29","subject_id":"5feb64b3341f42bb63200e36","study_id":"60edd13110225f80f9f3709b","session_id":"6196c81272ce4fa03f3e3d3f","condition":"full-information","relevant_dimensions":["wings","legs"],"bee_group":{"antennae":"X","wings":"1","pattern":"X","legs":"M"},"action":"avoid","summary":"bad-avoid","bonus":0.1000000000000008},{"rt":702.9000000059605,"stimulus":"\n                    <p><b>Action: <em>avoid</em></b></p>\n                    <p>This is the bee that you just saw.</p>\n                    <img src=\"bees-with-color/bee-A2DM.svg\" width=\"200\">\n                    <p><span class=\"redText\">Bad choice,</span> the bee was friendly.<br>Your bonus pay is unchanged, and remains at $0.48.</p>\n            ","response":0,"trial_type":"html-button-response","trial_index":70,"time_elapsed":559924,"internal_node_id":"0.0-4.0-1.29","subject_id":"5feb64b3341f42bb63200e36","study_id":"60edd13110225f80f9f3709b","session_id":"6196c81272ce4fa03f3e3d3f","condition":"full-information","relevant_dimensions":["wings","legs"],"bee_group":{"antennae":"X","wings":"1","pattern":"X","legs":"M"},"bonus":0.1000000000000008},{"rt":2094.9000000059605,"stimulus":"bees-with-color/bee-A1DF.svg","response":0,"trial_type":"image-button-response","trial_index":71,"time_elapsed":562020,"internal_node_id":"0.0-4.0-0.30","subject_id":"5feb64b3341f42bb63200e36","study_id":"60edd13110225f80f9f3709b","session_id":"6196c81272ce4fa03f3e3d3f","condition":"full-information","relevant_dimensions":["wings","legs"],"bee_group":{"antennae":"X","wings":"1","pattern":"X","legs":"M"},"action":"harvest","summary":"good-harvest","bonus":0.1000000000000008},{"rt":566.7000000178814,"stimulus":"\n                    <p><b>Action: <em>harvest</em></b></p>\n                    <p>This is the bee that you just saw.</p>\n                    <img src=\"bees-with-color/bee-A1DF.svg\" width=\"200\">\n                    <p><span class=\"greenText\"><b>Successful harvest!</b></span><br>Your pay has increased by $0.02. Your bonus pay is now $0.50.</p>\n            ","response":0,"trial_type":"html-button-response","trial_index":72,"time_elapsed":562588,"internal_node_id":"0.0-4.0-1.30","subject_id":"5feb64b3341f42bb63200e36","study_id":"60edd13110225f80f9f3709b","session_id":"6196c81272ce4fa03f3e3d3f","condition":"full-information","relevant_dimensions":["wings","legs"],"bee_group":{"antennae":"X","wings":"1","pattern":"X","legs":"M"},"bonus":0.1000000000000008},{"rt":1591.199999988079,"stimulus":"bees-with-color/bee-A2SM.svg","response":1,"trial_type":"image-button-response","trial_index":73,"time_elapsed":564181,"internal_node_id":"0.0-4.0-0.31","subject_id":"5feb64b3341f42bb63200e36","study_id":"60edd13110225f80f9f3709b","session_id":"6196c81272ce4fa03f3e3d3f","condition":"full-information","relevant_dimensions":["wings","legs"],"bee_group":{"antennae":"X","wings":"1","pattern":"X","legs":"M"},"action":"avoid","summary":"bad-avoid","bonus":0.1000000000000008},{"rt":558.6999999880791,"stimulus":"\n                    <p><b>Action: <em>avoid</em></b></p>\n                    <p>This is the bee that you just saw.</p>\n                    <img src=\"bees-with-color/bee-A2SM.svg\" width=\"200\">\n                    <p><span class=\"redText\">Bad choice,</span> the bee was friendly.<br>Your bonus pay is unchanged, and remains at $0.50.</p>\n            ","response":0,"trial_type":"html-button-response","trial_index":74,"time_elapsed":564741,"internal_node_id":"0.0-4.0-1.31","subject_id":"5feb64b3341f42bb63200e36","study_id":"60edd13110225f80f9f3709b","session_id":"6196c81272ce4fa03f3e3d3f","condition":"full-information","relevant_dimensions":["wings","legs"],"bee_group":{"antennae":"X","wings":"1","pattern":"X","legs":"M"},"bonus":0.1000000000000008},{"rt":1039,"stimulus":"bees-with-color/bee-B2SF.svg","response":0,"trial_type":"image-button-response","trial_index":75,"time_elapsed":565781,"internal_node_id":"0.0-4.0-0.32","subject_id":"5feb64b3341f42bb63200e36","study_id":"60edd13110225f80f9f3709b","session_id":"6196c81272ce4fa03f3e3d3f","condition":"full-information","relevant_dimensions":["wings","legs"],"bee_group":{"antennae":"X","wings":"1","pattern":"X","legs":"M"},"action":"harvest","summary":"good-harvest","bonus":0.1000000000000008},{"rt":534.6999999880791,"stimulus":"\n                    <p><b>Action: <em>harvest</em></b></p>\n                    <p>This is the bee that you just saw.</p>\n                    <img src=\"bees-with-color/bee-B2SF.svg\" width=\"200\">\n                    <p><span class=\"greenText\"><b>Successful harvest!</b></span><br>Your pay has increased by $0.02. Your bonus pay is now $0.52.</p>\n            ","response":0,"trial_type":"html-button-response","trial_index":76,"time_elapsed":566317,"internal_node_id":"0.0-4.0-1.32","subject_id":"5feb64b3341f42bb63200e36","study_id":"60edd13110225f80f9f3709b","session_id":"6196c81272ce4fa03f3e3d3f","condition":"full-information","relevant_dimensions":["wings","legs"],"bee_group":{"antennae":"X","wings":"1","pattern":"X","legs":"M"},"bonus":0.1000000000000008},{"rt":1623.199999988079,"stimulus":"bees-with-color/bee-B1DM.svg","response":0,"trial_type":"image-button-response","trial_index":77,"time_elapsed":567941,"internal_node_id":"0.0-4.0-0.33","subject_id":"5feb64b3341f42bb63200e36","study_id":"60edd13110225f80f9f3709b","session_id":"6196c81272ce4fa03f3e3d3f","condition":"full-information","relevant_dimensions":["wings","legs"],"bee_group":{"antennae":"X","wings":"1","pattern":"X","legs":"M"},"action":"harvest","summary":"bad-harvest","bonus":0.1000000000000008},{"rt":719.0999999940395,"stimulus":"\n                    <p><b>Action: <em>harvest</em></b></p>\n                    <p>This is the bee that you just saw.</p>\n                    <img src=\"bees-with-color/bee-B1DM.svg\" width=\"200\">\n                    <p><span class=\"redText\">Bad choice, the bee was angry.</span><br><b>You have been stung!</b><br>Your pay has been decreased by $0.10. Your bonus pay is now $0.42.</p>\n            ","response":0,"trial_type":"html-button-response","trial_index":78,"time_elapsed":568661,"internal_node_id":"0.0-4.0-1.33","subject_id":"5feb64b3341f42bb63200e36","study_id":"60edd13110225f80f9f3709b","session_id":"6196c81272ce4fa03f3e3d3f","condition":"full-information","relevant_dimensions":["wings","legs"],"bee_group":{"antennae":"X","wings":"1","pattern":"X","legs":"M"},"bonus":0.1000000000000008},{"rt":998.8999999761581,"stimulus":"bees-with-color/bee-B2SM.svg","response":0,"trial_type":"image-button-response","trial_index":79,"time_elapsed":569661,"internal_node_id":"0.0-4.0-0.34","subject_id":"5feb64b3341f42bb63200e36","study_id":"60edd13110225f80f9f3709b","session_id":"6196c81272ce4fa03f3e3d3f","condition":"full-information","relevant_dimensions":["wings","legs"],"bee_group":{"antennae":"X","wings":"1","pattern":"X","legs":"M"},"action":"harvest","summary":"good-harvest","bonus":0.1000000000000008},{"rt":471,"stimulus":"\n                    <p><b>Action: <em>harvest</em></b></p>\n                    <p>This is the bee that you just saw.</p>\n                    <img src=\"bees-with-color/bee-B2SM.svg\" width=\"200\">\n                    <p><span class=\"greenText\"><b>Successful harvest!</b></span><br>Your pay has increased by $0.02. Your bonus pay is now $0.44.</p>\n            ","response":0,"trial_type":"html-button-response","trial_index":80,"time_elapsed":570133,"internal_node_id":"0.0-4.0-1.34","subject_id":"5feb64b3341f42bb63200e36","study_id":"60edd13110225f80f9f3709b","session_id":"6196c81272ce4fa03f3e3d3f","condition":"full-information","relevant_dimensions":["wings","legs"],"bee_group":{"antennae":"X","wings":"1","pattern":"X","legs":"M"},"bonus":0.1000000000000008},{"rt":887.0999999940395,"stimulus":"bees-with-color/bee-A2DF.svg","response":0,"trial_type":"image-button-response","trial_index":81,"time_elapsed":571021,"internal_node_id":"0.0-4.0-0.35","subject_id":"5feb64b3341f42bb63200e36","study_id":"60edd13110225f80f9f3709b","session_id":"6196c81272ce4fa03f3e3d3f","condition":"full-information","relevant_dimensions":["wings","legs"],"bee_group":{"antennae":"X","wings":"1","pattern":"X","legs":"M"},"action":"harvest","summary":"good-harvest","bonus":0.1000000000000008},{"rt":439.10000002384186,"stimulus":"\n                    <p><b>Action: <em>harvest</em></b></p>\n                    <p>This is the bee that you just saw.</p>\n                    <img src=\"bees-with-color/bee-A2DF.svg\" width=\"200\">\n                    <p><span class=\"greenText\"><b>Successful harvest!</b></span><br>Your pay has increased by $0.02. Your bonus pay is now $0.46.</p>\n            ","response":0,"trial_type":"html-button-response","trial_index":82,"time_elapsed":571461,"internal_node_id":"0.0-4.0-1.35","subject_id":"5feb64b3341f42bb63200e36","study_id":"60edd13110225f80f9f3709b","session_id":"6196c81272ce4fa03f3e3d3f","condition":"full-information","relevant_dimensions":["wings","legs"],"bee_group":{"antennae":"X","wings":"1","pattern":"X","legs":"M"},"bonus":0.1000000000000008},{"rt":1759.300000011921,"stimulus":"bees-with-color/bee-A1DF.svg","response":0,"trial_type":"image-button-response","trial_index":83,"time_elapsed":573222,"internal_node_id":"0.0-4.0-0.36","subject_id":"5feb64b3341f42bb63200e36","study_id":"60edd13110225f80f9f3709b","session_id":"6196c81272ce4fa03f3e3d3f","condition":"full-information","relevant_dimensions":["wings","legs"],"bee_group":{"antennae":"X","wings":"1","pattern":"X","legs":"M"},"action":"harvest","summary":"good-harvest","bonus":0.1000000000000008},{"rt":470.90000000596046,"stimulus":"\n                    <p><b>Action: <em>harvest</em></b></p>\n                    <p>This is the bee that you just saw.</p>\n                    <img src=\"bees-with-color/bee-A1DF.svg\" width=\"200\">\n                    <p><span class=\"greenText\"><b>Successful harvest!</b></span><br>Your pay has increased by $0.02. Your bonus pay is now $0.48.</p>\n            ","response":0,"trial_type":"html-button-response","trial_index":84,"time_elapsed":573694,"internal_node_id":"0.0-4.0-1.36","subject_id":"5feb64b3341f42bb63200e36","study_id":"60edd13110225f80f9f3709b","session_id":"6196c81272ce4fa03f3e3d3f","condition":"full-information","relevant_dimensions":["wings","legs"],"bee_group":{"antennae":"X","wings":"1","pattern":"X","legs":"M"},"bonus":0.1000000000000008},{"rt":1191.2000000178814,"stimulus":"bees-with-color/bee-B1SM.svg","response":0,"trial_type":"image-button-response","trial_index":85,"time_elapsed":574886,"internal_node_id":"0.0-4.0-0.37","subject_id":"5feb64b3341f42bb63200e36","study_id":"60edd13110225f80f9f3709b","session_id":"6196c81272ce4fa03f3e3d3f","condition":"full-information","relevant_dimensions":["wings","legs"],"bee_group":{"antennae":"X","wings":"1","pattern":"X","legs":"M"},"action":"harvest","summary":"bad-harvest","bonus":0.1000000000000008},{"rt":575,"stimulus":"\n                    <p><b>Action: <em>harvest</em></b></p>\n                    <p>This is the bee that you just saw.</p>\n                    <img src=\"bees-with-color/bee-B1SM.svg\" width=\"200\">\n                    <p><span class=\"redText\">Bad choice, the bee was angry.</span><br><b>You have been stung!</b><br>Your pay has been decreased by $0.10. Your bonus pay is now $0.38.</p>\n            ","response":0,"trial_type":"html-button-response","trial_index":86,"time_elapsed":575462,"internal_node_id":"0.0-4.0-1.37","subject_id":"5feb64b3341f42bb63200e36","study_id":"60edd13110225f80f9f3709b","session_id":"6196c81272ce4fa03f3e3d3f","condition":"full-information","relevant_dimensions":["wings","legs"],"bee_group":{"antennae":"X","wings":"1","pattern":"X","legs":"M"},"bonus":0.1000000000000008},{"rt":2743.300000011921,"stimulus":"bees-with-color/bee-B2DF.svg","response":0,"trial_type":"image-button-response","trial_index":87,"time_elapsed":578206,"internal_node_id":"0.0-4.0-0.38","subject_id":"5feb64b3341f42bb63200e36","study_id":"60edd13110225f80f9f3709b","session_id":"6196c81272ce4fa03f3e3d3f","condition":"full-information","relevant_dimensions":["wings","legs"],"bee_group":{"antennae":"X","wings":"1","pattern":"X","legs":"M"},"action":"harvest","summary":"good-harvest","bonus":0.1000000000000008},{"rt":838.9000000059605,"stimulus":"\n                    <p><b>Action: <em>harvest</em></b></p>\n                    <p>This is the bee that you just saw.</p>\n                    <img src=\"bees-with-color/bee-B2DF.svg\" width=\"200\">\n                    <p><span class=\"greenText\"><b>Successful harvest!</b></span><br>Your pay has increased by $0.02. Your bonus pay is now $0.40.</p>\n            ","response":0,"trial_type":"html-button-response","trial_index":88,"time_elapsed":579046,"internal_node_id":"0.0-4.0-1.38","subject_id":"5feb64b3341f42bb63200e36","study_id":"60edd13110225f80f9f3709b","session_id":"6196c81272ce4fa03f3e3d3f","condition":"full-information","relevant_dimensions":["wings","legs"],"bee_group":{"antennae":"X","wings":"1","pattern":"X","legs":"M"},"bonus":0.1000000000000008},{"rt":1478.9000000059605,"stimulus":"bees-with-color/bee-B1DF.svg","response":1,"trial_type":"image-button-response","trial_index":89,"time_elapsed":580527,"internal_node_id":"0.0-4.0-0.39","subject_id":"5feb64b3341f42bb63200e36","study_id":"60edd13110225f80f9f3709b","session_id":"6196c81272ce4fa03f3e3d3f","condition":"full-information","relevant_dimensions":["wings","legs"],"bee_group":{"antennae":"X","wings":"1","pattern":"X","legs":"M"},"action":"avoid","summary":"bad-avoid","bonus":0.1000000000000008},{"rt":671,"stimulus":"\n                    <p><b>Action: <em>avoid</em></b></p>\n                    <p>This is the bee that you just saw.</p>\n                    <img src=\"bees-with-color/bee-B1DF.svg\" width=\"200\">\n                    <p><span class=\"redText\">Bad choice,</span> the bee was friendly.<br>Your bonus pay is unchanged, and remains at $0.40.</p>\n            ","response":0,"trial_type":"html-button-response","trial_index":90,"time_elapsed":581199,"internal_node_id":"0.0-4.0-1.39","subject_id":"5feb64b3341f42bb63200e36","study_id":"60edd13110225f80f9f3709b","session_id":"6196c81272ce4fa03f3e3d3f","condition":"full-information","relevant_dimensions":["wings","legs"],"bee_group":{"antennae":"X","wings":"1","pattern":"X","legs":"M"},"bonus":0.1000000000000008},{"rt":1119,"stimulus":"bees-with-color/bee-A2SM.svg","response":0,"trial_type":"image-button-response","trial_index":91,"time_elapsed":582319,"internal_node_id":"0.0-4.0-0.40","subject_id":"5feb64b3341f42bb63200e36","study_id":"60edd13110225f80f9f3709b","session_id":"6196c81272ce4fa03f3e3d3f","condition":"full-information","relevant_dimensions":["wings","legs"],"bee_group":{"antennae":"X","wings":"1","pattern":"X","legs":"M"},"action":"harvest","summary":"good-harvest","bonus":0.1000000000000008},{"rt":550.8000000119209,"stimulus":"\n                    <p><b>Action: <em>harvest</em></b></p>\n                    <p>This is the bee that you just saw.</p>\n                    <img src=\"bees-with-color/bee-A2SM.svg\" width=\"200\">\n                    <p><span class=\"greenText\"><b>Successful harvest!</b></span><br>Your pay has increased by $0.02. Your bonus pay is now $0.42.</p>\n            ","response":0,"trial_type":"html-button-response","trial_index":92,"time_elapsed":582871,"internal_node_id":"0.0-4.0-1.40","subject_id":"5feb64b3341f42bb63200e36","study_id":"60edd13110225f80f9f3709b","session_id":"6196c81272ce4fa03f3e3d3f","condition":"full-information","relevant_dimensions":["wings","legs"],"bee_group":{"antennae":"X","wings":"1","pattern":"X","legs":"M"},"bonus":0.1000000000000008},{"rt":1471.0999999940395,"stimulus":"bees-with-color/bee-A2DM.svg","response":0,"trial_type":"image-button-response","trial_index":93,"time_elapsed":584343,"internal_node_id":"0.0-4.0-0.41","subject_id":"5feb64b3341f42bb63200e36","study_id":"60edd13110225f80f9f3709b","session_id":"6196c81272ce4fa03f3e3d3f","condition":"full-information","relevant_dimensions":["wings","legs"],"bee_group":{"antennae":"X","wings":"1","pattern":"X","legs":"M"},"action":"harvest","summary":"good-harvest","bonus":0.1000000000000008},{"rt":9415.899999976158,"stimulus":"\n                    <p><b>Action: <em>harvest</em></b></p>\n                    <p>This is the bee that you just saw.</p>\n                    <img src=\"bees-with-color/bee-A2DM.svg\" width=\"200\">\n                    <p><span class=\"greenText\"><b>Successful harvest!</b></span><br>Your pay has increased by $0.02. Your bonus pay is now $0.44.</p>\n            ","response":0,"trial_type":"html-button-response","trial_index":94,"time_elapsed":593760,"internal_node_id":"0.0-4.0-1.41","subject_id":"5feb64b3341f42bb63200e36","study_id":"60edd13110225f80f9f3709b","session_id":"6196c81272ce4fa03f3e3d3f","condition":"full-information","relevant_dimensions":["wings","legs"],"bee_group":{"antennae":"X","wings":"1","pattern":"X","legs":"M"},"bonus":0.1000000000000008},{"rt":3191.0999999940395,"stimulus":"bees-with-color/bee-A1DM.svg","response":0,"trial_type":"image-button-response","trial_index":95,"time_elapsed":596953,"internal_node_id":"0.0-4.0-0.42","subject_id":"5feb64b3341f42bb63200e36","study_id":"60edd13110225f80f9f3709b","session_id":"6196c81272ce4fa03f3e3d3f","condition":"full-information","relevant_dimensions":["wings","legs"],"bee_group":{"antennae":"X","wings":"1","pattern":"X","legs":"M"},"action":"harvest","summary":"bad-harvest","bonus":0.1000000000000008},{"rt":623,"stimulus":"\n                    <p><b>Action: <em>harvest</em></b></p>\n                    <p>This is the bee that you just saw.</p>\n                    <img src=\"bees-with-color/bee-A1DM.svg\" width=\"200\">\n                    <p><span class=\"redText\">Bad choice, the bee was angry.</span><br><b>You have been stung!</b><br>Your pay has been decreased by $0.10. Your bonus pay is now $0.34.</p>\n            ","response":0,"trial_type":"html-button-response","trial_index":96,"time_elapsed":597577,"internal_node_id":"0.0-4.0-1.42","subject_id":"5feb64b3341f42bb63200e36","study_id":"60edd13110225f80f9f3709b","session_id":"6196c81272ce4fa03f3e3d3f","condition":"full-information","relevant_dimensions":["wings","legs"],"bee_group":{"antennae":"X","wings":"1","pattern":"X","legs":"M"},"bonus":0.1000000000000008},{"rt":1046.4000000059605,"stimulus":"bees-with-color/bee-B2DM.svg","response":0,"trial_type":"image-button-response","trial_index":97,"time_elapsed":598625,"internal_node_id":"0.0-4.0-0.43","subject_id":"5feb64b3341f42bb63200e36","study_id":"60edd13110225f80f9f3709b","session_id":"6196c81272ce4fa03f3e3d3f","condition":"full-information","relevant_dimensions":["wings","legs"],"bee_group":{"antennae":"X","wings":"1","pattern":"X","legs":"M"},"action":"harvest","summary":"good-harvest","bonus":0.1000000000000008},{"rt":470.90000000596046,"stimulus":"\n                    <p><b>Action: <em>harvest</em></b></p>\n                    <p>This is the bee that you just saw.</p>\n                    <img src=\"bees-with-color/bee-B2DM.svg\" width=\"200\">\n                    <p><span class=\"greenText\"><b>Successful harvest!</b></span><br>Your pay has increased by $0.02. Your bonus pay is now $0.36.</p>\n            ","response":0,"trial_type":"html-button-response","trial_index":98,"time_elapsed":599097,"internal_node_id":"0.0-4.0-1.43","subject_id":"5feb64b3341f42bb63200e36","study_id":"60edd13110225f80f9f3709b","session_id":"6196c81272ce4fa03f3e3d3f","condition":"full-information","relevant_dimensions":["wings","legs"],"bee_group":{"antennae":"X","wings":"1","pattern":"X","legs":"M"},"bonus":0.1000000000000008},{"rt":814.9000000059605,"stimulus":"bees-with-color/bee-A2SF.svg","response":0,"trial_type":"image-button-response","trial_index":99,"time_elapsed":599913,"internal_node_id":"0.0-4.0-0.44","subject_id":"5feb64b3341f42bb63200e36","study_id":"60edd13110225f80f9f3709b","session_id":"6196c81272ce4fa03f3e3d3f","condition":"full-information","relevant_dimensions":["wings","legs"],"bee_group":{"antennae":"X","wings":"1","pattern":"X","legs":"M"},"action":"harvest","summary":"good-harvest","bonus":0.1000000000000008},{"rt":430.80000001192093,"stimulus":"\n                    <p><b>Action: <em>harvest</em></b></p>\n                    <p>This is the bee that you just saw.</p>\n                    <img src=\"bees-with-color/bee-A2SF.svg\" width=\"200\">\n                    <p><span class=\"greenText\"><b>Successful harvest!</b></span><br>Your pay has increased by $0.02. Your bonus pay is now $0.38.</p>\n            ","response":0,"trial_type":"html-button-response","trial_index":100,"time_elapsed":600345,"internal_node_id":"0.0-4.0-1.44","subject_id":"5feb64b3341f42bb63200e36","study_id":"60edd13110225f80f9f3709b","session_id":"6196c81272ce4fa03f3e3d3f","condition":"full-information","relevant_dimensions":["wings","legs"],"bee_group":{"antennae":"X","wings":"1","pattern":"X","legs":"M"},"bonus":0.1000000000000008},{"rt":815,"stimulus":"bees-with-color/bee-A1SM.svg","response":0,"trial_type":"image-button-response","trial_index":101,"time_elapsed":601161,"internal_node_id":"0.0-4.0-0.45","subject_id":"5feb64b3341f42bb63200e36","study_id":"60edd13110225f80f9f3709b","session_id":"6196c81272ce4fa03f3e3d3f","condition":"full-information","relevant_dimensions":["wings","legs"],"bee_group":{"antennae":"X","wings":"1","pattern":"X","legs":"M"},"action":"harvest","summary":"bad-harvest","bonus":0.1000000000000008},{"rt":511.19999998807907,"stimulus":"\n                    <p><b>Action: <em>harvest</em></b></p>\n                    <p>This is the bee that you just saw.</p>\n                    <img src=\"bees-with-color/bee-A1SM.svg\" width=\"200\">\n                    <p><span class=\"redText\">Bad choice, the bee was angry.</span><br><b>You have been stung!</b><br>Your pay has been decreased by $0.10. Your bonus pay is now $0.28.</p>\n            ","response":0,"trial_type":"html-button-response","trial_index":102,"time_elapsed":601673,"internal_node_id":"0.0-4.0-1.45","subject_id":"5feb64b3341f42bb63200e36","study_id":"60edd13110225f80f9f3709b","session_id":"6196c81272ce4fa03f3e3d3f","condition":"full-information","relevant_dimensions":["wings","legs"],"bee_group":{"antennae":"X","wings":"1","pattern":"X","legs":"M"},"bonus":0.1000000000000008},{"rt":1078.5999999940395,"stimulus":"bees-with-color/bee-A1SF.svg","response":0,"trial_type":"image-button-response","trial_index":103,"time_elapsed":602753,"internal_node_id":"0.0-4.0-0.46","subject_id":"5feb64b3341f42bb63200e36","study_id":"60edd13110225f80f9f3709b","session_id":"6196c81272ce4fa03f3e3d3f","condition":"full-information","relevant_dimensions":["wings","legs"],"bee_group":{"antennae":"X","wings":"1","pattern":"X","legs":"M"},"action":"harvest","summary":"good-harvest","bonus":0.1000000000000008},{"rt":446.59999999403954,"stimulus":"\n                    <p><b>Action: <em>harvest</em></b></p>\n                    <p>This is the bee that you just saw.</p>\n                    <img src=\"bees-with-color/bee-A1SF.svg\" width=\"200\">\n                    <p><span class=\"greenText\"><b>Successful harvest!</b></span><br>Your pay has increased by $0.02. Your bonus pay is now $0.30.</p>\n            ","response":0,"trial_type":"html-button-response","trial_index":104,"time_elapsed":603201,"internal_node_id":"0.0-4.0-1.46","subject_id":"5feb64b3341f42bb63200e36","study_id":"60edd13110225f80f9f3709b","session_id":"6196c81272ce4fa03f3e3d3f","condition":"full-information","relevant_dimensions":["wings","legs"],"bee_group":{"antennae":"X","wings":"1","pattern":"X","legs":"M"},"bonus":0.1000000000000008},{"rt":1255.0999999940395,"stimulus":"bees-with-color/bee-B1SF.svg","response":1,"trial_type":"image-button-response","trial_index":105,"time_elapsed":604457,"internal_node_id":"0.0-4.0-0.47","subject_id":"5feb64b3341f42bb63200e36","study_id":"60edd13110225f80f9f3709b","session_id":"6196c81272ce4fa03f3e3d3f","condition":"full-information","relevant_dimensions":["wings","legs"],"bee_group":{"antennae":"X","wings":"1","pattern":"X","legs":"M"},"action":"avoid","summary":"bad-avoid","bonus":0.1000000000000008},{"rt":430.7999999821186,"stimulus":"\n                    <p><b>Action: <em>avoid</em></b></p>\n                    <p>This is the bee that you just saw.</p>\n                    <img src=\"bees-with-color/bee-B1SF.svg\" width=\"200\">\n                    <p><span class=\"redText\">Bad choice,</span> the bee was friendly.<br>Your bonus pay is unchanged, and remains at $0.30.</p>\n            ","response":0,"trial_type":"html-button-response","trial_index":106,"time_elapsed":604889,"internal_node_id":"0.0-4.0-1.47","subject_id":"5feb64b3341f42bb63200e36","study_id":"60edd13110225f80f9f3709b","session_id":"6196c81272ce4fa03f3e3d3f","condition":"full-information","relevant_dimensions":["wings","legs"],"bee_group":{"antennae":"X","wings":"1","pattern":"X","legs":"M"},"bonus":0.1000000000000008},{"rt":935,"stimulus":"bees-with-color/bee-B1DM.svg","response":1,"trial_type":"image-button-response","trial_index":107,"time_elapsed":605826,"internal_node_id":"0.0-4.0-0.48","subject_id":"5feb64b3341f42bb63200e36","study_id":"60edd13110225f80f9f3709b","session_id":"6196c81272ce4fa03f3e3d3f","condition":"full-information","relevant_dimensions":["wings","legs"],"bee_group":{"antennae":"X","wings":"1","pattern":"X","legs":"M"},"action":"avoid","summary":"good-avoid","bonus":0.1000000000000008},{"rt":438.80000001192093,"stimulus":"\n                    <p><b>Action: <em>avoid</em></b></p>\n                    <p>This is the bee that you just saw.</p>\n                    <img src=\"bees-with-color/bee-B1DM.svg\" width=\"200\">\n                    <p><span class=\"greenText\">Good choice!</span>  This bee would have stung you.<br>Your bonus pay is unchanged, and remains at $0.30.</p>\n            ","response":0,"trial_type":"html-button-response","trial_index":108,"time_elapsed":606266,"internal_node_id":"0.0-4.0-1.48","subject_id":"5feb64b3341f42bb63200e36","study_id":"60edd13110225f80f9f3709b","session_id":"6196c81272ce4fa03f3e3d3f","condition":"full-information","relevant_dimensions":["wings","legs"],"bee_group":{"antennae":"X","wings":"1","pattern":"X","legs":"M"},"bonus":0.1000000000000008},{"rt":582.4000000059605,"stimulus":"bees-with-color/bee-B2DF.svg","response":0,"trial_type":"image-button-response","trial_index":109,"time_elapsed":606850,"internal_node_id":"0.0-4.0-0.49","subject_id":"5feb64b3341f42bb63200e36","study_id":"60edd13110225f80f9f3709b","session_id":"6196c81272ce4fa03f3e3d3f","condition":"full-information","relevant_dimensions":["wings","legs"],"bee_group":{"antennae":"X","wings":"1","pattern":"X","legs":"M"},"action":"harvest","summary":"good-harvest","bonus":0.1000000000000008},{"rt":494.7000000178814,"stimulus":"\n                    <p><b>Action: <em>harvest</em></b></p>\n                    <p>This is the bee that you just saw.</p>\n                    <img src=\"bees-with-color/bee-B2DF.svg\" width=\"200\">\n                    <p><span class=\"greenText\"><b>Successful harvest!</b></span><br>Your pay has increased by $0.02. Your bonus pay is now $0.32.</p>\n            ","response":0,"trial_type":"html-button-response","trial_index":110,"time_elapsed":607346,"internal_node_id":"0.0-4.0-1.49","subject_id":"5feb64b3341f42bb63200e36","study_id":"60edd13110225f80f9f3709b","session_id":"6196c81272ce4fa03f3e3d3f","condition":"full-information","relevant_dimensions":["wings","legs"],"bee_group":{"antennae":"X","wings":"1","pattern":"X","legs":"M"},"bonus":0.1000000000000008},{"rt":422.90000000596046,"stimulus":"bees-with-color/bee-B1SM.svg","response":0,"trial_type":"image-button-response","trial_index":111,"time_elapsed":607770,"internal_node_id":"0.0-4.0-0.50","subject_id":"5feb64b3341f42bb63200e36","study_id":"60edd13110225f80f9f3709b","session_id":"6196c81272ce4fa03f3e3d3f","condition":"full-information","relevant_dimensions":["wings","legs"],"bee_group":{"antennae":"X","wings":"1","pattern":"X","legs":"M"},"action":"harvest","summary":"bad-harvest","bonus":0.1000000000000008},{"rt":534.6999999880791,"stimulus":"\n                    <p><b>Action: <em>harvest</em></b></p>\n                    <p>This is the bee that you just saw.</p>\n                    <img src=\"bees-with-color/bee-B1SM.svg\" width=\"200\">\n                    <p><span class=\"redText\">Bad choice, the bee was angry.</span><br><b>You have been stung!</b><br>Your pay has been decreased by $0.10. Your bonus pay is now $0.22.</p>\n            ","response":0,"trial_type":"html-button-response","trial_index":112,"time_elapsed":608306,"internal_node_id":"0.0-4.0-1.50","subject_id":"5feb64b3341f42bb63200e36","study_id":"60edd13110225f80f9f3709b","session_id":"6196c81272ce4fa03f3e3d3f","condition":"full-information","relevant_dimensions":["wings","legs"],"bee_group":{"antennae":"X","wings":"1","pattern":"X","legs":"M"},"bonus":0.1000000000000008},{"rt":375.19999998807907,"stimulus":"bees-with-color/bee-A1SF.svg","response":0,"trial_type":"image-button-response","trial_index":113,"time_elapsed":608682,"internal_node_id":"0.0-4.0-0.51","subject_id":"5feb64b3341f42bb63200e36","study_id":"60edd13110225f80f9f3709b","session_id":"6196c81272ce4fa03f3e3d3f","condition":"full-information","relevant_dimensions":["wings","legs"],"bee_group":{"antennae":"X","wings":"1","pattern":"X","legs":"M"},"action":"harvest","summary":"good-harvest","bonus":0.1000000000000008},{"rt":455.19999998807907,"stimulus":"\n                    <p><b>Action: <em>harvest</em></b></p>\n                    <p>This is the bee that you just saw.</p>\n                    <img src=\"bees-with-color/bee-A1SF.svg\" width=\"200\">\n                    <p><span class=\"greenText\"><b>Successful harvest!</b></span><br>Your pay has increased by $0.02. Your bonus pay is now $0.24.</p>\n            ","response":0,"trial_type":"html-button-response","trial_index":114,"time_elapsed":609138,"internal_node_id":"0.0-4.0-1.51","subject_id":"5feb64b3341f42bb63200e36","study_id":"60edd13110225f80f9f3709b","session_id":"6196c81272ce4fa03f3e3d3f","condition":"full-information","relevant_dimensions":["wings","legs"],"bee_group":{"antennae":"X","wings":"1","pattern":"X","legs":"M"},"bonus":0.1000000000000008},{"rt":655.0999999940395,"stimulus":"bees-with-color/bee-B2DM.svg","response":0,"trial_type":"image-button-response","trial_index":115,"time_elapsed":609794,"internal_node_id":"0.0-4.0-0.52","subject_id":"5feb64b3341f42bb63200e36","study_id":"60edd13110225f80f9f3709b","session_id":"6196c81272ce4fa03f3e3d3f","condition":"full-information","relevant_dimensions":["wings","legs"],"bee_group":{"antennae":"X","wings":"1","pattern":"X","legs":"M"},"action":"harvest","summary":"good-harvest","bonus":0.1000000000000008},{"rt":415.09999999403954,"stimulus":"\n                    <p><b>Action: <em>harvest</em></b></p>\n                    <p>This is the bee that you just saw.</p>\n                    <img src=\"bees-with-color/bee-B2DM.svg\" width=\"200\">\n                    <p><span class=\"greenText\"><b>Successful harvest!</b></span><br>Your pay has increased by $0.02. Your bonus pay is now $0.26.</p>\n            ","response":0,"trial_type":"html-button-response","trial_index":116,"time_elapsed":610210,"internal_node_id":"0.0-4.0-1.52","subject_id":"5feb64b3341f42bb63200e36","study_id":"60edd13110225f80f9f3709b","session_id":"6196c81272ce4fa03f3e3d3f","condition":"full-information","relevant_dimensions":["wings","legs"],"bee_group":{"antennae":"X","wings":"1","pattern":"X","legs":"M"},"bonus":0.1000000000000008},{"rt":511.2000000178814,"stimulus":"bees-with-color/bee-B1SF.svg","response":0,"trial_type":"image-button-response","trial_index":117,"time_elapsed":610722,"internal_node_id":"0.0-4.0-0.53","subject_id":"5feb64b3341f42bb63200e36","study_id":"60edd13110225f80f9f3709b","session_id":"6196c81272ce4fa03f3e3d3f","condition":"full-information","relevant_dimensions":["wings","legs"],"bee_group":{"antennae":"X","wings":"1","pattern":"X","legs":"M"},"action":"harvest","summary":"good-harvest","bonus":0.1000000000000008},{"rt":423.10000002384186,"stimulus":"\n                    <p><b>Action: <em>harvest</em></b></p>\n                    <p>This is the bee that you just saw.</p>\n                    <img src=\"bees-with-color/bee-B1SF.svg\" width=\"200\">\n                    <p><span class=\"greenText\"><b>Successful harvest!</b></span><br>Your pay has increased by $0.02. Your bonus pay is now $0.28.</p>\n            ","response":0,"trial_type":"html-button-response","trial_index":118,"time_elapsed":611146,"internal_node_id":"0.0-4.0-1.53","subject_id":"5feb64b3341f42bb63200e36","study_id":"60edd13110225f80f9f3709b","session_id":"6196c81272ce4fa03f3e3d3f","condition":"full-information","relevant_dimensions":["wings","legs"],"bee_group":{"antennae":"X","wings":"1","pattern":"X","legs":"M"},"bonus":0.1000000000000008},{"rt":1039.2000000178814,"stimulus":"bees-with-color/bee-A1DF.svg","response":1,"trial_type":"image-button-response","trial_index":119,"time_elapsed":612186,"internal_node_id":"0.0-4.0-0.54","subject_id":"5feb64b3341f42bb63200e36","study_id":"60edd13110225f80f9f3709b","session_id":"6196c81272ce4fa03f3e3d3f","condition":"full-information","relevant_dimensions":["wings","legs"],"bee_group":{"antennae":"X","wings":"1","pattern":"X","legs":"M"},"action":"avoid","summary":"bad-avoid","bonus":0.1000000000000008},{"rt":431.2000000178814,"stimulus":"\n                    <p><b>Action: <em>avoid</em></b></p>\n                    <p>This is the bee that you just saw.</p>\n                    <img src=\"bees-with-color/bee-A1DF.svg\" width=\"200\">\n                    <p><span class=\"redText\">Bad choice,</span> the bee was friendly.<br>Your bonus pay is unchanged, and remains at $0.28.</p>\n            ","response":0,"trial_type":"html-button-response","trial_index":120,"time_elapsed":612618,"internal_node_id":"0.0-4.0-1.54","subject_id":"5feb64b3341f42bb63200e36","study_id":"60edd13110225f80f9f3709b","session_id":"6196c81272ce4fa03f3e3d3f","condition":"full-information","relevant_dimensions":["wings","legs"],"bee_group":{"antennae":"X","wings":"1","pattern":"X","legs":"M"},"bonus":0.1000000000000008},{"rt":823.2999999821186,"stimulus":"bees-with-color/bee-B1DF.svg","response":1,"trial_type":"image-button-response","trial_index":121,"time_elapsed":613442,"internal_node_id":"0.0-4.0-0.55","subject_id":"5feb64b3341f42bb63200e36","study_id":"60edd13110225f80f9f3709b","session_id":"6196c81272ce4fa03f3e3d3f","condition":"full-information","relevant_dimensions":["wings","legs"],"bee_group":{"antennae":"X","wings":"1","pattern":"X","legs":"M"},"action":"avoid","summary":"bad-avoid","bonus":0.1000000000000008},{"rt":430.69999998807907,"stimulus":"\n                    <p><b>Action: <em>avoid</em></b></p>\n                    <p>This is the bee that you just saw.</p>\n                    <img src=\"bees-with-color/bee-B1DF.svg\" width=\"200\">\n                    <p><span class=\"redText\">Bad choice,</span> the bee was friendly.<br>Your bonus pay is unchanged, and remains at $0.28.</p>\n            ","response":0,"trial_type":"html-button-response","trial_index":122,"time_elapsed":613874,"internal_node_id":"0.0-4.0-1.55","subject_id":"5feb64b3341f42bb63200e36","study_id":"60edd13110225f80f9f3709b","session_id":"6196c81272ce4fa03f3e3d3f","condition":"full-information","relevant_dimensions":["wings","legs"],"bee_group":{"antennae":"X","wings":"1","pattern":"X","legs":"M"},"bonus":0.1000000000000008},{"rt":447.09999999403954,"stimulus":"bees-with-color/bee-A2DF.svg","response":0,"trial_type":"image-button-response","trial_index":123,"time_elapsed":614323,"internal_node_id":"0.0-4.0-0.56","subject_id":"5feb64b3341f42bb63200e36","study_id":"60edd13110225f80f9f3709b","session_id":"6196c81272ce4fa03f3e3d3f","condition":"full-information","relevant_dimensions":["wings","legs"],"bee_group":{"antennae":"X","wings":"1","pattern":"X","legs":"M"},"action":"harvest","summary":"good-harvest","bonus":0.1000000000000008},{"rt":502.7999999821186,"stimulus":"\n                    <p><b>Action: <em>harvest</em></b></p>\n                    <p>This is the bee that you just saw.</p>\n                    <img src=\"bees-with-color/bee-A2DF.svg\" width=\"200\">\n                    <p><span class=\"greenText\"><b>Successful harvest!</b></span><br>Your pay has increased by $0.02. Your bonus pay is now $0.30.</p>\n            ","response":0,"trial_type":"html-button-response","trial_index":124,"time_elapsed":614826,"internal_node_id":"0.0-4.0-1.56","subject_id":"5feb64b3341f42bb63200e36","study_id":"60edd13110225f80f9f3709b","session_id":"6196c81272ce4fa03f3e3d3f","condition":"full-information","relevant_dimensions":["wings","legs"],"bee_group":{"antennae":"X","wings":"1","pattern":"X","legs":"M"},"bonus":0.1000000000000008},{"rt":1159.4000000059605,"stimulus":"bees-with-color/bee-B2SM.svg","response":0,"trial_type":"image-button-response","trial_index":125,"time_elapsed":615987,"internal_node_id":"0.0-4.0-0.57","subject_id":"5feb64b3341f42bb63200e36","study_id":"60edd13110225f80f9f3709b","session_id":"6196c81272ce4fa03f3e3d3f","condition":"full-information","relevant_dimensions":["wings","legs"],"bee_group":{"antennae":"X","wings":"1","pattern":"X","legs":"M"},"action":"harvest","summary":"good-harvest","bonus":0.1000000000000008},{"rt":414.90000000596046,"stimulus":"\n                    <p><b>Action: <em>harvest</em></b></p>\n                    <p>This is the bee that you just saw.</p>\n                    <img src=\"bees-with-color/bee-B2SM.svg\" width=\"200\">\n                    <p><span class=\"greenText\"><b>Successful harvest!</b></span><br>Your pay has increased by $0.02. Your bonus pay is now $0.32.</p>\n            ","response":0,"trial_type":"html-button-response","trial_index":126,"time_elapsed":616403,"internal_node_id":"0.0-4.0-1.57","subject_id":"5feb64b3341f42bb63200e36","study_id":"60edd13110225f80f9f3709b","session_id":"6196c81272ce4fa03f3e3d3f","condition":"full-information","relevant_dimensions":["wings","legs"],"bee_group":{"antennae":"X","wings":"1","pattern":"X","legs":"M"},"bonus":0.1000000000000008},{"rt":1175.0999999940395,"stimulus":"bees-with-color/bee-A2DM.svg","response":0,"trial_type":"image-button-response","trial_index":127,"time_elapsed":617579,"internal_node_id":"0.0-4.0-0.58","subject_id":"5feb64b3341f42bb63200e36","study_id":"60edd13110225f80f9f3709b","session_id":"6196c81272ce4fa03f3e3d3f","condition":"full-information","relevant_dimensions":["wings","legs"],"bee_group":{"antennae":"X","wings":"1","pattern":"X","legs":"M"},"action":"harvest","summary":"good-harvest","bonus":0.1000000000000008},{"rt":423.19999998807907,"stimulus":"\n                    <p><b>Action: <em>harvest</em></b></p>\n                    <p>This is the bee that you just saw.</p>\n                    <img src=\"bees-with-color/bee-A2DM.svg\" width=\"200\">\n                    <p><span class=\"greenText\"><b>Successful harvest!</b></span><br>Your pay has increased by $0.02. Your bonus pay is now $0.34.</p>\n            ","response":0,"trial_type":"html-button-response","trial_index":128,"time_elapsed":618003,"internal_node_id":"0.0-4.0-1.58","subject_id":"5feb64b3341f42bb63200e36","study_id":"60edd13110225f80f9f3709b","session_id":"6196c81272ce4fa03f3e3d3f","condition":"full-information","relevant_dimensions":["wings","legs"],"bee_group":{"antennae":"X","wings":"1","pattern":"X","legs":"M"},"bonus":0.1000000000000008},{"rt":1431.1000000238419,"stimulus":"bees-with-color/bee-A1DM.svg","response":1,"trial_type":"image-button-response","trial_index":129,"time_elapsed":619435,"internal_node_id":"0.0-4.0-0.59","subject_id":"5feb64b3341f42bb63200e36","study_id":"60edd13110225f80f9f3709b","session_id":"6196c81272ce4fa03f3e3d3f","condition":"full-information","relevant_dimensions":["wings","legs"],"bee_group":{"antennae":"X","wings":"1","pattern":"X","legs":"M"},"action":"avoid","summary":"good-avoid","bonus":0.1000000000000008},{"rt":438.90000000596046,"stimulus":"\n                    <p><b>Action: <em>avoid</em></b></p>\n                    <p>This is the bee that you just saw.</p>\n                    <img src=\"bees-with-color/bee-A1DM.svg\" width=\"200\">\n                    <p><span class=\"greenText\">Good choice!</span>  This bee would have stung you.<br>Your bonus pay is unchanged, and remains at $0.34.</p>\n            ","response":0,"trial_type":"html-button-response","trial_index":130,"time_elapsed":619875,"internal_node_id":"0.0-4.0-1.59","subject_id":"5feb64b3341f42bb63200e36","study_id":"60edd13110225f80f9f3709b","session_id":"6196c81272ce4fa03f3e3d3f","condition":"full-information","relevant_dimensions":["wings","legs"],"bee_group":{"antennae":"X","wings":"1","pattern":"X","legs":"M"},"bonus":0.1000000000000008},{"rt":1503.199999988079,"stimulus":"bees-with-color/bee-A2SF.svg","response":1,"trial_type":"image-button-response","trial_index":131,"time_elapsed":621379,"internal_node_id":"0.0-4.0-0.60","subject_id":"5feb64b3341f42bb63200e36","study_id":"60edd13110225f80f9f3709b","session_id":"6196c81272ce4fa03f3e3d3f","condition":"full-information","relevant_dimensions":["wings","legs"],"bee_group":{"antennae":"X","wings":"1","pattern":"X","legs":"M"},"action":"avoid","summary":"bad-avoid","bonus":0.1000000000000008},{"rt":438.80000001192093,"stimulus":"\n                    <p><b>Action: <em>avoid</em></b></p>\n                    <p>This is the bee that you just saw.</p>\n                    <img src=\"bees-with-color/bee-A2SF.svg\" width=\"200\">\n                    <p><span class=\"redText\">Bad choice,</span> the bee was friendly.<br>Your bonus pay is unchanged, and remains at $0.34.</p>\n            ","response":0,"trial_type":"html-button-response","trial_index":132,"time_elapsed":621819,"internal_node_id":"0.0-4.0-1.60","subject_id":"5feb64b3341f42bb63200e36","study_id":"60edd13110225f80f9f3709b","session_id":"6196c81272ce4fa03f3e3d3f","condition":"full-information","relevant_dimensions":["wings","legs"],"bee_group":{"antennae":"X","wings":"1","pattern":"X","legs":"M"},"bonus":0.1000000000000008},{"rt":415.09999999403954,"stimulus":"bees-with-color/bee-A1SM.svg","response":1,"trial_type":"image-button-response","trial_index":133,"time_elapsed":622235,"internal_node_id":"0.0-4.0-0.61","subject_id":"5feb64b3341f42bb63200e36","study_id":"60edd13110225f80f9f3709b","session_id":"6196c81272ce4fa03f3e3d3f","condition":"full-information","relevant_dimensions":["wings","legs"],"bee_group":{"antennae":"X","wings":"1","pattern":"X","legs":"M"},"action":"avoid","summary":"good-avoid","bonus":0.1000000000000008},{"rt":566.8999999761581,"stimulus":"\n                    <p><b>Action: <em>avoid</em></b></p>\n                    <p>This is the bee that you just saw.</p>\n                    <img src=\"bees-with-color/bee-A1SM.svg\" width=\"200\">\n                    <p><span class=\"greenText\">Good choice!</span>  This bee would have stung you.<br>Your bonus pay is unchanged, and remains at $0.34.</p>\n            ","response":0,"trial_type":"html-button-response","trial_index":134,"time_elapsed":622804,"internal_node_id":"0.0-4.0-1.61","subject_id":"5feb64b3341f42bb63200e36","study_id":"60edd13110225f80f9f3709b","session_id":"6196c81272ce4fa03f3e3d3f","condition":"full-information","relevant_dimensions":["wings","legs"],"bee_group":{"antennae":"X","wings":"1","pattern":"X","legs":"M"},"bonus":0.1000000000000008},{"rt":455,"stimulus":"bees-with-color/bee-A2SM.svg","response":0,"trial_type":"image-button-response","trial_index":135,"time_elapsed":623259,"internal_node_id":"0.0-4.0-0.62","subject_id":"5feb64b3341f42bb63200e36","study_id":"60edd13110225f80f9f3709b","session_id":"6196c81272ce4fa03f3e3d3f","condition":"full-information","relevant_dimensions":["wings","legs"],"bee_group":{"antennae":"X","wings":"1","pattern":"X","legs":"M"},"action":"harvest","summary":"good-harvest","bonus":0.1000000000000008},{"rt":431.09999999403954,"stimulus":"\n                    <p><b>Action: <em>harvest</em></b></p>\n                    <p>This is the bee that you just saw.</p>\n                    <img src=\"bees-with-color/bee-A2SM.svg\" width=\"200\">\n                    <p><span class=\"greenText\"><b>Successful harvest!</b></span><br>Your pay has increased by $0.02. Your bonus pay is now $0.36.</p>\n            ","response":0,"trial_type":"html-button-response","trial_index":136,"time_elapsed":623692,"internal_node_id":"0.0-4.0-1.62","subject_id":"5feb64b3341f42bb63200e36","study_id":"60edd13110225f80f9f3709b","session_id":"6196c81272ce4fa03f3e3d3f","condition":"full-information","relevant_dimensions":["wings","legs"],"bee_group":{"antennae":"X","wings":"1","pattern":"X","legs":"M"},"bonus":0.1000000000000008},{"rt":366.80000001192093,"stimulus":"bees-with-color/bee-B2SF.svg","response":0,"trial_type":"image-button-response","trial_index":137,"time_elapsed":624060,"internal_node_id":"0.0-4.0-0.63","subject_id":"5feb64b3341f42bb63200e36","study_id":"60edd13110225f80f9f3709b","session_id":"6196c81272ce4fa03f3e3d3f","condition":"full-information","relevant_dimensions":["wings","legs"],"bee_group":{"antennae":"X","wings":"1","pattern":"X","legs":"M"},"action":"harvest","summary":"good-harvest","bonus":0.1000000000000008},{"rt":430.59999999403954,"stimulus":"\n                    <p><b>Action: <em>harvest</em></b></p>\n                    <p>This is the bee that you just saw.</p>\n                    <img src=\"bees-with-color/bee-B2SF.svg\" width=\"200\">\n                    <p><span class=\"greenText\"><b>Successful harvest!</b></span><br>Your pay has increased by $0.02. Your bonus pay is now $0.38.</p>\n            ","response":0,"trial_type":"html-button-response","trial_index":138,"time_elapsed":624492,"internal_node_id":"0.0-4.0-1.63","subject_id":"5feb64b3341f42bb63200e36","study_id":"60edd13110225f80f9f3709b","session_id":"6196c81272ce4fa03f3e3d3f","condition":"full-information","relevant_dimensions":["wings","legs"],"bee_group":{"antennae":"X","wings":"1","pattern":"X","legs":"M"},"bonus":0.1000000000000008},{"rt":8029.399999976158,"stimulus":"You have completed the first part of this experiment.<br><br>You will now begin a shorter second part, in which you will receive no feedback.<br>The same rules regarding bonus pay apply.<br><br>Press any key to begin.","response":" ","trial_type":"html-keyboard-response","trial_index":139,"time_elapsed":632522,"internal_node_id":"0.0-5.0","subject_id":"5feb64b3341f42bb63200e36","study_id":"60edd13110225f80f9f3709b","session_id":"6196c81272ce4fa03f3e3d3f","condition":"full-information","relevant_dimensions":["wings","legs"],"bee_group":{"antennae":"X","wings":"1","pattern":"X","legs":"M"},"bonus":0.1000000000000008},{"rt":4411.5,"stimulus":"bees-with-color/bee-B1SM.svg","response":0,"trial_type":"image-button-response","trial_index":140,"time_elapsed":636942,"internal_node_id":"0.0-6.0-0.0","subject_id":"5feb64b3341f42bb63200e36","study_id":"60edd13110225f80f9f3709b","session_id":"6196c81272ce4fa03f3e3d3f","condition":"full-information","relevant_dimensions":["wings","legs"],"bee_group":{"antennae":"X","wings":"1","pattern":"X","legs":"M"},"bonus":0.1000000000000008},{"rt":1957.5,"stimulus":"bees-with-color/bee-A1DM.svg","response":0,"trial_type":"image-button-response","trial_index":141,"time_elapsed":638902,"internal_node_id":"0.0-6.0-0.1","subject_id":"5feb64b3341f42bb63200e36","study_id":"60edd13110225f80f9f3709b","session_id":"6196c81272ce4fa03f3e3d3f","condition":"full-information","relevant_dimensions":["wings","legs"],"bee_group":{"antennae":"X","wings":"1","pattern":"X","legs":"M"},"bonus":0.1000000000000008},{"rt":1246.2999999821186,"stimulus":"bees-with-color/bee-A2DF.svg","response":0,"trial_type":"image-button-response","trial_index":142,"time_elapsed":640150,"internal_node_id":"0.0-6.0-0.2","subject_id":"5feb64b3341f42bb63200e36","study_id":"60edd13110225f80f9f3709b","session_id":"6196c81272ce4fa03f3e3d3f","condition":"full-information","relevant_dimensions":["wings","legs"],"bee_group":{"antennae":"X","wings":"1","pattern":"X","legs":"M"},"bonus":0.1000000000000008},{"rt":2054.4000000059605,"stimulus":"bees-with-color/bee-A2SM.svg","response":1,"trial_type":"image-button-response","trial_index":143,"time_elapsed":642206,"internal_node_id":"0.0-6.0-0.3","subject_id":"5feb64b3341f42bb63200e36","study_id":"60edd13110225f80f9f3709b","session_id":"6196c81272ce4fa03f3e3d3f","condition":"full-information","relevant_dimensions":["wings","legs"],"bee_group":{"antennae":"X","wings":"1","pattern":"X","legs":"M"},"bonus":0.1000000000000008},{"rt":1734.199999988079,"stimulus":"bees-with-color/bee-A1DF.svg","response":0,"trial_type":"image-button-response","trial_index":144,"time_elapsed":643943,"internal_node_id":"0.0-6.0-0.4","subject_id":"5feb64b3341f42bb63200e36","study_id":"60edd13110225f80f9f3709b","session_id":"6196c81272ce4fa03f3e3d3f","condition":"full-information","relevant_dimensions":["wings","legs"],"bee_group":{"antennae":"X","wings":"1","pattern":"X","legs":"M"},"bonus":0.1000000000000008},{"rt":1230.199999988079,"stimulus":"bees-with-color/bee-B2SF.svg","response":0,"trial_type":"image-button-response","trial_index":145,"time_elapsed":645175,"internal_node_id":"0.0-6.0-0.5","subject_id":"5feb64b3341f42bb63200e36","study_id":"60edd13110225f80f9f3709b","session_id":"6196c81272ce4fa03f3e3d3f","condition":"full-information","relevant_dimensions":["wings","legs"],"bee_group":{"antennae":"X","wings":"1","pattern":"X","legs":"M"},"bonus":0.1000000000000008},{"rt":822.3000000119209,"stimulus":"bees-with-color/bee-B1DF.svg","response":0,"trial_type":"image-button-response","trial_index":146,"time_elapsed":645999,"internal_node_id":"0.0-6.0-0.6","subject_id":"5feb64b3341f42bb63200e36","study_id":"60edd13110225f80f9f3709b","session_id":"6196c81272ce4fa03f3e3d3f","condition":"full-information","relevant_dimensions":["wings","legs"],"bee_group":{"antennae":"X","wings":"1","pattern":"X","legs":"M"},"bonus":0.1000000000000008},{"rt":910.3000000119209,"stimulus":"bees-with-color/bee-B2DF.svg","response":0,"trial_type":"image-button-response","trial_index":147,"time_elapsed":646911,"internal_node_id":"0.0-6.0-0.7","subject_id":"5feb64b3341f42bb63200e36","study_id":"60edd13110225f80f9f3709b","session_id":"6196c81272ce4fa03f3e3d3f","condition":"full-information","relevant_dimensions":["wings","legs"],"bee_group":{"antennae":"X","wings":"1","pattern":"X","legs":"M"},"bonus":0.1000000000000008},{"rt":934.0999999940395,"stimulus":"bees-with-color/bee-B2SM.svg","response":0,"trial_type":"image-button-response","trial_index":148,"time_elapsed":647847,"internal_node_id":"0.0-6.0-0.8","subject_id":"5feb64b3341f42bb63200e36","study_id":"60edd13110225f80f9f3709b","session_id":"6196c81272ce4fa03f3e3d3f","condition":"full-information","relevant_dimensions":["wings","legs"],"bee_group":{"antennae":"X","wings":"1","pattern":"X","legs":"M"},"bonus":0.1000000000000008},{"rt":956.7999999821186,"stimulus":"bees-with-color/bee-A2SF.svg","response":0,"trial_type":"image-button-response","trial_index":149,"time_elapsed":648807,"internal_node_id":"0.0-6.0-0.9","subject_id":"5feb64b3341f42bb63200e36","study_id":"60edd13110225f80f9f3709b","session_id":"6196c81272ce4fa03f3e3d3f","condition":"full-information","relevant_dimensions":["wings","legs"],"bee_group":{"antennae":"X","wings":"1","pattern":"X","legs":"M"},"bonus":0.1000000000000008},{"rt":1582.5,"stimulus":"bees-with-color/bee-B2DM.svg","response":1,"trial_type":"image-button-response","trial_index":150,"time_elapsed":650391,"internal_node_id":"0.0-6.0-0.10","subject_id":"5feb64b3341f42bb63200e36","study_id":"60edd13110225f80f9f3709b","session_id":"6196c81272ce4fa03f3e3d3f","condition":"full-information","relevant_dimensions":["wings","legs"],"bee_group":{"antennae":"X","wings":"1","pattern":"X","legs":"M"},"bonus":0.1000000000000008},{"rt":751.0999999940395,"stimulus":"bees-with-color/bee-A2DM.svg","response":1,"trial_type":"image-button-response","trial_index":151,"time_elapsed":651144,"internal_node_id":"0.0-6.0-0.11","subject_id":"5feb64b3341f42bb63200e36","study_id":"60edd13110225f80f9f3709b","session_id":"6196c81272ce4fa03f3e3d3f","condition":"full-information","relevant_dimensions":["wings","legs"],"bee_group":{"antennae":"X","wings":"1","pattern":"X","legs":"M"},"bonus":0.1000000000000008},{"rt":1317.7999999821186,"stimulus":"bees-with-color/bee-A1SF.svg","response":1,"trial_type":"image-button-response","trial_index":152,"time_elapsed":652463,"internal_node_id":"0.0-6.0-0.12","subject_id":"5feb64b3341f42bb63200e36","study_id":"60edd13110225f80f9f3709b","session_id":"6196c81272ce4fa03f3e3d3f","condition":"full-information","relevant_dimensions":["wings","legs"],"bee_group":{"antennae":"X","wings":"1","pattern":"X","legs":"M"},"bonus":0.1000000000000008},{"rt":590.2999999821186,"stimulus":"bees-with-color/bee-A1SM.svg","response":0,"trial_type":"image-button-response","trial_index":153,"time_elapsed":653055,"internal_node_id":"0.0-6.0-0.13","subject_id":"5feb64b3341f42bb63200e36","study_id":"60edd13110225f80f9f3709b","session_id":"6196c81272ce4fa03f3e3d3f","condition":"full-information","relevant_dimensions":["wings","legs"],"bee_group":{"antennae":"X","wings":"1","pattern":"X","legs":"M"},"bonus":0.1000000000000008},{"rt":702.5,"stimulus":"bees-with-color/bee-B1DM.svg","response":0,"trial_type":"image-button-response","trial_index":154,"time_elapsed":653760,"internal_node_id":"0.0-6.0-0.14","subject_id":"5feb64b3341f42bb63200e36","study_id":"60edd13110225f80f9f3709b","session_id":"6196c81272ce4fa03f3e3d3f","condition":"full-information","relevant_dimensions":["wings","legs"],"bee_group":{"antennae":"X","wings":"1","pattern":"X","legs":"M"},"bonus":0.1000000000000008},{"rt":1518.7000000178814,"stimulus":"bees-with-color/bee-B1SF.svg","response":0,"trial_type":"image-button-response","trial_index":155,"time_elapsed":655280,"internal_node_id":"0.0-6.0-0.15","subject_id":"5feb64b3341f42bb63200e36","study_id":"60edd13110225f80f9f3709b","session_id":"6196c81272ce4fa03f3e3d3f","condition":"full-information","relevant_dimensions":["wings","legs"],"bee_group":{"antennae":"X","wings":"1","pattern":"X","legs":"M"},"bonus":0.100