[{"success":true,"trial_type":"fullscreen","trial_index":0,"time_elapsed":5873,"internal_node_id":"0.0-0.0","subject_id":"5d70384bc4f383000128da9c","study_id":"6197b3f67c2b5cd3b6d9596a","session_id":"6197b5a6465e6a1fb77e507c","condition":"contingent","relevant_dimensions":["wings","legs"],"bee_group":{"antennae":"X","wings":"1","pattern":"X","legs":"F"},"bonus":1.5000000000000009},{"success":true,"timeout":false,"failed_images":[],"failed_audio":[],"failed_video":[],"trial_type":"preload","trial_index":1,"time_elapsed":8324,"internal_node_id":"0.0-1.0","subject_id":"5d70384bc4f383000128da9c","study_id":"6197b3f67c2b5cd3b6d9596a","session_id":"6197b5a6465e6a1fb77e507c","condition":"contingent","relevant_dimensions":["wings","legs"],"bee_group":{"antennae":"X","wings":"1","pattern":"X","legs":"F"},"bonus":1.5000000000000009},{"rt":1853.199999988079,"stimulus":"Welcome! Press any key to begin.","response":" ","trial_type":"html-keyboard-response","trial_index":2,"time_elapsed":10179,"internal_node_id":"0.0-2.0","subject_id":"5d70384bc4f383000128da9c","study_id":"6197b3f67c2b5cd3b6d9596a","session_id":"6197b5a6465e6a1fb77e507c","condition":"contingent","relevant_dimensions":["wings","legs"],"bee_group":{"antennae":"X","wings":"1","pattern":"X","legs":"F"},"bonus":1.5000000000000009},{"view_history":[{"page_index":0,"viewing_time":5513.900000035763},{"page_index":1,"viewing_time":15071.699999988079},{"page_index":2,"viewing_time":12984},{"page_index":3,"viewing_time":16415.80000001192},{"page_index":4,"viewing_time":7288},{"page_index":5,"viewing_time":13400.099999964237},{"page_index":6,"viewing_time":8256},{"page_index":7,"viewing_time":10519.900000035763},{"page_index":8,"viewing_time":4727.899999976158},{"page_index":9,"viewing_time":9696.199999988079},{"page_index":10,"viewing_time":2984.100000023842},{"page_index":11,"viewing_time":7607.699999988079},{"page_index":12,"viewing_time":6440},{"page_index":13,"viewing_time":2640.199999988079},{"page_index":12,"viewing_time":1047.800000011921},{"page_index":11,"viewing_time":7279.900000035763},{"page_index":12,"viewing_time":912.1999999880791},{"page_index":13,"viewing_time":1111.800000011921},{"page_index":14,"viewing_time":2160.099999964237}],"rt":136057.90000003576,"trial_type":"instructions","trial_index":3,"time_elapsed":146239,"internal_node_id":"0.0-3.0-0.0","subject_id":"5d70384bc4f383000128da9c","study_id":"6197b3f67c2b5cd3b6d9596a","session_id":"6197b5a6465e6a1fb77e507c","condition":"contingent","relevant_dimensions":["wings","legs"],"bee_group":{"antennae":"X","wings":"1","pattern":"X","legs":"F"},"bonus":1.5000000000000009},{"rt":15055.800000011921,"response":{"Q0":["Two or six legs","Stripes or spots on body","Single or double wings","Antennae or no antennae"]},"question_order":[0],"trial_type":"survey-multi-select","trial_index":4,"time_elapsed":161305,"internal_node_id":"0.0-3.0-1.0","subject_id":"5d70384bc4f383000128da9c","study_id":"6197b3f67c2b5cd3b6d9596a","session_id":"6197b5a6465e6a1fb77e507c","condition":"contingent","relevant_dimensions":["wings","legs"],"bee_group":{"antennae":"X","wings":"1","pattern":"X","legs":"F"},"correct":true,"bonus":1.5000000000000009},{"rt":26578.100000023842,"response":{"Q1":"No.","Q2":"Based on the four features of the bee.","Q3":"You do not learn if it was friendly or dangerous, and do not alter your bonus."},"question_order":[0,1,2],"trial_type":"survey-multi-choice","trial_index":5,"time_elapsed":187888,"internal_node_id":"0.0-3.0-2.0","subject_id":"5d70384bc4f383000128da9c","study_id":"6197b3f67c2b5cd3b6d9596a","session_id":"6197b5a6465e6a1fb77e507c","condition":"contingent","relevant_dimensions":["wings","legs"],"bee_group":{"antennae":"X","wings":"1","pattern":"X","legs":"F"},"correct":true,"bonus":1.5000000000000009},{"rt":1611.300000011921,"stimulus":"<p>Congrats, you got everything right<br>When you're ready, click the button below to continue to the experiment.</p>","response":0,"trial_type":"html-button-response","trial_index":6,"time_elapsed":189504,"internal_node_id":"0.0-3.0-3.0","subject_id":"5d70384bc4f383000128da9c","study_id":"6197b3f67c2b5cd3b6d9596a","session_id":"6197b5a6465e6a1fb77e507c","condition":"contingent","relevant_dimensions":["wings","legs"],"bee_group":{"antennae":"X","wings":"1","pattern":"X","legs":"F"},"bonus":1.5000000000000009},{"rt":3400.300000011921,"stimulus":"bees-with-color/bee-B2DM.svg","response":0,"trial_type":"image-button-response","trial_index":7,"time_elapsed":192912,"internal_node_id":"0.0-4.0-0.0","subject_id":"5d70384bc4f383000128da9c","study_id":"6197b3f67c2b5cd3b6d9596a","session_id":"6197b5a6465e6a1fb77e507c","condition":"contingent","relevant_dimensions":["wings","legs"],"bee_group":{"antennae":"X","wings":"1","pattern":"X","legs":"F"},"action":"harvest","summary":"good-harvest","bonus":1.5000000000000009},{"rt":9249.800000011921,"stimulus":"\n                    <p><b>Action: <em>harvest</em></b></p>\n                    <p>This is the bee that you just saw.</p>\n                    <img src=\"bees-with-color/bee-B2DM.svg\" width=\"200\">\n                    <p><span class=\"greenText\"><b>Successful harvest!</b></span><br>Your pay has increased by $0.02. Your bonus pay is now $0.56.</p>\n            ","response":0,"trial_type":"html-button-response","trial_index":8,"time_elapsed":202167,"internal_node_id":"0.0-4.0-1.0","subject_id":"5d70384bc4f383000128da9c","study_id":"6197b3f67c2b5cd3b6d9596a","session_id":"6197b5a6465e6a1fb77e507c","condition":"contingent","relevant_dimensions":["wings","legs"],"bee_group":{"antennae":"X","wings":"1","pattern":"X","legs":"F"},"bonus":1.5000000000000009},{"rt":10892,"stimulus":"bees-with-color/bee-A1DF.svg","response":1,"trial_type":"image-button-response","trial_index":9,"time_elapsed":213063,"internal_node_id":"0.0-4.0-0.1","subject_id":"5d70384bc4f383000128da9c","study_id":"6197b3f67c2b5cd3b6d9596a","session_id":"6197b5a6465e6a1fb77e507c","condition":"contingent","relevant_dimensions":["wings","legs"],"bee_group":{"antennae":"X","wings":"1","pattern":"X","legs":"F"},"action":"avoid","summary":"good-avoid","bonus":1.5000000000000009},{"rt":2094.699999988079,"stimulus":"\n                    <p><b>Action: <em>avoid</em></b></p>\n                    <p>This is the bee that you just saw.</p>\n                    <img src=\"bees-with-color/bee-A1DF.svg\" width=\"200\">\n                    <p><br>Your bonus pay is unchanged, and remains at $0.56.</p>\n            ","response":0,"trial_type":"html-button-response","trial_index":10,"time_elapsed":215161,"internal_node_id":"0.0-4.0-1.1","subject_id":"5d70384bc4f383000128da9c","study_id":"6197b3f67c2b5cd3b6d9596a","session_id":"6197b5a6465e6a1fb77e507c","condition":"contingent","relevant_dimensions":["wings","legs"],"bee_group":{"antennae":"X","wings":"1","pattern":"X","legs":"F"},"bonus":1.5000000000000009},{"rt":4625,"stimulus":"bees-with-color/bee-B1DM.svg","response":0,"trial_type":"image-button-response","trial_index":11,"time_elapsed":219791,"internal_node_id":"0.0-4.0-0.2","subject_id":"5d70384bc4f383000128da9c","study_id":"6197b3f67c2b5cd3b6d9596a","session_id":"6197b5a6465e6a1fb77e507c","condition":"contingent","relevant_dimensions":["wings","legs"],"bee_group":{"antennae":"X","wings":"1","pattern":"X","legs":"F"},"action":"harvest","summary":"good-harvest","bonus":1.5000000000000009},{"rt":3547.399999976158,"stimulus":"\n                    <p><b>Action: <em>harvest</em></b></p>\n                    <p>This is the bee that you just saw.</p>\n                    <img src=\"bees-with-color/bee-B1DM.svg\" width=\"200\">\n                    <p><span class=\"greenText\"><b>Successful harvest!</b></span><br>Your pay has increased by $0.02. Your bonus pay is now $0.58.</p>\n            ","response":0,"trial_type":"html-button-response","trial_index":12,"time_elapsed":223343,"internal_node_id":"0.0-4.0-1.2","subject_id":"5d70384bc4f383000128da9c","study_id":"6197b3f67c2b5cd3b6d9596a","session_id":"6197b5a6465e6a1fb77e507c","condition":"contingent","relevant_dimensions":["wings","legs"],"bee_group":{"antennae":"X","wings":"1","pattern":"X","legs":"F"},"bonus":1.5000000000000009},{"rt":4508.699999988079,"stimulus":"bees-with-color/bee-B1DF.svg","response":1,"trial_type":"image-button-response","trial_index":13,"time_elapsed":227855,"internal_node_id":"0.0-4.0-0.3","subject_id":"5d70384bc4f383000128da9c","study_id":"6197b3f67c2b5cd3b6d9596a","session_id":"6197b5a6465e6a1fb77e507c","condition":"contingent","relevant_dimensions":["wings","legs"],"bee_group":{"antennae":"X","wings":"1","pattern":"X","legs":"F"},"action":"avoid","summary":"good-avoid","bonus":1.5000000000000009},{"rt":1484.5,"stimulus":"\n                    <p><b>Action: <em>avoid</em></b></p>\n                    <p>This is the bee that you just saw.</p>\n                    <img src=\"bees-with-color/bee-B1DF.svg\" width=\"200\">\n                    <p><br>Your bonus pay is unchanged, and remains at $0.58.</p>\n            ","response":0,"trial_type":"html-button-response","trial_index":14,"time_elapsed":229343,"internal_node_id":"0.0-4.0-1.3","subject_id":"5d70384bc4f383000128da9c","study_id":"6197b3f67c2b5cd3b6d9596a","session_id":"6197b5a6465e6a1fb77e507c","condition":"contingent","relevant_dimensions":["wings","legs"],"bee_group":{"antennae":"X","wings":"1","pattern":"X","legs":"F"},"bonus":1.5000000000000009},{"rt":2147.399999976158,"stimulus":"bees-with-color/bee-A2SF.svg","response":1,"trial_type":"image-button-response","trial_index":15,"time_elapsed":231495,"internal_node_id":"0.0-4.0-0.4","subject_id":"5d70384bc4f383000128da9c","study_id":"6197b3f67c2b5cd3b6d9596a","session_id":"6197b5a6465e6a1fb77e507c","condition":"contingent","relevant_dimensions":["wings","legs"],"bee_group":{"antennae":"X","wings":"1","pattern":"X","legs":"F"},"action":"avoid","summary":"bad-avoid","bonus":1.5000000000000009},{"rt":813.0999999642372,"stimulus":"\n                    <p><b>Action: <em>avoid</em></b></p>\n                    <p>This is the bee that you just saw.</p>\n                    <img src=\"bees-with-color/bee-A2SF.svg\" width=\"200\">\n                    <p><br>Your bonus pay is unchanged, and remains at $0.58.</p>\n            ","response":0,"trial_type":"html-button-response","trial_index":16,"time_elapsed":232311,"internal_node_id":"0.0-4.0-1.4","subject_id":"5d70384bc4f383000128da9c","study_id":"6197b3f67c2b5cd3b6d9596a","session_id":"6197b5a6465e6a1fb77e507c","condition":"contingent","relevant_dimensions":["wings","legs"],"bee_group":{"antennae":"X","wings":"1","pattern":"X","legs":"F"},"bonus":1.5000000000000009},{"rt":1388.800000011921,"stimulus":"bees-with-color/bee-B2SM.svg","response":0,"trial_type":"image-button-response","trial_index":17,"time_elapsed":233703,"internal_node_id":"0.0-4.0-0.5","subject_id":"5d70384bc4f383000128da9c","study_id":"6197b3f67c2b5cd3b6d9596a","session_id":"6197b5a6465e6a1fb77e507c","condition":"contingent","relevant_dimensions":["wings","legs"],"bee_group":{"antennae":"X","wings":"1","pattern":"X","legs":"F"},"action":"harvest","summary":"good-harvest","bonus":1.5000000000000009},{"rt":1525,"stimulus":"\n                    <p><b>Action: <em>harvest</em></b></p>\n                    <p>This is the bee that you just saw.</p>\n                    <img src=\"bees-with-color/bee-B2SM.svg\" width=\"200\">\n                    <p><span class=\"greenText\"><b>Successful harvest!</b></span><br>Your pay has increased by $0.02. Your bonus pay is now $0.60.</p>\n            ","response":0,"trial_type":"html-button-response","trial_index":18,"time_elapsed":235231,"internal_node_id":"0.0-4.0-1.5","subject_id":"5d70384bc4f383000128da9c","study_id":"6197b3f67c2b5cd3b6d9596a","session_id":"6197b5a6465e6a1fb77e507c","condition":"contingent","relevant_dimensions":["wings","legs"],"bee_group":{"antennae":"X","wings":"1","pattern":"X","legs":"F"},"bonus":1.5000000000000009},{"rt":3323.7000000476837,"stimulus":"bees-with-color/bee-A2SM.svg","response":0,"trial_type":"image-button-response","trial_index":19,"time_elapsed":238559,"internal_node_id":"0.0-4.0-0.6","subject_id":"5d70384bc4f383000128da9c","study_id":"6197b3f67c2b5cd3b6d9596a","session_id":"6197b5a6465e6a1fb77e507c","condition":"contingent","relevant_dimensions":["wings","legs"],"bee_group":{"antennae":"X","wings":"1","pattern":"X","legs":"F"},"action":"harvest","summary":"good-harvest","bonus":1.5000000000000009},{"rt":1316.8999999761581,"stimulus":"\n                    <p><b>Action: <em>harvest</em></b></p>\n                    <p>This is the bee that you just saw.</p>\n                    <img src=\"bees-with-color/bee-A2SM.svg\" width=\"200\">\n                    <p><span class=\"greenText\"><b>Successful harvest!</b></span><br>Your pay has increased by $0.02. Your bonus pay is now $0.62.</p>\n            ","response":0,"trial_type":"html-button-response","trial_index":20,"time_elapsed":239879,"internal_node_id":"0.0-4.0-1.6","subject_id":"5d70384bc4f383000128da9c","study_id":"6197b3f67c2b5cd3b6d9596a","session_id":"6197b5a6465e6a1fb77e507c","condition":"contingent","relevant_dimensions":["wings","legs"],"bee_group":{"antennae":"X","wings":"1","pattern":"X","legs":"F"},"bonus":1.5000000000000009},{"rt":2500.5,"stimulus":"bees-with-color/bee-A1SM.svg","response":0,"trial_type":"image-button-response","trial_index":21,"time_elapsed":242383,"internal_node_id":"0.0-4.0-0.7","subject_id":"5d70384bc4f383000128da9c","study_id":"6197b3f67c2b5cd3b6d9596a","session_id":"6197b5a6465e6a1fb77e507c","condition":"contingent","relevant_dimensions":["wings","legs"],"bee_group":{"antennae":"X","wings":"1","pattern":"X","legs":"F"},"action":"harvest","summary":"good-harvest","bonus":1.5000000000000009},{"rt":1300.800000011921,"stimulus":"\n                    <p><b>Action: <em>harvest</em></b></p>\n                    <p>This is the bee that you just saw.</p>\n                    <img src=\"bees-with-color/bee-A1SM.svg\" width=\"200\">\n                    <p><span class=\"greenText\"><b>Successful harvest!</b></span><br>Your pay has increased by $0.02. Your bonus pay is now $0.64.</p>\n            ","response":0,"trial_type":"html-button-response","trial_index":22,"time_elapsed":243687,"internal_node_id":"0.0-4.0-1.7","subject_id":"5d70384bc4f383000128da9c","study_id":"6197b3f67c2b5cd3b6d9596a","session_id":"6197b5a6465e6a1fb77e507c","condition":"contingent","relevant_dimensions":["wings","legs"],"bee_group":{"antennae":"X","wings":"1","pattern":"X","legs":"F"},"bonus":1.5000000000000009},{"rt":1691.300000011921,"stimulus":"bees-with-color/bee-A2DM.svg","response":0,"trial_type":"image-button-response","trial_index":23,"time_elapsed":245383,"internal_node_id":"0.0-4.0-0.8","subject_id":"5d70384bc4f383000128da9c","study_id":"6197b3f67c2b5cd3b6d9596a","session_id":"6197b5a6465e6a1fb77e507c","condition":"contingent","relevant_dimensions":["wings","legs"],"bee_group":{"antennae":"X","wings":"1","pattern":"X","legs":"F"},"action":"harvest","summary":"good-harvest","bonus":1.5000000000000009},{"rt":2628.900000035763,"stimulus":"\n                    <p><b>Action: <em>harvest</em></b></p>\n                    <p>This is the bee that you just saw.</p>\n                    <img src=\"bees-with-color/bee-A2DM.svg\" width=\"200\">\n                    <p><span class=\"greenText\"><b>Successful harvest!</b></span><br>Your pay has increased by $0.02. Your bonus pay is now $0.66.</p>\n            ","response":0,"trial_type":"html-button-response","trial_index":24,"time_elapsed":248015,"internal_node_id":"0.0-4.0-1.8","subject_id":"5d70384bc4f383000128da9c","study_id":"6197b3f67c2b5cd3b6d9596a","session_id":"6197b5a6465e6a1fb77e507c","condition":"contingent","relevant_dimensions":["wings","legs"],"bee_group":{"antennae":"X","wings":"1","pattern":"X","legs":"F"},"bonus":1.5000000000000009},{"rt":2948.800000011921,"stimulus":"bees-with-color/bee-A1SF.svg","response":1,"trial_type":"image-button-response","trial_index":25,"time_elapsed":250967,"internal_node_id":"0.0-4.0-0.9","subject_id":"5d70384bc4f383000128da9c","study_id":"6197b3f67c2b5cd3b6d9596a","session_id":"6197b5a6465e6a1fb77e507c","condition":"contingent","relevant_dimensions":["wings","legs"],"bee_group":{"antennae":"X","wings":"1","pattern":"X","legs":"F"},"action":"avoid","summary":"good-avoid","bonus":1.5000000000000009},{"rt":1852.5,"stimulus":"\n                    <p><b>Action: <em>avoid</em></b></p>\n                    <p>This is the bee that you just saw.</p>\n                    <img src=\"bees-with-color/bee-A1SF.svg\" width=\"200\">\n                    <p><br>Your bonus pay is unchanged, and remains at $0.66.</p>\n            ","response":0,"trial_type":"html-button-response","trial_index":26,"time_elapsed":252823,"internal_node_id":"0.0-4.0-1.9","subject_id":"5d70384bc4f383000128da9c","study_id":"6197b3f67c2b5cd3b6d9596a","session_id":"6197b5a6465e6a1fb77e507c","condition":"contingent","relevant_dimensions":["wings","legs"],"bee_group":{"antennae":"X","wings":"1","pattern":"X","legs":"F"},"bonus":1.5000000000000009},{"rt":1885.199999988079,"stimulus":"bees-with-color/bee-B1SF.svg","response":1,"trial_type":"image-button-response","trial_index":27,"time_elapsed":254711,"internal_node_id":"0.0-4.0-0.10","subject_id":"5d70384bc4f383000128da9c","study_id":"6197b3f67c2b5cd3b6d9596a","session_id":"6197b5a6465e6a1fb77e507c","condition":"contingent","relevant_dimensions":["wings","legs"],"bee_group":{"antennae":"X","wings":"1","pattern":"X","legs":"F"},"action":"avoid","summary":"good-avoid","bonus":1.5000000000000009},{"rt":2564.300000011921,"stimulus":"\n                    <p><b>Action: <em>avoid</em></b></p>\n                    <p>This is the bee that you just saw.</p>\n                    <img src=\"bees-with-color/bee-B1SF.svg\" width=\"200\">\n                    <p><br>Your bonus pay is unchanged, and remains at $0.66.</p>\n            ","response":0,"trial_type":"html-button-response","trial_index":28,"time_elapsed":257279,"internal_node_id":"0.0-4.0-1.10","subject_id":"5d70384bc4f383000128da9c","study_id":"6197b3f67c2b5cd3b6d9596a","session_id":"6197b5a6465e6a1fb77e507c","condition":"contingent","relevant_dimensions":["wings","legs"],"bee_group":{"antennae":"X","wings":"1","pattern":"X","legs":"F"},"bonus":1.5000000000000009},{"rt":1957.1000000238419,"stimulus":"bees-with-color/bee-A1DM.svg","response":0,"trial_type":"image-button-response","trial_index":29,"time_elapsed":259239,"internal_node_id":"0.0-4.0-0.11","subject_id":"5d70384bc4f383000128da9c","study_id":"6197b3f67c2b5cd3b6d9596a","session_id":"6197b5a6465e6a1fb77e507c","condition":"contingent","relevant_dimensions":["wings","legs"],"bee_group":{"antennae":"X","wings":"1","pattern":"X","legs":"F"},"action":"harvest","summary":"good-harvest","bonus":1.5000000000000009},{"rt":1917.5,"stimulus":"\n                    <p><b>Action: <em>harvest</em></b></p>\n                    <p>This is the bee that you just saw.</p>\n                    <img src=\"bees-with-color/bee-A1DM.svg\" width=\"200\">\n                    <p><span class=\"greenText\"><b>Successful harvest!</b></span><br>Your pay has increased by $0.02. Your bonus pay is now $0.68.</p>\n            ","response":0,"trial_type":"html-button-response","trial_index":30,"time_elapsed":261159,"internal_node_id":"0.0-4.0-1.11","subject_id":"5d70384bc4f383000128da9c","study_id":"6197b3f67c2b5cd3b6d9596a","session_id":"6197b5a6465e6a1fb77e507c","condition":"contingent","relevant_dimensions":["wings","legs"],"bee_group":{"antennae":"X","wings":"1","pattern":"X","legs":"F"},"bonus":1.5000000000000009},{"rt":1436.5,"stimulus":"bees-with-color/bee-B2SF.svg","response":1,"trial_type":"image-button-response","trial_index":31,"time_elapsed":262599,"internal_node_id":"0.0-4.0-0.12","subject_id":"5d70384bc4f383000128da9c","study_id":"6197b3f67c2b5cd3b6d9596a","session_id":"6197b5a6465e6a1fb77e507c","condition":"contingent","relevant_dimensions":["wings","legs"],"bee_group":{"antennae":"X","wings":"1","pattern":"X","legs":"F"},"action":"avoid","summary":"bad-avoid","bonus":1.5000000000000009},{"rt":1661.5,"stimulus":"\n                    <p><b>Action: <em>avoid</em></b></p>\n                    <p>This is the bee that you just saw.</p>\n                    <img src=\"bees-with-color/bee-B2SF.svg\" width=\"200\">\n                    <p><br>Your bonus pay is unchanged, and remains at $0.68.</p>\n            ","response":0,"trial_type":"html-button-response","trial_index":32,"time_elapsed":264263,"internal_node_id":"0.0-4.0-1.12","subject_id":"5d70384bc4f383000128da9c","study_id":"6197b3f67c2b5cd3b6d9596a","session_id":"6197b5a6465e6a1fb77e507c","condition":"contingent","relevant_dimensions":["wings","legs"],"bee_group":{"antennae":"X","wings":"1","pattern":"X","legs":"F"},"bonus":1.5000000000000009},{"rt":3188.800000011921,"stimulus":"bees-with-color/bee-A2DF.svg","response":1,"trial_type":"image-button-response","trial_index":33,"time_elapsed":267455,"internal_node_id":"0.0-4.0-0.13","subject_id":"5d70384bc4f383000128da9c","study_id":"6197b3f67c2b5cd3b6d9596a","session_id":"6197b5a6465e6a1fb77e507c","condition":"contingent","relevant_dimensions":["wings","legs"],"bee_group":{"antennae":"X","wings":"1","pattern":"X","legs":"F"},"action":"avoid","summary":"bad-avoid","bonus":1.5000000000000009},{"rt":1845.199999988079,"stimulus":"\n                    <p><b>Action: <em>avoid</em></b></p>\n                    <p>This is the bee that you just saw.</p>\n                    <img src=\"bees-with-color/bee-A2DF.svg\" width=\"200\">\n                    <p><br>Your bonus pay is unchanged, and remains at $0.68.</p>\n            ","response":0,"trial_type":"html-button-response","trial_index":34,"time_elapsed":269303,"internal_node_id":"0.0-4.0-1.13","subject_id":"5d70384bc4f383000128da9c","study_id":"6197b3f67c2b5cd3b6d9596a","session_id":"6197b5a6465e6a1fb77e507c","condition":"contingent","relevant_dimensions":["wings","legs"],"bee_group":{"antennae":"X","wings":"1","pattern":"X","legs":"F"},"bonus":1.5000000000000009},{"rt":1869.9000000357628,"stimulus":"bees-with-color/bee-B2DF.svg","response":1,"trial_type":"image-button-response","trial_index":35,"time_elapsed":271175,"internal_node_id":"0.0-4.0-0.14","subject_id":"5d70384bc4f383000128da9c","study_id":"6197b3f67c2b5cd3b6d9596a","session_id":"6197b5a6465e6a1fb77e507c","condition":"contingent","relevant_dimensions":["wings","legs"],"bee_group":{"antennae":"X","wings":"1","pattern":"X","legs":"F"},"action":"avoid","summary":"bad-avoid","bonus":1.5000000000000009},{"rt":1076.7000000476837,"stimulus":"\n                    <p><b>Action: <em>avoid</em></b></p>\n                    <p>This is the bee that you just saw.</p>\n                    <img src=\"bees-with-color/bee-B2DF.svg\" width=\"200\">\n                    <p><br>Your bonus pay is unchanged, and remains at $0.68.</p>\n            ","response":0,"trial_type":"html-button-response","trial_index":36,"time_elapsed":272255,"internal_node_id":"0.0-4.0-1.14","subject_id":"5d70384bc4f383000128da9c","study_id":"6197b3f67c2b5cd3b6d9596a","session_id":"6197b5a6465e6a1fb77e507c","condition":"contingent","relevant_dimensions":["wings","legs"],"bee_group":{"antennae":"X","wings":"1","pattern":"X","legs":"F"},"bonus":1.5000000000000009},{"rt":1365.199999988079,"stimulus":"bees-with-color/bee-B1SM.svg","response":0,"trial_type":"image-button-response","trial_index":37,"time_elapsed":273623,"internal_node_id":"0.0-4.0-0.15","subject_id":"5d70384bc4f383000128da9c","study_id":"6197b3f67c2b5cd3b6d9596a","session_id":"6197b5a6465e6a1fb77e507c","condition":"contingent","relevant_dimensions":["wings","legs"],"bee_group":{"antennae":"X","wings":"1","pattern":"X","legs":"F"},"action":"harvest","summary":"good-harvest","bonus":1.5000000000000009},{"rt":1413.4000000357628,"stimulus":"\n                    <p><b>Action: <em>harvest</em></b></p>\n                    <p>This is the bee that you just saw.</p>\n                    <img src=\"bees-with-color/bee-B1SM.svg\" width=\"200\">\n                    <p><span class=\"greenText\"><b>Successful harvest!</b></span><br>Your pay has increased by $0.02. Your bonus pay is now $0.70.</p>\n            ","response":0,"trial_type":"html-button-response","trial_index":38,"time_elapsed":275039,"internal_node_id":"0.0-4.0-1.15","subject_id":"5d70384bc4f383000128da9c","study_id":"6197b3f67c2b5cd3b6d9596a","session_id":"6197b5a6465e6a1fb77e507c","condition":"contingent","relevant_dimensions":["wings","legs"],"bee_group":{"antennae":"X","wings":"1","pattern":"X","legs":"F"},"bonus":1.5000000000000009},{"rt":2165.899999976158,"stimulus":"bees-with-color/bee-B1DM.svg","response":0,"trial_type":"image-button-response","trial_index":39,"time_elapsed":277207,"internal_node_id":"0.0-4.0-0.16","subject_id":"5d70384bc4f383000128da9c","study_id":"6197b3f67c2b5cd3b6d9596a","session_id":"6197b5a6465e6a1fb77e507c","condition":"contingent","relevant_dimensions":["wings","legs"],"bee_group":{"antennae":"X","wings":"1","pattern":"X","legs":"F"},"action":"harvest","summary":"good-harvest","bonus":1.5000000000000009},{"rt":1485.9000000357628,"stimulus":"\n                    <p><b>Action: <em>harvest</em></b></p>\n                    <p>This is the bee that you just saw.</p>\n                    <img src=\"bees-with-color/bee-B1DM.svg\" width=\"200\">\n                    <p><span class=\"greenText\"><b>Successful harvest!</b></span><br>Your pay has increased by $0.02. Your bonus pay is now $0.72.</p>\n            ","response":0,"trial_type":"html-button-response","trial_index":40,"time_elapsed":278695,"internal_node_id":"0.0-4.0-1.16","subject_id":"5d70384bc4f383000128da9c","study_id":"6197b3f67c2b5cd3b6d9596a","session_id":"6197b5a6465e6a1fb77e507c","condition":"contingent","relevant_dimensions":["wings","legs"],"bee_group":{"antennae":"X","wings":"1","pattern":"X","legs":"F"},"bonus":1.5000000000000009},{"rt":1139.8999999761581,"stimulus":"bees-with-color/bee-A1SF.svg","response":1,"trial_type":"image-button-response","trial_index":41,"time_elapsed":279839,"internal_node_id":"0.0-4.0-0.17","subject_id":"5d70384bc4f383000128da9c","study_id":"6197b3f67c2b5cd3b6d9596a","session_id":"6197b5a6465e6a1fb77e507c","condition":"contingent","relevant_dimensions":["wings","legs"],"bee_group":{"antennae":"X","wings":"1","pattern":"X","legs":"F"},"action":"avoid","summary":"good-avoid","bonus":1.5000000000000009},{"rt":1053.5,"stimulus":"\n                    <p><b>Action: <em>avoid</em></b></p>\n                    <p>This is the bee that you just saw.</p>\n                    <img src=\"bees-with-color/bee-A1SF.svg\" width=\"200\">\n                    <p><br>Your bonus pay is unchanged, and remains at $0.72.</p>\n            ","response":0,"trial_type":"html-button-response","trial_index":42,"time_elapsed":280895,"internal_node_id":"0.0-4.0-1.17","subject_id":"5d70384bc4f383000128da9c","study_id":"6197b3f67c2b5cd3b6d9596a","session_id":"6197b5a6465e6a1fb77e507c","condition":"contingent","relevant_dimensions":["wings","legs"],"bee_group":{"antennae":"X","wings":"1","pattern":"X","legs":"F"},"bonus":1.5000000000000009},{"rt":1405.5,"stimulus":"bees-with-color/bee-B1DF.svg","response":1,"trial_type":"image-button-response","trial_index":43,"time_elapsed":282303,"internal_node_id":"0.0-4.0-0.18","subject_id":"5d70384bc4f383000128da9c","study_id":"6197b3f67c2b5cd3b6d9596a","session_id":"6197b5a6465e6a1fb77e507c","condition":"contingent","relevant_dimensions":["wings","legs"],"bee_group":{"antennae":"X","wings":"1","pattern":"X","legs":"F"},"action":"avoid","summary":"good-avoid","bonus":1.5000000000000009},{"rt":957.6999999880791,"stimulus":"\n                    <p><b>Action: <em>avoid</em></b></p>\n                    <p>This is the bee that you just saw.</p>\n                    <img src=\"bees-with-color/bee-B1DF.svg\" width=\"200\">\n                    <p><br>Your bonus pay is unchanged, and remains at $0.72.</p>\n            ","response":0,"trial_type":"html-button-response","trial_index":44,"time_elapsed":283263,"internal_node_id":"0.0-4.0-1.18","subject_id":"5d70384bc4f383000128da9c","study_id":"6197b3f67c2b5cd3b6d9596a","session_id":"6197b5a6465e6a1fb77e507c","condition":"contingent","relevant_dimensions":["wings","legs"],"bee_group":{"antennae":"X","wings":"1","pattern":"X","legs":"F"},"bonus":1.5000000000000009},{"rt":1012.8999999761581,"stimulus":"bees-with-color/bee-B2SM.svg","response":0,"trial_type":"image-button-response","trial_index":45,"time_elapsed":284279,"internal_node_id":"0.0-4.0-0.19","subject_id":"5d70384bc4f383000128da9c","study_id":"6197b3f67c2b5cd3b6d9596a","session_id":"6197b5a6465e6a1fb77e507c","condition":"contingent","relevant_dimensions":["wings","legs"],"bee_group":{"antennae":"X","wings":"1","pattern":"X","legs":"F"},"action":"harvest","summary":"good-harvest","bonus":1.5000000000000009},{"rt":813.6000000238419,"stimulus":"\n                    <p><b>Action: <em>harvest</em></b></p>\n                    <p>This is the bee that you just saw.</p>\n                    <img src=\"bees-with-color/bee-B2SM.svg\" width=\"200\">\n                    <p><span class=\"greenText\"><b>Successful harvest!</b></span><br>Your pay has increased by $0.02. Your bonus pay is now $0.74.</p>\n            ","response":0,"trial_type":"html-button-response","trial_index":46,"time_elapsed":285095,"internal_node_id":"0.0-4.0-1.19","subject_id":"5d70384bc4f383000128da9c","study_id":"6197b3f67c2b5cd3b6d9596a","session_id":"6197b5a6465e6a1fb77e507c","condition":"contingent","relevant_dimensions":["wings","legs"],"bee_group":{"antennae":"X","wings":"1","pattern":"X","legs":"F"},"bonus":1.5000000000000009},{"rt":1053.2000000476837,"stimulus":"bees-with-color/bee-A1SM.svg","response":0,"trial_type":"image-button-response","trial_index":47,"time_elapsed":286151,"internal_node_id":"0.0-4.0-0.20","subject_id":"5d70384bc4f383000128da9c","study_id":"6197b3f67c2b5cd3b6d9596a","session_id":"6197b5a6465e6a1fb77e507c","condition":"contingent","relevant_dimensions":["wings","legs"],"bee_group":{"antennae":"X","wings":"1","pattern":"X","legs":"F"},"action":"harvest","summary":"good-harvest","bonus":1.5000000000000009},{"rt":852.4000000357628,"stimulus":"\n                    <p><b>Action: <em>harvest</em></b></p>\n                    <p>This is the bee that you just saw.</p>\n                    <img src=\"bees-with-color/bee-A1SM.svg\" width=\"200\">\n                    <p><span class=\"greenText\"><b>Successful harvest!</b></span><br>Your pay has increased by $0.02. Your bonus pay is now $0.76.</p>\n            ","response":0,"trial_type":"html-button-response","trial_index":48,"time_elapsed":287007,"internal_node_id":"0.0-4.0-1.20","subject_id":"5d70384bc4f383000128da9c","study_id":"6197b3f67c2b5cd3b6d9596a","session_id":"6197b5a6465e6a1fb77e507c","condition":"contingent","relevant_dimensions":["wings","legs"],"bee_group":{"antennae":"X","wings":"1","pattern":"X","legs":"F"},"bonus":1.5000000000000009},{"rt":1212.8999999761581,"stimulus":"bees-with-color/bee-B2SF.svg","response":1,"trial_type":"image-button-response","trial_index":49,"time_elapsed":288223,"internal_node_id":"0.0-4.0-0.21","subject_id":"5d70384bc4f383000128da9c","study_id":"6197b3f67c2b5cd3b6d9596a","session_id":"6197b5a6465e6a1fb77e507c","condition":"contingent","relevant_dimensions":["wings","legs"],"bee_group":{"antennae":"X","wings":"1","pattern":"X","legs":"F"},"action":"avoid","summary":"bad-avoid","bonus":1.5000000000000009},{"rt":829.6999999880791,"stimulus":"\n                    <p><b>Action: <em>avoid</em></b></p>\n                    <p>This is the bee that you just saw.</p>\n                    <img src=\"bees-with-color/bee-B2SF.svg\" width=\"200\">\n                    <p><br>Your bonus pay is unchanged, and remains at $0.76.</p>\n            ","response":0,"trial_type":"html-button-response","trial_index":50,"time_elapsed":289055,"internal_node_id":"0.0-4.0-1.21","subject_id":"5d70384bc4f383000128da9c","study_id":"6197b3f67c2b5cd3b6d9596a","session_id":"6197b5a6465e6a1fb77e507c","condition":"contingent","relevant_dimensions":["wings","legs"],"bee_group":{"antennae":"X","wings":"1","pattern":"X","legs":"F"},"bonus":1.5000000000000009},{"rt":1053.300000011921,"stimulus":"bees-with-color/bee-A1DM.svg","response":0,"trial_type":"image-button-response","trial_index":51,"time_elapsed":290111,"internal_node_id":"0.0-4.0-0.22","subject_id":"5d70384bc4f383000128da9c","study_id":"6197b3f67c2b5cd3b6d9596a","session_id":"6197b5a6465e6a1fb77e507c","condition":"contingent","relevant_dimensions":["wings","legs"],"bee_group":{"antennae":"X","wings":"1","pattern":"X","legs":"F"},"action":"harvest","summary":"good-harvest","bonus":1.5000000000000009},{"rt":1053.7000000476837,"stimulus":"\n                    <p><b>Action: <em>harvest</em></b></p>\n                    <p>This is the bee that you just saw.</p>\n                    <img src=\"bees-with-color/bee-A1DM.svg\" width=\"200\">\n                    <p><span class=\"greenText\"><b>Successful harvest!</b></span><br>Your pay has increased by $0.02. Your bonus pay is now $0.78.</p>\n            ","response":0,"trial_type":"html-button-response","trial_index":52,"time_elapsed":291167,"internal_node_id":"0.0-4.0-1.22","subject_id":"5d70384bc4f383000128da9c","study_id":"6197b3f67c2b5cd3b6d9596a","session_id":"6197b5a6465e6a1fb77e507c","condition":"contingent","relevant_dimensions":["wings","legs"],"bee_group":{"antennae":"X","wings":"1","pattern":"X","legs":"F"},"bonus":1.5000000000000009},{"rt":1757.3999999761581,"stimulus":"bees-with-color/bee-A2DF.svg","response":1,"trial_type":"image-button-response","trial_index":53,"time_elapsed":292927,"internal_node_id":"0.0-4.0-0.23","subject_id":"5d70384bc4f383000128da9c","study_id":"6197b3f67c2b5cd3b6d9596a","session_id":"6197b5a6465e6a1fb77e507c","condition":"contingent","relevant_dimensions":["wings","legs"],"bee_group":{"antennae":"X","wings":"1","pattern":"X","legs":"F"},"action":"avoid","summary":"bad-avoid","bonus":1.5000000000000009},{"rt":869.3999999761581,"stimulus":"\n                    <p><b>Action: <em>avoid</em></b></p>\n                    <p>This is the bee that you just saw.</p>\n                    <img src=\"bees-with-color/bee-A2DF.svg\" width=\"200\">\n                    <p><br>Your bonus pay is unchanged, and remains at $0.78.</p>\n            ","response":0,"trial_type":"html-button-response","trial_index":54,"time_elapsed":293799,"internal_node_id":"0.0-4.0-1.23","subject_id":"5d70384bc4f383000128da9c","study_id":"6197b3f67c2b5cd3b6d9596a","session_id":"6197b5a6465e6a1fb77e507c","condition":"contingent","relevant_dimensions":["wings","legs"],"bee_group":{"antennae":"X","wings":"1","pattern":"X","legs":"F"},"bonus":1.5000000000000009},{"rt":1429.300000011921,"stimulus":"bees-with-color/bee-A2SM.svg","response":0,"trial_type":"image-button-response","trial_index":55,"time_elapsed":295231,"internal_node_id":"0.0-4.0-0.24","subject_id":"5d70384bc4f383000128da9c","study_id":"6197b3f67c2b5cd3b6d9596a","session_id":"6197b5a6465e6a1fb77e507c","condition":"contingent","relevant_dimensions":["wings","legs"],"bee_group":{"antennae":"X","wings":"1","pattern":"X","legs":"F"},"action":"harvest","summary":"good-harvest","bonus":1.5000000000000009},{"rt":1413.1000000238419,"stimulus":"\n                    <p><b>Action: <em>harvest</em></b></p>\n                    <p>This is the bee that you just saw.</p>\n                    <img src=\"bees-with-color/bee-A2SM.svg\" width=\"200\">\n                    <p><span class=\"greenText\"><b>Successful harvest!</b></span><br>Your pay has increased by $0.02. Your bonus pay is now $0.80.</p>\n            ","response":0,"trial_type":"html-button-response","trial_index":56,"time_elapsed":296647,"internal_node_id":"0.0-4.0-1.24","subject_id":"5d70384bc4f383000128da9c","study_id":"6197b3f67c2b5cd3b6d9596a","session_id":"6197b5a6465e6a1fb77e507c","condition":"contingent","relevant_dimensions":["wings","legs"],"bee_group":{"antennae":"X","wings":"1","pattern":"X","legs":"F"},"bonus":1.5000000000000009},{"rt":1597.7000000476837,"stimulus":"bees-with-color/bee-A2DM.svg","response":0,"trial_type":"image-button-response","trial_index":57,"time_elapsed":298247,"internal_node_id":"0.0-4.0-0.25","subject_id":"5d70384bc4f383000128da9c","study_id":"6197b3f67c2b5cd3b6d9596a","session_id":"6197b5a6465e6a1fb77e507c","condition":"contingent","relevant_dimensions":["wings","legs"],"bee_group":{"antennae":"X","wings":"1","pattern":"X","legs":"F"},"action":"harvest","summary":"good-harvest","bonus":1.5000000000000009},{"rt":757.6000000238419,"stimulus":"\n                    <p><b>Action: <em>harvest</em></b></p>\n                    <p>This is the bee that you just saw.</p>\n                    <img src=\"bees-with-color/bee-A2DM.svg\" width=\"200\">\n                    <p><span class=\"greenText\"><b>Successful harvest!</b></span><br>Your pay has increased by $0.02. Your bonus pay is now $0.82.</p>\n            ","response":0,"trial_type":"html-button-response","trial_index":58,"time_elapsed":299007,"internal_node_id":"0.0-4.0-1.25","subject_id":"5d70384bc4f383000128da9c","study_id":"6197b3f67c2b5cd3b6d9596a","session_id":"6197b5a6465e6a1fb77e507c","condition":"contingent","relevant_dimensions":["wings","legs"],"bee_group":{"antennae":"X","wings":"1","pattern":"X","legs":"F"},"bonus":1.5000000000000009},{"rt":885.9000000357628,"stimulus":"bees-with-color/bee-B1SF.svg","response":1,"trial_type":"image-button-response","trial_index":59,"time_elapsed":299895,"internal_node_id":"0.0-4.0-0.26","subject_id":"5d70384bc4f383000128da9c","study_id":"6197b3f67c2b5cd3b6d9596a","session_id":"6197b5a6465e6a1fb77e507c","condition":"contingent","relevant_dimensions":["wings","legs"],"bee_group":{"antennae":"X","wings":"1","pattern":"X","legs":"F"},"action":"avoid","summary":"good-avoid","bonus":1.5000000000000009},{"rt":844.8000000119209,"stimulus":"\n                    <p><b>Action: <em>avoid</em></b></p>\n                    <p>This is the bee that you just saw.</p>\n                    <img src=\"bees-with-color/bee-B1SF.svg\" width=\"200\">\n                    <p><br>Your bonus pay is unchanged, and remains at $0.82.</p>\n            ","response":0,"trial_type":"html-button-response","trial_index":60,"time_elapsed":300744,"internal_node_id":"0.0-4.0-1.26","subject_id":"5d70384bc4f383000128da9c","study_id":"6197b3f67c2b5cd3b6d9596a","session_id":"6197b5a6465e6a1fb77e507c","condition":"contingent","relevant_dimensions":["wings","legs"],"bee_group":{"antennae":"X","wings":"1","pattern":"X","legs":"F"},"bonus":1.5000000000000009},{"rt":1004.2999999523163,"stimulus":"bees-with-color/bee-A1DF.svg","response":1,"trial_type":"image-button-response","trial_index":61,"time_elapsed":301751,"internal_node_id":"0.0-4.0-0.27","subject_id":"5d70384bc4f383000128da9c","study_id":"6197b3f67c2b5cd3b6d9596a","session_id":"6197b5a6465e6a1fb77e507c","condition":"contingent","relevant_dimensions":["wings","legs"],"bee_group":{"antennae":"X","wings":"1","pattern":"X","legs":"F"},"action":"avoid","summary":"good-avoid","bonus":1.5000000000000009},{"rt":869.1000000238419,"stimulus":"\n                    <p><b>Action: <em>avoid</em></b></p>\n                    <p>This is the bee that you just saw.</p>\n                    <img src=\"bees-with-color/bee-A1DF.svg\" width=\"200\">\n                    <p><br>Your bonus pay is unchanged, and remains at $0.82.</p>\n            ","response":0,"trial_type":"html-button-response","trial_index":62,"time_elapsed":302623,"internal_node_id":"0.0-4.0-1.27","subject_id":"5d70384bc4f383000128da9c","study_id":"6197b3f67c2b5cd3b6d9596a","session_id":"6197b5a6465e6a1fb77e507c","condition":"contingent","relevant_dimensions":["wings","legs"],"bee_group":{"antennae":"X","wings":"1","pattern":"X","legs":"F"},"bonus":1.5000000000000009},{"rt":838.0999999642372,"stimulus":"bees-with-color/bee-B2DF.svg","response":1,"trial_type":"image-button-response","trial_index":63,"time_elapsed":303463,"internal_node_id":"0.0-4.0-0.28","subject_id":"5d70384bc4f383000128da9c","study_id":"6197b3f67c2b5cd3b6d9596a","session_id":"6197b5a6465e6a1fb77e507c","condition":"contingent","relevant_dimensions":["wings","legs"],"bee_group":{"antennae":"X","wings":"1","pattern":"X","legs":"F"},"action":"avoid","summary":"bad-avoid","bonus":1.5000000000000009},{"rt":797.3999999761581,"stimulus":"\n                    <p><b>Action: <em>avoid</em></b></p>\n                    <p>This is the bee that you just saw.</p>\n                    <img src=\"bees-with-color/bee-B2DF.svg\" width=\"200\">\n                    <p><br>Your bonus pay is unchanged, and remains at $0.82.</p>\n            ","response":0,"trial_type":"html-button-response","trial_index":64,"time_elapsed":304263,"internal_node_id":"0.0-4.0-1.28","subject_id":"5d70384bc4f383000128da9c","study_id":"6197b3f67c2b5cd3b6d9596a","session_id":"6197b5a6465e6a1fb77e507c","condition":"contingent","relevant_dimensions":["wings","legs"],"bee_group":{"antennae":"X","wings":"1","pattern":"X","legs":"F"},"bonus":1.5000000000000009},{"rt":6797.699999988079,"stimulus":"bees-with-color/bee-A2SF.svg","response":1,"trial_type":"image-button-response","trial_index":65,"time_elapsed":311063,"internal_node_id":"0.0-4.0-0.29","subject_id":"5d70384bc4f383000128da9c","study_id":"6197b3f67c2b5cd3b6d9596a","session_id":"6197b5a6465e6a1fb77e507c","condition":"contingent","relevant_dimensions":["wings","legs"],"bee_group":{"antennae":"X","wings":"1","pattern":"X","legs":"F"},"action":"avoid","summary":"bad-avoid","bonus":1.5000000000000009},{"rt":1005.3000000119209,"stimulus":"\n                    <p><b>Action: <em>avoid</em></b></p>\n                    <p>This is the bee that you just saw.</p>\n                    <img src=\"bees-with-color/bee-A2SF.svg\" width=\"200\">\n                    <p><br>Your bonus pay is unchanged, and remains at $0.82.</p>\n            ","response":0,"trial_type":"html-button-response","trial_index":66,"time_elapsed":312071,"internal_node_id":"0.0-4.0-1.29","subject_id":"5d70384bc4f383000128da9c","study_id":"6197b3f67c2b5cd3b6d9596a","session_id":"6197b5a6465e6a1fb77e507c","condition":"contingent","relevant_dimensions":["wings","legs"],"bee_group":{"antennae":"X","wings":"1","pattern":"X","legs":"F"},"bonus":1.5000000000000009},{"rt":979.8000000119209,"stimulus":"bees-with-color/bee-B2DM.svg","response":0,"trial_type":"image-button-response","trial_index":67,"time_elapsed":313055,"internal_node_id":"0.0-4.0-0.30","subject_id":"5d70384bc4f383000128da9c","study_id":"6197b3f67c2b5cd3b6d9596a","session_id":"6197b5a6465e6a1fb77e507c","condition":"contingent","relevant_dimensions":["wings","legs"],"bee_group":{"antennae":"X","wings":"1","pattern":"X","legs":"F"},"action":"harvest","summary":"good-harvest","bonus":1.5000000000000009},{"rt":781.0999999642372,"stimulus":"\n                    <p><b>Action: <em>harvest</em></b></p>\n                    <p>This is the bee that you just saw.</p>\n                    <img src=\"bees-with-color/bee-B2DM.svg\" width=\"200\">\n                    <p><span class=\"greenText\"><b>Successful harvest!</b></span><br>Your pay has increased by $0.02. Your bonus pay is now $0.84.</p>\n            ","response":0,"trial_type":"html-button-response","trial_index":68,"time_elapsed":313839,"internal_node_id":"0.0-4.0-1.30","subject_id":"5d70384bc4f383000128da9c","study_id":"6197b3f67c2b5cd3b6d9596a","session_id":"6197b5a6465e6a1fb77e507c","condition":"contingent","relevant_dimensions":["wings","legs"],"bee_group":{"antennae":"X","wings":"1","pattern":"X","legs":"F"},"bonus":1.5000000000000009},{"rt":973,"stimulus":"bees-with-color/bee-B1SM.svg","response":0,"trial_type":"image-button-response","trial_index":69,"time_elapsed":314815,"internal_node_id":"0.0-4.0-0.31","subject_id":"5d70384bc4f383000128da9c","study_id":"6197b3f67c2b5cd3b6d9596a","session_id":"6197b5a6465e6a1fb77e507c","condition":"contingent","relevant_dimensions":["wings","legs"],"bee_group":{"antennae":"X","wings":"1","pattern":"X","legs":"F"},"action":"harvest","summary":"good-harvest","bonus":1.5000000000000009},{"rt":677.8000000119209,"stimulus":"\n                    <p><b>Action: <em>harvest</em></b></p>\n                    <p>This is the bee that you just saw.</p>\n                    <img src=\"bees-with-color/bee-B1SM.svg\" width=\"200\">\n                    <p><span class=\"greenText\"><b>Successful harvest!</b></span><br>Your pay has increased by $0.02. Your bonus pay is now $0.86.</p>\n            ","response":0,"trial_type":"html-button-response","trial_index":70,"time_elapsed":315495,"internal_node_id":"0.0-4.0-1.31","subject_id":"5d70384bc4f383000128da9c","study_id":"6197b3f67c2b5cd3b6d9596a","session_id":"6197b5a6465e6a1fb77e507c","condition":"contingent","relevant_dimensions":["wings","legs"],"bee_group":{"antennae":"X","wings":"1","pattern":"X","legs":"F"},"bonus":1.5000000000000009},{"rt":4965.599999964237,"stimulus":"bees-with-color/bee-A2DM.svg","response":0,"trial_type":"image-button-response","trial_index":71,"time_elapsed":320463,"internal_node_id":"0.0-4.0-0.32","subject_id":"5d70384bc4f383000128da9c","study_id":"6197b3f67c2b5cd3b6d9596a","session_id":"6197b5a6465e6a1fb77e507c","condition":"contingent","relevant_dimensions":["wings","legs"],"bee_group":{"antennae":"X","wings":"1","pattern":"X","legs":"F"},"action":"harvest","summary":"good-harvest","bonus":1.5000000000000009},{"rt":685.8000000119209,"stimulus":"\n                    <p><b>Action: <em>harvest</em></b></p>\n                    <p>This is the bee that you just saw.</p>\n                    <img src=\"bees-with-color/bee-A2DM.svg\" width=\"200\">\n                    <p><span class=\"greenText\"><b>Successful harvest!</b></span><br>Your pay has increased by $0.02. Your bonus pay is now $0.88.</p>\n            ","response":0,"trial_type":"html-button-response","trial_index":72,"time_elapsed":321151,"internal_node_id":"0.0-4.0-1.32","subject_id":"5d70384bc4f383000128da9c","study_id":"6197b3f67c2b5cd3b6d9596a","session_id":"6197b5a6465e6a1fb77e507c","condition":"contingent","relevant_dimensions":["wings","legs"],"bee_group":{"antennae":"X","wings":"1","pattern":"X","legs":"F"},"bonus":1.5000000000000009},{"rt":819.7000000476837,"stimulus":"bees-with-color/bee-A2SM.svg","response":0,"trial_type":"image-button-response","trial_index":73,"time_elapsed":321975,"internal_node_id":"0.0-4.0-0.33","subject_id":"5d70384bc4f383000128da9c","study_id":"6197b3f67c2b5cd3b6d9596a","session_id":"6197b5a6465e6a1fb77e507c","condition":"contingent","relevant_dimensions":["wings","legs"],"bee_group":{"antennae":"X","wings":"1","pattern":"X","legs":"F"},"action":"harvest","summary":"good-harvest","bonus":1.5000000000000009},{"rt":709.8999999761581,"stimulus":"\n                    <p><b>Action: <em>harvest</em></b></p>\n                    <p>This is the bee that you just saw.</p>\n                    <img src=\"bees-with-color/bee-A2SM.svg\" width=\"200\">\n                    <p><span class=\"greenText\"><b>Successful harvest!</b></span><br>Your pay has increased by $0.02. Your bonus pay is now $0.90.</p>\n            ","response":0,"trial_type":"html-button-response","trial_index":74,"time_elapsed":322687,"internal_node_id":"0.0-4.0-1.33","subject_id":"5d70384bc4f383000128da9c","study_id":"6197b3f67c2b5cd3b6d9596a","session_id":"6197b5a6465e6a1fb77e507c","condition":"contingent","relevant_dimensions":["wings","legs"],"bee_group":{"antennae":"X","wings":"1","pattern":"X","legs":"F"},"bonus":1.5000000000000009},{"rt":1101.300000011921,"stimulus":"bees-with-color/bee-A1DF.svg","response":1,"trial_type":"image-button-response","trial_index":75,"time_elapsed":323791,"internal_node_id":"0.0-4.0-0.34","subject_id":"5d70384bc4f383000128da9c","study_id":"6197b3f67c2b5cd3b6d9596a","session_id":"6197b5a6465e6a1fb77e507c","condition":"contingent","relevant_dimensions":["wings","legs"],"bee_group":{"antennae":"X","wings":"1","pattern":"X","legs":"F"},"action":"avoid","summary":"good-avoid","bonus":1.5000000000000009},{"rt":853.8000000119209,"stimulus":"\n                    <p><b>Action: <em>avoid</em></b></p>\n                    <p>This is the bee that you just saw.</p>\n                    <img src=\"bees-with-color/bee-A1DF.svg\" width=\"200\">\n                    <p><br>Your bonus pay is unchanged, and remains at $0.90.</p>\n            ","response":0,"trial_type":"html-button-response","trial_index":76,"time_elapsed":324647,"internal_node_id":"0.0-4.0-1.34","subject_id":"5d70384bc4f383000128da9c","study_id":"6197b3f67c2b5cd3b6d9596a","session_id":"6197b5a6465e6a1fb77e507c","condition":"contingent","relevant_dimensions":["wings","legs"],"bee_group":{"antennae":"X","wings":"1","pattern":"X","legs":"F"},"bonus":1.5000000000000009},{"rt":2541,"stimulus":"bees-with-color/bee-B1SF.svg","response":1,"trial_type":"image-button-response","trial_index":77,"time_elapsed":327191,"internal_node_id":"0.0-4.0-0.35","subject_id":"5d70384bc4f383000128da9c","study_id":"6197b3f67c2b5cd3b6d9596a","session_id":"6197b5a6465e6a1fb77e507c","condition":"contingent","relevant_dimensions":["wings","legs"],"bee_group":{"antennae":"X","wings":"1","pattern":"X","legs":"F"},"action":"avoid","summary":"good-avoid","bonus":1.5000000000000009},{"rt":605.3999999761581,"stimulus":"\n                    <p><b>Action: <em>avoid</em></b></p>\n                    <p>This is the bee that you just saw.</p>\n                    <img src=\"bees-with-color/bee-B1SF.svg\" width=\"200\">\n                    <p><br>Your bonus pay is unchanged, and remains at $0.90.</p>\n            ","response":0,"trial_type":"html-button-response","trial_index":78,"time_elapsed":327799,"internal_node_id":"0.0-4.0-1.35","subject_id":"5d70384bc4f383000128da9c","study_id":"6197b3f67c2b5cd3b6d9596a","session_id":"6197b5a6465e6a1fb77e507c","condition":"contingent","relevant_dimensions":["wings","legs"],"bee_group":{"antennae":"X","wings":"1","pattern":"X","legs":"F"},"bonus":1.5000000000000009},{"rt":925.1000000238419,"stimulus":"bees-with-color/bee-B1SM.svg","response":0,"trial_type":"image-button-response","trial_index":79,"time_elapsed":328727,"internal_node_id":"0.0-4.0-0.36","subject_id":"5d70384bc4f383000128da9c","study_id":"6197b3f67c2b5cd3b6d9596a","session_id":"6197b5a6465e6a1fb77e507c","condition":"contingent","relevant_dimensions":["wings","legs"],"bee_group":{"antennae":"X","wings":"1","pattern":"X","legs":"F"},"action":"harvest","summary":"good-harvest","bonus":1.5000000000000009},{"rt":764.9000000357628,"stimulus":"\n                    <p><b>Action: <em>harvest</em></b></p>\n                    <p>This is the bee that you just saw.</p>\n                    <img src=\"bees-with-color/bee-B1SM.svg\" width=\"200\">\n                    <p><span class=\"greenText\"><b>Successful harvest!</b></span><br>Your pay has increased by $0.02. Your bonus pay is now $0.92.</p>\n            ","response":0,"trial_type":"html-button-response","trial_index":80,"time_elapsed":329495,"internal_node_id":"0.0-4.0-1.36","subject_id":"5d70384bc4f383000128da9c","study_id":"6197b3f67c2b5cd3b6d9596a","session_id":"6197b5a6465e6a1fb77e507c","condition":"contingent","relevant_dimensions":["wings","legs"],"bee_group":{"antennae":"X","wings":"1","pattern":"X","legs":"F"},"bonus":1.5000000000000009},{"rt":1365.800000011921,"stimulus":"bees-with-color/bee-A1DM.svg","response":0,"trial_type":"image-button-response","trial_index":81,"time_elapsed":330863,"internal_node_id":"0.0-4.0-0.37","subject_id":"5d70384bc4f383000128da9c","study_id":"6197b3f67c2b5cd3b6d9596a","session_id":"6197b5a6465e6a1fb77e507c","condition":"contingent","relevant_dimensions":["wings","legs"],"bee_group":{"antennae":"X","wings":"1","pattern":"X","legs":"F"},"action":"harvest","summary":"good-harvest","bonus":1.5000000000000009},{"rt":621.9000000357628,"stimulus":"\n                    <p><b>Action: <em>harvest</em></b></p>\n                    <p>This is the bee that you just saw.</p>\n                    <img src=\"bees-with-color/bee-A1DM.svg\" width=\"200\">\n                    <p><span class=\"greenText\"><b>Successful harvest!</b></span><br>Your pay has increased by $0.02. Your bonus pay is now $0.94.</p>\n            ","response":0,"trial_type":"html-button-response","trial_index":82,"time_elapsed":331487,"internal_node_id":"0.0-4.0-1.37","subject_id":"5d70384bc4f383000128da9c","study_id":"6197b3f67c2b5cd3b6d9596a","session_id":"6197b5a6465e6a1fb77e507c","condition":"contingent","relevant_dimensions":["wings","legs"],"bee_group":{"antennae":"X","wings":"1","pattern":"X","legs":"F"},"bonus":1.5000000000000009},{"rt":6397.699999988079,"stimulus":"bees-with-color/bee-A1SM.svg","response":0,"trial_type":"image-button-response","trial_index":83,"time_elapsed":337887,"internal_node_id":"0.0-4.0-0.38","subject_id":"5d70384bc4f383000128da9c","study_id":"6197b3f67c2b5cd3b6d9596a","session_id":"6197b5a6465e6a1fb77e507c","condition":"contingent","relevant_dimensions":["wings","legs"],"bee_group":{"antennae":"X","wings":"1","pattern":"X","legs":"F"},"action":"harvest","summary":"good-harvest","bonus":1.5000000000000009},{"rt":1284.5,"stimulus":"\n                    <p><b>Action: <em>harvest</em></b></p>\n                    <p>This is the bee that you just saw.</p>\n                    <img src=\"bees-with-color/bee-A1SM.svg\" width=\"200\">\n                    <p><span class=\"greenText\"><b>Successful harvest!</b></span><br>Your pay has increased by $0.02. Your bonus pay is now $0.96.</p>\n            ","response":0,"trial_type":"html-button-response","trial_index":84,"time_elapsed":339174,"internal_node_id":"0.0-4.0-1.38","subject_id":"5d70384bc4f383000128da9c","study_id":"6197b3f67c2b5cd3b6d9596a","session_id":"6197b5a6465e6a1fb77e507c","condition":"contingent","relevant_dimensions":["wings","legs"],"bee_group":{"antennae":"X","wings":"1","pattern":"X","legs":"F"},"bonus":1.5000000000000009},{"rt":821.2000000476837,"stimulus":"bees-with-color/bee-B2SM.svg","response":0,"trial_type":"image-button-response","trial_index":85,"time_elapsed":339999,"internal_node_id":"0.0-4.0-0.39","subject_id":"5d70384bc4f383000128da9c","study_id":"6197b3f67c2b5cd3b6d9596a","session_id":"6197b5a6465e6a1fb77e507c","condition":"contingent","relevant_dimensions":["wings","legs"],"bee_group":{"antennae":"X","wings":"1","pattern":"X","legs":"F"},"action":"harvest","summary":"good-harvest","bonus":1.5000000000000009},{"rt":821,"stimulus":"\n                    <p><b>Action: <em>harvest</em></b></p>\n                    <p>This is the bee that you just saw.</p>\n                    <img src=\"bees-with-color/bee-B2SM.svg\" width=\"200\">\n                    <p><span class=\"greenText\"><b>Successful harvest!</b></span><br>Your pay has increased by $0.02. Your bonus pay is now $0.98.</p>\n            ","response":0,"trial_type":"html-button-response","trial_index":86,"time_elapsed":340823,"internal_node_id":"0.0-4.0-1.39","subject_id":"5d70384bc4f383000128da9c","study_id":"6197b3f67c2b5cd3b6d9596a","session_id":"6197b5a6465e6a1fb77e507c","condition":"contingent","relevant_dimensions":["wings","legs"],"bee_group":{"antennae":"X","wings":"1","pattern":"X","legs":"F"},"bonus":1.5000000000000009},{"rt":933.2999999523163,"stimulus":"bees-with-color/bee-B2SF.svg","response":1,"trial_type":"image-button-response","trial_index":87,"time_elapsed":341759,"internal_node_id":"0.0-4.0-0.40","subject_id":"5d70384bc4f383000128da9c","study_id":"6197b3f67c2b5cd3b6d9596a","session_id":"6197b5a6465e6a1fb77e507c","condition":"contingent","relevant_dimensions":["wings","legs"],"bee_group":{"antennae":"X","wings":"1","pattern":"X","legs":"F"},"action":"avoid","summary":"bad-avoid","bonus":1.5000000000000009},{"rt":573.1000000238419,"stimulus":"\n                    <p><b>Action: <em>avoid</em></b></p>\n                    <p>This is the bee that you just saw.</p>\n                    <img src=\"bees-with-color/bee-B2SF.svg\" width=\"200\">\n                    <p><br>Your bonus pay is unchanged, and remains at $0.98.</p>\n            ","response":0,"trial_type":"html-button-response","trial_index":88,"time_elapsed":342335,"internal_node_id":"0.0-4.0-1.40","subject_id":"5d70384bc4f383000128da9c","study_id":"6197b3f67c2b5cd3b6d9596a","session_id":"6197b5a6465e6a1fb77e507c","condition":"contingent","relevant_dimensions":["wings","legs"],"bee_group":{"antennae":"X","wings":"1","pattern":"X","legs":"F"},"bonus":1.5000000000000009},{"rt":1261.7000000476837,"stimulus":"bees-with-color/bee-B1DF.svg","response":1,"trial_type":"image-button-response","trial_index":89,"time_elapsed":343599,"internal_node_id":"0.0-4.0-0.41","subject_id":"5d70384bc4f383000128da9c","study_id":"6197b3f67c2b5cd3b6d9596a","session_id":"6197b5a6465e6a1fb77e507c","condition":"contingent","relevant_dimensions":["wings","legs"],"bee_group":{"antennae":"X","wings":"1","pattern":"X","legs":"F"},"action":"avoid","summary":"good-avoid","bonus":1.5000000000000009},{"rt":653.5,"stimulus":"\n                    <p><b>Action: <em>avoid</em></b></p>\n                    <p>This is the bee that you just saw.</p>\n                    <img src=\"bees-with-color/bee-B1DF.svg\" width=\"200\">\n                    <p><br>Your bonus pay is unchanged, and remains at $0.98.</p>\n            ","response":0,"trial_type":"html-button-response","trial_index":90,"time_elapsed":344256,"internal_node_id":"0.0-4.0-1.41","subject_id":"5d70384bc4f383000128da9c","study_id":"6197b3f67c2b5cd3b6d9596a","session_id":"6197b5a6465e6a1fb77e507c","condition":"contingent","relevant_dimensions":["wings","legs"],"bee_group":{"antennae":"X","wings":"1","pattern":"X","legs":"F"},"bonus":1.5000000000000009},{"rt":803.8999999761581,"stimulus":"bees-with-color/bee-A2DF.svg","response":1,"trial_type":"image-button-response","trial_index":91,"time_elapsed":345063,"internal_node_id":"0.0-4.0-0.42","subject_id":"5d70384bc4f383000128da9c","study_id":"6197b3f67c2b5cd3b6d9596a","session_id":"6197b5a6465e6a1fb77e507c","condition":"contingent","relevant_dimensions":["wings","legs"],"bee_group":{"antennae":"X","wings":"1","pattern":"X","legs":"F"},"action":"avoid","summary":"bad-avoid","bonus":1.5000000000000009},{"rt":628.6999999880791,"stimulus":"\n                    <p><b>Action: <em>avoid</em></b></p>\n                    <p>This is the bee that you just saw.</p>\n                    <img src=\"bees-with-color/bee-A2DF.svg\" width=\"200\">\n                    <p><br>Your bonus pay is unchanged, and remains at $0.98.</p>\n            ","response":0,"trial_type":"html-button-response","trial_index":92,"time_elapsed":345695,"internal_node_id":"0.0-4.0-1.42","subject_id":"5d70384bc4f383000128da9c","study_id":"6197b3f67c2b5cd3b6d9596a","session_id":"6197b5a6465e6a1fb77e507c","condition":"contingent","relevant_dimensions":["wings","legs"],"bee_group":{"antennae":"X","wings":"1","pattern":"X","legs":"F"},"bonus":1.5000000000000009},{"rt":1997.1000000238419,"stimulus":"bees-with-color/bee-A1SF.svg","response":1,"trial_type":"image-button-response","trial_index":93,"time_elapsed":347695,"internal_node_id":"0.0-4.0-0.43","subject_id":"5d70384bc4f383000128da9c","study_id":"6197b3f67c2b5cd3b6d9596a","session_id":"6197b5a6465e6a1fb77e507c","condition":"contingent","relevant_dimensions":["wings","legs"],"bee_group":{"antennae":"X","wings":"1","pattern":"X","legs":"F"},"action":"avoid","summary":"good-avoid","bonus":1.5000000000000009},{"rt":597.1999999880791,"stimulus":"\n                    <p><b>Action: <em>avoid</em></b></p>\n                    <p>This is the bee that you just saw.</p>\n                    <img src=\"bees-with-color/bee-A1SF.svg\" width=\"200\">\n                    <p><br>Your bonus pay is unchanged, and remains at $0.98.</p>\n            ","response":0,"trial_type":"html-button-response","trial_index":94,"time_elapsed":348295,"internal_node_id":"0.0-4.0-1.43","subject_id":"5d70384bc4f383000128da9c","study_id":"6197b3f67c2b5cd3b6d9596a","session_id":"6197b5a6465e6a1fb77e507c","condition":"contingent","relevant_dimensions":["wings","legs"],"bee_group":{"antennae":"X","wings":"1","pattern":"X","legs":"F"},"bonus":1.5000000000000009},{"rt":868.8000000119209,"stimulus":"bees-with-color/bee-B1DM.svg","response":0,"trial_type":"image-button-response","trial_index":95,"time_elapsed":349167,"internal_node_id":"0.0-4.0-0.44","subject_id":"5d70384bc4f383000128da9c","study_id":"6197b3f67c2b5cd3b6d9596a","session_id":"6197b5a6465e6a1fb77e507c","condition":"contingent","relevant_dimensions":["wings","legs"],"bee_group":{"antennae":"X","wings":"1","pattern":"X","legs":"F"},"action":"harvest","summary":"good-harvest","bonus":1.5000000000000009},{"rt":590.1000000238419,"stimulus":"\n                    <p><b>Action: <em>harvest</em></b></p>\n                    <p>This is the bee that you just saw.</p>\n                    <img src=\"bees-with-color/bee-B1DM.svg\" width=\"200\">\n                    <p><span class=\"greenText\"><b>Successful harvest!</b></span><br>Your pay has increased by $0.02. Your bonus pay is now $1.00.</p>\n            ","response":0,"trial_type":"html-button-response","trial_index":96,"time_elapsed":349760,"internal_node_id":"0.0-4.0-1.44","subject_id":"5d70384bc4f383000128da9c","study_id":"6197b3f67c2b5cd3b6d9596a","session_id":"6197b5a6465e6a1fb77e507c","condition":"contingent","relevant_dimensions":["wings","legs"],"bee_group":{"antennae":"X","wings":"1","pattern":"X","legs":"F"},"bonus":1.5000000000000009},{"rt":716.8000000119209,"stimulus":"bees-with-color/bee-B2DM.svg","response":0,"trial_type":"image-button-response","trial_index":97,"time_elapsed":350479,"internal_node_id":"0.0-4.0-0.45","subject_id":"5d70384bc4f383000128da9c","study_id":"6197b3f67c2b5cd3b6d9596a","session_id":"6197b5a6465e6a1fb77e507c","condition":"contingent","relevant_dimensions":["wings","legs"],"bee_group":{"antennae":"X","wings":"1","pattern":"X","legs":"F"},"action":"harvest","summary":"good-harvest","bonus":1.5000000000000009},{"rt":548.3999999761581,"stimulus":"\n                    <p><b>Action: <em>harvest</em></b></p>\n                    <p>This is the bee that you just saw.</p>\n                    <img src=\"bees-with-color/bee-B2DM.svg\" width=\"200\">\n                    <p><span class=\"greenText\"><b>Successful harvest!</b></span><br>Your pay has increased by $0.02. Your bonus pay is now $1.02.</p>\n            ","response":0,"trial_type":"html-button-response","trial_index":98,"time_elapsed":351031,"internal_node_id":"0.0-4.0-1.45","subject_id":"5d70384bc4f383000128da9c","study_id":"6197b3f67c2b5cd3b6d9596a","session_id":"6197b5a6465e6a1fb77e507c","condition":"contingent","relevant_dimensions":["wings","legs"],"bee_group":{"antennae":"X","wings":"1","pattern":"X","legs":"F"},"bonus":1.5000000000000009},{"rt":922.7999999523163,"stimulus":"bees-with-color/bee-A2SF.svg","response":1,"trial_type":"image-button-response","trial_index":99,"time_elapsed":351960,"internal_node_id":"0.0-4.0-0.46","subject_id":"5d70384bc4f383000128da9c","study_id":"6197b3f67c2b5cd3b6d9596a","session_id":"6197b5a6465e6a1fb77e507c","condition":"contingent","relevant_dimensions":["wings","legs"],"bee_group":{"antennae":"X","wings":"1","pattern":"X","legs":"F"},"action":"avoid","summary":"bad-avoid","bonus":1.5000000000000009},{"rt":572.7000000476837,"stimulus":"\n                    <p><b>Action: <em>avoid</em></b></p>\n                    <p>This is the bee that you just saw.</p>\n                    <img src=\"bees-with-color/bee-A2SF.svg\" width=\"200\">\n                    <p><br>Your bonus pay is unchanged, and remains at $1.02.</p>\n            ","response":0,"trial_type":"html-button-response","trial_index":100,"time_elapsed":352535,"internal_node_id":"0.0-4.0-1.46","subject_id":"5d70384bc4f383000128da9c","study_id":"6197b3f67c2b5cd3b6d9596a","session_id":"6197b5a6465e6a1fb77e507c","condition":"contingent","relevant_dimensions":["wings","legs"],"bee_group":{"antennae":"X","wings":"1","pattern":"X","legs":"F"},"bonus":1.5000000000000009},{"rt":981.5,"stimulus":"bees-with-color/bee-B2DF.svg","response":1,"trial_type":"image-button-response","trial_index":101,"time_elapsed":353519,"internal_node_id":"0.0-4.0-0.47","subject_id":"5d70384bc4f383000128da9c","study_id":"6197b3f67c2b5cd3b6d9596a","session_id":"6197b5a6465e6a1fb77e507c","condition":"contingent","relevant_dimensions":["wings","legs"],"bee_group":{"antennae":"X","wings":"1","pattern":"X","legs":"F"},"action":"avoid","summary":"bad-avoid","bonus":1.5000000000000009},{"rt":589.3999999761581,"stimulus":"\n                    <p><b>Action: <em>avoid</em></b></p>\n                    <p>This is the bee that you just saw.</p>\n                    <img src=\"bees-with-color/bee-B2DF.svg\" width=\"200\">\n                    <p><br>Your bonus pay is unchanged, and remains at $1.02.</p>\n            ","response":0,"trial_type":"html-button-response","trial_index":102,"time_elapsed":354112,"internal_node_id":"0.0-4.0-1.47","subject_id":"5d70384bc4f383000128da9c","study_id":"6197b3f67c2b5cd3b6d9596a","session_id":"6197b5a6465e6a1fb77e507c","condition":"contingent","relevant_dimensions":["wings","legs"],"bee_group":{"antennae":"X","wings":"1","pattern":"X","legs":"F"},"bonus":1.5000000000000009},{"rt":916.5,"stimulus":"bees-with-color/bee-B1DF.svg","response":1,"trial_type":"image-button-response","trial_index":103,"time_elapsed":355031,"internal_node_id":"0.0-4.0-0.48","subject_id":"5d70384bc4f383000128da9c","study_id":"6197b3f67c2b5cd3b6d9596a","session_id":"6197b5a6465e6a1fb77e507c","condition":"contingent","relevant_dimensions":["wings","legs"],"bee_group":{"antennae":"X","wings":"1","pattern":"X","legs":"F"},"action":"avoid","summary":"good-avoid","bonus":1.5000000000000009},{"rt":628.8000000119209,"stimulus":"\n                    <p><b>Action: <em>avoid</em></b></p>\n                    <p>This is the bee that you just saw.</p>\n                    <img src=\"bees-with-color/bee-B1DF.svg\" width=\"200\">\n                    <p><br>Your bonus pay is unchanged, and remains at $1.02.</p>\n            ","response":0,"trial_type":"html-button-response","trial_index":104,"time_elapsed":355663,"internal_node_id":"0.0-4.0-1.48","subject_id":"5d70384bc4f383000128da9c","study_id":"6197b3f67c2b5cd3b6d9596a","session_id":"6197b5a6465e6a1fb77e507c","condition":"contingent","relevant_dimensions":["wings","legs"],"bee_group":{"antennae":"X","wings":"1","pattern":"X","legs":"F"},"bonus":1.5000000000000009},{"rt":1629.199999988079,"stimulus":"bees-with-color/bee-A2SF.svg","response":1,"trial_type":"image-button-response","trial_index":105,"time_elapsed":357295,"internal_node_id":"0.0-4.0-0.49","subject_id":"5d70384bc4f383000128da9c","study_id":"6197b3f67c2b5cd3b6d9596a","session_id":"6197b5a6465e6a1fb77e507c","condition":"contingent","relevant_dimensions":["wings","legs"],"bee_group":{"antennae":"X","wings":"1","pattern":"X","legs":"F"},"action":"avoid","summary":"bad-avoid","bonus":1.5000000000000009},{"rt":620.4000000357628,"stimulus":"\n                    <p><b>Action: <em>avoid</em></b></p>\n                    <p>This is the bee that you just saw.</p>\n                    <img src=\"bees-with-color/bee-A2SF.svg\" width=\"200\">\n                    <p><br>Your bonus pay is unchanged, and remains at $1.02.</p>\n            ","response":0,"trial_type":"html-button-response","trial_index":106,"time_elapsed":357919,"internal_node_id":"0.0-4.0-1.49","subject_id":"5d70384bc4f383000128da9c","study_id":"6197b3f67c2b5cd3b6d9596a","session_id":"6197b5a6465e6a1fb77e507c","condition":"contingent","relevant_dimensions":["wings","legs"],"bee_group":{"antennae":"X","wings":"1","pattern":"X","legs":"F"},"bonus":1.5000000000000009},{"rt":797.5,"stimulus":"bees-with-color/bee-B1SF.svg","response":1,"trial_type":"image-button-response","trial_index":107,"time_elapsed":358719,"internal_node_id":"0.0-4.0-0.50","subject_id":"5d70384bc4f383000128da9c","study_id":"6197b3f67c2b5cd3b6d9596a","session_id":"6197b5a6465e6a1fb77e507c","condition":"contingent","relevant_dimensions":["wings","legs"],"bee_group":{"antennae":"X","wings":"1","pattern":"X","legs":"F"},"action":"avoid","summary":"good-avoid","bonus":1.5000000000000009},{"rt":661.3000000119209,"stimulus":"\n                    <p><b>Action: <em>avoid</em></b></p>\n                    <p>This is the bee that you just saw.</p>\n                    <img src=\"bees-with-color/bee-B1SF.svg\" width=\"200\">\n                    <p><br>Your bonus pay is unchanged, and remains at $1.02.</p>\n            ","response":0,"trial_type":"html-button-response","trial_index":108,"time_elapsed":359384,"internal_node_id":"0.0-4.0-1.50","subject_id":"5d70384bc4f383000128da9c","study_id":"6197b3f67c2b5cd3b6d9596a","session_id":"6197b5a6465e6a1fb77e507c","condition":"contingent","relevant_dimensions":["wings","legs"],"bee_group":{"antennae":"X","wings":"1","pattern":"X","legs":"F"},"bonus":1.5000000000000009},{"rt":656,"stimulus":"bees-with-color/bee-B2SF.svg","response":1,"trial_type":"image-button-response","trial_index":109,"time_elapsed":360043,"internal_node_id":"0.0-4.0-0.51","subject_id":"5d70384bc4f383000128da9c","study_id":"6197b3f67c2b5cd3b6d9596a","session_id":"6197b5a6465e6a1fb77e507c","condition":"contingent","relevant_dimensions":["wings","legs"],"bee_group":{"antennae":"X","wings":"1","pattern":"X","legs":"F"},"action":"avoid","summary":"bad-avoid","bonus":1.5000000000000009},{"rt":608.7000000476837,"stimulus":"\n                    <p><b>Action: <em>avoid</em></b></p>\n                    <p>This is the bee that you just saw.</p>\n                    <img src=\"bees-with-color/bee-B2SF.svg\" width=\"200\">\n                    <p><br>Your bonus pay is unchanged, and remains at $1.02.</p>\n            ","response":0,"trial_type":"html-button-response","trial_index":110,"time_elapsed":360655,"internal_node_id":"0.0-4.0-1.51","subject_id":"5d70384bc4f383000128da9c","study_id":"6197b3f67c2b5cd3b6d9596a","session_id":"6197b5a6465e6a1fb77e507c","condition":"contingent","relevant_dimensions":["wings","legs"],"bee_group":{"antennae":"X","wings":"1","pattern":"X","legs":"F"},"bonus":1.5000000000000009},{"rt":1164.5,"stimulus":"bees-with-color/bee-B1SM.svg","response":0,"trial_type":"image-button-response","trial_index":111,"time_elapsed":361823,"internal_node_id":"0.0-4.0-0.52","subject_id":"5d70384bc4f383000128da9c","study_id":"6197b3f67c2b5cd3b6d9596a","session_id":"6197b5a6465e6a1fb77e507c","condition":"contingent","relevant_dimensions":["wings","legs"],"bee_group":{"antennae":"X","wings":"1","pattern":"X","legs":"F"},"action":"harvest","summary":"good-harvest","bonus":1.5000000000000009},{"rt":660.5,"stimulus":"\n                    <p><b>Action: <em>harvest</em></b></p>\n                    <p>This is the bee that you just saw.</p>\n                    <img src=\"bees-with-color/bee-B1SM.svg\" width=\"200\">\n                    <p><span class=\"greenText\"><b>Successful harvest!</b></span><br>Your pay has increased by $0.02. Your bonus pay is now $1.04.</p>\n            ","response":0,"trial_type":"html-button-response","trial_index":112,"time_elapsed":362487,"internal_node_id":"0.0-4.0-1.52","subject_id":"5d70384bc4f383000128da9c","study_id":"6197b3f67c2b5cd3b6d9596a","session_id":"6197b5a6465e6a1fb77e507c","condition":"contingent","relevant_dimensions":["wings","legs"],"bee_group":{"antennae":"X","wings":"1","pattern":"X","legs":"F"},"bonus":1.5000000000000009},{"rt":1685.6000000238419,"stimulus":"bees-with-color/bee-B2SM.svg","response":0,"trial_type":"image-button-response","trial_index":113,"time_elapsed":364176,"internal_node_id":"0.0-4.0-0.53","subject_id":"5d70384bc4f383000128da9c","study_id":"6197b3f67c2b5cd3b6d9596a","session_id":"6197b5a6465e6a1fb77e507c","condition":"contingent","relevant_dimensions":["wings","legs"],"bee_group":{"antennae":"X","wings":"1","pattern":"X","legs":"F"},"action":"harvest","summary":"good-harvest","bonus":1.5000000000000009},{"rt":634.8999999761581,"stimulus":"\n                    <p><b>Action: <em>harvest</em></b></p>\n                    <p>This is the bee that you just saw.</p>\n                    <img src=\"bees-with-color/bee-B2SM.svg\" width=\"200\">\n                    <p><span class=\"greenText\"><b>Successful harvest!</b></span><br>Your pay has increased by $0.02. Your bonus pay is now $1.06.</p>\n            ","response":0,"trial_type":"html-button-response","trial_index":114,"time_elapsed":364815,"internal_node_id":"0.0-4.0-1.53","subject_id":"5d70384bc4f383000128da9c","study_id":"6197b3f67c2b5cd3b6d9596a","session_id":"6197b5a6465e6a1fb77e507c","condition":"contingent","relevant_dimensions":["wings","legs"],"bee_group":{"antennae":"X","wings":"1","pattern":"X","legs":"F"},"bonus":1.5000000000000009},{"rt":1477.5,"stimulus":"bees-with-color/bee-A1DM.svg","response":0,"trial_type":"image-button-response","trial_index":115,"time_elapsed":366295,"internal_node_id":"0.0-4.0-0.54","subject_id":"5d70384bc4f383000128da9c","study_id":"6197b3f67c2b5cd3b6d9596a","session_id":"6197b5a6465e6a1fb77e507c","condition":"contingent","relevant_dimensions":["wings","legs"],"bee_group":{"antennae":"X","wings":"1","pattern":"X","legs":"F"},"action":"harvest","summary":"good-harvest","bonus":1.5000000000000009},{"rt":796.5,"stimulus":"\n                    <p><b>Action: <em>harvest</em></b></p>\n                    <p>This is the bee that you just saw.</p>\n                    <img src=\"bees-with-color/bee-A1DM.svg\" width=\"200\">\n                    <p><span class=\"greenText\"><b>Successful harvest!</b></span><br>Your pay has increased by $0.02. Your bonus pay is now $1.08.</p>\n            ","response":0,"trial_type":"html-button-response","trial_index":116,"time_elapsed":367095,"internal_node_id":"0.0-4.0-1.54","subject_id":"5d70384bc4f383000128da9c","study_id":"6197b3f67c2b5cd3b6d9596a","session_id":"6197b5a6465e6a1fb77e507c","condition":"contingent","relevant_dimensions":["wings","legs"],"bee_group":{"antennae":"X","wings":"1","pattern":"X","legs":"F"},"bonus":1.5000000000000009},{"rt":1381.5999999642372,"stimulus":"bees-with-color/bee-B2DM.svg","response":0,"trial_type":"image-button-response","trial_index":117,"time_elapsed":368479,"internal_node_id":"0.0-4.0-0.55","subject_id":"5d70384bc4f383000128da9c","study_id":"6197b3f67c2b5cd3b6d9596a","session_id":"6197b5a6465e6a1fb77e507c","condition":"contingent","relevant_dimensions":["wings","legs"],"bee_group":{"antennae":"X","wings":"1","pattern":"X","legs":"F"},"action":"harvest","summary":"good-harvest","bonus":1.5000000000000009},{"rt":901.5,"stimulus":"\n                    <p><b>Action: <em>harvest</em></b></p>\n                    <p>This is the bee that you just saw.</p>\n                    <img src=\"bees-with-color/bee-B2DM.svg\" width=\"200\">\n                    <p><span class=\"greenText\"><b>Successful harvest!</b></span><br>Your pay has increased by $0.02. Your bonus pay is now $1.10.</p>\n            ","response":0,"trial_type":"html-button-response","trial_index":118,"time_elapsed":369383,"internal_node_id":"0.0-4.0-1.55","subject_id":"5d70384bc4f383000128da9c","study_id":"6197b3f67c2b5cd3b6d9596a","session_id":"6197b5a6465e6a1fb77e507c","condition":"contingent","relevant_dimensions":["wings","legs"],"bee_group":{"antennae":"X","wings":"1","pattern":"X","legs":"F"},"bonus":1.5000000000000009},{"rt":997.3000000119209,"stimulus":"bees-with-color/bee-A1DF.svg","response":1,"trial_type":"image-button-response","trial_index":119,"time_elapsed":370383,"internal_node_id":"0.0-4.0-0.56","subject_id":"5d70384bc4f383000128da9c","study_id":"6197b3f67c2b5cd3b6d9596a","session_id":"6197b5a6465e6a1fb77e507c","condition":"contingent","relevant_dimensions":["wings","legs"],"bee_group":{"antennae":"X","wings":"1","pattern":"X","legs":"F"},"action":"avoid","summary":"good-avoid","bonus":1.5000000000000009},{"rt":1237,"stimulus":"\n                    <p><b>Action: <em>avoid</em></b></p>\n                    <p>This is the bee that you just saw.</p>\n                    <img src=\"bees-with-color/bee-A1DF.svg\" width=\"200\">\n                    <p><br>Your bonus pay is unchanged, and remains at $1.10.</p>\n            ","response":0,"trial_type":"html-button-response","trial_index":120,"time_elapsed":371623,"internal_node_id":"0.0-4.0-1.56","subject_id":"5d70384bc4f383000128da9c","study_id":"6197b3f67c2b5cd3b6d9596a","session_id":"6197b5a6465e6a1fb77e507c","condition":"contingent","relevant_dimensions":["wings","legs"],"bee_group":{"antennae":"X","wings":"1","pattern":"X","legs":"F"},"bonus":1.5000000000000009},{"rt":4532.800000011921,"stimulus":"bees-with-color/bee-A2DF.svg","response":1,"trial_type":"image-button-response","trial_index":121,"time_elapsed":376159,"internal_node_id":"0.0-4.0-0.57","subject_id":"5d70384bc4f383000128da9c","study_id":"6197b3f67c2b5cd3b6d9596a","session_id":"6197b5a6465e6a1fb77e507c","condition":"contingent","relevant_dimensions":["wings","legs"],"bee_group":{"antennae":"X","wings":"1","pattern":"X","legs":"F"},"action":"avoid","summary":"bad-avoid","bonus":1.5000000000000009},{"rt":549,"stimulus":"\n                    <p><b>Action: <em>avoid</em></b></p>\n                    <p>This is the bee that you just saw.</p>\n                    <img src=\"bees-with-color/bee-A2DF.svg\" width=\"200\">\n                    <p><br>Your bonus pay is unchanged, and remains at $1.10.</p>\n            ","response":0,"trial_type":"html-button-response","trial_index":122,"time_elapsed":376711,"internal_node_id":"0.0-4.0-1.57","subject_id":"5d70384bc4f383000128da9c","study_id":"6197b3f67c2b5cd3b6d9596a","session_id":"6197b5a6465e6a1fb77e507c","condition":"contingent","relevant_dimensions":["wings","legs"],"bee_group":{"antennae":"X","wings":"1","pattern":"X","legs":"F"},"bonus":1.5000000000000009},{"rt":1124.8999999761581,"stimulus":"bees-with-color/bee-A1SF.svg","response":1,"trial_type":"image-button-response","trial_index":123,"time_elapsed":377839,"internal_node_id":"0.0-4.0-0.58","subject_id":"5d70384bc4f383000128da9c","study_id":"6197b3f67c2b5cd3b6d9596a","session_id":"6197b5a6465e6a1fb77e507c","condition":"contingent","relevant_dimensions":["wings","legs"],"bee_group":{"antennae":"X","wings":"1","pattern":"X","legs":"F"},"action":"avoid","summary":"good-avoid","bonus":1.5000000000000009},{"rt":717,"stimulus":"\n                    <p><b>Action: <em>avoid</em></b></p>\n                    <p>This is the bee that you just saw.</p>\n                    <img src=\"bees-with-color/bee-A1SF.svg\" width=\"200\">\n                    <p><br>Your bonus pay is unchanged, and remains at $1.10.</p>\n            ","response":0,"trial_type":"html-button-response","trial_index":124,"time_elapsed":378559,"internal_node_id":"0.0-4.0-1.58","subject_id":"5d70384bc4f383000128da9c","study_id":"6197b3f67c2b5cd3b6d9596a","session_id":"6197b5a6465e6a1fb77e507c","condition":"contingent","relevant_dimensions":["wings","legs"],"bee_group":{"antennae":"X","wings":"1","pattern":"X","legs":"F"},"bonus":1.5000000000000009},{"rt":1260.699999988079,"stimulus":"bees-with-color/bee-A1SM.svg","response":0,"trial_type":"image-button-response","trial_index":125,"time_elapsed":379823,"internal_node_id":"0.0-4.0-0.59","subject_id":"5d70384bc4f383000128da9c","study_id":"6197b3f67c2b5cd3b6d9596a","session_id":"6197b5a6465e6a1fb77e507c","condition":"contingent","relevant_dimensions":["wings","legs"],"bee_group":{"antennae":"X","wings":"1","pattern":"X","legs":"F"},"action":"harvest","summary":"good-harvest","bonus":1.5000000000000009},{"rt":948.7999999523163,"stimulus":"\n                    <p><b>Action: <em>harvest</em></b></p>\n                    <p>This is the bee that you just saw.</p>\n                    <img src=\"bees-with-color/bee-A1SM.svg\" width=\"200\">\n                    <p><span class=\"greenText\"><b>Successful harvest!</b></span><br>Your pay has increased by $0.02. Your bonus pay is now $1.12.</p>\n            ","response":0,"trial_type":"html-button-response","trial_index":126,"time_elapsed":380775,"internal_node_id":"0.0-4.0-1.59","subject_id":"5d70384bc4f383000128da9c","study_id":"6197b3f67c2b5cd3b6d9596a","session_id":"6197b5a6465e6a1fb77e507c","condition":"contingent","relevant_dimensions":["wings","legs"],"bee_group":{"antennae":"X","wings":"1","pattern":"X","legs":"F"},"bonus":1.5000000000000009},{"rt":1749.300000011921,"stimulus":"bees-with-color/bee-B2DF.svg","response":1,"trial_type":"image-button-response","trial_index":127,"time_elapsed":382527,"internal_node_id":"0.0-4.0-0.60","subject_id":"5d70384bc4f383000128da9c","study_id":"6197b3f67c2b5cd3b6d9596a","session_id":"6197b5a6465e6a1fb77e507c","condition":"contingent","relevant_dimensions":["wings","legs"],"bee_group":{"antennae":"X","wings":"1","pattern":"X","legs":"F"},"action":"avoid","summary":"bad-avoid","bonus":1.5000000000000009},{"rt":716.3000000119209,"stimulus":"\n                    <p><b>Action: <em>avoid</em></b></p>\n                    <p>This is the bee that you just saw.</p>\n                    <img src=\"bees-with-color/bee-B2DF.svg\" width=\"200\">\n                    <p><br>Your bonus pay is unchanged, and remains at $1.12.</p>\n            ","response":0,"trial_type":"html-button-response","trial_index":128,"time_elapsed":383247,"internal_node_id":"0.0-4.0-1.60","subject_id":"5d70384bc4f383000128da9c","study_id":"6197b3f67c2b5cd3b6d9596a","session_id":"6197b5a6465e6a1fb77e507c","condition":"contingent","relevant_dimensions":["wings","legs"],"bee_group":{"antennae":"X","wings":"1","pattern":"X","legs":"F"},"bonus":1.5000000000000009},{"rt":9469.199999988079,"stimulus":"bees-with-color/bee-B1DM.svg","response":0,"trial_type":"image-button-response","trial_index":129,"time_elapsed":392719,"internal_node_id":"0.0-4.0-0.61","subject_id":"5d70384bc4f383000128da9c","study_id":"6197b3f67c2b5cd3b6d9596a","session_id":"6197b5a6465e6a1fb77e507c","condition":"contingent","relevant_dimensions":["wings","legs"],"bee_group":{"antennae":"X","wings":"1","pattern":"X","legs":"F"},"action":"harvest","summary":"good-harvest","bonus":1.5000000000000009},{"rt":693.3000000119209,"stimulus":"\n                    <p><b>Action: <em>harvest</em></b></p>\n                    <p>This is the bee that you just saw.</p>\n                    <img src=\"bees-with-color/bee-B1DM.svg\" width=\"200\">\n                    <p><span class=\"greenText\"><b>Successful harvest!</b></span><br>Your pay has increased by $0.02. Your bonus pay is now $1.14.</p>\n            ","response":0,"trial_type":"html-button-response","trial_index":130,"time_elapsed":393415,"internal_node_id":"0.0-4.0-1.61","subject_id":"5d70384bc4f383000128da9c","study_id":"6197b3f67c2b5cd3b6d9596a","session_id":"6197b5a6465e6a1fb77e507c","condition":"contingent","relevant_dimensions":["wings","legs"],"bee_group":{"antennae":"X","wings":"1","pattern":"X","legs":"F"},"bonus":1.5000000000000009},{"rt":5020.300000011921,"stimulus":"bees-with-color/bee-A2DM.svg","response":0,"trial_type":"image-button-response","trial_index":131,"time_elapsed":398439,"internal_node_id":"0.0-4.0-0.62","subject_id":"5d70384bc4f383000128da9c","study_id":"6197b3f67c2b5cd3b6d9596a","session_id":"6197b5a6465e6a1fb77e507c","condition":"contingent","relevant_dimensions":["wings","legs"],"bee_group":{"antennae":"X","wings":"1","pattern":"X","legs":"F"},"action":"harvest","summary":"good-harvest","bonus":1.5000000000000009},{"rt":676.8999999761581,"stimulus":"\n                    <p><b>Action: <em>harvest</em></b></p>\n                    <p>This is the bee that you just saw.</p>\n                    <img src=\"bees-with-color/bee-A2DM.svg\" width=\"200\">\n                    <p><span class=\"greenText\"><b>Successful harvest!</b></span><br>Your pay has increased by $0.02. Your bonus pay is now $1.16.</p>\n            ","response":0,"trial_type":"html-button-response","trial_index":132,"time_elapsed":399119,"internal_node_id":"0.0-4.0-1.62","subject_id":"5d70384bc4f383000128da9c","study_id":"6197b3f67c2b5cd3b6d9596a","session_id":"6197b5a6465e6a1fb77e507c","condition":"contingent","relevant_dimensions":["wings","legs"],"bee_group":{"antennae":"X","wings":"1","pattern":"X","legs":"F"},"bonus":1.5000000000000009},{"rt":1812.3999999761581,"stimulus":"bees-with-color/bee-A2SM.svg","response":0,"trial_type":"image-button-response","trial_index":133,"time_elapsed":400935,"internal_node_id":"0.0-4.0-0.63","subject_id":"5d70384bc4f383000128da9c","study_id":"6197b3f67c2b5cd3b6d9596a","session_id":"6197b5a6465e6a1fb77e507c","condition":"contingent","relevant_dimensions":["wings","legs"],"bee_group":{"antennae":"X","wings":"1","pattern":"X","legs":"F"},"action":"harvest","summary":"good-harvest","bonus":1.5000000000000009},{"rt":1260.5,"stimulus":"\n                    <p><b>Action: <em>harvest</em></b></p>\n                    <p>This is the bee that you just saw.</p>\n                    <img src=\"bees-with-color/bee-A2SM.svg\" width=\"200\">\n                    <p><span class=\"greenText\"><b>Successful harvest!</b></span><br>Your pay has increased by $0.02. Your bonus pay is now $1.18.</p>\n            ","response":0,"trial_type":"html-button-response","trial_index":134,"time_elapsed":402199,"internal_node_id":"0.0-4.0-1.63","subject_id":"5d70384bc4f383000128da9c","study_id":"6197b3f67c2b5cd3b6d9596a","session_id":"6197b5a6465e6a1fb77e507c","condition":"contingent","relevant_dimensions":["wings","legs"],"bee_group":{"antennae":"X","wings":"1","pattern":"X","legs":"F"},"bonus":1.5000000000000009},{"rt":8250.300000011921,"stimulus":"You have completed the first part of this experiment.<br><br>You will now begin a shorter second part, in which you will receive no feedback.<br>The same rules regarding bonus pay apply.<br><br>Press any key to begin.","response":" ","trial_type":"html-keyboard-response","trial_index":135,"time_elapsed":410453,"internal_node_id":"0.0-5.0","subject_id":"5d70384bc4f383000128da9c","study_id":"6197b3f67c2b5cd3b6d9596a","session_id":"6197b5a6465e6a1fb77e507c","condition":"contingent","relevant_dimensions":["wings","legs"],"bee_group":{"antennae":"X","wings":"1","pattern":"X","legs":"F"},"bonus":1.5000000000000009},{"rt":3824.600000023842,"stimulus":"bees-with-color/bee-A1DF.svg","response":1,"trial_type":"image-button-response","trial_index":136,"time_elapsed":414296,"internal_node_id":"0.0-6.0-0.0","subject_id":"5d70384bc4f383000128da9c","study_id":"6197b3f67c2b5cd3b6d9596a","session_id":"6197b5a6465e6a1fb77e507c","condition":"contingent","relevant_dimensions":["wings","legs"],"bee_group":{"antennae":"X","wings":"1","pattern":"X","legs":"F"},"bonus":1.5000000000000009},{"rt":1816.8999999761581,"stimulus":"bees-with-color/bee-B2SM.svg","response":0,"trial_type":"image-button-response","trial_index":137,"time_elapsed":416119,"internal_node_id":"0.0-6.0-0.1","subject_id":"5d70384bc4f383000128da9c","study_id":"6197b3f67c2b5cd3b6d9596a","session_id":"6197b5a6465e6a1fb77e507c","condition":"contingent","relevant_dimensions":["wings","legs"],"bee_group":{"antennae":"X","wings":"1","pattern":"X","legs":"F"},"bonus":1.5000000000000009},{"rt":2866.399999976158,"stimulus":"bees-with-color/bee-A2DM.svg","response":0,"trial_type":"image-button-response","trial_index":138,"time_elapsed":418991,"internal_node_id":"0.0-6.0-0.2","subject_id":"5d70384bc4f383000128da9c","study_id":"6197b3f67c2b5cd3b6d9596a","session_id":"6197b5a6465e6a1fb77e507c","condition":"contingent","relevant_dimensions":["wings","legs"],"bee_group":{"antennae":"X","wings":"1","pattern":"X","legs":"F"},"bonus":1.5000000000000009},{"rt":1530.6000000238419,"stimulus":"bees-with-color/bee-B2SF.svg","response":1,"trial_type":"image-button-response","trial_index":139,"time_elapsed":420527,"internal_node_id":"0.0-6.0-0.3","subject_id":"5d70384bc4f383000128da9c","study_id":"6197b3f67c2b5cd3b6d9596a","session_id":"6197b5a6465e6a1fb77e507c","condition":"contingent","relevant_dimensions":["wings","legs"],"bee_group":{"antennae":"X","wings":"1","pattern":"X","legs":"F"},"bonus":1.5000000000000009},{"rt":1122.2999999523163,"stimulus":"bees-with-color/bee-A2SF.svg","response":1,"trial_type":"image-button-response","trial_index":140,"time_elapsed":421655,"internal_node_id":"0.0-6.0-0.4","subject_id":"5d70384bc4f383000128da9c","study_id":"6197b3f67c2b5cd3b6d9596a","session_id":"6197b5a6465e6a1fb77e507c","condition":"contingent","relevant_dimensions":["wings","legs"],"bee_group":{"antennae":"X","wings":"1","pattern":"X","legs":"F"},"bonus":1.5000000000000009},{"rt":1138.1000000238419,"stimulus":"bees-with-color/bee-B1SM.svg","response":0,"trial_type":"image-button-response","trial_index":141,"time_elapsed":422800,"internal_node_id":"0.0-6.0-0.5","subject_id":"5d70384bc4f383000128da9c","study_id":"6197b3f67c2b5cd3b6d9596a","session_id":"6197b5a6465e6a1fb77e507c","condition":"contingent","relevant_dimensions":["wings","legs"],"bee_group":{"antennae":"X","wings":"1","pattern":"X","legs":"F"},"bonus":1.5000000000000009},{"rt":1113.3999999761581,"stimulus":"bees-with-color/bee-A2DF.svg","response":1,"trial_type":"image-button-response","trial_index":142,"time_elapsed":423919,"internal_node_id":"0.0-6.0-0.6","subject_id":"5d70384bc4f383000128da9c","study_id":"6197b3f67c2b5cd3b6d9596a","session_id":"6197b5a6465e6a1fb77e507c","condition":"contingent","relevant_dimensions":["wings","legs"],"bee_group":{"antennae":"X","wings":"1","pattern":"X","legs":"F"},"bonus":1.5000000000000009},{"rt":1145.5999999642372,"stimulus":"bees-with-color/bee-B1SF.svg","response":1,"trial_type":"image-button-response","trial_index":143,"time_elapsed":425071,"internal_node_id":"0.0-6.0-0.7","subject_id":"5d70384bc4f383000128da9c","study_id":"6197b3f67c2b5cd3b6d9596a","session_id":"6197b5a6465e6a1fb77e507c","condition":"contingent","relevant_dimensions":["wings","legs"],"bee_group":{"antennae":"X","wings":"1","pattern":"X","legs":"F"},"bonus":1.5000000000000009},{"rt":1443.3999999761581,"stimulus":"bees-with-color/bee-A1SM.svg","response":0,"trial_type":"image-button-response","trial_index":144,"time_elapsed":426519,"internal_node_id":"0.0-6.0-0.8","subject_id":"5d70384bc4f383000128da9c","study_id":"6197b3f67c2b5cd3b6d9596a","session_id":"6197b5a6465e6a1fb77e507c","condition":"contingent","relevant_dimensions":["wings","legs"],"bee_group":{"antennae":"X","wings":"1","pattern":"X","legs":"F"},"bonus":1.5000000000000009},{"rt":891.5999999642372,"stimulus":"bees-with-color/bee-B1DF.svg","response":1,"trial_type":"image-button-response","trial_index":145,"time_elapsed":427415,"internal_node_id":"0.0-6.0-0.9","subject_id":"5d70384bc4f383000128da9c","study_id":"6197b3f67c2b5cd3b6d9596a","session_id":"6197b5a6465e6a1fb77e507c","condition":"contingent","relevant_dimensions":["wings","legs"],"bee_group":{"antennae":"X","wings":"1","pattern":"X","legs":"F"},"bonus":1.5000000000000009},{"rt":835.6000000238419,"stimulus":"bees-with-color/bee-B2DF.svg","response":1,"trial_type":"image-button-response","trial_index":146,"time_elapsed":428255,"internal_node_id":"0.0-6.0-0.10","subject_id":"5d70384bc4f383000128da9c","study_id":"6197b3f67c2b5cd3b6d9596a","session_id":"6197b5a6465e6a1fb77e507c","condition":"contingent","relevant_dimensions":["wings","legs"],"bee_group":{"antennae":"X","wings":"1","pattern":"X","legs":"F"},"bonus":1.5000000000000009},{"rt":947,"stimulus":"bees-with-color/bee-A2SM.svg","response":0,"trial_type":"image-button-response","trial_index":147,"time_elapsed":429207,"internal_node_id":"0.0-6.0-0.11","subject_id":"5d70384bc4f383000128da9c","study_id":"6197b3f67c2b5cd3b6d9596a","session_id":"6197b5a6465e6a1fb77e507c","condition":"contingent","relevant_dimensions":["wings","legs"],"bee_group":{"antennae":"X","wings":"1","pattern":"X","legs":"F"},"bonus":1.5000000000000009},{"rt":899.5,"stimulus":"bees-with-color/bee-A1DM.svg","response":0,"trial_type":"image-button-response","trial_index":148,"time_elapsed":430111,"internal_node_id":"0.0-6.0-0.12","subject_id":"5d70384bc4f383000128da9c","study_id":"6197b3f67c2b5cd3b6d9596a","session_id":"6197b5a6465e6a1fb77e507c","condition":"contingent","relevant_dimensions":["wings","legs"],"bee_group":{"antennae":"X","wings":"1","pattern":"X","legs":"F"},"bonus":1.5000000000000009},{"rt":802.8000000119209,"stimulus":"bees-with-color/bee-B1DM.svg","response":0,"trial_type":"image-button-response","trial_index":149,"time_elapsed":430919,"internal_node_id":"0.0-6.0-0.13","subject_id":"5d70384bc4f383000128da9c","study_id":"6197b3f67c2b5cd3b6d9596a","session_id":"6197b5a6465e6a1fb77e507c","condition":"contingent","relevant_dimensions":["wings","legs"],"bee_group":{"antennae":"X","wings":"1","pattern":"X","legs":"F"},"bonus":1.5000000000000009},{"rt":946.6999999880791,"stimulus":"bees-with-color/bee-A1SF.svg","response":1,"trial_type":"image-button-response","trial_index":150,"time_elapsed":431871,"internal_node_id":"0.0-6.0-0.14","subject_id":"5d70384bc4f383000128da9c","study_id":"6197b3f67c2b5cd3b6d9596a","session_id":"6197b5a6465e6a1fb77e507c","condition":"contingent","relevant_dimensions":["wings","legs"],"bee_group":{"antennae":"X","wings":"1","pattern":"X","legs":"F"},"bonus":1.5000000000000009},{"rt":1091,"stimulus":"bees-with-color/bee-B2DM.svg","response":0,"trial_type":"image-button-response","trial_index":151,"time_elapsed":432967,"internal_node_id":"0.0-6.0-0.15","subject_id":"5d70384bc4f383000128da9c","study_id":"6197b3f67c2b5cd3b6d9596a","session_id":"6197b5a6465e6a1fb77e507c","condition":"contingent","relevant_dimensions":["wings","legs"],"bee_group":{"antennae":"X","wings":"1","pattern":"X","legs":"F"},"bonus":1.5000000000000009},{"rt":3028.400000035763,"stimulus":"bees-with-color/bee-B2SM.svg","response":0,"trial_type":"image-button-response","trial_index":152,"time_elapsed":435999,"internal_node_id":"0.0-6.0-0.16","subject_id":"5d70384bc4f383000128da9c","study_id":"6197b3f67c2b5cd3b6d9596a","session_id":"6197b5a6465e6a1fb77e507c","condition":"contingent","relevant_dimensions":["wings","legs"],"bee_group":{"antennae":"X","wings":"1","pattern":"X","legs":"F"},"bonus":1.5000000000000009},{"rt":1123.7000000476837,"stimulus":"bees-with-color/bee-A2SM.svg","response":0,"trial_type":"image-button-response","trial_index":153,"time_elapsed":437127,"internal_node_id":"0.0-6.0-0.17","subject_id":"5d70384bc4f383000128da9c","study_id":"6197b3f67c2b5cd3b6d9596a","session_id":"6197b5a6465e6a1fb77e507c","condition":"contingent","relevant_dimensions":["wings","legs"],"bee_group":{"antennae":"X","wings":"1","pattern":"X","legs":"F"},"bonus":1.5000000000000009},{"rt":995.6000000238419,"stimulus":"bees-with-color/bee-A1DF.svg","response":1,"trial_type":"image-button-response","trial_index":154,"time_elapsed":438127,"internal_node_id":"0.0-6.0-0.18","subject_id":"5d70384bc4f383000128da9c","study_id":"6197b3f67c2b5cd3b6d9596a","session_id":"6197b5a6465e6a1fb77e507c","condition":"contingent","relevant_dimensions":["wings","legs"],"bee_group":{"antennae":"X","wings":"1","pattern":"X","legs":"F"},"bonus":1.5000000000000009},{"rt":899.3999999761581,"stimulus":"bees-with-color/bee-A1SF.svg","response":1,"trial_type":"image-button-response","trial_index":155,"time_elapsed":439031,"internal_node_id":"0.0-6.0-0.19","subject_id":"5d70384bc4f383000128da9c","study_id":"6197b3f67c2b5cd3b6d9596a","session_id":"6197b5a6465e6a1fb77e507c","condition":"contingent","relevant_dimensions":["wings","legs"],"bee_group":{"antennae":"X","wings":"1","pattern":"X","legs":"F"},"bonus":1.5000000000000009},{"rt":1116.5,"stimulus":"bees-with-color/bee-B2SF.svg","response":1,"trial_type":"image-button-response","trial_index":156,"time_elapsed":440151,"internal_node_id":"0.0-6.0-0.20","subject_id":"5d70384bc4f383000128da9c","study_id":"6197b3f67c2b5cd3b6d9596a","session_id":"6197b5a6465e6a1fb77e507c","condition":"contingent","relevant_dimensions":["wings","legs"],"bee_group":{"antennae":"X","wings":"1","pattern":"X","legs":"F"},"bonus":1.5000000000000009},{"rt":756.5,"stimulus":"bees-with-color/bee-A2SF.svg","response":1,"trial_type":"image-button-response","trial_index":157,"time_elapsed":440911,"internal_node_id":"0.0-6.0-0.21","subject_id":"5d70384bc4f383000128da9c","study_id":"6197b3f67c2b5cd3b6d9596a","session_id":"6197b5a6465e6a1fb77e507c","condition":"contingent","relevant_dimensions":["wings","legs"],"bee_group":{"antennae":"X","wings":"1","pattern":"X","legs":"F"},"bonus":1.5000000000000009},{"rt":1148.3999999761581,"stimulus":"bees-with-color/bee-B1SM.svg","response":0,"trial_type":"image-button-response","trial_index":158,"time_elapsed":442063,"internal_node_id":"0.0-6.0-0.22","subject_id":"5d70384bc4f383000128da9c","study_id":"6197b3f67c2b5cd3b6d9596a","session_id":"6197b5a6465e6a1fb77e507c","condition":"contingent","relevant_dimensions":["wings","legs"],"bee_group":{"antennae":"X","wings":"1","pattern":"X","legs":"F"},"bonus":1.5000000000000009},{"rt":2684.199999988079,"stimulus":"bees-with-color/bee-A1DM.svg","response":0,"trial_type":"image-button-response","trial_index":159,"time_elapsed":444751,"internal_node_id":"0.0-6.0-0.23","subject_id":"5d70384bc4f383000128da9c","study_id":"6197b3f67c2b5cd3b6d9596a","session_id":"6197b5a6465e6a1fb77e507c","condition":"contingent","relevant_dimensions":["wings","legs"],"bee_group":{"antennae":"X","wings":"1","pattern":"X","legs":"F"},"bonus":1.5000000000000009},{"rt":1140.6000000238419,"stimulus":"bees-with-color/bee-B2DF.svg","response":1,"trial_type":"image-button-response","trial_index":160,"time_elapsed":445895,"internal_node_id":"0.0-6.0-0.24","subject_id":"5d70384bc4f383000128da9c","study_id":"6197b3f67c2b5cd3b6d9596a","session_id":"6197b5a6465e6a1fb77e507c","condition":"contingent","relevant_dimensions":["wings","legs"],"bee_group":{"antennae":"X","wings":"1","pattern":"X","legs":"F"},"bonus":1.5000000000000009},{"rt":1012.3999999761581,"stimulus":"bees-with-color/bee-B1SF.svg","response":1,"trial_type":"image-button-response","trial_index":161,"time_elapsed":446911,"internal_node_id":"0.0-6.0-0.25","subject_id":"5d70384bc4f383000128da9c","study_id":"6197b3f67c2b5cd3b6d9596a","session_id":"6197b5a6465e6a1fb77e507c","condition":"contingent","relevant_dimensions":["wings","legs"],"bee_group":{"antennae":"X","wings":"1","pattern":"X","legs":"F"},"bonus":1.5000000000000009},{"rt":1092.5,"stimulus":"bees-with-color/bee-A1SM.svg","response":0,"trial_type":"image-button-response","trial_index":162,"time_elapsed":448007,"internal_node_id":"0.0-6.0-0.26","subject_id":"5d70384bc4f383000128da9c","study_id":"6197b3f67c2b5cd3b6d9596a","session_id":"6197b5a6465e6a1fb77e507c","condition":"contingent","relevant_dimensions":["wings","legs"],"bee_group":{"antennae":"X","wings":"1","pattern":"X","legs":"F"},"bonus":1.5000000000000009},{"rt":1053.1000000238419,"stimulus":"bees-with-color/bee-A2DF.svg","response":1,"trial_type":"image-button-response","trial_index":163,"time_elapsed":449063,"internal_node_id":"0.0-6.0-0.27","subject_id":"5d70384bc4f383000128da9c","study_id":"6197b3f67c2b5cd3b6d9596a","session_id":"6197b5a6465e6a1fb77e507c","condition":"contingent","relevant_dimensions":["wings","legs"],"bee_group":{"antennae":"X","wings":"1","pattern":"X","legs":"F"},"bonus":1.5000000000000009},{"rt":1364.9000000357628,"stimulus":"bees-with-color/bee-B1DF.svg","response":1,"trial_type":"image-button-response","trial_index":164,"time_elapsed":450431,"internal_node_id":"0.0-6.0-0.28","subject_id":"5d70384bc4f383000128da9c","study_id":"6197b3f67c2b5cd3b6d9596a","session_id":"6197b5a6465e6a1fb77e507c","condition":"contingent","relevant_dimensions":["wings","legs"],"bee_group":{"antennae":"X","wings":"1","pattern":"X","legs":"F"},"bonus":1.5000000000000009},{"rt":876.8000000119209,"stimulus":"bees-with-color/bee-B1DM.svg","response":0,"trial_type":"image-button-response","trial_index":165,"time_elapsed":451311,"internal_node_id":"0.0-6.0-0.29","subject_id":"5d70384bc4f383000128da9c","study_id":"6197b3f67c2b5cd3b6d9596a","session_id":"6197b5a6465