[{"success":true,"trial_type":"fullscreen","trial_index":0,"time_elapsed":4757,"internal_node_id":"0.0-0.0","subject_id":"6128088290e183700b1060e2","study_id":"6197b3f67c2b5cd3b6d9596a","session_id":"6197b9e9743846e20e523ad2","condition":"contingent","relevant_dimensions":["antennae","wings"],"bee_group":{"antennae":"B","wings":"1","pattern":"X","legs":"X"},"bonus":1.5800000000000014},{"success":true,"timeout":false,"failed_images":[],"failed_audio":[],"failed_video":[],"trial_type":"preload","trial_index":1,"time_elapsed":6241,"internal_node_id":"0.0-1.0","subject_id":"6128088290e183700b1060e2","study_id":"6197b3f67c2b5cd3b6d9596a","session_id":"6197b9e9743846e20e523ad2","condition":"contingent","relevant_dimensions":["antennae","wings"],"bee_group":{"antennae":"B","wings":"1","pattern":"X","legs":"X"},"bonus":1.5800000000000014},{"rt":1693.8999999761581,"stimulus":"Welcome! Press any key to begin.","response":" ","trial_type":"html-keyboard-response","trial_index":2,"time_elapsed":7936,"internal_node_id":"0.0-2.0","subject_id":"6128088290e183700b1060e2","study_id":"6197b3f67c2b5cd3b6d9596a","session_id":"6197b9e9743846e20e523ad2","condition":"contingent","relevant_dimensions":["antennae","wings"],"bee_group":{"antennae":"B","wings":"1","pattern":"X","legs":"X"},"bonus":1.5800000000000014},{"view_history":[{"page_index":0,"viewing_time":7151.700000047684},{"page_index":1,"viewing_time":10586.5},{"page_index":2,"viewing_time":8819.5},{"page_index":3,"viewing_time":16276.899999976158},{"page_index":4,"viewing_time":5047.199999928474},{"page_index":5,"viewing_time":6425.5},{"page_index":6,"viewing_time":7165.800000071526},{"page_index":7,"viewing_time":6648},{"page_index":8,"viewing_time":5979.5},{"page_index":9,"viewing_time":4772},{"page_index":10,"viewing_time":4453},{"page_index":11,"viewing_time":51912.799999952316},{"page_index":12,"viewing_time":7733.300000071526},{"page_index":13,"viewing_time":1697.7999999523163},{"page_index":14,"viewing_time":1734.1000000238419}],"rt":146403.89999997616,"trial_type":"instructions","trial_index":3,"time_elapsed":154349,"internal_node_id":"0.0-3.0-0.0","subject_id":"6128088290e183700b1060e2","study_id":"6197b3f67c2b5cd3b6d9596a","session_id":"6197b9e9743846e20e523ad2","condition":"contingent","relevant_dimensions":["antennae","wings"],"bee_group":{"antennae":"B","wings":"1","pattern":"X","legs":"X"},"bonus":1.5800000000000014},{"rt":15306.599999904633,"response":{"Q0":["Two or six legs","Stripes or spots on body","Single or double wings","Antennae or no antennae"]},"question_order":[0],"trial_type":"survey-multi-select","trial_index":4,"time_elapsed":169659,"internal_node_id":"0.0-3.0-1.0","subject_id":"6128088290e183700b1060e2","study_id":"6197b3f67c2b5cd3b6d9596a","session_id":"6197b9e9743846e20e523ad2","condition":"contingent","relevant_dimensions":["antennae","wings"],"bee_group":{"antennae":"B","wings":"1","pattern":"X","legs":"X"},"correct":true,"bonus":1.5800000000000014},{"rt":21968.899999976158,"response":{"Q1":"No.","Q2":"Based on the four features of the bee.","Q3":"You do not learn if it was friendly or dangerous, and do not alter your bonus."},"question_order":[0,1,2],"trial_type":"survey-multi-choice","trial_index":5,"time_elapsed":191630,"internal_node_id":"0.0-3.0-2.0","subject_id":"6128088290e183700b1060e2","study_id":"6197b3f67c2b5cd3b6d9596a","session_id":"6197b9e9743846e20e523ad2","condition":"contingent","relevant_dimensions":["antennae","wings"],"bee_group":{"antennae":"B","wings":"1","pattern":"X","legs":"X"},"correct":true,"bonus":1.5800000000000014},{"rt":1926.1999999284744,"stimulus":"<p>Congrats, you got everything right<br>When you're ready, click the button below to continue to the experiment.</p>","response":0,"trial_type":"html-button-response","trial_index":6,"time_elapsed":193558,"internal_node_id":"0.0-3.0-3.0","subject_id":"6128088290e183700b1060e2","study_id":"6197b3f67c2b5cd3b6d9596a","session_id":"6197b9e9743846e20e523ad2","condition":"contingent","relevant_dimensions":["antennae","wings"],"bee_group":{"antennae":"B","wings":"1","pattern":"X","legs":"X"},"bonus":1.5800000000000014},{"rt":17253.5,"stimulus":"bees-with-color/bee-B1DF.svg","response":1,"trial_type":"image-button-response","trial_index":7,"time_elapsed":210814,"internal_node_id":"0.0-4.0-0.0","subject_id":"6128088290e183700b1060e2","study_id":"6197b3f67c2b5cd3b6d9596a","session_id":"6197b9e9743846e20e523ad2","condition":"contingent","relevant_dimensions":["antennae","wings"],"bee_group":{"antennae":"B","wings":"1","pattern":"X","legs":"X"},"action":"avoid","summary":"good-avoid","bonus":1.5800000000000014},{"rt":7142,"stimulus":"\n                    <p><b>Action: <em>avoid</em></b></p>\n                    <p>This is the bee that you just saw.</p>\n                    <img src=\"bees-with-color/bee-B1DF.svg\" width=\"200\">\n                    <p><br>Your bonus pay is unchanged, and remains at $0.54.</p>\n            ","response":0,"trial_type":"html-button-response","trial_index":8,"time_elapsed":218362,"internal_node_id":"0.0-4.0-1.0","subject_id":"6128088290e183700b1060e2","study_id":"6197b3f67c2b5cd3b6d9596a","session_id":"6197b9e9743846e20e523ad2","condition":"contingent","relevant_dimensions":["antennae","wings"],"bee_group":{"antennae":"B","wings":"1","pattern":"X","legs":"X"},"bonus":1.5800000000000014},{"rt":1946.4000000953674,"stimulus":"bees-with-color/bee-A1SM.svg","response":0,"trial_type":"image-button-response","trial_index":9,"time_elapsed":220311,"internal_node_id":"0.0-4.0-0.1","subject_id":"6128088290e183700b1060e2","study_id":"6197b3f67c2b5cd3b6d9596a","session_id":"6197b9e9743846e20e523ad2","condition":"contingent","relevant_dimensions":["antennae","wings"],"bee_group":{"antennae":"B","wings":"1","pattern":"X","legs":"X"},"action":"harvest","summary":"good-harvest","bonus":1.5800000000000014},{"rt":37245.700000047684,"stimulus":"\n                    <p><b>Action: <em>harvest</em></b></p>\n                    <p>This is the bee that you just saw.</p>\n                    <img src=\"bees-with-color/bee-A1SM.svg\" width=\"200\">\n                    <p><span class=\"greenText\"><b>Successful harvest!</b></span><br>Your pay has increased by $0.02. Your bonus pay is now $0.56.</p>\n            ","response":0,"trial_type":"html-button-response","trial_index":10,"time_elapsed":257558,"internal_node_id":"0.0-4.0-1.1","subject_id":"6128088290e183700b1060e2","study_id":"6197b3f67c2b5cd3b6d9596a","session_id":"6197b9e9743846e20e523ad2","condition":"contingent","relevant_dimensions":["antennae","wings"],"bee_group":{"antennae":"B","wings":"1","pattern":"X","legs":"X"},"bonus":1.5800000000000014},{"rt":3205.100000023842,"stimulus":"bees-with-color/bee-B2DM.svg","response":0,"trial_type":"image-button-response","trial_index":11,"time_elapsed":260765,"internal_node_id":"0.0-4.0-0.2","subject_id":"6128088290e183700b1060e2","study_id":"6197b3f67c2b5cd3b6d9596a","session_id":"6197b9e9743846e20e523ad2","condition":"contingent","relevant_dimensions":["antennae","wings"],"bee_group":{"antennae":"B","wings":"1","pattern":"X","legs":"X"},"action":"harvest","summary":"good-harvest","bonus":1.5800000000000014},{"rt":6148,"stimulus":"\n                    <p><b>Action: <em>harvest</em></b></p>\n                    <p>This is the bee that you just saw.</p>\n                    <img src=\"bees-with-color/bee-B2DM.svg\" width=\"200\">\n                    <p><span class=\"greenText\"><b>Successful harvest!</b></span><br>Your pay has increased by $0.02. Your bonus pay is now $0.58.</p>\n            ","response":0,"trial_type":"html-button-response","trial_index":12,"time_elapsed":266915,"internal_node_id":"0.0-4.0-1.2","subject_id":"6128088290e183700b1060e2","study_id":"6197b3f67c2b5cd3b6d9596a","session_id":"6197b9e9743846e20e523ad2","condition":"contingent","relevant_dimensions":["antennae","wings"],"bee_group":{"antennae":"B","wings":"1","pattern":"X","legs":"X"},"bonus":1.5800000000000014},{"rt":15931.799999952316,"stimulus":"bees-with-color/bee-A1DF.svg","response":0,"trial_type":"image-button-response","trial_index":13,"time_elapsed":282848,"internal_node_id":"0.0-4.0-0.3","subject_id":"6128088290e183700b1060e2","study_id":"6197b3f67c2b5cd3b6d9596a","session_id":"6197b9e9743846e20e523ad2","condition":"contingent","relevant_dimensions":["antennae","wings"],"bee_group":{"antennae":"B","wings":"1","pattern":"X","legs":"X"},"action":"harvest","summary":"good-harvest","bonus":1.5800000000000014},{"rt":8709.899999976158,"stimulus":"\n                    <p><b>Action: <em>harvest</em></b></p>\n                    <p>This is the bee that you just saw.</p>\n                    <img src=\"bees-with-color/bee-A1DF.svg\" width=\"200\">\n                    <p><span class=\"greenText\"><b>Successful harvest!</b></span><br>Your pay has increased by $0.02. Your bonus pay is now $0.60.</p>\n            ","response":0,"trial_type":"html-button-response","trial_index":14,"time_elapsed":291559,"internal_node_id":"0.0-4.0-1.3","subject_id":"6128088290e183700b1060e2","study_id":"6197b3f67c2b5cd3b6d9596a","session_id":"6197b9e9743846e20e523ad2","condition":"contingent","relevant_dimensions":["antennae","wings"],"bee_group":{"antennae":"B","wings":"1","pattern":"X","legs":"X"},"bonus":1.5800000000000014},{"rt":1658.2000000476837,"stimulus":"bees-with-color/bee-B2SF.svg","response":0,"trial_type":"image-button-response","trial_index":15,"time_elapsed":293219,"internal_node_id":"0.0-4.0-0.4","subject_id":"6128088290e183700b1060e2","study_id":"6197b3f67c2b5cd3b6d9596a","session_id":"6197b9e9743846e20e523ad2","condition":"contingent","relevant_dimensions":["antennae","wings"],"bee_group":{"antennae":"B","wings":"1","pattern":"X","legs":"X"},"action":"harvest","summary":"good-harvest","bonus":1.5800000000000014},{"rt":7286.700000047684,"stimulus":"\n                    <p><b>Action: <em>harvest</em></b></p>\n                    <p>This is the bee that you just saw.</p>\n                    <img src=\"bees-with-color/bee-B2SF.svg\" width=\"200\">\n                    <p><span class=\"greenText\"><b>Successful harvest!</b></span><br>Your pay has increased by $0.02. Your bonus pay is now $0.62.</p>\n            ","response":0,"trial_type":"html-button-response","trial_index":16,"time_elapsed":300507,"internal_node_id":"0.0-4.0-1.4","subject_id":"6128088290e183700b1060e2","study_id":"6197b3f67c2b5cd3b6d9596a","session_id":"6197b9e9743846e20e523ad2","condition":"contingent","relevant_dimensions":["antennae","wings"],"bee_group":{"antennae":"B","wings":"1","pattern":"X","legs":"X"},"bonus":1.5800000000000014},{"rt":12603.5,"stimulus":"bees-with-color/bee-B1SF.svg","response":0,"trial_type":"image-button-response","trial_index":17,"time_elapsed":313113,"internal_node_id":"0.0-4.0-0.5","subject_id":"6128088290e183700b1060e2","study_id":"6197b3f67c2b5cd3b6d9596a","session_id":"6197b9e9743846e20e523ad2","condition":"contingent","relevant_dimensions":["antennae","wings"],"bee_group":{"antennae":"B","wings":"1","pattern":"X","legs":"X"},"action":"harvest","summary":"bad-harvest","bonus":1.5800000000000014},{"rt":7315.899999976158,"stimulus":"\n                    <p><b>Action: <em>harvest</em></b></p>\n                    <p>This is the bee that you just saw.</p>\n                    <img src=\"bees-with-color/bee-B1SF.svg\" width=\"200\">\n                    <p><span class=\"redText\">Bad choice, the bee was angry.</span><br><b>You have been stung!</b><br>Your pay has been decreased by $0.10. Your bonus pay is now $0.52.</p>\n            ","response":0,"trial_type":"html-button-response","trial_index":18,"time_elapsed":320430,"internal_node_id":"0.0-4.0-1.5","subject_id":"6128088290e183700b1060e2","study_id":"6197b3f67c2b5cd3b6d9596a","session_id":"6197b9e9743846e20e523ad2","condition":"contingent","relevant_dimensions":["antennae","wings"],"bee_group":{"antennae":"B","wings":"1","pattern":"X","legs":"X"},"bonus":1.5800000000000014},{"rt":10803.200000047684,"stimulus":"bees-with-color/bee-A2DF.svg","response":0,"trial_type":"image-button-response","trial_index":19,"time_elapsed":331235,"internal_node_id":"0.0-4.0-0.6","subject_id":"6128088290e183700b1060e2","study_id":"6197b3f67c2b5cd3b6d9596a","session_id":"6197b9e9743846e20e523ad2","condition":"contingent","relevant_dimensions":["antennae","wings"],"bee_group":{"antennae":"B","wings":"1","pattern":"X","legs":"X"},"action":"harvest","summary":"good-harvest","bonus":1.5800000000000014},{"rt":7182.400000095367,"stimulus":"\n                    <p><b>Action: <em>harvest</em></b></p>\n                    <p>This is the bee that you just saw.</p>\n                    <img src=\"bees-with-color/bee-A2DF.svg\" width=\"200\">\n                    <p><span class=\"greenText\"><b>Successful harvest!</b></span><br>Your pay has increased by $0.02. Your bonus pay is now $0.54.</p>\n            ","response":0,"trial_type":"html-button-response","trial_index":20,"time_elapsed":338419,"internal_node_id":"0.0-4.0-1.6","subject_id":"6128088290e183700b1060e2","study_id":"6197b3f67c2b5cd3b6d9596a","session_id":"6197b9e9743846e20e523ad2","condition":"contingent","relevant_dimensions":["antennae","wings"],"bee_group":{"antennae":"B","wings":"1","pattern":"X","legs":"X"},"bonus":1.5800000000000014},{"rt":18550.200000047684,"stimulus":"bees-with-color/bee-B2DF.svg","response":0,"trial_type":"image-button-response","trial_index":21,"time_elapsed":356971,"internal_node_id":"0.0-4.0-0.7","subject_id":"6128088290e183700b1060e2","study_id":"6197b3f67c2b5cd3b6d9596a","session_id":"6197b9e9743846e20e523ad2","condition":"contingent","relevant_dimensions":["antennae","wings"],"bee_group":{"antennae":"B","wings":"1","pattern":"X","legs":"X"},"action":"harvest","summary":"good-harvest","bonus":1.5800000000000014},{"rt":7983.600000023842,"stimulus":"\n                    <p><b>Action: <em>harvest</em></b></p>\n                    <p>This is the bee that you just saw.</p>\n                    <img src=\"bees-with-color/bee-B2DF.svg\" width=\"200\">\n                    <p><span class=\"greenText\"><b>Successful harvest!</b></span><br>Your pay has increased by $0.02. Your bonus pay is now $0.56.</p>\n            ","response":0,"trial_type":"html-button-response","trial_index":22,"time_elapsed":364956,"internal_node_id":"0.0-4.0-1.7","subject_id":"6128088290e183700b1060e2","study_id":"6197b3f67c2b5cd3b6d9596a","session_id":"6197b9e9743846e20e523ad2","condition":"contingent","relevant_dimensions":["antennae","wings"],"bee_group":{"antennae":"B","wings":"1","pattern":"X","legs":"X"},"bonus":1.5800000000000014},{"rt":2471.399999976158,"stimulus":"bees-with-color/bee-B2SM.svg","response":0,"trial_type":"image-button-response","trial_index":23,"time_elapsed":367429,"internal_node_id":"0.0-4.0-0.8","subject_id":"6128088290e183700b1060e2","study_id":"6197b3f67c2b5cd3b6d9596a","session_id":"6197b9e9743846e20e523ad2","condition":"contingent","relevant_dimensions":["antennae","wings"],"bee_group":{"antennae":"B","wings":"1","pattern":"X","legs":"X"},"action":"harvest","summary":"good-harvest","bonus":1.5800000000000014},{"rt":6019.399999976158,"stimulus":"\n                    <p><b>Action: <em>harvest</em></b></p>\n                    <p>This is the bee that you just saw.</p>\n                    <img src=\"bees-with-color/bee-B2SM.svg\" width=\"200\">\n                    <p><span class=\"greenText\"><b>Successful harvest!</b></span><br>Your pay has increased by $0.02. Your bonus pay is now $0.58.</p>\n            ","response":0,"trial_type":"html-button-response","trial_index":24,"time_elapsed":373450,"internal_node_id":"0.0-4.0-1.8","subject_id":"6128088290e183700b1060e2","study_id":"6197b3f67c2b5cd3b6d9596a","session_id":"6197b9e9743846e20e523ad2","condition":"contingent","relevant_dimensions":["antennae","wings"],"bee_group":{"antennae":"B","wings":"1","pattern":"X","legs":"X"},"bonus":1.5800000000000014},{"rt":2894.3000000715256,"stimulus":"bees-with-color/bee-A2SF.svg","response":0,"trial_type":"image-button-response","trial_index":25,"time_elapsed":376346,"internal_node_id":"0.0-4.0-0.9","subject_id":"6128088290e183700b1060e2","study_id":"6197b3f67c2b5cd3b6d9596a","session_id":"6197b9e9743846e20e523ad2","condition":"contingent","relevant_dimensions":["antennae","wings"],"bee_group":{"antennae":"B","wings":"1","pattern":"X","legs":"X"},"action":"harvest","summary":"good-harvest","bonus":1.5800000000000014},{"rt":7376.099999904633,"stimulus":"\n                    <p><b>Action: <em>harvest</em></b></p>\n                    <p>This is the bee that you just saw.</p>\n                    <img src=\"bees-with-color/bee-A2SF.svg\" width=\"200\">\n                    <p><span class=\"greenText\"><b>Successful harvest!</b></span><br>Your pay has increased by $0.02. Your bonus pay is now $0.60.</p>\n            ","response":0,"trial_type":"html-button-response","trial_index":26,"time_elapsed":383723,"internal_node_id":"0.0-4.0-1.9","subject_id":"6128088290e183700b1060e2","study_id":"6197b3f67c2b5cd3b6d9596a","session_id":"6197b9e9743846e20e523ad2","condition":"contingent","relevant_dimensions":["antennae","wings"],"bee_group":{"antennae":"B","wings":"1","pattern":"X","legs":"X"},"bonus":1.5800000000000014},{"rt":3451.3000000715256,"stimulus":"bees-with-color/bee-A1SF.svg","response":0,"trial_type":"image-button-response","trial_index":27,"time_elapsed":387176,"internal_node_id":"0.0-4.0-0.10","subject_id":"6128088290e183700b1060e2","study_id":"6197b3f67c2b5cd3b6d9596a","session_id":"6197b9e9743846e20e523ad2","condition":"contingent","relevant_dimensions":["antennae","wings"],"bee_group":{"antennae":"B","wings":"1","pattern":"X","legs":"X"},"action":"harvest","summary":"good-harvest","bonus":1.5800000000000014},{"rt":7700.200000047684,"stimulus":"\n                    <p><b>Action: <em>harvest</em></b></p>\n                    <p>This is the bee that you just saw.</p>\n                    <img src=\"bees-with-color/bee-A1SF.svg\" width=\"200\">\n                    <p><span class=\"greenText\"><b>Successful harvest!</b></span><br>Your pay has increased by $0.02. Your bonus pay is now $0.62.</p>\n            ","response":0,"trial_type":"html-button-response","trial_index":28,"time_elapsed":394878,"internal_node_id":"0.0-4.0-1.10","subject_id":"6128088290e183700b1060e2","study_id":"6197b3f67c2b5cd3b6d9596a","session_id":"6197b9e9743846e20e523ad2","condition":"contingent","relevant_dimensions":["antennae","wings"],"bee_group":{"antennae":"B","wings":"1","pattern":"X","legs":"X"},"bonus":1.5800000000000014},{"rt":3590.1999999284744,"stimulus":"bees-with-color/bee-B1SM.svg","response":0,"trial_type":"image-button-response","trial_index":29,"time_elapsed":398469,"internal_node_id":"0.0-4.0-0.11","subject_id":"6128088290e183700b1060e2","study_id":"6197b3f67c2b5cd3b6d9596a","session_id":"6197b9e9743846e20e523ad2","condition":"contingent","relevant_dimensions":["antennae","wings"],"bee_group":{"antennae":"B","wings":"1","pattern":"X","legs":"X"},"action":"harvest","summary":"bad-harvest","bonus":1.5800000000000014},{"rt":10210.700000047684,"stimulus":"\n                    <p><b>Action: <em>harvest</em></b></p>\n                    <p>This is the bee that you just saw.</p>\n                    <img src=\"bees-with-color/bee-B1SM.svg\" width=\"200\">\n                    <p><span class=\"redText\">Bad choice, the bee was angry.</span><br><b>You have been stung!</b><br>Your pay has been decreased by $0.10. Your bonus pay is now $0.52.</p>\n            ","response":0,"trial_type":"html-button-response","trial_index":30,"time_elapsed":408681,"internal_node_id":"0.0-4.0-1.11","subject_id":"6128088290e183700b1060e2","study_id":"6197b3f67c2b5cd3b6d9596a","session_id":"6197b9e9743846e20e523ad2","condition":"contingent","relevant_dimensions":["antennae","wings"],"bee_group":{"antennae":"B","wings":"1","pattern":"X","legs":"X"},"bonus":1.5800000000000014},{"rt":18390.300000071526,"stimulus":"bees-with-color/bee-A1DM.svg","response":0,"trial_type":"image-button-response","trial_index":31,"time_elapsed":427073,"internal_node_id":"0.0-4.0-0.12","subject_id":"6128088290e183700b1060e2","study_id":"6197b3f67c2b5cd3b6d9596a","session_id":"6197b9e9743846e20e523ad2","condition":"contingent","relevant_dimensions":["antennae","wings"],"bee_group":{"antennae":"B","wings":"1","pattern":"X","legs":"X"},"action":"harvest","summary":"good-harvest","bonus":1.5800000000000014},{"rt":1391,"stimulus":"\n                    <p><b>Action: <em>harvest</em></b></p>\n                    <p>This is the bee that you just saw.</p>\n                    <img src=\"bees-with-color/bee-A1DM.svg\" width=\"200\">\n                    <p><span class=\"greenText\"><b>Successful harvest!</b></span><br>Your pay has increased by $0.02. Your bonus pay is now $0.54.</p>\n            ","response":0,"trial_type":"html-button-response","trial_index":32,"time_elapsed":428465,"internal_node_id":"0.0-4.0-1.12","subject_id":"6128088290e183700b1060e2","study_id":"6197b3f67c2b5cd3b6d9596a","session_id":"6197b9e9743846e20e523ad2","condition":"contingent","relevant_dimensions":["antennae","wings"],"bee_group":{"antennae":"B","wings":"1","pattern":"X","legs":"X"},"bonus":1.5800000000000014},{"rt":13230.799999952316,"stimulus":"bees-with-color/bee-B1DM.svg","response":0,"trial_type":"image-button-response","trial_index":33,"time_elapsed":441697,"internal_node_id":"0.0-4.0-0.13","subject_id":"6128088290e183700b1060e2","study_id":"6197b3f67c2b5cd3b6d9596a","session_id":"6197b9e9743846e20e523ad2","condition":"contingent","relevant_dimensions":["antennae","wings"],"bee_group":{"antennae":"B","wings":"1","pattern":"X","legs":"X"},"action":"harvest","summary":"bad-harvest","bonus":1.5800000000000014},{"rt":9329.699999928474,"stimulus":"\n                    <p><b>Action: <em>harvest</em></b></p>\n                    <p>This is the bee that you just saw.</p>\n                    <img src=\"bees-with-color/bee-B1DM.svg\" width=\"200\">\n                    <p><span class=\"redText\">Bad choice, the bee was angry.</span><br><b>You have been stung!</b><br>Your pay has been decreased by $0.10. Your bonus pay is now $0.44.</p>\n            ","response":0,"trial_type":"html-button-response","trial_index":34,"time_elapsed":451028,"internal_node_id":"0.0-4.0-1.13","subject_id":"6128088290e183700b1060e2","study_id":"6197b3f67c2b5cd3b6d9596a","session_id":"6197b9e9743846e20e523ad2","condition":"contingent","relevant_dimensions":["antennae","wings"],"bee_group":{"antennae":"B","wings":"1","pattern":"X","legs":"X"},"bonus":1.5800000000000014},{"rt":7388,"stimulus":"bees-with-color/bee-A2DM.svg","response":0,"trial_type":"image-button-response","trial_index":35,"time_elapsed":458418,"internal_node_id":"0.0-4.0-0.14","subject_id":"6128088290e183700b1060e2","study_id":"6197b3f67c2b5cd3b6d9596a","session_id":"6197b9e9743846e20e523ad2","condition":"contingent","relevant_dimensions":["antennae","wings"],"bee_group":{"antennae":"B","wings":"1","pattern":"X","legs":"X"},"action":"harvest","summary":"good-harvest","bonus":1.5800000000000014},{"rt":1272.8999999761581,"stimulus":"\n                    <p><b>Action: <em>harvest</em></b></p>\n                    <p>This is the bee that you just saw.</p>\n                    <img src=\"bees-with-color/bee-A2DM.svg\" width=\"200\">\n                    <p><span class=\"greenText\"><b>Successful harvest!</b></span><br>Your pay has increased by $0.02. Your bonus pay is now $0.46.</p>\n            ","response":0,"trial_type":"html-button-response","trial_index":36,"time_elapsed":459692,"internal_node_id":"0.0-4.0-1.14","subject_id":"6128088290e183700b1060e2","study_id":"6197b3f67c2b5cd3b6d9596a","session_id":"6197b9e9743846e20e523ad2","condition":"contingent","relevant_dimensions":["antennae","wings"],"bee_group":{"antennae":"B","wings":"1","pattern":"X","legs":"X"},"bonus":1.5800000000000014},{"rt":1532.3999999761581,"stimulus":"bees-with-color/bee-A2SM.svg","response":0,"trial_type":"image-button-response","trial_index":37,"time_elapsed":461226,"internal_node_id":"0.0-4.0-0.15","subject_id":"6128088290e183700b1060e2","study_id":"6197b3f67c2b5cd3b6d9596a","session_id":"6197b9e9743846e20e523ad2","condition":"contingent","relevant_dimensions":["antennae","wings"],"bee_group":{"antennae":"B","wings":"1","pattern":"X","legs":"X"},"action":"harvest","summary":"good-harvest","bonus":1.5800000000000014},{"rt":1449.7000000476837,"stimulus":"\n                    <p><b>Action: <em>harvest</em></b></p>\n                    <p>This is the bee that you just saw.</p>\n                    <img src=\"bees-with-color/bee-A2SM.svg\" width=\"200\">\n                    <p><span class=\"greenText\"><b>Successful harvest!</b></span><br>Your pay has increased by $0.02. Your bonus pay is now $0.48.</p>\n            ","response":0,"trial_type":"html-button-response","trial_index":38,"time_elapsed":462677,"internal_node_id":"0.0-4.0-1.15","subject_id":"6128088290e183700b1060e2","study_id":"6197b3f67c2b5cd3b6d9596a","session_id":"6197b9e9743846e20e523ad2","condition":"contingent","relevant_dimensions":["antennae","wings"],"bee_group":{"antennae":"B","wings":"1","pattern":"X","legs":"X"},"bonus":1.5800000000000014},{"rt":7151.099999904633,"stimulus":"bees-with-color/bee-B1SM.svg","response":1,"trial_type":"image-button-response","trial_index":39,"time_elapsed":469829,"internal_node_id":"0.0-4.0-0.16","subject_id":"6128088290e183700b1060e2","study_id":"6197b3f67c2b5cd3b6d9596a","session_id":"6197b9e9743846e20e523ad2","condition":"contingent","relevant_dimensions":["antennae","wings"],"bee_group":{"antennae":"B","wings":"1","pattern":"X","legs":"X"},"action":"avoid","summary":"good-avoid","bonus":1.5800000000000014},{"rt":2160.899999976158,"stimulus":"\n                    <p><b>Action: <em>avoid</em></b></p>\n                    <p>This is the bee that you just saw.</p>\n                    <img src=\"bees-with-color/bee-B1SM.svg\" width=\"200\">\n                    <p><br>Your bonus pay is unchanged, and remains at $0.48.</p>\n            ","response":0,"trial_type":"html-button-response","trial_index":40,"time_elapsed":471992,"internal_node_id":"0.0-4.0-1.16","subject_id":"6128088290e183700b1060e2","study_id":"6197b3f67c2b5cd3b6d9596a","session_id":"6197b9e9743846e20e523ad2","condition":"contingent","relevant_dimensions":["antennae","wings"],"bee_group":{"antennae":"B","wings":"1","pattern":"X","legs":"X"},"bonus":1.5800000000000014},{"rt":21077.799999952316,"stimulus":"bees-with-color/bee-A1DM.svg","response":0,"trial_type":"image-button-response","trial_index":41,"time_elapsed":493071,"internal_node_id":"0.0-4.0-0.17","subject_id":"6128088290e183700b1060e2","study_id":"6197b3f67c2b5cd3b6d9596a","session_id":"6197b9e9743846e20e523ad2","condition":"contingent","relevant_dimensions":["antennae","wings"],"bee_group":{"antennae":"B","wings":"1","pattern":"X","legs":"X"},"action":"harvest","summary":"good-harvest","bonus":1.5800000000000014},{"rt":1391.1000000238419,"stimulus":"\n                    <p><b>Action: <em>harvest</em></b></p>\n                    <p>This is the bee that you just saw.</p>\n                    <img src=\"bees-with-color/bee-A1DM.svg\" width=\"200\">\n                    <p><span class=\"greenText\"><b>Successful harvest!</b></span><br>Your pay has increased by $0.02. Your bonus pay is now $0.50.</p>\n            ","response":0,"trial_type":"html-button-response","trial_index":42,"time_elapsed":494463,"internal_node_id":"0.0-4.0-1.17","subject_id":"6128088290e183700b1060e2","study_id":"6197b3f67c2b5cd3b6d9596a","session_id":"6197b9e9743846e20e523ad2","condition":"contingent","relevant_dimensions":["antennae","wings"],"bee_group":{"antennae":"B","wings":"1","pattern":"X","legs":"X"},"bonus":1.5800000000000014},{"rt":2369,"stimulus":"bees-with-color/bee-B2SM.svg","response":0,"trial_type":"image-button-response","trial_index":43,"time_elapsed":496834,"internal_node_id":"0.0-4.0-0.18","subject_id":"6128088290e183700b1060e2","study_id":"6197b3f67c2b5cd3b6d9596a","session_id":"6197b9e9743846e20e523ad2","condition":"contingent","relevant_dimensions":["antennae","wings"],"bee_group":{"antennae":"B","wings":"1","pattern":"X","legs":"X"},"action":"harvest","summary":"good-harvest","bonus":1.5800000000000014},{"rt":1250,"stimulus":"\n                    <p><b>Action: <em>harvest</em></b></p>\n                    <p>This is the bee that you just saw.</p>\n                    <img src=\"bees-with-color/bee-B2SM.svg\" width=\"200\">\n                    <p><span class=\"greenText\"><b>Successful harvest!</b></span><br>Your pay has increased by $0.02. Your bonus pay is now $0.52.</p>\n            ","response":0,"trial_type":"html-button-response","trial_index":44,"time_elapsed":498085,"internal_node_id":"0.0-4.0-1.18","subject_id":"6128088290e183700b1060e2","study_id":"6197b3f67c2b5cd3b6d9596a","session_id":"6197b9e9743846e20e523ad2","condition":"contingent","relevant_dimensions":["antennae","wings"],"bee_group":{"antennae":"B","wings":"1","pattern":"X","legs":"X"},"bonus":1.5800000000000014},{"rt":1436.1999999284744,"stimulus":"bees-with-color/bee-A2DM.svg","response":0,"trial_type":"image-button-response","trial_index":45,"time_elapsed":499523,"internal_node_id":"0.0-4.0-0.19","subject_id":"6128088290e183700b1060e2","study_id":"6197b3f67c2b5cd3b6d9596a","session_id":"6197b9e9743846e20e523ad2","condition":"contingent","relevant_dimensions":["antennae","wings"],"bee_group":{"antennae":"B","wings":"1","pattern":"X","legs":"X"},"action":"harvest","summary":"good-harvest","bonus":1.5800000000000014},{"rt":1450.1999999284744,"stimulus":"\n                    <p><b>Action: <em>harvest</em></b></p>\n                    <p>This is the bee that you just saw.</p>\n                    <img src=\"bees-with-color/bee-A2DM.svg\" width=\"200\">\n                    <p><span class=\"greenText\"><b>Successful harvest!</b></span><br>Your pay has increased by $0.02. Your bonus pay is now $0.54.</p>\n            ","response":0,"trial_type":"html-button-response","trial_index":46,"time_elapsed":500974,"internal_node_id":"0.0-4.0-1.19","subject_id":"6128088290e183700b1060e2","study_id":"6197b3f67c2b5cd3b6d9596a","session_id":"6197b9e9743846e20e523ad2","condition":"contingent","relevant_dimensions":["antennae","wings"],"bee_group":{"antennae":"B","wings":"1","pattern":"X","legs":"X"},"bonus":1.5800000000000014},{"rt":8439.5,"stimulus":"bees-with-color/bee-A1DF.svg","response":0,"trial_type":"image-button-response","trial_index":47,"time_elapsed":509415,"internal_node_id":"0.0-4.0-0.20","subject_id":"6128088290e183700b1060e2","study_id":"6197b3f67c2b5cd3b6d9596a","session_id":"6197b9e9743846e20e523ad2","condition":"contingent","relevant_dimensions":["antennae","wings"],"bee_group":{"antennae":"B","wings":"1","pattern":"X","legs":"X"},"action":"harvest","summary":"good-harvest","bonus":1.5800000000000014},{"rt":1369.1999999284744,"stimulus":"\n                    <p><b>Action: <em>harvest</em></b></p>\n                    <p>This is the bee that you just saw.</p>\n                    <img src=\"bees-with-color/bee-A1DF.svg\" width=\"200\">\n                    <p><span class=\"greenText\"><b>Successful harvest!</b></span><br>Your pay has increased by $0.02. Your bonus pay is now $0.56.</p>\n            ","response":0,"trial_type":"html-button-response","trial_index":48,"time_elapsed":510785,"internal_node_id":"0.0-4.0-1.20","subject_id":"6128088290e183700b1060e2","study_id":"6197b3f67c2b5cd3b6d9596a","session_id":"6197b9e9743846e20e523ad2","condition":"contingent","relevant_dimensions":["antennae","wings"],"bee_group":{"antennae":"B","wings":"1","pattern":"X","legs":"X"},"bonus":1.5800000000000014},{"rt":8366,"stimulus":"bees-with-color/bee-A1SM.svg","response":0,"trial_type":"image-button-response","trial_index":49,"time_elapsed":519153,"internal_node_id":"0.0-4.0-0.21","subject_id":"6128088290e183700b1060e2","study_id":"6197b3f67c2b5cd3b6d9596a","session_id":"6197b9e9743846e20e523ad2","condition":"contingent","relevant_dimensions":["antennae","wings"],"bee_group":{"antennae":"B","wings":"1","pattern":"X","legs":"X"},"action":"harvest","summary":"good-harvest","bonus":1.5800000000000014},{"rt":1309.8000000715256,"stimulus":"\n                    <p><b>Action: <em>harvest</em></b></p>\n                    <p>This is the bee that you just saw.</p>\n                    <img src=\"bees-with-color/bee-A1SM.svg\" width=\"200\">\n                    <p><span class=\"greenText\"><b>Successful harvest!</b></span><br>Your pay has increased by $0.02. Your bonus pay is now $0.58.</p>\n            ","response":0,"trial_type":"html-button-response","trial_index":50,"time_elapsed":520463,"internal_node_id":"0.0-4.0-1.21","subject_id":"6128088290e183700b1060e2","study_id":"6197b3f67c2b5cd3b6d9596a","session_id":"6197b9e9743846e20e523ad2","condition":"contingent","relevant_dimensions":["antennae","wings"],"bee_group":{"antennae":"B","wings":"1","pattern":"X","legs":"X"},"bonus":1.5800000000000014},{"rt":18677.899999976158,"stimulus":"bees-with-color/bee-B1DF.svg","response":0,"trial_type":"image-button-response","trial_index":51,"time_elapsed":539143,"internal_node_id":"0.0-4.0-0.22","subject_id":"6128088290e183700b1060e2","study_id":"6197b3f67c2b5cd3b6d9596a","session_id":"6197b9e9743846e20e523ad2","condition":"contingent","relevant_dimensions":["antennae","wings"],"bee_group":{"antennae":"B","wings":"1","pattern":"X","legs":"X"},"action":"harvest","summary":"bad-harvest","bonus":1.5800000000000014},{"rt":10956.100000023842,"stimulus":"\n                    <p><b>Action: <em>harvest</em></b></p>\n                    <p>This is the bee that you just saw.</p>\n                    <img src=\"bees-with-color/bee-B1DF.svg\" width=\"200\">\n                    <p><span class=\"redText\">Bad choice, the bee was angry.</span><br><b>You have been stung!</b><br>Your pay has been decreased by $0.10. Your bonus pay is now $0.48.</p>\n            ","response":0,"trial_type":"html-button-response","trial_index":52,"time_elapsed":550100,"internal_node_id":"0.0-4.0-1.22","subject_id":"6128088290e183700b1060e2","study_id":"6197b3f67c2b5cd3b6d9596a","session_id":"6197b9e9743846e20e523ad2","condition":"contingent","relevant_dimensions":["antennae","wings"],"bee_group":{"antennae":"B","wings":"1","pattern":"X","legs":"X"},"bonus":1.5800000000000014},{"rt":1287.6999999284744,"stimulus":"bees-with-color/bee-B2SF.svg","response":0,"trial_type":"image-button-response","trial_index":53,"time_elapsed":551390,"internal_node_id":"0.0-4.0-0.23","subject_id":"6128088290e183700b1060e2","study_id":"6197b3f67c2b5cd3b6d9596a","session_id":"6197b9e9743846e20e523ad2","condition":"contingent","relevant_dimensions":["antennae","wings"],"bee_group":{"antennae":"B","wings":"1","pattern":"X","legs":"X"},"action":"harvest","summary":"good-harvest","bonus":1.5800000000000014},{"rt":975.3000000715256,"stimulus":"\n                    <p><b>Action: <em>harvest</em></b></p>\n                    <p>This is the bee that you just saw.</p>\n                    <img src=\"bees-with-color/bee-B2SF.svg\" width=\"200\">\n                    <p><span class=\"greenText\"><b>Successful harvest!</b></span><br>Your pay has increased by $0.02. Your bonus pay is now $0.50.</p>\n            ","response":0,"trial_type":"html-button-response","trial_index":54,"time_elapsed":552366,"internal_node_id":"0.0-4.0-1.23","subject_id":"6128088290e183700b1060e2","study_id":"6197b3f67c2b5cd3b6d9596a","session_id":"6197b9e9743846e20e523ad2","condition":"contingent","relevant_dimensions":["antennae","wings"],"bee_group":{"antennae":"B","wings":"1","pattern":"X","legs":"X"},"bonus":1.5800000000000014},{"rt":1064.5999999046326,"stimulus":"bees-with-color/bee-A2SM.svg","response":0,"trial_type":"image-button-response","trial_index":55,"time_elapsed":553432,"internal_node_id":"0.0-4.0-0.24","subject_id":"6128088290e183700b1060e2","study_id":"6197b3f67c2b5cd3b6d9596a","session_id":"6197b9e9743846e20e523ad2","condition":"contingent","relevant_dimensions":["antennae","wings"],"bee_group":{"antennae":"B","wings":"1","pattern":"X","legs":"X"},"action":"harvest","summary":"good-harvest","bonus":1.5800000000000014},{"rt":1125.3999999761581,"stimulus":"\n                    <p><b>Action: <em>harvest</em></b></p>\n                    <p>This is the bee that you just saw.</p>\n                    <img src=\"bees-with-color/bee-A2SM.svg\" width=\"200\">\n                    <p><span class=\"greenText\"><b>Successful harvest!</b></span><br>Your pay has increased by $0.02. Your bonus pay is now $0.52.</p>\n            ","response":0,"trial_type":"html-button-response","trial_index":56,"time_elapsed":554559,"internal_node_id":"0.0-4.0-1.24","subject_id":"6128088290e183700b1060e2","study_id":"6197b3f67c2b5cd3b6d9596a","session_id":"6197b9e9743846e20e523ad2","condition":"contingent","relevant_dimensions":["antennae","wings"],"bee_group":{"antennae":"B","wings":"1","pattern":"X","legs":"X"},"bonus":1.5800000000000014},{"rt":1073,"stimulus":"bees-with-color/bee-A2DF.svg","response":0,"trial_type":"image-button-response","trial_index":57,"time_elapsed":555633,"internal_node_id":"0.0-4.0-0.25","subject_id":"6128088290e183700b1060e2","study_id":"6197b3f67c2b5cd3b6d9596a","session_id":"6197b9e9743846e20e523ad2","condition":"contingent","relevant_dimensions":["antennae","wings"],"bee_group":{"antennae":"B","wings":"1","pattern":"X","legs":"X"},"action":"harvest","summary":"good-harvest","bonus":1.5800000000000014},{"rt":916.1000000238419,"stimulus":"\n                    <p><b>Action: <em>harvest</em></b></p>\n                    <p>This is the bee that you just saw.</p>\n                    <img src=\"bees-with-color/bee-A2DF.svg\" width=\"200\">\n                    <p><span class=\"greenText\"><b>Successful harvest!</b></span><br>Your pay has increased by $0.02. Your bonus pay is now $0.54.</p>\n            ","response":0,"trial_type":"html-button-response","trial_index":58,"time_elapsed":556551,"internal_node_id":"0.0-4.0-1.25","subject_id":"6128088290e183700b1060e2","study_id":"6197b3f67c2b5cd3b6d9596a","session_id":"6197b9e9743846e20e523ad2","condition":"contingent","relevant_dimensions":["antennae","wings"],"bee_group":{"antennae":"B","wings":"1","pattern":"X","legs":"X"},"bonus":1.5800000000000014},{"rt":8807.600000023842,"stimulus":"bees-with-color/bee-B1DM.svg","response":1,"trial_type":"image-button-response","trial_index":59,"time_elapsed":565361,"internal_node_id":"0.0-4.0-0.26","subject_id":"6128088290e183700b1060e2","study_id":"6197b3f67c2b5cd3b6d9596a","session_id":"6197b9e9743846e20e523ad2","condition":"contingent","relevant_dimensions":["antennae","wings"],"bee_group":{"antennae":"B","wings":"1","pattern":"X","legs":"X"},"action":"avoid","summary":"good-avoid","bonus":1.5800000000000014},{"rt":1458.2999999523163,"stimulus":"\n                    <p><b>Action: <em>avoid</em></b></p>\n                    <p>This is the bee that you just saw.</p>\n                    <img src=\"bees-with-color/bee-B1DM.svg\" width=\"200\">\n                    <p><br>Your bonus pay is unchanged, and remains at $0.54.</p>\n            ","response":0,"trial_type":"html-button-response","trial_index":60,"time_elapsed":566821,"internal_node_id":"0.0-4.0-1.26","subject_id":"6128088290e183700b1060e2","study_id":"6197b3f67c2b5cd3b6d9596a","session_id":"6197b9e9743846e20e523ad2","condition":"contingent","relevant_dimensions":["antennae","wings"],"bee_group":{"antennae":"B","wings":"1","pattern":"X","legs":"X"},"bonus":1.5800000000000014},{"rt":1167.3999999761581,"stimulus":"bees-with-color/bee-A2SF.svg","response":0,"trial_type":"image-button-response","trial_index":61,"time_elapsed":567990,"internal_node_id":"0.0-4.0-0.27","subject_id":"6128088290e183700b1060e2","study_id":"6197b3f67c2b5cd3b6d9596a","session_id":"6197b9e9743846e20e523ad2","condition":"contingent","relevant_dimensions":["antennae","wings"],"bee_group":{"antennae":"B","wings":"1","pattern":"X","legs":"X"},"action":"harvest","summary":"good-harvest","bonus":1.5800000000000014},{"rt":1072.6000000238419,"stimulus":"\n                    <p><b>Action: <em>harvest</em></b></p>\n                    <p>This is the bee that you just saw.</p>\n                    <img src=\"bees-with-color/bee-A2SF.svg\" width=\"200\">\n                    <p><span class=\"greenText\"><b>Successful harvest!</b></span><br>Your pay has increased by $0.02. Your bonus pay is now $0.56.</p>\n            ","response":0,"trial_type":"html-button-response","trial_index":62,"time_elapsed":569064,"internal_node_id":"0.0-4.0-1.27","subject_id":"6128088290e183700b1060e2","study_id":"6197b3f67c2b5cd3b6d9596a","session_id":"6197b9e9743846e20e523ad2","condition":"contingent","relevant_dimensions":["antennae","wings"],"bee_group":{"antennae":"B","wings":"1","pattern":"X","legs":"X"},"bonus":1.5800000000000014},{"rt":14479.600000023842,"stimulus":"bees-with-color/bee-A1SF.svg","response":0,"trial_type":"image-button-response","trial_index":63,"time_elapsed":583545,"internal_node_id":"0.0-4.0-0.28","subject_id":"6128088290e183700b1060e2","study_id":"6197b3f67c2b5cd3b6d9596a","session_id":"6197b9e9743846e20e523ad2","condition":"contingent","relevant_dimensions":["antennae","wings"],"bee_group":{"antennae":"B","wings":"1","pattern":"X","legs":"X"},"action":"harvest","summary":"good-harvest","bonus":1.5800000000000014},{"rt":1472.8000000715256,"stimulus":"\n                    <p><b>Action: <em>harvest</em></b></p>\n                    <p>This is the bee that you just saw.</p>\n                    <img src=\"bees-with-color/bee-A1SF.svg\" width=\"200\">\n                    <p><span class=\"greenText\"><b>Successful harvest!</b></span><br>Your pay has increased by $0.02. Your bonus pay is now $0.58.</p>\n            ","response":0,"trial_type":"html-button-response","trial_index":64,"time_elapsed":585019,"internal_node_id":"0.0-4.0-1.28","subject_id":"6128088290e183700b1060e2","study_id":"6197b3f67c2b5cd3b6d9596a","session_id":"6197b9e9743846e20e523ad2","condition":"contingent","relevant_dimensions":["antennae","wings"],"bee_group":{"antennae":"B","wings":"1","pattern":"X","legs":"X"},"bonus":1.5800000000000014},{"rt":8854.200000047684,"stimulus":"bees-with-color/bee-B2DF.svg","response":0,"trial_type":"image-button-response","trial_index":65,"time_elapsed":593875,"internal_node_id":"0.0-4.0-0.29","subject_id":"6128088290e183700b1060e2","study_id":"6197b3f67c2b5cd3b6d9596a","session_id":"6197b9e9743846e20e523ad2","condition":"contingent","relevant_dimensions":["antennae","wings"],"bee_group":{"antennae":"B","wings":"1","pattern":"X","legs":"X"},"action":"harvest","summary":"good-harvest","bonus":1.5800000000000014},{"rt":1354.7000000476837,"stimulus":"\n                    <p><b>Action: <em>harvest</em></b></p>\n                    <p>This is the bee that you just saw.</p>\n                    <img src=\"bees-with-color/bee-B2DF.svg\" width=\"200\">\n                    <p><span class=\"greenText\"><b>Successful harvest!</b></span><br>Your pay has increased by $0.02. Your bonus pay is now $0.60.</p>\n            ","response":0,"trial_type":"html-button-response","trial_index":66,"time_elapsed":595232,"internal_node_id":"0.0-4.0-1.29","subject_id":"6128088290e183700b1060e2","study_id":"6197b3f67c2b5cd3b6d9596a","session_id":"6197b9e9743846e20e523ad2","condition":"contingent","relevant_dimensions":["antennae","wings"],"bee_group":{"antennae":"B","wings":"1","pattern":"X","legs":"X"},"bonus":1.5800000000000014},{"rt":2240.2999999523163,"stimulus":"bees-with-color/bee-B1SF.svg","response":1,"trial_type":"image-button-response","trial_index":67,"time_elapsed":597474,"internal_node_id":"0.0-4.0-0.30","subject_id":"6128088290e183700b1060e2","study_id":"6197b3f67c2b5cd3b6d9596a","session_id":"6197b9e9743846e20e523ad2","condition":"contingent","relevant_dimensions":["antennae","wings"],"bee_group":{"antennae":"B","wings":"1","pattern":"X","legs":"X"},"action":"avoid","summary":"good-avoid","bonus":1.5800000000000014},{"rt":1435.3999999761581,"stimulus":"\n                    <p><b>Action: <em>avoid</em></b></p>\n                    <p>This is the bee that you just saw.</p>\n                    <img src=\"bees-with-color/bee-B1SF.svg\" width=\"200\">\n                    <p><br>Your bonus pay is unchanged, and remains at $0.60.</p>\n            ","response":0,"trial_type":"html-button-response","trial_index":68,"time_elapsed":598911,"internal_node_id":"0.0-4.0-1.30","subject_id":"6128088290e183700b1060e2","study_id":"6197b3f67c2b5cd3b6d9596a","session_id":"6197b9e9743846e20e523ad2","condition":"contingent","relevant_dimensions":["antennae","wings"],"bee_group":{"antennae":"B","wings":"1","pattern":"X","legs":"X"},"bonus":1.5800000000000014},{"rt":1708.7999999523163,"stimulus":"bees-with-color/bee-B2DM.svg","response":0,"trial_type":"image-button-response","trial_index":69,"time_elapsed":600621,"internal_node_id":"0.0-4.0-0.31","subject_id":"6128088290e183700b1060e2","study_id":"6197b3f67c2b5cd3b6d9596a","session_id":"6197b9e9743846e20e523ad2","condition":"contingent","relevant_dimensions":["antennae","wings"],"bee_group":{"antennae":"B","wings":"1","pattern":"X","legs":"X"},"action":"harvest","summary":"good-harvest","bonus":1.5800000000000014},{"rt":1065.5,"stimulus":"\n                    <p><b>Action: <em>harvest</em></b></p>\n                    <p>This is the bee that you just saw.</p>\n                    <img src=\"bees-with-color/bee-B2DM.svg\" width=\"200\">\n                    <p><span class=\"greenText\"><b>Successful harvest!</b></span><br>Your pay has increased by $0.02. Your bonus pay is now $0.62.</p>\n            ","response":0,"trial_type":"html-button-response","trial_index":70,"time_elapsed":601688,"internal_node_id":"0.0-4.0-1.31","subject_id":"6128088290e183700b1060e2","study_id":"6197b3f67c2b5cd3b6d9596a","session_id":"6197b9e9743846e20e523ad2","condition":"contingent","relevant_dimensions":["antennae","wings"],"bee_group":{"antennae":"B","wings":"1","pattern":"X","legs":"X"},"bonus":1.5800000000000014},{"rt":1620,"stimulus":"bees-with-color/bee-B2DM.svg","response":0,"trial_type":"image-button-response","trial_index":71,"time_elapsed":603310,"internal_node_id":"0.0-4.0-0.32","subject_id":"6128088290e183700b1060e2","study_id":"6197b3f67c2b5cd3b6d9596a","session_id":"6197b9e9743846e20e523ad2","condition":"contingent","relevant_dimensions":["antennae","wings"],"bee_group":{"antennae":"B","wings":"1","pattern":"X","legs":"X"},"action":"harvest","summary":"good-harvest","bonus":1.5800000000000014},{"rt":1413.3999999761581,"stimulus":"\n                    <p><b>Action: <em>harvest</em></b></p>\n                    <p>This is the bee that you just saw.</p>\n                    <img src=\"bees-with-color/bee-B2DM.svg\" width=\"200\">\n                    <p><span class=\"greenText\"><b>Successful harvest!</b></span><br>Your pay has increased by $0.02. Your bonus pay is now $0.64.</p>\n            ","response":0,"trial_type":"html-button-response","trial_index":72,"time_elapsed":604725,"internal_node_id":"0.0-4.0-1.32","subject_id":"6128088290e183700b1060e2","study_id":"6197b3f67c2b5cd3b6d9596a","session_id":"6197b9e9743846e20e523ad2","condition":"contingent","relevant_dimensions":["antennae","wings"],"bee_group":{"antennae":"B","wings":"1","pattern":"X","legs":"X"},"bonus":1.5800000000000014},{"rt":7156,"stimulus":"bees-with-color/bee-B1DM.svg","response":1,"trial_type":"image-button-response","trial_index":73,"time_elapsed":611882,"internal_node_id":"0.0-4.0-0.33","subject_id":"6128088290e183700b1060e2","study_id":"6197b3f67c2b5cd3b6d9596a","session_id":"6197b9e9743846e20e523ad2","condition":"contingent","relevant_dimensions":["antennae","wings"],"bee_group":{"antennae":"B","wings":"1","pattern":"X","legs":"X"},"action":"avoid","summary":"good-avoid","bonus":1.5800000000000014},{"rt":1494.6999999284744,"stimulus":"\n                    <p><b>Action: <em>avoid</em></b></p>\n                    <p>This is the bee that you just saw.</p>\n                    <img src=\"bees-with-color/bee-B1DM.svg\" width=\"200\">\n                    <p><br>Your bonus pay is unchanged, and remains at $0.64.</p>\n            ","response":0,"trial_type":"html-button-response","trial_index":74,"time_elapsed":613378,"internal_node_id":"0.0-4.0-1.33","subject_id":"6128088290e183700b1060e2","study_id":"6197b3f67c2b5cd3b6d9596a","session_id":"6197b9e9743846e20e523ad2","condition":"contingent","relevant_dimensions":["antennae","wings"],"bee_group":{"antennae":"B","wings":"1","pattern":"X","legs":"X"},"bonus":1.5800000000000014},{"rt":1686.5,"stimulus":"bees-with-color/bee-A2SF.svg","response":0,"trial_type":"image-button-response","trial_index":75,"time_elapsed":615066,"internal_node_id":"0.0-4.0-0.34","subject_id":"6128088290e183700b1060e2","study_id":"6197b3f67c2b5cd3b6d9596a","session_id":"6197b9e9743846e20e523ad2","condition":"contingent","relevant_dimensions":["antennae","wings"],"bee_group":{"antennae":"B","wings":"1","pattern":"X","legs":"X"},"action":"harvest","summary":"good-harvest","bonus":1.5800000000000014},{"rt":1176.2999999523163,"stimulus":"\n                    <p><b>Action: <em>harvest</em></b></p>\n                    <p>This is the bee that you just saw.</p>\n                    <img src=\"bees-with-color/bee-A2SF.svg\" width=\"200\">\n                    <p><span class=\"greenText\"><b>Successful harvest!</b></span><br>Your pay has increased by $0.02. Your bonus pay is now $0.66.</p>\n            ","response":0,"trial_type":"html-button-response","trial_index":76,"time_elapsed":616244,"internal_node_id":"0.0-4.0-1.34","subject_id":"6128088290e183700b1060e2","study_id":"6197b3f67c2b5cd3b6d9596a","session_id":"6197b9e9743846e20e523ad2","condition":"contingent","relevant_dimensions":["antennae","wings"],"bee_group":{"antennae":"B","wings":"1","pattern":"X","legs":"X"},"bonus":1.5800000000000014},{"rt":1657.2999999523163,"stimulus":"bees-with-color/bee-B2SF.svg","response":0,"trial_type":"image-button-response","trial_index":77,"time_elapsed":617903,"internal_node_id":"0.0-4.0-0.35","subject_id":"6128088290e183700b1060e2","study_id":"6197b3f67c2b5cd3b6d9596a","session_id":"6197b9e9743846e20e523ad2","condition":"contingent","relevant_dimensions":["antennae","wings"],"bee_group":{"antennae":"B","wings":"1","pattern":"X","legs":"X"},"action":"harvest","summary":"good-harvest","bonus":1.5800000000000014},{"rt":1050.6999999284744,"stimulus":"\n                    <p><b>Action: <em>harvest</em></b></p>\n                    <p>This is the bee that you just saw.</p>\n                    <img src=\"bees-with-color/bee-B2SF.svg\" width=\"200\">\n                    <p><span class=\"greenText\"><b>Successful harvest!</b></span><br>Your pay has increased by $0.02. Your bonus pay is now $0.68.</p>\n            ","response":0,"trial_type":"html-button-response","trial_index":78,"time_elapsed":618954,"internal_node_id":"0.0-4.0-1.35","subject_id":"6128088290e183700b1060e2","study_id":"6197b3f67c2b5cd3b6d9596a","session_id":"6197b9e9743846e20e523ad2","condition":"contingent","relevant_dimensions":["antennae","wings"],"bee_group":{"antennae":"B","wings":"1","pattern":"X","legs":"X"},"bonus":1.5800000000000014},{"rt":2508.8000000715256,"stimulus":"bees-with-color/bee-A1SF.svg","response":0,"trial_type":"image-button-response","trial_index":79,"time_elapsed":621464,"internal_node_id":"0.0-4.0-0.36","subject_id":"6128088290e183700b1060e2","study_id":"6197b3f67c2b5cd3b6d9596a","session_id":"6197b9e9743846e20e523ad2","condition":"contingent","relevant_dimensions":["antennae","wings"],"bee_group":{"antennae":"B","wings":"1","pattern":"X","legs":"X"},"action":"harvest","summary":"good-harvest","bonus":1.5800000000000014},{"rt":1968.6000000238419,"stimulus":"\n                    <p><b>Action: <em>harvest</em></b></p>\n                    <p>This is the bee that you just saw.</p>\n                    <img src=\"bees-with-color/bee-A1SF.svg\" width=\"200\">\n                    <p><span class=\"greenText\"><b>Successful harvest!</b></span><br>Your pay has increased by $0.02. Your bonus pay is now $0.70.</p>\n            ","response":0,"trial_type":"html-button-response","trial_index":80,"time_elapsed":623434,"internal_node_id":"0.0-4.0-1.36","subject_id":"6128088290e183700b1060e2","study_id":"6197b3f67c2b5cd3b6d9596a","session_id":"6197b9e9743846e20e523ad2","condition":"contingent","relevant_dimensions":["antennae","wings"],"bee_group":{"antennae":"B","wings":"1","pattern":"X","legs":"X"},"bonus":1.5800000000000014},{"rt":2812.399999976158,"stimulus":"bees-with-color/bee-B2DF.svg","response":0,"trial_type":"image-button-response","trial_index":81,"time_elapsed":626248,"internal_node_id":"0.0-4.0-0.37","subject_id":"6128088290e183700b1060e2","study_id":"6197b3f67c2b5cd3b6d9596a","session_id":"6197b9e9743846e20e523ad2","condition":"contingent","relevant_dimensions":["antennae","wings"],"bee_group":{"antennae":"B","wings":"1","pattern":"X","legs":"X"},"action":"harvest","summary":"good-harvest","bonus":1.5800000000000014},{"rt":1369.2999999523163,"stimulus":"\n                    <p><b>Action: <em>harvest</em></b></p>\n                    <p>This is the bee that you just saw.</p>\n                    <img src=\"bees-with-color/bee-B2DF.svg\" width=\"200\">\n                    <p><span class=\"greenText\"><b>Successful harvest!</b></span><br>Your pay has increased by $0.02. Your bonus pay is now $0.72.</p>\n            ","response":0,"trial_type":"html-button-response","trial_index":82,"time_elapsed":627619,"internal_node_id":"0.0-4.0-1.37","subject_id":"6128088290e183700b1060e2","study_id":"6197b3f67c2b5cd3b6d9596a","session_id":"6197b9e9743846e20e523ad2","condition":"contingent","relevant_dimensions":["antennae","wings"],"bee_group":{"antennae":"B","wings":"1","pattern":"X","legs":"X"},"bonus":1.5800000000000014},{"rt":2498.6999999284744,"stimulus":"bees-with-color/bee-B1SF.svg","response":1,"trial_type":"image-button-response","trial_index":83,"time_elapsed":630120,"internal_node_id":"0.0-4.0-0.38","subject_id":"6128088290e183700b1060e2","study_id":"6197b3f67c2b5cd3b6d9596a","session_id":"6197b9e9743846e20e523ad2","condition":"contingent","relevant_dimensions":["antennae","wings"],"bee_group":{"antennae":"B","wings":"1","pattern":"X","legs":"X"},"action":"avoid","summary":"good-avoid","bonus":1.5800000000000014},{"rt":1191.5,"stimulus":"\n                    <p><b>Action: <em>avoid</em></b></p>\n                    <p>This is the bee that you just saw.</p>\n                    <img src=\"bees-with-color/bee-B1SF.svg\" width=\"200\">\n                    <p><br>Your bonus pay is unchanged, and remains at $0.72.</p>\n            ","response":0,"trial_type":"html-button-response","trial_index":84,"time_elapsed":631312,"internal_node_id":"0.0-4.0-1.38","subject_id":"6128088290e183700b1060e2","study_id":"6197b3f67c2b5cd3b6d9596a","session_id":"6197b9e9743846e20e523ad2","condition":"contingent","relevant_dimensions":["antennae","wings"],"bee_group":{"antennae":"B","wings":"1","pattern":"X","legs":"X"},"bonus":1.5800000000000014},{"rt":1426.7999999523163,"stimulus":"bees-with-color/bee-A2DF.svg","response":0,"trial_type":"image-button-response","trial_index":85,"time_elapsed":632741,"internal_node_id":"0.0-4.0-0.39","subject_id":"6128088290e183700b1060e2","study_id":"6197b3f67c2b5cd3b6d9596a","session_id":"6197b9e9743846e20e523ad2","condition":"contingent","relevant_dimensions":["antennae","wings"],"bee_group":{"antennae":"B","wings":"1","pattern":"X","legs":"X"},"action":"harvest","summary":"good-harvest","bonus":1.5800000000000014},{"rt":1176.1999999284744,"stimulus":"\n                    <p><b>Action: <em>harvest</em></b></p>\n                    <p>This is the bee that you just saw.</p>\n                    <img src=\"bees-with-color/bee-A2DF.svg\" width=\"200\">\n                    <p><span class=\"greenText\"><b>Successful harvest!</b></span><br>Your pay has increased by $0.02. Your bonus pay is now $0.74.</p>\n            ","response":0,"trial_type":"html-button-response","trial_index":86,"time_elapsed":633918,"internal_node_id":"0.0-4.0-1.39","subject_id":"6128088290e183700b1060e2","study_id":"6197b3f67c2b5cd3b6d9596a","session_id":"6197b9e9743846e20e523ad2","condition":"contingent","relevant_dimensions":["antennae","wings"],"bee_group":{"antennae":"B","wings":"1","pattern":"X","legs":"X"},"bonus":1.5800000000000014},{"rt":1338.0999999046326,"stimulus":"bees-with-color/bee-A1DM.svg","response":0,"trial_type":"image-button-response","trial_index":87,"time_elapsed":635258,"internal_node_id":"0.0-4.0-0.40","subject_id":"6128088290e183700b1060e2","study_id":"6197b3f67c2b5cd3b6d9596a","session_id":"6197b9e9743846e20e523ad2","condition":"contingent","relevant_dimensions":["antennae","wings"],"bee_group":{"antennae":"B","wings":"1","pattern":"X","legs":"X"},"action":"harvest","summary":"good-harvest","bonus":1.5800000000000014},{"rt":1057.1000000238419,"stimulus":"\n                    <p><b>Action: <em>harvest</em></b></p>\n                    <p>This is the bee that you just saw.</p>\n                    <img src=\"bees-with-color/bee-A1DM.svg\" width=\"200\">\n                    <p><span class=\"greenText\"><b>Successful harvest!</b></span><br>Your pay has increased by $0.02. Your bonus pay is now $0.76.</p>\n            ","response":0,"trial_type":"html-button-response","trial_index":88,"time_elapsed":636317,"internal_node_id":"0.0-4.0-1.40","subject_id":"6128088290e183700b1060e2","study_id":"6197b3f67c2b5cd3b6d9596a","session_id":"6197b9e9743846e20e523ad2","condition":"contingent","relevant_dimensions":["antennae","wings"],"bee_group":{"antennae":"B","wings":"1","pattern":"X","legs":"X"},"bonus":1.5800000000000014},{"rt":3581.7999999523163,"stimulus":"bees-with-color/bee-B1DF.svg","response":1,"trial_type":"image-button-response","trial_index":89,"time_elapsed":639900,"internal_node_id":"0.0-4.0-0.41","subject_id":"6128088290e183700b1060e2","study_id":"6197b3f67c2b5cd3b6d9596a","session_id":"6197b9e9743846e20e523ad2","condition":"contingent","relevant_dimensions":["antennae","wings"],"bee_group":{"antennae":"B","wings":"1","pattern":"X","legs":"X"},"action":"avoid","summary":"good-avoid","bonus":1.5800000000000014},{"rt":1442.3999999761581,"stimulus":"\n                    <p><b>Action: <em>avoid</em></b></p>\n                    <p>This is the bee that you just saw.</p>\n                    <img src=\"bees-with-color/bee-B1DF.svg\" width=\"200\">\n                    <p><br>Your bonus pay is unchanged, and remains at $0.76.</p>\n            ","response":0,"trial_type":"html-button-response","trial_index":90,"time_elapsed":641344,"internal_node_id":"0.0-4.0-1.41","subject_id":"6128088290e183700b1060e2","study_id":"6197b3f67c2b5cd3b6d9596a","session_id":"6197b9e9743846e20e523ad2","condition":"contingent","relevant_dimensions":["antennae","wings"],"bee_group":{"antennae":"B","wings":"1","pattern":"X","legs":"X"},"bonus":1.5800000000000014},{"rt":1419.5999999046326,"stimulus":"bees-with-color/bee-B2SM.svg","response":0,"trial_type":"image-button-response","trial_index":91,"time_elapsed":642765,"internal_node_id":"0.0-4.0-0.42","subject_id":"6128088290e183700b1060e2","study_id":"6197b3f67c2b5cd3b6d9596a","session_id":"6197b9e9743846e20e523ad2","condition":"contingent","relevant_dimensions":["antennae","wings"],"bee_group":{"antennae":"B","wings":"1","pattern":"X","legs":"X"},"action":"harvest","summary":"good-harvest","bonus":1.5800000000000014},{"rt":1457.5999999046326,"stimulus":"\n                    <p><b>Action: <em>harvest</em></b></p>\n                    <p>This is the bee that you just saw.</p>\n                    <img src=\"bees-with-color/bee-B2SM.svg\" width=\"200\">\n                    <p><span class=\"greenText\"><b>Successful harvest!</b></span><br>Your pay has increased by $0.02. Your bonus pay is now $0.78.</p>\n            ","response":0,"trial_type":"html-button-response","trial_index":92,"time_elapsed":644224,"internal_node_id":"0.0-4.0-1.42","subject_id":"6128088290e183700b1060e2","study_id":"6197b3f67c2b5cd3b6d9596a","session_id":"6197b9e9743846e20e523ad2","condition":"contingent","relevant_dimensions":["antennae","wings"],"bee_group":{"antennae":"B","wings":"1","pattern":"X","legs":"X"},"bonus":1.5800000000000014},{"rt":1493.5,"stimulus":"bees-with-color/bee-A2DM.svg","response":0,"trial_type":"image-button-response","trial_index":93,"time_elapsed":645719,"internal_node_id":"0.0-4.0-0.43","subject_id":"6128088290e183700b1060e2","study_id":"6197b3f67c2b5cd3b6d9596a","session_id":"6197b9e9743846e20e523ad2","condition":"contingent","relevant_dimensions":["antennae","wings"],"bee_group":{"antennae":"B","wings":"1","pattern":"X","legs":"X"},"action":"harvest","summary":"good-harvest","bonus":1.5800000000000014},{"rt":1568.8000000715256,"stimulus":"\n                    <p><b>Action: <em>harvest</em></b></p>\n                    <p>This is the bee that you just saw.</p>\n                    <img src=\"bees-with-color/bee-A2DM.svg\" width=\"200\">\n                    <p><span class=\"greenText\"><b>Successful harvest!</b></span><br>Your pay has increased by $0.02. Your bonus pay is now $0.80.</p>\n            ","response":0,"trial_type":"html-button-response","trial_index":94,"time_elapsed":647290,"internal_node_id":"0.0-4.0-1.43","subject_id":"6128088290e183700b1060e2","study_id":"6197b3f67c2b5cd3b6d9596a","session_id":"6197b9e9743846e20e523ad2","condition":"contingent","relevant_dimensions":["antennae","wings"],"bee_group":{"antennae":"B","wings":"1","pattern":"X","legs":"X"},"bonus":1.5800000000000014},{"rt":11207.5,"stimulus":"bees-with-color/bee-A1SM.svg","response":0,"trial_type":"image-button-response","trial_index":95,"time_elapsed":658499,"internal_node_id":"0.0-4.0-0.44","subject_id":"6128088290e183700b1060e2","study_id":"6197b3f67c2b5cd3b6d9596a","session_id":"6197b9e9743846e20e523ad2","condition":"contingent","relevant_dimensions":["antennae","wings"],"bee_group":{"antennae":"B","wings":"1","pattern":"X","legs":"X"},"action":"harvest","summary":"good-harvest","bonus":1.5800000000000014},{"rt":1398.2999999523163,"stimulus":"\n                    <p><b>Action: <em>harvest</em></b></p>\n                    <p>This is the bee that you just saw.</p>\n                    <img src=\"bees-with-color/bee-A1SM.svg\" width=\"200\">\n                    <p><span class=\"greenText\"><b>Successful harvest!</b></span><br>Your pay has increased by $0.02. Your bonus pay is now $0.82.</p>\n            ","response":0,"trial_type":"html-button-response","trial_index":96,"time_elapsed":659899,"internal_node_id":"0.0-4.0-1.44","subject_id":"6128088290e183700b1060e2","study_id":"6197b3f67c2b5cd3b6d9596a","session_id":"6197b9e9743846e20e523ad2","condition":"contingent","relevant_dimensions":["antennae","wings"],"bee_group":{"antennae":"B","wings":"1","pattern":"X","legs":"X"},"bonus":1.5800000000000014},{"rt":1463.9000000953674,"stimulus":"bees-with-color/bee-B1SM.svg","response":1,"trial_type":"image-button-response","trial_index":97,"time_elapsed":661364,"internal_node_id":"0.0-4.0-0.45","subject_id":"6128088290e183700b1060e2","study_id":"6197b3f67c2b5cd3b6d9596a","session_id":"6197b9e9743846e20e523ad2","condition":"contingent","relevant_dimensions":["antennae","wings"],"bee_group":{"antennae":"B","wings":"1","pattern":"X","legs":"X"},"action":"avoid","summary":"good-avoid","bonus":1.5800000000000014},{"rt":1145.1999999284744,"stimulus":"\n                    <p><b>Action: <em>avoid</em></b></p>\n                    <p>This is the bee that you just saw.</p>\n                    <img src=\"bees-with-color/bee-B1SM.svg\" width=\"200\">\n                    <p><br>Your bonus pay is unchanged, and remains at $0.82.</p>\n            ","response":0,"trial_type":"html-button-response","trial_index":98,"time_elapsed":662511,"internal_node_id":"0.0-4.0-1.45","subject_id":"6128088290e183700b1060e2","study_id":"6197b3f67c2b5cd3b6d9596a","session_id":"6197b9e9743846e20e523ad2","condition":"contingent","relevant_dimensions":["antennae","wings"],"bee_group":{"antennae":"B","wings":"1","pattern":"X","legs":"X"},"bonus":1.5800000000000014},{"rt":1308.2000000476837,"stimulus":"bees-with-color/bee-A2SM.svg","response":0,"trial_type":"image-button-response","trial_index":99,"time_elapsed":663822,"internal_node_id":"0.0-4.0-0.46","subject_id":"6128088290e183700b1060e2","study_id":"6197b3f67c2b5cd3b6d9596a","session_id":"6197b9e9743846e20e523ad2","condition":"contingent","relevant_dimensions":["antennae","wings"],"bee_group":{"antennae":"B","wings":"1","pattern":"X","legs":"X"},"action":"harvest","summary":"good-harvest","bonus":1.5800000000000014},{"rt":1145.5999999046326,"stimulus":"\n                    <p><b>Action: <em>harvest</em></b></p>\n                    <p>This is the bee that you just saw.</p>\n                    <img src=\"bees-with-color/bee-A2SM.svg\" width=\"200\">\n                    <p><span class=\"greenText\"><b>Successful harvest!</b></span><br>Your pay has increased by $0.02. Your bonus pay is now $0.84.</p>\n            ","response":0,"trial_type":"html-button-response","trial_index":100,"time_elapsed":664969,"internal_node_id":"0.0-4.0-1.46","subject_id":"6128088290e183700b1060e2","study_id":"6197b3f67c2b5cd3b6d9596a","session_id":"6197b9e9743846e20e523ad2","condition":"contingent","relevant_dimensions":["antennae","wings"],"bee_group":{"antennae":"B","wings":"1","pattern":"X","legs":"X"},"bonus":1.5800000000000014},{"rt":1665.3999999761581,"stimulus":"bees-with-color/bee-A1DF.svg","response":0,"trial_type":"image-button-response","trial_index":101,"time_elapsed":666636,"internal_node_id":"0.0-4.0-0.47","subject_id":"6128088290e183700b1060e2","study_id":"6197b3f67c2b5cd3b6d9596a","session_id":"6197b9e9743846e20e523ad2","condition":"contingent","relevant_dimensions":["antennae","wings"],"bee_group":{"antennae":"B","wings":"1","pattern":"X","legs":"X"},"action":"harvest","summary":"good-harvest","bonus":1.5800000000000014},{"rt":989.5,"stimulus":"\n                    <p><b>Action: <em>harvest</em></b></p>\n                    <p>This is the bee that you just saw.</p>\n                    <img src=\"bees-with-color/bee-A1DF.svg\" width=\"200\">\n                    <p><span class=\"greenText\"><b>Successful harvest!</b></span><br>Your pay has increased by $0.02. Your bonus pay is now $0.86.</p>\n            ","response":0,"trial_type":"html-button-response","trial_index":102,"time_elapsed":667627,"internal_node_id":"0.0-4.0-1.47","subject_id":"6128088290e183700b1060e2","study_id":"6197b3f67c2b5cd3b6d9596a","session_id":"6197b9e9743846e20e523ad2","condition":"contingent","relevant_dimensions":["antennae","wings"],"bee_group":{"antennae":"B","wings":"1","pattern":"X","legs":"X"},"bonus":1.5800000000000014},{"rt":1153.5,"stimulus":"bees-with-color/bee-A2SM.svg","response":0,"trial_type":"image-button-response","trial_index":103,"time_elapsed":668783,"internal_node_id":"0.0-4.0-0.48","subject_id":"6128088290e183700b1060e2","study_id":"6197b3f67c2b5cd3b6d9596a","session_id":"6197b9e9743846e20e523ad2","condition":"contingent","relevant_dimensions":["antennae","wings"],"bee_group":{"antennae":"B","wings":"1","pattern":"X","legs":"X"},"action":"harvest","summary":"good-harvest","bonus":1.5800000000000014},{"rt":944.6000000238419,"stimulus":"\n                    <p><b>Action: <em>harvest</em></b></p>\n                    <p>This is the bee that you just saw.</p>\n                    <img src=\"bees-with-color/bee-A2SM.svg\" width=\"200\">\n                    <p><span class=\"greenText\"><b>Successful harvest!</b></span><br>Your pay has increased by $0.02. Your bonus pay is now $0.88.</p>\n            ","response":0,"trial_type":"html-button-response","trial_index":104,"time_elapsed":669730,"internal_node_id":"0.0-4.0-1.48","subject_id":"6128088290e183700b1060e2","study_id":"6197b3f67c2b5cd3b6d9596a","session_id":"6197b9e9743846e20e523ad2","condition":"contingent","relevant_dimensions":["antennae","wings"],"bee_group":{"antennae":"B","wings":"1","pattern":"X","legs":"X"},"bonus":1.5800000000000014},{"rt":2287.1999999284744,"stimulus":"bees-with-color/bee-B2DM.svg","response":0,"trial_type":"image-button-response","trial_index":105,"time_elapsed":672018,"internal_node_id":"0.0-4.0-0.49","subject_id":"6128088290e183700b1060e2","study_id":"6197b3f67c2b5cd3b6d9596a","session_id":"6197b9e9743846e20e523ad2","condition":"contingent","relevant_dimensions":["antennae","wings"],"bee_group":{"antennae":"B","wings":"1","pattern":"X","legs":"X"},"action":"harvest","summary":"good-harvest","bonus":1.5800000000000014},{"rt":1353.7999999523163,"stimulus":"\n                    <p><b>Action: <em>harvest</em></b></p>\n                    <p>This is the bee that you just saw.</p>\n                    <img src=\"bees-with-color/bee-B2DM.svg\" width=\"200\">\n                    <p><span class=\"greenText\"><b>Successful harvest!</b></span><br>Your pay has increased by $0.02. Your bonus pay is now $0.90.</p>\n            ","response":0,"trial_type":"html-button-response","trial_index":106,"time_elapsed":673373,"internal_node_id":"0.0-4.0-1.49","subject_id":"6128088290e183700b1060e2","study_id":"6197b3f67c2b5cd3b6d9596a","session_id":"6197b9e9743846e20e523ad2","condition":"contingent","relevant_dimensions":["antennae","wings"],"bee_group":{"antennae":"B","wings":"1","pattern":"X","legs":"X"},"bonus":1.5800000000000014},{"rt":1730.0999999046326,"stimulus":"bees-with-color/bee-A1DM.svg","response":0,"trial_type":"image-button-response","trial_index":107,"time_elapsed":675106,"internal_node_id":"0.0-4.0-0.50","subject_id":"6128088290e183700b1060e2","study_id":"6197b3f67c2b5cd3b6d9596a","session_id":"6197b9e9743846e20e523ad2","condition":"contingent","relevant_dimensions":["antennae","wings"],"bee_group":{"antennae":"B","wings":"1","pattern":"X","legs":"X"},"action":"harvest","summary":"good-harvest","bonus":1.5800000000000014},{"rt":1036.1000000238419,"stimulus":"\n                    <p><b>Action: <em>harvest</em></b></p>\n                    <p>This is the bee that you just saw.</p>\n                    <img src=\"bees-with-color/bee-A1DM.svg\" width=\"200\">\n                    <p><span class=\"greenText\"><b>Successful harvest!</b></span><br>Your pay has increased by $0.02. Your bonus pay is now $0.92.</p>\n            ","response":0,"trial_type":"html-button-response","trial_index":108,"time_elapsed":676144,"internal_node_id":"0.0-4.0-1.50","subject_id":"6128088290e183700b1060e2","study_id":"6197b3f67c2b5cd3b6d9596a","session_id":"6197b9e9743846e20e523ad2","condition":"contingent","relevant_dimensions":["antennae","wings"],"bee_group":{"antennae":"B","wings":"1","pattern":"X","legs":"X"},"bonus":1.5800000000000014},{"rt":2327.899999976158,"stimulus":"bees-with-color/bee-A1SF.svg","response":0,"trial_type":"image-button-response","trial_index":109,"time_elapsed":678474,"internal_node_id":"0.0-4.0-0.51","subject_id":"6128088290e183700b1060e2","study_id":"6197b3f67c2b5cd3b6d9596a","session_id":"6197b9e9743846e20e523ad2","condition":"contingent","relevant_dimensions":["antennae","wings"],"bee_group":{"antennae":"B","wings":"1","pattern":"X","legs":"X"},"action":"harvest","summary":"good-harvest","bonus":1.5800000000000014},{"rt":1132.1000000238419,"stimulus":"\n                    <p><b>Action: <em>harvest</em></b></p>\n                    <p>This is the bee that you just saw.</p>\n                    <img src=\"bees-with-color/bee-A1SF.svg\" width=\"200\">\n                    <p><span class=\"greenText\"><b>Successful harvest!</b></span><br>Your pay has increased by $0.02. Your bonus pay is now $0.94.</p>\n            ","response":0,"trial_type":"html-button-response","trial_index":110,"time_elapsed":679608,"internal_node_id":"0.0-4.0-1.51","subject_id":"6128088290e183700b1060e2","study_id":"6197b3f67c2b5cd3b6d9596a","session_id":"6197b9e9743846e20e523ad2","condition":"contingent","relevant_dimensions":["antennae","wings"],"bee_group":{"antennae":"B","wings":"1","pattern":"X","legs":"X"},"bonus":1.5800000000000014},{"rt":1529.8999999761581,"stimulus":"bees-with-color/bee-B1DF.svg","response":1,"trial_type":"image-button-response","trial_index":111,"time_elapsed":681140,"internal_node_id":"0.0-4.0-0.52","subject_id":"6128088290e183700b1060e2","study_id":"6197b3f67c2b5cd3b6d9596a","session_id":"6197b9e9743846e20e523ad2","condition":"contingent","relevant_dimensions":["antennae","wings"],"bee_group":{"antennae":"B","wings":"1","pattern":"X","legs":"X"},"action":"avoid","summary":"good-avoid","bonus":1.5800000000000014},{"rt":1782.8000000715256,"stimulus":"\n                    <p><b>Action: <em>avoid</em></b></p>\n                    <p>This is the bee that you just saw.</p>\n                    <img src=\"bees-with-color/bee-B1DF.svg\" width=\"200\">\n                    <p><br>Your bonus pay is unchanged, and remains at $0.94.</p>\n            ","response":0,"trial_type":"html-button-response","trial_index":112,"time_elapsed":682924,"internal_node_id":"0.0-4.0-1.52","subject_id":"6128088290e183700b1060e2","study_id":"6197b3f67c2b5cd3b6d9596a","session_id":"6197b9e9743846e20e523ad2","condition":"contingent","relevant_dimensions":["antennae","wings"],"bee_group":{"antennae":"B","wings":"1","pattern":"X","legs":"X"},"bonus":1.5800000000000014},{"rt":1997,"stimulus":"bees-with-color/bee-B1SF.svg","response":1,"trial_type":"image-button-response","trial_index":113,"time_elapsed":684923,"internal_node_id":"0.0-4.0-0.53","subject_id":"6128088290e183700b1060e2","study_id":"6197b3f67c2b5cd3b6d9596a","session_id":"6197b9e9743846e20e523ad2","condition":"contingent","relevant_dimensions":["antennae","wings"],"bee_group":{"antennae":"B","wings":"1","pattern":"X","legs":"X"},"action":"avoid","summary":"good-avoid","bonus":1.5800000000000014},{"rt":990.5,"stimulus":"\n                    <p><b>Action: <em>avoid</em></b></p>\n                    <p>This is the bee that you just saw.</p>\n                    <img src=\"bees-with-color/bee-B1SF.svg\" width=\"200\">\n                    <p><br>Your bonus pay is unchanged, and remains at $0.94.</p>\n            ","response":0,"trial_type":"html-button-response","trial_index":114,"time_elapsed":685915,"internal_node_id":"0.0-4.0-1.53","subject_id":"6128088290e183700b1060e2","study_id":"6197b3f67c2b5cd3b6d9596a","session_id":"6197b9e9743846e20e523ad2","condition":"contingent","relevant_dimensions":["antennae","wings"],"bee_group":{"antennae":"B","wings":"1","pattern":"X","legs":"X"},"bonus":1.5800000000000014},{"rt":1160.5999999046326,"stimulus":"bees-with-color/bee-B2DF.svg","response":0,"trial_type":"image-button-response","trial_index":115,"time_elapsed":687076,"internal_node_id":"0.0-4.0-0.54","subject_id":"6128088290e183700b1060e2","study_id":"6197b3f67c2b5cd3b6d9596a","session_id":"6197b9e9743846e20e523ad2","condition":"contingent","relevant_dimensions":["antennae","wings"],"bee_group":{"antennae":"B","wings":"1","pattern":"X","legs":"X"},"action":"harvest","summary":"good-harvest","bonus":1.5800000000000014},{"rt":1242.8999999761581,"stimulus":"\n                    <p><b>Action: <em>harvest</em></b></p>\n                    <p>This is the bee that you just saw.</p>\n                    <img src=\"bees-with-color/bee-B2DF.svg\" width=\"200\">\n                    <p><span class=\"greenText\"><b>Successful harvest!</b></span><br>Your pay has increased by $0.02. Your bonus pay is now $0.96.</p>\n            ","response":0,"trial_type":"html-button-response","trial_index":116,"time_elapsed":688321,"internal_node_id":"0.0-4.0-1.54","subject_id":"6128088290e183700b1060e2","study_id":"6197b3f67c2b5cd3b6d9596a","session_id":"6197b9e9743846e20e523ad2","condition":"contingent","relevant_dimensions":["antennae","wings"],"bee_group":{"antennae":"B","wings":"1","pattern":"X","legs":"X"},"bonus":1.5800000000000014},{"rt":1153.5,"stimulus":"bees-with-color/bee-B2SF.svg","response":0,"trial_type":"image-button-response","trial_index":117,"time_elapsed":689475,"internal_node_id":"0.0-4.0-0.55","subject_id":"6128088290e183700b1060e2","study_id":"6197b3f67c2b5cd3b6d9596a","session_id":"6197b9e9743846e20e523ad2","condition":"contingent","relevant_dimensions":["antennae","wings"],"bee_group":{"antennae":"B","wings":"1","pattern":"X","legs":"X"},"action":"harvest","summary":"good-harvest","bonus":1.5800000000000014},{"rt":954.2000000476837,"stimulus":"\n                    <p><b>Action: <em>harvest</em></b></p>\n                    <p>This is the bee that you just saw.</p>\n                    <img src=\"bees-with-color/bee-B2SF.svg\" width=\"200\">\n                    <p><span class=\"greenText\"><b>Successful harvest!</b></span><br>Your pay has increased by $0.02. Your bonus pay is now $0.98.</p>\n            ","response":0,"trial_type":"html-button-response","trial_index":118,"time_elapsed":690431,"internal_node_id":"0.0-4.0-1.55","subject_id":"6128088290e183700b1060e2","study_id":"6197b3f67c2b5cd3b6d9596a","session_id":"6197b9e9743846e20e523ad2","condition":"contingent","relevant_dimensions":["antennae","wings"],"bee_group":{"antennae":"B","wings":"1","pattern":"X","legs":"X"},"bonus":1.5800000000000014},{"rt":1428,"stimulus":"bees-with-color/bee-B1SM.svg","response":1,"trial_type":"image-button-response","trial_index":119,"time_elapsed":691860,"internal_node_id":"0.0-4.0-0.56","subject_id":"6128088290e183700b1060e2","study_id":"6197b3f67c2b5cd3b6d9596a","session_id":"6197b9e9743846e20e523ad2","condition":"contingent","relevant_dimensions":["antennae","wings"],"bee_group":{"antennae":"B","wings":"1","pattern":"X","legs":"X"},"action":"avoid","summary":"good-avoid","bonus":1.5800000000000014},{"rt":2159.899999976158,"stimulus":"\n                    <p><b>Action: <em>avoid</em></b></p>\n                    <p>This is the bee that you just saw.</p>\n                    <img src=\"bees-with-color/bee-B1SM.svg\" width=\"200\">\n                    <p><br>Your bonus pay is unchanged, and remains at $0.98.</p>\n            ","response":0,"trial_type":"html-button-response","trial_index":120,"time_elapsed":694021,"internal_node_id":"0.0-4.0-1.56","subject_id":"6128088290e183700b1060e2","study_id":"6197b3f67c2b5cd3b6d9596a","session_id":"6197b9e9743846e20e523ad2","condition":"contingent","relevant_dimensions":["antennae","wings"],"bee_group":{"antennae":"B","wings":"1","pattern":"X","legs":"X"},"bonus":1.5800000000000014},{"rt":1590.1000000238419,"stimulus":"bees-with-color/bee-B1DM.svg","response":1,"trial_type":"image-button-response","trial_index":121,"time_elapsed":695612,"internal_node_id":"0.0-4.0-0.57","subject_id":"6128088290e183700b1060e2","study_id":"6197b3f67c2b5cd3b6d9596a","session_id":"6197b9e9743846e20e523ad2","condition":"contingent","relevant_dimensions":["antennae","wings"],"bee_group":{"antennae":"B","wings":"1","pattern":"X","legs":"X"},"action":"avoid","summary":"good-avoid","bonus":1.5800000000000014},{"rt":1227.8000000715256,"stimulus":"\n                    <p><b>Action: <em>avoid</em></b></p>\n                    <p>This is the bee that you just saw.</p>\n                    <img src=\"bees-with-color/bee-B1DM.svg\" width=\"200\">\n                    <p><br>Your bonus pay is unchanged, and remains at $0.98.</p>\n            ","response":0,"trial_type":"html-button-response","trial_index":122,"time_elapsed":696841,"internal_node_id":"0.0-4.0-1.57","subject_id":"6128088290e183700b1060e2","study_id":"6197b3f67c2b5cd3b6d9596a","session_id":"6197b9e9743846e20e523ad2","condition":"contingent","relevant_dimensions":["antennae","wings"],"bee_group":{"antennae":"B","wings":"1","pattern":"X","legs":"X"},"bonus":1.5800000000000014},{"rt":2929.899999976158,"stimulus":"bees-with-color/bee-A1SM.svg","response":0,"trial_type":"image-button-response","trial_index":123,"time_elapsed":699772,"internal_node_id":"0.0-4.0-0.58","subject_id":"6128088290e183700b1060e2","study_id":"6197b3f67c2b5cd3b6d9596a","session_id":"6197b9e9743846e20e523ad2","condition":"contingent","relevant_dimensions":["antennae","wings"],"bee_group":{"antennae":"B","wings":"1","pattern":"X","legs":"X"},"action":"harvest","summary":"good-harvest","bonus":1.5800000000000014},{"rt":968.8999999761581,"stimulus":"\n                    <p><b>Action: <em>harvest</em></b></p>\n                    <p>This is the bee that you just saw.</p>\n                    <img src=\"bees-with-color/bee-A1SM.svg\" width=\"200\">\n                    <p><span class=\"greenText\"><b>Successful harvest!</b></span><br>Your pay has increased by $0.02. Your bonus pay is now $1.00.</p>\n            ","response":0,"trial_type":"html-button-response","trial_index":124,"time_elapsed":700743,"internal_node_id":"0.0-4.0-1.58","subject_id":"6128088290e183700b1060e2","study_id":"6197b3f67c2b5cd3b6d9596a","session_id":"6197b9e9743846e20e523ad2","condition":"contingent","relevant_dimensions":["antennae","wings"],"bee_group":{"antennae":"B","wings":"1","pattern":"X","legs":"X"},"bonus":1.5800000000000014},{"rt":1197.5,"stimulus":"bees-with-color/bee-A2DF.svg","response":0,"trial_type":"image-button-response","trial_index":125,"time_elapsed":701942,"internal_node_id":"0.0-4.0-0.59","subject_id":"6128088290e183700b1060e2","study_id":"6197b3f67c2b5cd3b6d9596a","session_id":"6197b9e9743846e20e523ad2","condition":"contingent","relevant_dimensions":["antennae","wings"],"bee_group":{"antennae":"B","wings":"1","pattern":"X","legs":"X"},"action":"harvest","summary":"good-harvest","bonus":1.5800000000000014},{"rt":976.4000000953674,"stimulus":"\n                    <p><b>Action: <em>harvest</em></b></p>\n                    <p>This is the bee that you just saw.</p>\n                    <img src=\"bees-with-color/bee-A2DF.svg\" width=\"200\">\n                    <p><span class=\"greenText\"><b>Successful harvest!</b></span><br>Your pay has increased by $0.02. Your bonus pay is now $1.02.</p>\n            ","response":0,"trial_type":"html-button-response","trial_index":126,"time_elapsed":702920,"internal_node_id":"0.0-4.0-1.59","subject_id":"6128088290e183700b1060e2","study_id":"6197b3f67c2b5cd3b6d9596a","session_id":"6197b9e9743846e20e523ad2","condition":"contingent","relevant_dimensions":["antennae","wings"],"bee_group":{"antennae":"B","wings":"1","pattern":"X","legs":"X"},"bonus":1.5800000000000014},{"rt":1027.9000000953674,"stimulus":"bees-with-color/bee-A2SF.svg","response":0,"trial_type":"image-button-response","trial_index":127,"time_elapsed":703949,"internal_node_id":"0.0-4.0-0.60","subject_id":"6128088290e183700b1060e2","study_id":"6197b3f67c2b5cd3b6d9596a","session_id":"6197b9e9743846e20e523ad2","condition":"contingent","relevant_dimensions":["antennae","wings"],"bee_group":{"antennae":"B","wings":"1","pattern":"X","legs":"X"},"action":"harvest","summary":"good-harvest","bonus":1.5800000000000014},{"rt":1236.7000000476837,"stimulus":"\n                    <p><b>Action: <em>harvest</em></b></p>\n                    <p>This is the bee that you just saw.</p>\n                    <img src=\"bees-with-color/bee-A2SF.svg\" width=\"200\">\n                    <p><span class=\"greenText\"><b>Successful harvest!</b></span><br>Your pay has increased by $0.02. Your bonus pay is now $1.04.</p>\n            ","response":0,"trial_type":"html-button-response","trial_index":128,"time_elapsed":705186,"internal_node_id":"0.0-4.0-1.60","subject_id":"6128088290e183700b1060e2","study_id":"6197b3f67c2b5cd3b6d9596a","session_id":"6197b9e9743846e20e523ad2","condition":"contingent","relevant_dimensions":["antennae","wings"],"bee_group":{"antennae":"B","wings":"1","pattern":"X","legs":"X"},"bonus":1.5800000000000014},{"rt":975.2000000476837,"stimulus":"bees-with-color/bee-A2DM.svg","response":0,"trial_type":"image-button-response","trial_index":129,"time_elapsed":706163,"internal_node_id":"0.0-4.0-0.61","subject_id":"6128088290e183700b1060e2","study_id":"6197b3f67c2b5cd3b6d9596a","session_id":"6197b9e9743846e20e523ad2","condition":"contingent","relevant_dimensions":["antennae","wings"],"bee_group":{"antennae":"B","wings":"1","pattern":"X","legs":"X"},"action":"harvest","summary":"good-harvest","bonus":1.5800000000000014},{"rt":1012.8000000715256,"stimulus":"\n                    <p><b>Action: <em>harvest</em></b></p>\n                    <p>This is the bee that you just saw.</p>\n                    <img src=\"bees-with-color/bee-A2DM.svg\" width=\"200\">\n                    <p><span class=\"greenText\"><b>Successful harvest!</b></span><br>Your pay has increased by $0.02. Your bonus pay is now $1.06.</p>\n            ","response":0,"trial_type":"html-button-response","trial_index":130,"time_elapsed":707177,"internal_node_id":"0.0-4.0-1.61","subject_id":"6128088290e183700b1060e2","study_id":"6197b3f67c2b5cd3b6d9596a","session_id":"6197b9e9743846e20e523ad2","condition":"contingent","relevant_dimensions":["antennae","wings"],"bee_group":{"antennae":"B","wings":"1","pattern":"X","legs":"X"},"bonus":1.5800000000000014},{"rt":2433.7000000476837,"stimulus":"bees-with-color/bee-B2SM.svg","response":0,"trial_type":"image-button-response","trial_index":131,"time_elapsed":709612,"internal_node_id":"0.0-4.0-0.62","subject_id":"6128088290e183700b1060e2","study_id":"6197b3f67c2b5cd3b6d9596a","session_id":"6197b9e9743846e20e523ad2","condition":"contingent","relevant_dimensions":["antennae","wings"],"bee_group":{"antennae":"B","wings":"1","pattern":"X","legs":"X"},"action":"harvest","summary":"good-harvest","bonus":1.5800000000000014},{"rt":1081.5,"stimulus":"\n                    <p><b>Action: <em>harvest</em></b></p>\n                    <p>This is the bee that you just saw.</p>\n                    <img src=\"bees-with-color/bee-B2SM.svg\" width=\"200\">\n                    <p><span class=\"greenText\"><b>Successful harvest!</b></span><br>Your pay has increased by $0.02. Your bonus pay is now $1.08.</p>\n            ","response":0,"trial_type":"html-button-response","trial_index":132,"time_elapsed":710694,"internal_node_id":"0.0-4.0-1.62","subject_id":"6128088290e183700b1060e2","study_id":"6197b3f67c2b5cd3b6d9596a","session_id":"6197b9e9743846e20e523ad2","condition":"contingent","relevant_dimensions":["antennae","wings"],"bee_group":{"antennae":"B","wings":"1","pattern":"X","legs":"X"},"bonus":1.5800000000000014},{"rt":1715.3999999761581,"stimulus":"bees-with-color/bee-A1DF.svg","response":0,"trial_type":"image-button-response","trial_index":133,"time_elapsed":712411,"internal_node_id":"0.0-4.0-0.63","subject_id":"6128088290e183700b1060e2","study_id":"6197b3f67c2b5cd3b6d9596a","session_id":"6197b9e9743846e20e523ad2","condition":"contingent","relevant_dimensions":["antennae","wings"],"bee_group":{"antennae":"B","wings":"1","pattern":"X","legs":"X"},"action":"harvest","summary":"good-harvest","bonus":1.5800000000000014},{"rt":1043.1999999284744,"stimulus":"\n                    <p><b>Action: <em>harvest</em></b></p>\n                    <p>This is the bee that you just saw.</p>\n                    <img src=\"bees-with-color/bee-A1DF.svg\" width=\"200\">\n                    <p><span class=\"greenText\"><b>Successful harvest!</b></span><br>Your pay has increased by $0.02. Your bonus pay is now $1.10.</p>\n            ","response":0,"trial_type":"html-button-response","trial_index":134,"time_elapsed":713455,"internal_node_id":"0.0-4.0-1.63","subject_id":"6128088290e183700b1060e2","study_id":"6197b3f67c2b5cd3b6d9596a","session_id":"6197b9e9743846e20e523ad2","condition":"contingent","relevant_dimensions":["antennae","wings"],"bee_group":{"antennae":"B","wings":"1","pattern":"X","legs":"X"},"bonus":1.5800000000000014},{"rt":7705.699999928474,"stimulus":"You have completed the first part of this experiment.<br><br>You will now begin a shorter second part, in which you will receive no feedback.<br>The same rules regarding bonus pay apply.<br><br>Press any key to begin.","response":" ","trial_type":"html-keyboard-response","trial_index":135,"time_elapsed":721163,"internal_node_id":"0.0-5.0","subject_id":"6128088290e183700b1060e2","study_id":"6197b3f67c2b5cd3b6d9596a","session_id":"6197b9e9743846e20e523ad2","condition":"contingent","relevant_dimensions":["antennae","wings"],"bee_group":{"antennae":"B","wings":"1","pattern":"X","legs":"X"},"bonus":1.5800000000000014},{"rt":7935.399999976158,"stimulus":"bees-with-color/bee-B1SF.svg","response":1,"trial_type":"image-button-response","trial_index":136,"time_elapsed":729287,"internal_node_id":"0.0-6.0-0.0","subject_id":"6128088290e183700b1060e2","study_id":"6197b3f67c2b5cd3b6d9596a","session_id":"6197b9e9743846e20e523ad2","condition":"contingent","relevant_dimensions":["antennae","wings"],"bee_group":{"antennae":"B","wings":"1","pattern":"X","legs":"X"},"bonus":1.5800000000000014},{"rt":1745.2000000476837,"stimulus":"bees-with-color/bee-A2DF.svg","response":0,"trial_type":"image-button-response","trial_index":137,"time_elapsed":731035,"internal_node_id":"0.0-6.0-0.1","subject_id":"6128088290e183700b1060e2","study_id":"6197b3f67c2b5cd3b6d9596a","session_id":"6197b9e9743846e20e523ad2","condition":"contingent","relevant_dimensions":["antennae","wings"],"bee_group":{"antennae":"B","wings":"1","pattern":"X","legs":"X"},"bonus":1.5800000000000014},{"rt":2700,"stimulus":"bees-with-color/bee-B2DM.svg","response":0,"trial_type":"image-button-response","trial_index":138,"time_elapsed":733738,"internal_node_id":"0.0-6.0-0.2","subject_id":"6128088290e183700b1060e2","study_id":"6197b3f67c2b5cd3b6d9596a","session_id":"6197b9e9743846e20e523ad2","condition":"contingent","relevant_dimensions":["antennae","wings"],"bee_group":{"antennae":"B","wings":"1","pattern":"X","legs":"X"},"bonus":1.5800000000000014},{"rt":1040.5,"stimulus":"bees-with-color/bee-B2SM.svg","response":0,"trial_type":"image-button-response","trial_index":139,"time_elapsed":734782,"internal_node_id":"0.0-6.0-0.3","subject_id":"6128088290e183700b1060e2","study_id":"6197b3f67c2b5cd3b6d9596a","session_id":"6197b9e9743846e20e523ad2","condition":"contingent","relevant_dimensions":["antennae","wings"],"bee_group":{"antennae":"B","wings":"1","pattern":"X","legs":"X"},"bonus":1.5800000000000014},{"rt":1227.8999999761581,"stimulus":"bees-with-color/bee-B1SM.svg","response":1,"trial_type":"image-button-response","trial_index":140,"time_elapsed":736011,"internal_node_id":"0.0-6.0-0.4","subject_id":"6128088290e183700b1060e2","study_id":"6197b3f67c2b5cd3b6d9596a","session_id":"6197b9e9743846e20e523ad2","condition":"contingent","relevant_dimensions":["antennae","wings"],"bee_group":{"antennae":"B","wings":"1","pattern":"X","legs":"X"},"bonus":1.5800000000000014},{"rt":1485.7000000476837,"stimulus":"bees-with-color/bee-B2SF.svg","response":0,"trial_type":"image-button-response","trial_index":141,"time_elapsed":737499,"internal_node_id":"0.0-6.0-0.5","subject_id":"6128088290e183700b1060e2","study_id":"6197b3f67c2b5cd3b6d9596a","session_id":"6197b9e9743846e20e523ad2","condition":"contingent","relevant_dimensions":["antennae","wings"],"bee_group":{"antennae":"B","wings":"1","pattern":"X","legs":"X"},"bonus":1.5800000000000014},{"rt":1130.3000000715256,"stimulus":"bees-with-color/bee-A1SM.svg","response":0,"trial_type":"image-button-response","trial_index":142,"time_elapsed":738632,"internal_node_id":"0.0-6.0-0.6","subject_id":"6128088290e183700b1060e2","study_id":"6197b3f67c2b5cd3b6d9596a","session_id":"6197b9e9743846e20e523ad2","condition":"contingent","relevant_dimensions":["antennae","wings"],"bee_group":{"antennae":"B","wings":"1","pattern":"X","legs":"X"},"bonus":1.5800000000000014},{"rt":1062.2000000476837,"stimulus":"bees-with-color/bee-B2DF.svg","response":0,"trial_type":"image-button-response","trial_index":143,"time_elapsed":739697,"internal_node_id":"0.0-6.0-0.7","subject_id":"6128088290e183700b1060e2","study_id":"6197b3f67c2b5cd3b6d9596a","session_id":"6197b9e9743846e20e523ad2","condition":"contingent","relevant_dimensions":["antennae","wings"],"bee_group":{"antennae":"B","wings":"1","pattern":"X","legs":"X"},"bonus":1.5800000000000014},{"rt":288.7000000476837,"stimulus":"bees-with-color/bee-A2DM.svg","response":0,"trial_type":"image-button-response","trial_index":144,"time_elapsed":739988,"internal_node_id":"0.0-6.0-0.8","subject_id":"6128088290e183700b1060e2","study_id":"6197b3f67c2b5cd3b6d9596a","session_id":"6197b9e9743846e20e523ad2","condition":"contingent","relevant_dimensions":["antennae","wings"],"bee_group":{"antennae":"B","wings":"1","pattern":"X","legs":"X"},"bonus":1.5800000000000014},{"rt":1594.1000000238419,"stimulus":"bees-with-color/bee-A1DF.svg","response":0,"trial_type":"image-button-response","trial_index":145,"time_elapsed":741585,"internal_node_id":"0.0-6.0-0.9","subject_id":"6128088290e183700b1060e2","study_id":"6197b3f67c2b5cd3b6d9596a","session_id":"6197b9e9743846e20e523ad2","condition":"contingent","relevant_dimensions":["antennae","wings"],"bee_group":{"antennae":"B","wings":"1","pattern":"X","legs":"X"},"bonus":1.5800000000000014},{"rt":767.1000000238419,"stimulus":"bees-with-color/bee-A2SM.svg","response":0,"trial_type":"image-button-response","trial_index":146,"time_elapsed":742354,"internal_node_id":"0.0-6.0-0.10","subject_id":"6128088290e183700b1060e2","study_id":"6197b3f67c2b5cd3b6d9596a","session_id":"6197b9e9743846e20e523ad2","condition":"contingent","relevant_dimensions":["antennae","wings"],"bee_group":{"antennae":"B","wings":"1","pattern":"X","legs":"X"},"bonus":1.5800000000000014},{"rt":693.8999999761581,"stimulus":"bees-with-color/bee-A2SF.svg","response":0,"trial_type":"image-button-response","trial_index":147,"time_elapsed":743050,"internal_node_id":"0.0-6.0-0.11","subject_id":"6128088290e183700b1060e2","study_id":"6197b3f67c2b5cd3b6d9596a","session_id":"6197b9e9743846e20e523ad2","condition":"contingent","relevant_dimensions":["antennae","wings"],"bee_group":{"antennae":"B","wings":"1","pattern":"X","legs":"X"},"bonus":1.5800000000000014},{"rt":1620.1000000238419,"stimulus":"bees-with-color/bee-B1DM.svg","response":1,"trial_type":"image-button-response","trial_index":148,"time_elapsed":744672,"internal_node_id":"0.0-6.0-0.12","subject_id":"6128088290e183700b1060e2","study_id":"6197b3f67c2b5cd3b6d9596a","session_id":"6197b9e9743846e20e523ad2","condition":"contingent","relevant_dimensions":["antennae","wings"],"bee_group":{"antennae":"B","wings":"1","pattern":"X","legs":"X"},"bonus":1.5800000000000014},{"rt":782.6999999284744,"stimulus":"bees-with-color/bee-B1DF.svg","response":1,"trial_type":"image-button-response","trial_index":149,"time_elapsed":745456,"internal_node_id":"0.0-6.0-0.13","subject_id":"6128088290e183700b1060e2","study_id":"6197b3f67c2b5cd3b6d9596a","session_id":"6197b9e9743846e20e523ad2","condition":"contingent","relevant_dimensions":["antennae","wings"],"bee_group":{"antennae":"B","wings":"1","pattern":"X","legs":"X"},"bonus":1.5800000000000014},{"rt":1249,"stimulus":"bees-with-color/bee-A1DM.svg","response":0,"trial_type":"image-button-response","trial_index":150,"time_elapsed":746707,"internal_node_id":"0.0-6.0-0.14","subject_id":"6128088290e183700b1060e2","study_id":"6197b3f67c2b5cd3b6d9596a","session_id":"6197b9e9743846e20e523ad2","condition":"contingent","relevant_dimensions":["antennae","wings"],"bee_group":{"antennae":"B","wings":"1","pattern":"X","legs":"X"},"bonus":1.5800000000000014},{"rt":686.7999999523163,"stimulus":"bees-with-color/bee-A1SF.svg","response":0,"trial_type":"image-button-response","trial_index":151,"time_elapsed":747395,"internal_node_id":"0.0-6.0-0.15","subject_id":"6128088290e183700b1060e2","study_id":"6197b3f67c2b5cd3b6d9596a","session_id":"6197b9e9743846e20e523ad2","condition":"contingent","relevant_dimensions":["antennae","wings"],"bee_group":{"antennae":"B","wings":"1","pattern":"X","legs":"X"},"bonus":1.5800000000000014},{"rt":1930.3999999761581,"stimulus":"bees-with-color/bee-B1SM.svg","response":1,"trial_type":"image-button-response","trial_index":152,"time_elapsed":749327,"internal_node_id":"0.0-6.0-0.16","subject_id":"6128088290e183700b1060e2","study_id":"6197b3f67c2b5cd3b6d9596a","session_id":"6197b9e9743846e20e523ad2","condition":"contingent","relevant_dimensions":["antennae","wings"],"bee_group":{"antennae":"B","wings":"1","pattern":"X","legs":"X"},"bonus":1.5800000000000014},{"rt":1339.1000000238419,"stimulus":"bees-with-color/bee-A2SM.svg","response":0,"trial_type":"image-button-response","trial_index":153,"time_elapsed":750668,"internal_node_id":"0.0-6.0-0.17","subject_id":"6128088290e183700b1060e2","study_id":"6197b3f67c2b5cd3b6d9596a","session_id":"6197b9e9743846e20e523ad2","condition":"contingent","relevant_dimensions":["antennae","wings"],"bee_group":{"antennae":"B","wings":"1","pattern":"X","legs":"X"},"bonus":1.5800000000000014},{"rt":1094.2999999523163,"stimulus":"bees-with-color/bee-A1DF.svg","response":0,"trial_type":"image-button-response","trial_index":154,"time_elapsed":751764,"internal_node_id":"0.0-6.0-0.18","subject_id":"6128088290e183700b1060e2","study_id":"6197b3f67c2b5cd3b6d9596a","session_id":"6197b9e9743846e20e523ad2","condition":"contingent","relevant_dimensions":["antennae","wings"],"bee_group":{"antennae":"B","wings":"1","pattern":"X","legs":"X"},"bonus":1.5800000000000014},{"rt":620.5,"stimulus":"bees-with-color/bee-A1SF.svg","response":0,"trial_type":"image-button-response","trial_index":155,"time_elapsed":752386,"internal_node_id":"0.0-6.0-0.19","subject_id":"6128088290e183700b1060e2","study_id":"6197b3f67c2b5cd3b6d9596a","session_id":"6197b9e9743846e20e523ad2","condition":"contingent","relevant_dimensions":["antennae","wings"],"bee_group":{"antennae":"B","wings":"1","pattern":"X","legs":"X"},"bonus":1.5800000000000014},{"rt":1300.8999999761581,"stimulus":"bees-with-color/bee-B1DF.svg","response":1,"trial_type":"image-button-response","trial_index":156,"time_elapsed":753688,"internal_node_id":"0.0-6.0-0.20","subject_id":"6128088290e183700b1060e2","study_id":"6197b3f67c2b5cd3b6d9596a","session_id":"6197b9e9743846e20e523ad2","condition":"contingent","relevant_dimensions":["antennae","wings"],"bee_group":{"antennae":"B","wings":"1","pattern":"X","legs":"X"},"bonus":1.5800000000000014},{"rt":3218.3000000715256,"stimulus":"bees-with-color/bee-B2DM.svg","response":0,"trial_type":"image-button-response","trial_index":157,"time_elapsed":756908,"internal_node_id":"0.0-6.0-0.21","subject_id":"6128088290e183700b1060e2","study_id":"6197b3f67c2b5cd3b6d9596a","session_id":"6197b9e9743846e20e523ad2","condition":"contingent","relevant_dimensions":["antennae","wings"],"bee_group":{"antennae":"B","wings":"1","pattern":"X","legs":"X"},"bonus":1.5800000000000014},{"rt":932.6000000238419,"stimulus":"bees-with-color/bee-B2SF.svg","response":0,"trial_type":"image-button-response","trial_index":158,"time_elapsed":757842,"internal_node_id":"0.0-6.0-0.22","subject_id":"6128088290e183700b1060e2","study_id":"6197b3f67c2b5cd3b6d9596a","session_id":"6197b9e9743846e20e523ad2","condition":"contingent","relevant_dimensions":["antennae","wings"],"bee_group":{"antennae":"B","wings":"1","pattern":"X","legs":"X"},"bonus":1.5800000000000014},{"rt":2342.7999999523163,"stimulus":"bees-with-color/bee-A2DM.svg","response":0,"trial_type":"image-button-response","trial_index":159,"time_elapsed":760187,"internal_node_id":"0.0-6.0-0.23","subject_id":"6128088290e183700b1060e2","study_id":"6197b3f67c2b5cd3b6d9596a","session_id":"6197b9e9743846e20e523ad2","condition":"contingent","relevant_dimensions":["antennae","wings"],"bee_group":{"antennae":"B","wings":"1","pattern":"X","legs":"X"},"bonus":1.5800000000000014},{"rt":901.8000000715256,"stimulus":"bees-with-color/bee-A2DF.svg","response":0,"trial_type":"image-button-response","trial_index":160,"time_elapsed":761091,"internal_node_id":"0.0-6.0-0.24","subject_id":"6128088290e183700b1060e2","study_id":"6197b3f67c2b5cd3b6d9596a","session_id":"6197b9e9743846e20e523ad2","condition":"contingent","relevant_dimensions":["antennae","wings"],"bee_group":{"antennae":"B","wings":"1