[{"success":true,"trial_type":"fullscreen","trial_index":0,"time_elapsed":4801,"internal_node_id":"0.0-0.0","subject_id":"6161c0a63a36cd2224159da5","study_id":"6197b3f67c2b5cd3b6d9596a","session_id":"6197b9e8146ac66a3f9155b9","condition":"full-information","relevant_dimensions":["antennae","wings"],"bee_group":{"antennae":"B","wings":"2","pattern":"X","legs":"X"},"bonus":0.20000000000000037},{"success":true,"timeout":false,"failed_images":[],"failed_audio":[],"failed_video":[],"trial_type":"preload","trial_index":1,"time_elapsed":4813,"internal_node_id":"0.0-1.0","subject_id":"6161c0a63a36cd2224159da5","study_id":"6197b3f67c2b5cd3b6d9596a","session_id":"6197b9e8146ac66a3f9155b9","condition":"full-information","relevant_dimensions":["antennae","wings"],"bee_group":{"antennae":"B","wings":"2","pattern":"X","legs":"X"},"bonus":0.20000000000000037},{"rt":1662.7000000029802,"stimulus":"Welcome! Press any key to begin.","response":" ","trial_type":"html-keyboard-response","trial_index":2,"time_elapsed":6476,"internal_node_id":"0.0-2.0","subject_id":"6161c0a63a36cd2224159da5","study_id":"6197b3f67c2b5cd3b6d9596a","session_id":"6197b9e8146ac66a3f9155b9","condition":"full-information","relevant_dimensions":["antennae","wings"],"bee_group":{"antennae":"B","wings":"2","pattern":"X","legs":"X"},"bonus":0.20000000000000037},{"view_history":[{"page_index":0,"viewing_time":7218.800000000745},{"page_index":1,"viewing_time":7991.5},{"page_index":2,"viewing_time":23422.599999997765},{"page_index":3,"viewing_time":28149.199999999255},{"page_index":4,"viewing_time":6035.900000002235},{"page_index":5,"viewing_time":15214.599999997765},{"page_index":6,"viewing_time":9345.10000000149},{"page_index":7,"viewing_time":7465},{"page_index":8,"viewing_time":6056.699999999255},{"page_index":9,"viewing_time":5120.800000000745},{"page_index":10,"viewing_time":4741.199999999255},{"page_index":11,"viewing_time":10260.5},{"page_index":12,"viewing_time":46653.5},{"page_index":13,"viewing_time":2798},{"page_index":14,"viewing_time":3177.699999999255}],"rt":183651.3999999985,"trial_type":"instructions","trial_index":3,"time_elapsed":190128,"internal_node_id":"0.0-3.0-0.0","subject_id":"6161c0a63a36cd2224159da5","study_id":"6197b3f67c2b5cd3b6d9596a","session_id":"6197b9e8146ac66a3f9155b9","condition":"full-information","relevant_dimensions":["antennae","wings"],"bee_group":{"antennae":"B","wings":"2","pattern":"X","legs":"X"},"bonus":0.20000000000000037},{"rt":19991.199999999255,"response":{"Q0":["Two or six legs","Stripes or spots on body","Single or double wings","Antennae or no antennae"]},"question_order":[0],"trial_type":"survey-multi-select","trial_index":4,"time_elapsed":210127,"internal_node_id":"0.0-3.0-1.0","subject_id":"6161c0a63a36cd2224159da5","study_id":"6197b3f67c2b5cd3b6d9596a","session_id":"6197b9e8146ac66a3f9155b9","condition":"full-information","relevant_dimensions":["antennae","wings"],"bee_group":{"antennae":"B","wings":"2","pattern":"X","legs":"X"},"correct":true,"bonus":0.20000000000000037},{"rt":30414.699999999255,"response":{"Q1":"No.","Q2":"Based on the four features of the bee.","Q3":"You learn if it was friendly or dangerous, but do not alter your bonus."},"question_order":[0,1,2],"trial_type":"survey-multi-choice","trial_index":5,"time_elapsed":240545,"internal_node_id":"0.0-3.0-2.0","subject_id":"6161c0a63a36cd2224159da5","study_id":"6197b3f67c2b5cd3b6d9596a","session_id":"6197b9e8146ac66a3f9155b9","condition":"full-information","relevant_dimensions":["antennae","wings"],"bee_group":{"antennae":"B","wings":"2","pattern":"X","legs":"X"},"correct":true,"bonus":0.20000000000000037},{"rt":3746.7000000029802,"stimulus":"<p>Congrats, you got everything right<br>When you're ready, click the button below to continue to the experiment.</p>","response":0,"trial_type":"html-button-response","trial_index":6,"time_elapsed":244294,"internal_node_id":"0.0-3.0-3.0","subject_id":"6161c0a63a36cd2224159da5","study_id":"6197b3f67c2b5cd3b6d9596a","session_id":"6197b9e8146ac66a3f9155b9","condition":"full-information","relevant_dimensions":["antennae","wings"],"bee_group":{"antennae":"B","wings":"2","pattern":"X","legs":"X"},"bonus":0.20000000000000037},{"rt":12602.699999999255,"stimulus":"bees-with-color/bee-B1SM.svg","response":0,"trial_type":"image-button-response","trial_index":7,"time_elapsed":256901,"internal_node_id":"0.0-4.0-0.0","subject_id":"6161c0a63a36cd2224159da5","study_id":"6197b3f67c2b5cd3b6d9596a","session_id":"6197b9e8146ac66a3f9155b9","condition":"full-information","relevant_dimensions":["antennae","wings"],"bee_group":{"antennae":"B","wings":"2","pattern":"X","legs":"X"},"action":"harvest","summary":"good-harvest","bonus":0.20000000000000037},{"rt":14413.39999999851,"stimulus":"\n                    <p><b>Action: <em>harvest</em></b></p>\n                    <p>This is the bee that you just saw.</p>\n                    <img src=\"bees-with-color/bee-B1SM.svg\" width=\"200\">\n                    <p><span class=\"greenText\"><b>Successful harvest!</b></span><br>Your pay has increased by $0.02. Your bonus pay is now $0.56.</p>\n            ","response":0,"trial_type":"html-button-response","trial_index":8,"time_elapsed":271507,"internal_node_id":"0.0-4.0-1.0","subject_id":"6161c0a63a36cd2224159da5","study_id":"6197b3f67c2b5cd3b6d9596a","session_id":"6197b9e8146ac66a3f9155b9","condition":"full-information","relevant_dimensions":["antennae","wings"],"bee_group":{"antennae":"B","wings":"2","pattern":"X","legs":"X"},"bonus":0.20000000000000037},{"rt":2605.199999999255,"stimulus":"bees-with-color/bee-B2DF.svg","response":1,"trial_type":"image-button-response","trial_index":9,"time_elapsed":274116,"internal_node_id":"0.0-4.0-0.1","subject_id":"6161c0a63a36cd2224159da5","study_id":"6197b3f67c2b5cd3b6d9596a","session_id":"6197b9e8146ac66a3f9155b9","condition":"full-information","relevant_dimensions":["antennae","wings"],"bee_group":{"antennae":"B","wings":"2","pattern":"X","legs":"X"},"action":"avoid","summary":"good-avoid","bonus":0.20000000000000037},{"rt":7826.800000000745,"stimulus":"\n                    <p><b>Action: <em>avoid</em></b></p>\n                    <p>This is the bee that you just saw.</p>\n                    <img src=\"bees-with-color/bee-B2DF.svg\" width=\"200\">\n                    <p><span class=\"greenText\">Good choice!</span>  This bee would have stung you.<br>Your bonus pay is unchanged, and remains at $0.56.</p>\n            ","response":0,"trial_type":"html-button-response","trial_index":10,"time_elapsed":281991,"internal_node_id":"0.0-4.0-1.1","subject_id":"6161c0a63a36cd2224159da5","study_id":"6197b3f67c2b5cd3b6d9596a","session_id":"6197b9e8146ac66a3f9155b9","condition":"full-information","relevant_dimensions":["antennae","wings"],"bee_group":{"antennae":"B","wings":"2","pattern":"X","legs":"X"},"bonus":0.20000000000000037},{"rt":2099.2999999970198,"stimulus":"bees-with-color/bee-A1DM.svg","response":0,"trial_type":"image-button-response","trial_index":11,"time_elapsed":284094,"internal_node_id":"0.0-4.0-0.2","subject_id":"6161c0a63a36cd2224159da5","study_id":"6197b3f67c2b5cd3b6d9596a","session_id":"6197b9e8146ac66a3f9155b9","condition":"full-information","relevant_dimensions":["antennae","wings"],"bee_group":{"antennae":"B","wings":"2","pattern":"X","legs":"X"},"action":"harvest","summary":"good-harvest","bonus":0.20000000000000037},{"rt":5164,"stimulus":"\n                    <p><b>Action: <em>harvest</em></b></p>\n                    <p>This is the bee that you just saw.</p>\n                    <img src=\"bees-with-color/bee-A1DM.svg\" width=\"200\">\n                    <p><span class=\"greenText\"><b>Successful harvest!</b></span><br>Your pay has increased by $0.02. Your bonus pay is now $0.58.</p>\n            ","response":0,"trial_type":"html-button-response","trial_index":12,"time_elapsed":289261,"internal_node_id":"0.0-4.0-1.2","subject_id":"6161c0a63a36cd2224159da5","study_id":"6197b3f67c2b5cd3b6d9596a","session_id":"6197b9e8146ac66a3f9155b9","condition":"full-information","relevant_dimensions":["antennae","wings"],"bee_group":{"antennae":"B","wings":"2","pattern":"X","legs":"X"},"bonus":0.20000000000000037},{"rt":4164.400000002235,"stimulus":"bees-with-color/bee-A1SF.svg","response":1,"trial_type":"image-button-response","trial_index":13,"time_elapsed":293428,"internal_node_id":"0.0-4.0-0.3","subject_id":"6161c0a63a36cd2224159da5","study_id":"6197b3f67c2b5cd3b6d9596a","session_id":"6197b9e8146ac66a3f9155b9","condition":"full-information","relevant_dimensions":["antennae","wings"],"bee_group":{"antennae":"B","wings":"2","pattern":"X","legs":"X"},"action":"avoid","summary":"bad-avoid","bonus":0.20000000000000037},{"rt":4683.400000002235,"stimulus":"\n                    <p><b>Action: <em>avoid</em></b></p>\n                    <p>This is the bee that you just saw.</p>\n                    <img src=\"bees-with-color/bee-A1SF.svg\" width=\"200\">\n                    <p><span class=\"redText\">Bad choice,</span> the bee was friendly.<br>Your bonus pay is unchanged, and remains at $0.58.</p>\n            ","response":0,"trial_type":"html-button-response","trial_index":14,"time_elapsed":298114,"internal_node_id":"0.0-4.0-1.3","subject_id":"6161c0a63a36cd2224159da5","study_id":"6197b3f67c2b5cd3b6d9596a","session_id":"6197b9e8146ac66a3f9155b9","condition":"full-information","relevant_dimensions":["antennae","wings"],"bee_group":{"antennae":"B","wings":"2","pattern":"X","legs":"X"},"bonus":0.20000000000000037},{"rt":2700.800000000745,"stimulus":"bees-with-color/bee-B1DM.svg","response":0,"trial_type":"image-button-response","trial_index":15,"time_elapsed":300818,"internal_node_id":"0.0-4.0-0.4","subject_id":"6161c0a63a36cd2224159da5","study_id":"6197b3f67c2b5cd3b6d9596a","session_id":"6197b9e8146ac66a3f9155b9","condition":"full-information","relevant_dimensions":["antennae","wings"],"bee_group":{"antennae":"B","wings":"2","pattern":"X","legs":"X"},"action":"harvest","summary":"good-harvest","bonus":0.20000000000000037},{"rt":2114.5,"stimulus":"\n                    <p><b>Action: <em>harvest</em></b></p>\n                    <p>This is the bee that you just saw.</p>\n                    <img src=\"bees-with-color/bee-B1DM.svg\" width=\"200\">\n                    <p><span class=\"greenText\"><b>Successful harvest!</b></span><br>Your pay has increased by $0.02. Your bonus pay is now $0.60.</p>\n            ","response":0,"trial_type":"html-button-response","trial_index":16,"time_elapsed":302934,"internal_node_id":"0.0-4.0-1.4","subject_id":"6161c0a63a36cd2224159da5","study_id":"6197b3f67c2b5cd3b6d9596a","session_id":"6197b9e8146ac66a3f9155b9","condition":"full-information","relevant_dimensions":["antennae","wings"],"bee_group":{"antennae":"B","wings":"2","pattern":"X","legs":"X"},"bonus":0.20000000000000037},{"rt":4072.800000000745,"stimulus":"bees-with-color/bee-A1SM.svg","response":0,"trial_type":"image-button-response","trial_index":17,"time_elapsed":307009,"internal_node_id":"0.0-4.0-0.5","subject_id":"6161c0a63a36cd2224159da5","study_id":"6197b3f67c2b5cd3b6d9596a","session_id":"6197b9e8146ac66a3f9155b9","condition":"full-information","relevant_dimensions":["antennae","wings"],"bee_group":{"antennae":"B","wings":"2","pattern":"X","legs":"X"},"action":"harvest","summary":"good-harvest","bonus":0.20000000000000037},{"rt":2578.2999999970198,"stimulus":"\n                    <p><b>Action: <em>harvest</em></b></p>\n                    <p>This is the bee that you just saw.</p>\n                    <img src=\"bees-with-color/bee-A1SM.svg\" width=\"200\">\n                    <p><span class=\"greenText\"><b>Successful harvest!</b></span><br>Your pay has increased by $0.02. Your bonus pay is now $0.62.</p>\n            ","response":0,"trial_type":"html-button-response","trial_index":18,"time_elapsed":309589,"internal_node_id":"0.0-4.0-1.5","subject_id":"6161c0a63a36cd2224159da5","study_id":"6197b3f67c2b5cd3b6d9596a","session_id":"6197b9e8146ac66a3f9155b9","condition":"full-information","relevant_dimensions":["antennae","wings"],"bee_group":{"antennae":"B","wings":"2","pattern":"X","legs":"X"},"bonus":0.20000000000000037},{"rt":10246,"stimulus":"bees-with-color/bee-B2DM.svg","response":1,"trial_type":"image-button-response","trial_index":19,"time_elapsed":319838,"internal_node_id":"0.0-4.0-0.6","subject_id":"6161c0a63a36cd2224159da5","study_id":"6197b3f67c2b5cd3b6d9596a","session_id":"6197b9e8146ac66a3f9155b9","condition":"full-information","relevant_dimensions":["antennae","wings"],"bee_group":{"antennae":"B","wings":"2","pattern":"X","legs":"X"},"action":"avoid","summary":"good-avoid","bonus":0.20000000000000037},{"rt":2667.699999999255,"stimulus":"\n                    <p><b>Action: <em>avoid</em></b></p>\n                    <p>This is the bee that you just saw.</p>\n                    <img src=\"bees-with-color/bee-B2DM.svg\" width=\"200\">\n                    <p><span class=\"greenText\">Good choice!</span>  This bee would have stung you.<br>Your bonus pay is unchanged, and remains at $0.62.</p>\n            ","response":0,"trial_type":"html-button-response","trial_index":20,"time_elapsed":322508,"internal_node_id":"0.0-4.0-1.6","subject_id":"6161c0a63a36cd2224159da5","study_id":"6197b3f67c2b5cd3b6d9596a","session_id":"6197b9e8146ac66a3f9155b9","condition":"full-information","relevant_dimensions":["antennae","wings"],"bee_group":{"antennae":"B","wings":"2","pattern":"X","legs":"X"},"bonus":0.20000000000000037},{"rt":2003.0999999977648,"stimulus":"bees-with-color/bee-A2DF.svg","response":1,"trial_type":"image-button-response","trial_index":21,"time_elapsed":324514,"internal_node_id":"0.0-4.0-0.7","subject_id":"6161c0a63a36cd2224159da5","study_id":"6197b3f67c2b5cd3b6d9596a","session_id":"6197b9e8146ac66a3f9155b9","condition":"full-information","relevant_dimensions":["antennae","wings"],"bee_group":{"antennae":"B","wings":"2","pattern":"X","legs":"X"},"action":"avoid","summary":"bad-avoid","bonus":0.20000000000000037},{"rt":3417.800000000745,"stimulus":"\n                    <p><b>Action: <em>avoid</em></b></p>\n                    <p>This is the bee that you just saw.</p>\n                    <img src=\"bees-with-color/bee-A2DF.svg\" width=\"200\">\n                    <p><span class=\"redText\">Bad choice,</span> the bee was friendly.<br>Your bonus pay is unchanged, and remains at $0.62.</p>\n            ","response":0,"trial_type":"html-button-response","trial_index":22,"time_elapsed":327933,"internal_node_id":"0.0-4.0-1.7","subject_id":"6161c0a63a36cd2224159da5","study_id":"6197b3f67c2b5cd3b6d9596a","session_id":"6197b9e8146ac66a3f9155b9","condition":"full-information","relevant_dimensions":["antennae","wings"],"bee_group":{"antennae":"B","wings":"2","pattern":"X","legs":"X"},"bonus":0.20000000000000037},{"rt":4017.199999999255,"stimulus":"bees-with-color/bee-A2DM.svg","response":1,"trial_type":"image-button-response","trial_index":23,"time_elapsed":331954,"internal_node_id":"0.0-4.0-0.8","subject_id":"6161c0a63a36cd2224159da5","study_id":"6197b3f67c2b5cd3b6d9596a","session_id":"6197b9e8146ac66a3f9155b9","condition":"full-information","relevant_dimensions":["antennae","wings"],"bee_group":{"antennae":"B","wings":"2","pattern":"X","legs":"X"},"action":"avoid","summary":"bad-avoid","bonus":0.20000000000000037},{"rt":1868.199999999255,"stimulus":"\n                    <p><b>Action: <em>avoid</em></b></p>\n                    <p>This is the bee that you just saw.</p>\n                    <img src=\"bees-with-color/bee-A2DM.svg\" width=\"200\">\n                    <p><span class=\"redText\">Bad choice,</span> the bee was friendly.<br>Your bonus pay is unchanged, and remains at $0.62.</p>\n            ","response":0,"trial_type":"html-button-response","trial_index":24,"time_elapsed":333824,"internal_node_id":"0.0-4.0-1.8","subject_id":"6161c0a63a36cd2224159da5","study_id":"6197b3f67c2b5cd3b6d9596a","session_id":"6197b9e8146ac66a3f9155b9","condition":"full-information","relevant_dimensions":["antennae","wings"],"bee_group":{"antennae":"B","wings":"2","pattern":"X","legs":"X"},"bonus":0.20000000000000037},{"rt":3033.800000000745,"stimulus":"bees-with-color/bee-B1SF.svg","response":1,"trial_type":"image-button-response","trial_index":25,"time_elapsed":336861,"internal_node_id":"0.0-4.0-0.9","subject_id":"6161c0a63a36cd2224159da5","study_id":"6197b3f67c2b5cd3b6d9596a","session_id":"6197b9e8146ac66a3f9155b9","condition":"full-information","relevant_dimensions":["antennae","wings"],"bee_group":{"antennae":"B","wings":"2","pattern":"X","legs":"X"},"action":"avoid","summary":"bad-avoid","bonus":0.20000000000000037},{"rt":2209.39999999851,"stimulus":"\n                    <p><b>Action: <em>avoid</em></b></p>\n                    <p>This is the bee that you just saw.</p>\n                    <img src=\"bees-with-color/bee-B1SF.svg\" width=\"200\">\n                    <p><span class=\"redText\">Bad choice,</span> the bee was friendly.<br>Your bonus pay is unchanged, and remains at $0.62.</p>\n            ","response":0,"trial_type":"html-button-response","trial_index":26,"time_elapsed":339073,"internal_node_id":"0.0-4.0-1.9","subject_id":"6161c0a63a36cd2224159da5","study_id":"6197b3f67c2b5cd3b6d9596a","session_id":"6197b9e8146ac66a3f9155b9","condition":"full-information","relevant_dimensions":["antennae","wings"],"bee_group":{"antennae":"B","wings":"2","pattern":"X","legs":"X"},"bonus":0.20000000000000037},{"rt":3406.800000000745,"stimulus":"bees-with-color/bee-B1DF.svg","response":0,"trial_type":"image-button-response","trial_index":27,"time_elapsed":342483,"internal_node_id":"0.0-4.0-0.10","subject_id":"6161c0a63a36cd2224159da5","study_id":"6197b3f67c2b5cd3b6d9596a","session_id":"6197b9e8146ac66a3f9155b9","condition":"full-information","relevant_dimensions":["antennae","wings"],"bee_group":{"antennae":"B","wings":"2","pattern":"X","legs":"X"},"action":"harvest","summary":"good-harvest","bonus":0.20000000000000037},{"rt":2734.699999999255,"stimulus":"\n                    <p><b>Action: <em>harvest</em></b></p>\n                    <p>This is the bee that you just saw.</p>\n                    <img src=\"bees-with-color/bee-B1DF.svg\" width=\"200\">\n                    <p><span class=\"greenText\"><b>Successful harvest!</b></span><br>Your pay has increased by $0.02. Your bonus pay is now $0.64.</p>\n            ","response":0,"trial_type":"html-button-response","trial_index":28,"time_elapsed":345220,"internal_node_id":"0.0-4.0-1.10","subject_id":"6161c0a63a36cd2224159da5","study_id":"6197b3f67c2b5cd3b6d9596a","session_id":"6197b9e8146ac66a3f9155b9","condition":"full-information","relevant_dimensions":["antennae","wings"],"bee_group":{"antennae":"B","wings":"2","pattern":"X","legs":"X"},"bonus":0.20000000000000037},{"rt":4481.800000000745,"stimulus":"bees-with-color/bee-B2SM.svg","response":0,"trial_type":"image-button-response","trial_index":29,"time_elapsed":349704,"internal_node_id":"0.0-4.0-0.11","subject_id":"6161c0a63a36cd2224159da5","study_id":"6197b3f67c2b5cd3b6d9596a","session_id":"6197b9e8146ac66a3f9155b9","condition":"full-information","relevant_dimensions":["antennae","wings"],"bee_group":{"antennae":"B","wings":"2","pattern":"X","legs":"X"},"action":"harvest","summary":"bad-harvest","bonus":0.20000000000000037},{"rt":4044.5,"stimulus":"\n                    <p><b>Action: <em>harvest</em></b></p>\n                    <p>This is the bee that you just saw.</p>\n                    <img src=\"bees-with-color/bee-B2SM.svg\" width=\"200\">\n                    <p><span class=\"redText\">Bad choice, the bee was angry.</span><br><b>You have been stung!</b><br>Your pay has been decreased by $0.10. Your bonus pay is now $0.54.</p>\n            ","response":0,"trial_type":"html-button-response","trial_index":30,"time_elapsed":353753,"internal_node_id":"0.0-4.0-1.11","subject_id":"6161c0a63a36cd2224159da5","study_id":"6197b3f67c2b5cd3b6d9596a","session_id":"6197b9e8146ac66a3f9155b9","condition":"full-information","relevant_dimensions":["antennae","wings"],"bee_group":{"antennae":"B","wings":"2","pattern":"X","legs":"X"},"bonus":0.20000000000000037},{"rt":2608.800000000745,"stimulus":"bees-with-color/bee-A2SM.svg","response":0,"trial_type":"image-button-response","trial_index":31,"time_elapsed":356364,"internal_node_id":"0.0-4.0-0.12","subject_id":"6161c0a63a36cd2224159da5","study_id":"6197b3f67c2b5cd3b6d9596a","session_id":"6197b9e8146ac66a3f9155b9","condition":"full-information","relevant_dimensions":["antennae","wings"],"bee_group":{"antennae":"B","wings":"2","pattern":"X","legs":"X"},"action":"harvest","summary":"good-harvest","bonus":0.20000000000000037},{"rt":1912.7000000029802,"stimulus":"\n                    <p><b>Action: <em>harvest</em></b></p>\n                    <p>This is the bee that you just saw.</p>\n                    <img src=\"bees-with-color/bee-A2SM.svg\" width=\"200\">\n                    <p><span class=\"greenText\"><b>Successful harvest!</b></span><br>Your pay has increased by $0.02. Your bonus pay is now $0.56.</p>\n            ","response":0,"trial_type":"html-button-response","trial_index":32,"time_elapsed":358279,"internal_node_id":"0.0-4.0-1.12","subject_id":"6161c0a63a36cd2224159da5","study_id":"6197b3f67c2b5cd3b6d9596a","session_id":"6197b9e8146ac66a3f9155b9","condition":"full-information","relevant_dimensions":["antennae","wings"],"bee_group":{"antennae":"B","wings":"2","pattern":"X","legs":"X"},"bonus":0.20000000000000037},{"rt":3289.599999997765,"stimulus":"bees-with-color/bee-A1DF.svg","response":0,"trial_type":"image-button-response","trial_index":33,"time_elapsed":361572,"internal_node_id":"0.0-4.0-0.13","subject_id":"6161c0a63a36cd2224159da5","study_id":"6197b3f67c2b5cd3b6d9596a","session_id":"6197b9e8146ac66a3f9155b9","condition":"full-information","relevant_dimensions":["antennae","wings"],"bee_group":{"antennae":"B","wings":"2","pattern":"X","legs":"X"},"action":"harvest","summary":"good-harvest","bonus":0.20000000000000037},{"rt":1710.5,"stimulus":"\n                    <p><b>Action: <em>harvest</em></b></p>\n                    <p>This is the bee that you just saw.</p>\n                    <img src=\"bees-with-color/bee-A1DF.svg\" width=\"200\">\n                    <p><span class=\"greenText\"><b>Successful harvest!</b></span><br>Your pay has increased by $0.02. Your bonus pay is now $0.58.</p>\n            ","response":0,"trial_type":"html-button-response","trial_index":34,"time_elapsed":363285,"internal_node_id":"0.0-4.0-1.13","subject_id":"6161c0a63a36cd2224159da5","study_id":"6197b3f67c2b5cd3b6d9596a","session_id":"6197b9e8146ac66a3f9155b9","condition":"full-information","relevant_dimensions":["antennae","wings"],"bee_group":{"antennae":"B","wings":"2","pattern":"X","legs":"X"},"bonus":0.20000000000000037},{"rt":2250.10000000149,"stimulus":"bees-with-color/bee-A2SF.svg","response":1,"trial_type":"image-button-response","trial_index":35,"time_elapsed":365539,"internal_node_id":"0.0-4.0-0.14","subject_id":"6161c0a63a36cd2224159da5","study_id":"6197b3f67c2b5cd3b6d9596a","session_id":"6197b9e8146ac66a3f9155b9","condition":"full-information","relevant_dimensions":["antennae","wings"],"bee_group":{"antennae":"B","wings":"2","pattern":"X","legs":"X"},"action":"avoid","summary":"bad-avoid","bonus":0.20000000000000037},{"rt":1899.6000000014901,"stimulus":"\n                    <p><b>Action: <em>avoid</em></b></p>\n                    <p>This is the bee that you just saw.</p>\n                    <img src=\"bees-with-color/bee-A2SF.svg\" width=\"200\">\n                    <p><span class=\"redText\">Bad choice,</span> the bee was friendly.<br>Your bonus pay is unchanged, and remains at $0.58.</p>\n            ","response":0,"trial_type":"html-button-response","trial_index":36,"time_elapsed":367441,"internal_node_id":"0.0-4.0-1.14","subject_id":"6161c0a63a36cd2224159da5","study_id":"6197b3f67c2b5cd3b6d9596a","session_id":"6197b9e8146ac66a3f9155b9","condition":"full-information","relevant_dimensions":["antennae","wings"],"bee_group":{"antennae":"B","wings":"2","pattern":"X","legs":"X"},"bonus":0.20000000000000037},{"rt":2327.39999999851,"stimulus":"bees-with-color/bee-B2SF.svg","response":0,"trial_type":"image-button-response","trial_index":37,"time_elapsed":369771,"internal_node_id":"0.0-4.0-0.15","subject_id":"6161c0a63a36cd2224159da5","study_id":"6197b3f67c2b5cd3b6d9596a","session_id":"6197b9e8146ac66a3f9155b9","condition":"full-information","relevant_dimensions":["antennae","wings"],"bee_group":{"antennae":"B","wings":"2","pattern":"X","legs":"X"},"action":"harvest","summary":"bad-harvest","bonus":0.20000000000000037},{"rt":2535,"stimulus":"\n                    <p><b>Action: <em>harvest</em></b></p>\n                    <p>This is the bee that you just saw.</p>\n                    <img src=\"bees-with-color/bee-B2SF.svg\" width=\"200\">\n                    <p><span class=\"redText\">Bad choice, the bee was angry.</span><br><b>You have been stung!</b><br>Your pay has been decreased by $0.10. Your bonus pay is now $0.48.</p>\n            ","response":0,"trial_type":"html-button-response","trial_index":38,"time_elapsed":372366,"internal_node_id":"0.0-4.0-1.15","subject_id":"6161c0a63a36cd2224159da5","study_id":"6197b3f67c2b5cd3b6d9596a","session_id":"6197b9e8146ac66a3f9155b9","condition":"full-information","relevant_dimensions":["antennae","wings"],"bee_group":{"antennae":"B","wings":"2","pattern":"X","legs":"X"},"bonus":0.20000000000000037},{"rt":6252,"stimulus":"bees-with-color/bee-B2DM.svg","response":0,"trial_type":"image-button-response","trial_index":39,"time_elapsed":378620,"internal_node_id":"0.0-4.0-0.16","subject_id":"6161c0a63a36cd2224159da5","study_id":"6197b3f67c2b5cd3b6d9596a","session_id":"6197b9e8146ac66a3f9155b9","condition":"full-information","relevant_dimensions":["antennae","wings"],"bee_group":{"antennae":"B","wings":"2","pattern":"X","legs":"X"},"action":"harvest","summary":"bad-harvest","bonus":0.20000000000000037},{"rt":1898.7000000029802,"stimulus":"\n                    <p><b>Action: <em>harvest</em></b></p>\n                    <p>This is the bee that you just saw.</p>\n                    <img src=\"bees-with-color/bee-B2DM.svg\" width=\"200\">\n                    <p><span class=\"redText\">Bad choice, the bee was angry.</span><br><b>You have been stung!</b><br>Your pay has been decreased by $0.10. Your bonus pay is now $0.38.</p>\n            ","response":0,"trial_type":"html-button-response","trial_index":40,"time_elapsed":380521,"internal_node_id":"0.0-4.0-1.16","subject_id":"6161c0a63a36cd2224159da5","study_id":"6197b3f67c2b5cd3b6d9596a","session_id":"6197b9e8146ac66a3f9155b9","condition":"full-information","relevant_dimensions":["antennae","wings"],"bee_group":{"antennae":"B","wings":"2","pattern":"X","legs":"X"},"bonus":0.20000000000000037},{"rt":2038.6000000014901,"stimulus":"bees-with-color/bee-B1DM.svg","response":1,"trial_type":"image-button-response","trial_index":41,"time_elapsed":382563,"internal_node_id":"0.0-4.0-0.17","subject_id":"6161c0a63a36cd2224159da5","study_id":"6197b3f67c2b5cd3b6d9596a","session_id":"6197b9e8146ac66a3f9155b9","condition":"full-information","relevant_dimensions":["antennae","wings"],"bee_group":{"antennae":"B","wings":"2","pattern":"X","legs":"X"},"action":"avoid","summary":"bad-avoid","bonus":0.20000000000000037},{"rt":1859.8999999985099,"stimulus":"\n                    <p><b>Action: <em>avoid</em></b></p>\n                    <p>This is the bee that you just saw.</p>\n                    <img src=\"bees-with-color/bee-B1DM.svg\" width=\"200\">\n                    <p><span class=\"redText\">Bad choice,</span> the bee was friendly.<br>Your bonus pay is unchanged, and remains at $0.38.</p>\n            ","response":0,"trial_type":"html-button-response","trial_index":42,"time_elapsed":384424,"internal_node_id":"0.0-4.0-1.17","subject_id":"6161c0a63a36cd2224159da5","study_id":"6197b3f67c2b5cd3b6d9596a","session_id":"6197b9e8146ac66a3f9155b9","condition":"full-information","relevant_dimensions":["antennae","wings"],"bee_group":{"antennae":"B","wings":"2","pattern":"X","legs":"X"},"bonus":0.20000000000000037},{"rt":2783.89999999851,"stimulus":"bees-with-color/bee-A2DM.svg","response":0,"trial_type":"image-button-response","trial_index":43,"time_elapsed":387210,"internal_node_id":"0.0-4.0-0.18","subject_id":"6161c0a63a36cd2224159da5","study_id":"6197b3f67c2b5cd3b6d9596a","session_id":"6197b9e8146ac66a3f9155b9","condition":"full-information","relevant_dimensions":["antennae","wings"],"bee_group":{"antennae":"B","wings":"2","pattern":"X","legs":"X"},"action":"harvest","summary":"good-harvest","bonus":0.20000000000000037},{"rt":2547.699999999255,"stimulus":"\n                    <p><b>Action: <em>harvest</em></b></p>\n                    <p>This is the bee that you just saw.</p>\n                    <img src=\"bees-with-color/bee-A2DM.svg\" width=\"200\">\n                    <p><span class=\"greenText\"><b>Successful harvest!</b></span><br>Your pay has increased by $0.02. Your bonus pay is now $0.40.</p>\n            ","response":0,"trial_type":"html-button-response","trial_index":44,"time_elapsed":389760,"internal_node_id":"0.0-4.0-1.18","subject_id":"6161c0a63a36cd2224159da5","study_id":"6197b3f67c2b5cd3b6d9596a","session_id":"6197b9e8146ac66a3f9155b9","condition":"full-information","relevant_dimensions":["antennae","wings"],"bee_group":{"antennae":"B","wings":"2","pattern":"X","legs":"X"},"bonus":0.20000000000000037},{"rt":7129.39999999851,"stimulus":"bees-with-color/bee-A2SF.svg","response":1,"trial_type":"image-button-response","trial_index":45,"time_elapsed":396892,"internal_node_id":"0.0-4.0-0.19","subject_id":"6161c0a63a36cd2224159da5","study_id":"6197b3f67c2b5cd3b6d9596a","session_id":"6197b9e8146ac66a3f9155b9","condition":"full-information","relevant_dimensions":["antennae","wings"],"bee_group":{"antennae":"B","wings":"2","pattern":"X","legs":"X"},"action":"avoid","summary":"bad-avoid","bonus":0.20000000000000037},{"rt":2689.10000000149,"stimulus":"\n                    <p><b>Action: <em>avoid</em></b></p>\n                    <p>This is the bee that you just saw.</p>\n                    <img src=\"bees-with-color/bee-A2SF.svg\" width=\"200\">\n                    <p><span class=\"redText\">Bad choice,</span> the bee was friendly.<br>Your bonus pay is unchanged, and remains at $0.40.</p>\n            ","response":0,"trial_type":"html-button-response","trial_index":46,"time_elapsed":399583,"internal_node_id":"0.0-4.0-1.19","subject_id":"6161c0a63a36cd2224159da5","study_id":"6197b3f67c2b5cd3b6d9596a","session_id":"6197b9e8146ac66a3f9155b9","condition":"full-information","relevant_dimensions":["antennae","wings"],"bee_group":{"antennae":"B","wings":"2","pattern":"X","legs":"X"},"bonus":0.20000000000000037},{"rt":2813.400000002235,"stimulus":"bees-with-color/bee-B1SM.svg","response":0,"trial_type":"image-button-response","trial_index":47,"time_elapsed":402398,"internal_node_id":"0.0-4.0-0.20","subject_id":"6161c0a63a36cd2224159da5","study_id":"6197b3f67c2b5cd3b6d9596a","session_id":"6197b9e8146ac66a3f9155b9","condition":"full-information","relevant_dimensions":["antennae","wings"],"bee_group":{"antennae":"B","wings":"2","pattern":"X","legs":"X"},"action":"harvest","summary":"good-harvest","bonus":0.20000000000000037},{"rt":1924,"stimulus":"\n                    <p><b>Action: <em>harvest</em></b></p>\n                    <p>This is the bee that you just saw.</p>\n                    <img src=\"bees-with-color/bee-B1SM.svg\" width=\"200\">\n                    <p><span class=\"greenText\"><b>Successful harvest!</b></span><br>Your pay has increased by $0.02. Your bonus pay is now $0.42.</p>\n            ","response":0,"trial_type":"html-button-response","trial_index":48,"time_elapsed":404325,"internal_node_id":"0.0-4.0-1.20","subject_id":"6161c0a63a36cd2224159da5","study_id":"6197b3f67c2b5cd3b6d9596a","session_id":"6197b9e8146ac66a3f9155b9","condition":"full-information","relevant_dimensions":["antennae","wings"],"bee_group":{"antennae":"B","wings":"2","pattern":"X","legs":"X"},"bonus":0.20000000000000037},{"rt":1846.7999999970198,"stimulus":"bees-with-color/bee-B1DF.svg","response":1,"trial_type":"image-button-response","trial_index":49,"time_elapsed":406174,"internal_node_id":"0.0-4.0-0.21","subject_id":"6161c0a63a36cd2224159da5","study_id":"6197b3f67c2b5cd3b6d9596a","session_id":"6197b9e8146ac66a3f9155b9","condition":"full-information","relevant_dimensions":["antennae","wings"],"bee_group":{"antennae":"B","wings":"2","pattern":"X","legs":"X"},"action":"avoid","summary":"bad-avoid","bonus":0.20000000000000037},{"rt":1895.4000000022352,"stimulus":"\n                    <p><b>Action: <em>avoid</em></b></p>\n                    <p>This is the bee that you just saw.</p>\n                    <img src=\"bees-with-color/bee-B1DF.svg\" width=\"200\">\n                    <p><span class=\"redText\">Bad choice,</span> the bee was friendly.<br>Your bonus pay is unchanged, and remains at $0.42.</p>\n            ","response":0,"trial_type":"html-button-response","trial_index":50,"time_elapsed":408072,"internal_node_id":"0.0-4.0-1.21","subject_id":"6161c0a63a36cd2224159da5","study_id":"6197b3f67c2b5cd3b6d9596a","session_id":"6197b9e8146ac66a3f9155b9","condition":"full-information","relevant_dimensions":["antennae","wings"],"bee_group":{"antennae":"B","wings":"2","pattern":"X","legs":"X"},"bonus":0.20000000000000037},{"rt":4526.900000002235,"stimulus":"bees-with-color/bee-B2SM.svg","response":0,"trial_type":"image-button-response","trial_index":51,"time_elapsed":412601,"internal_node_id":"0.0-4.0-0.22","subject_id":"6161c0a63a36cd2224159da5","study_id":"6197b3f67c2b5cd3b6d9596a","session_id":"6197b9e8146ac66a3f9155b9","condition":"full-information","relevant_dimensions":["antennae","wings"],"bee_group":{"antennae":"B","wings":"2","pattern":"X","legs":"X"},"action":"harvest","summary":"bad-harvest","bonus":0.20000000000000037},{"rt":2605.5,"stimulus":"\n                    <p><b>Action: <em>harvest</em></b></p>\n                    <p>This is the bee that you just saw.</p>\n                    <img src=\"bees-with-color/bee-B2SM.svg\" width=\"200\">\n                    <p><span class=\"redText\">Bad choice, the bee was angry.</span><br><b>You have been stung!</b><br>Your pay has been decreased by $0.10. Your bonus pay is now $0.32.</p>\n            ","response":0,"trial_type":"html-button-response","trial_index":52,"time_elapsed":415209,"internal_node_id":"0.0-4.0-1.22","subject_id":"6161c0a63a36cd2224159da5","study_id":"6197b3f67c2b5cd3b6d9596a","session_id":"6197b9e8146ac66a3f9155b9","condition":"full-information","relevant_dimensions":["antennae","wings"],"bee_group":{"antennae":"B","wings":"2","pattern":"X","legs":"X"},"bonus":0.20000000000000037},{"rt":6330.699999999255,"stimulus":"bees-with-color/bee-A1DF.svg","response":1,"trial_type":"image-button-response","trial_index":53,"time_elapsed":421544,"internal_node_id":"0.0-4.0-0.23","subject_id":"6161c0a63a36cd2224159da5","study_id":"6197b3f67c2b5cd3b6d9596a","session_id":"6197b9e8146ac66a3f9155b9","condition":"full-information","relevant_dimensions":["antennae","wings"],"bee_group":{"antennae":"B","wings":"2","pattern":"X","legs":"X"},"action":"avoid","summary":"bad-avoid","bonus":0.20000000000000037},{"rt":2035.0999999977648,"stimulus":"\n                    <p><b>Action: <em>avoid</em></b></p>\n                    <p>This is the bee that you just saw.</p>\n                    <img src=\"bees-with-color/bee-A1DF.svg\" width=\"200\">\n                    <p><span class=\"redText\">Bad choice,</span> the bee was friendly.<br>Your bonus pay is unchanged, and remains at $0.32.</p>\n            ","response":0,"trial_type":"html-button-response","trial_index":54,"time_elapsed":423582,"internal_node_id":"0.0-4.0-1.23","subject_id":"6161c0a63a36cd2224159da5","study_id":"6197b3f67c2b5cd3b6d9596a","session_id":"6197b9e8146ac66a3f9155b9","condition":"full-information","relevant_dimensions":["antennae","wings"],"bee_group":{"antennae":"B","wings":"2","pattern":"X","legs":"X"},"bonus":0.20000000000000037},{"rt":2341.199999999255,"stimulus":"bees-with-color/bee-B1SF.svg","response":0,"trial_type":"image-button-response","trial_index":55,"time_elapsed":425926,"internal_node_id":"0.0-4.0-0.24","subject_id":"6161c0a63a36cd2224159da5","study_id":"6197b3f67c2b5cd3b6d9596a","session_id":"6197b9e8146ac66a3f9155b9","condition":"full-information","relevant_dimensions":["antennae","wings"],"bee_group":{"antennae":"B","wings":"2","pattern":"X","legs":"X"},"action":"harvest","summary":"good-harvest","bonus":0.20000000000000037},{"rt":4824.60000000149,"stimulus":"\n                    <p><b>Action: <em>harvest</em></b></p>\n                    <p>This is the bee that you just saw.</p>\n                    <img src=\"bees-with-color/bee-B1SF.svg\" width=\"200\">\n                    <p><span class=\"greenText\"><b>Successful harvest!</b></span><br>Your pay has increased by $0.02. Your bonus pay is now $0.34.</p>\n            ","response":0,"trial_type":"html-button-response","trial_index":56,"time_elapsed":430753,"internal_node_id":"0.0-4.0-1.24","subject_id":"6161c0a63a36cd2224159da5","study_id":"6197b3f67c2b5cd3b6d9596a","session_id":"6197b9e8146ac66a3f9155b9","condition":"full-information","relevant_dimensions":["antennae","wings"],"bee_group":{"antennae":"B","wings":"2","pattern":"X","legs":"X"},"bonus":0.20000000000000037},{"rt":1773.800000000745,"stimulus":"bees-with-color/bee-B2SF.svg","response":0,"trial_type":"image-button-response","trial_index":57,"time_elapsed":432530,"internal_node_id":"0.0-4.0-0.25","subject_id":"6161c0a63a36cd2224159da5","study_id":"6197b3f67c2b5cd3b6d9596a","session_id":"6197b9e8146ac66a3f9155b9","condition":"full-information","relevant_dimensions":["antennae","wings"],"bee_group":{"antennae":"B","wings":"2","pattern":"X","legs":"X"},"action":"harvest","summary":"bad-harvest","bonus":0.20000000000000037},{"rt":2770.10000000149,"stimulus":"\n                    <p><b>Action: <em>harvest</em></b></p>\n                    <p>This is the bee that you just saw.</p>\n                    <img src=\"bees-with-color/bee-B2SF.svg\" width=\"200\">\n                    <p><span class=\"redText\">Bad choice, the bee was angry.</span><br><b>You have been stung!</b><br>Your pay has been decreased by $0.10. Your bonus pay is now $0.24.</p>\n            ","response":0,"trial_type":"html-button-response","trial_index":58,"time_elapsed":435302,"internal_node_id":"0.0-4.0-1.25","subject_id":"6161c0a63a36cd2224159da5","study_id":"6197b3f67c2b5cd3b6d9596a","session_id":"6197b9e8146ac66a3f9155b9","condition":"full-information","relevant_dimensions":["antennae","wings"],"bee_group":{"antennae":"B","wings":"2","pattern":"X","legs":"X"},"bonus":0.20000000000000037},{"rt":6488.89999999851,"stimulus":"bees-with-color/bee-B2DF.svg","response":0,"trial_type":"image-button-response","trial_index":59,"time_elapsed":441794,"internal_node_id":"0.0-4.0-0.26","subject_id":"6161c0a63a36cd2224159da5","study_id":"6197b3f67c2b5cd3b6d9596a","session_id":"6197b9e8146ac66a3f9155b9","condition":"full-information","relevant_dimensions":["antennae","wings"],"bee_group":{"antennae":"B","wings":"2","pattern":"X","legs":"X"},"action":"harvest","summary":"bad-harvest","bonus":0.20000000000000037},{"rt":1600.7999999970198,"stimulus":"\n                    <p><b>Action: <em>harvest</em></b></p>\n                    <p>This is the bee that you just saw.</p>\n                    <img src=\"bees-with-color/bee-B2DF.svg\" width=\"200\">\n                    <p><span class=\"redText\">Bad choice, the bee was angry.</span><br><b>You have been stung!</b><br>Your pay has been decreased by $0.10. Your bonus pay is now $0.14.</p>\n            ","response":0,"trial_type":"html-button-response","trial_index":60,"time_elapsed":443397,"internal_node_id":"0.0-4.0-1.26","subject_id":"6161c0a63a36cd2224159da5","study_id":"6197b3f67c2b5cd3b6d9596a","session_id":"6197b9e8146ac66a3f9155b9","condition":"full-information","relevant_dimensions":["antennae","wings"],"bee_group":{"antennae":"B","wings":"2","pattern":"X","legs":"X"},"bonus":0.20000000000000037},{"rt":4762.89999999851,"stimulus":"bees-with-color/bee-A2SM.svg","response":0,"trial_type":"image-button-response","trial_index":61,"time_elapsed":448164,"internal_node_id":"0.0-4.0-0.27","subject_id":"6161c0a63a36cd2224159da5","study_id":"6197b3f67c2b5cd3b6d9596a","session_id":"6197b9e8146ac66a3f9155b9","condition":"full-information","relevant_dimensions":["antennae","wings"],"bee_group":{"antennae":"B","wings":"2","pattern":"X","legs":"X"},"action":"harvest","summary":"good-harvest","bonus":0.20000000000000037},{"rt":1645.0999999977648,"stimulus":"\n                    <p><b>Action: <em>harvest</em></b></p>\n                    <p>This is the bee that you just saw.</p>\n                    <img src=\"bees-with-color/bee-A2SM.svg\" width=\"200\">\n                    <p><span class=\"greenText\"><b>Successful harvest!</b></span><br>Your pay has increased by $0.02. Your bonus pay is now $0.16.</p>\n            ","response":0,"trial_type":"html-button-response","trial_index":62,"time_elapsed":449811,"internal_node_id":"0.0-4.0-1.27","subject_id":"6161c0a63a36cd2224159da5","study_id":"6197b3f67c2b5cd3b6d9596a","session_id":"6197b9e8146ac66a3f9155b9","condition":"full-information","relevant_dimensions":["antennae","wings"],"bee_group":{"antennae":"B","wings":"2","pattern":"X","legs":"X"},"bonus":0.20000000000000037},{"rt":2221.800000000745,"stimulus":"bees-with-color/bee-A1DM.svg","response":1,"trial_type":"image-button-response","trial_index":63,"time_elapsed":452036,"internal_node_id":"0.0-4.0-0.28","subject_id":"6161c0a63a36cd2224159da5","study_id":"6197b3f67c2b5cd3b6d9596a","session_id":"6197b9e8146ac66a3f9155b9","condition":"full-information","relevant_dimensions":["antennae","wings"],"bee_group":{"antennae":"B","wings":"2","pattern":"X","legs":"X"},"action":"avoid","summary":"bad-avoid","bonus":0.20000000000000037},{"rt":1427,"stimulus":"\n                    <p><b>Action: <em>avoid</em></b></p>\n                    <p>This is the bee that you just saw.</p>\n                    <img src=\"bees-with-color/bee-A1DM.svg\" width=\"200\">\n                    <p><span class=\"redText\">Bad choice,</span> the bee was friendly.<br>Your bonus pay is unchanged, and remains at $0.16.</p>\n            ","response":0,"trial_type":"html-button-response","trial_index":64,"time_elapsed":453465,"internal_node_id":"0.0-4.0-1.28","subject_id":"6161c0a63a36cd2224159da5","study_id":"6197b3f67c2b5cd3b6d9596a","session_id":"6197b9e8146ac66a3f9155b9","condition":"full-information","relevant_dimensions":["antennae","wings"],"bee_group":{"antennae":"B","wings":"2","pattern":"X","legs":"X"},"bonus":0.20000000000000037},{"rt":3001.89999999851,"stimulus":"bees-with-color/bee-A1SM.svg","response":0,"trial_type":"image-button-response","trial_index":65,"time_elapsed":456469,"internal_node_id":"0.0-4.0-0.29","subject_id":"6161c0a63a36cd2224159da5","study_id":"6197b3f67c2b5cd3b6d9596a","session_id":"6197b9e8146ac66a3f9155b9","condition":"full-information","relevant_dimensions":["antennae","wings"],"bee_group":{"antennae":"B","wings":"2","pattern":"X","legs":"X"},"action":"harvest","summary":"good-harvest","bonus":0.20000000000000037},{"rt":1493,"stimulus":"\n                    <p><b>Action: <em>harvest</em></b></p>\n                    <p>This is the bee that you just saw.</p>\n                    <img src=\"bees-with-color/bee-A1SM.svg\" width=\"200\">\n                    <p><span class=\"greenText\"><b>Successful harvest!</b></span><br>Your pay has increased by $0.02. Your bonus pay is now $0.18.</p>\n            ","response":0,"trial_type":"html-button-response","trial_index":66,"time_elapsed":457966,"internal_node_id":"0.0-4.0-1.29","subject_id":"6161c0a63a36cd2224159da5","study_id":"6197b3f67c2b5cd3b6d9596a","session_id":"6197b9e8146ac66a3f9155b9","condition":"full-information","relevant_dimensions":["antennae","wings"],"bee_group":{"antennae":"B","wings":"2","pattern":"X","legs":"X"},"bonus":0.20000000000000037},{"rt":2722.10000000149,"stimulus":"bees-with-color/bee-A2DF.svg","response":1,"trial_type":"image-button-response","trial_index":67,"time_elapsed":460691,"internal_node_id":"0.0-4.0-0.30","subject_id":"6161c0a63a36cd2224159da5","study_id":"6197b3f67c2b5cd3b6d9596a","session_id":"6197b9e8146ac66a3f9155b9","condition":"full-information","relevant_dimensions":["antennae","wings"],"bee_group":{"antennae":"B","wings":"2","pattern":"X","legs":"X"},"action":"avoid","summary":"bad-avoid","bonus":0.20000000000000037},{"rt":1589.5,"stimulus":"\n                    <p><b>Action: <em>avoid</em></b></p>\n                    <p>This is the bee that you just saw.</p>\n                    <img src=\"bees-with-color/bee-A2DF.svg\" width=\"200\">\n                    <p><span class=\"redText\">Bad choice,</span> the bee was friendly.<br>Your bonus pay is unchanged, and remains at $0.18.</p>\n            ","response":0,"trial_type":"html-button-response","trial_index":68,"time_elapsed":462283,"internal_node_id":"0.0-4.0-1.30","subject_id":"6161c0a63a36cd2224159da5","study_id":"6197b3f67c2b5cd3b6d9596a","session_id":"6197b9e8146ac66a3f9155b9","condition":"full-information","relevant_dimensions":["antennae","wings"],"bee_group":{"antennae":"B","wings":"2","pattern":"X","legs":"X"},"bonus":0.20000000000000037},{"rt":3777.7999999970198,"stimulus":"bees-with-color/bee-A1SF.svg","response":0,"trial_type":"image-button-response","trial_index":69,"time_elapsed":466064,"internal_node_id":"0.0-4.0-0.31","subject_id":"6161c0a63a36cd2224159da5","study_id":"6197b3f67c2b5cd3b6d9596a","session_id":"6197b9e8146ac66a3f9155b9","condition":"full-information","relevant_dimensions":["antennae","wings"],"bee_group":{"antennae":"B","wings":"2","pattern":"X","legs":"X"},"action":"harvest","summary":"good-harvest","bonus":0.20000000000000037},{"rt":1508.6000000014901,"stimulus":"\n                    <p><b>Action: <em>harvest</em></b></p>\n                    <p>This is the bee that you just saw.</p>\n                    <img src=\"bees-with-color/bee-A1SF.svg\" width=\"200\">\n                    <p><span class=\"greenText\"><b>Successful harvest!</b></span><br>Your pay has increased by $0.02. Your bonus pay is now $0.20.</p>\n            ","response":0,"trial_type":"html-button-response","trial_index":70,"time_elapsed":467575,"internal_node_id":"0.0-4.0-1.31","subject_id":"6161c0a63a36cd2224159da5","study_id":"6197b3f67c2b5cd3b6d9596a","session_id":"6197b9e8146ac66a3f9155b9","condition":"full-information","relevant_dimensions":["antennae","wings"],"bee_group":{"antennae":"B","wings":"2","pattern":"X","legs":"X"},"bonus":0.20000000000000037},{"rt":4049.199999999255,"stimulus":"bees-with-color/bee-A2SF.svg","response":1,"trial_type":"image-button-response","trial_index":71,"time_elapsed":471627,"internal_node_id":"0.0-4.0-0.32","subject_id":"6161c0a63a36cd2224159da5","study_id":"6197b3f67c2b5cd3b6d9596a","session_id":"6197b9e8146ac66a3f9155b9","condition":"full-information","relevant_dimensions":["antennae","wings"],"bee_group":{"antennae":"B","wings":"2","pattern":"X","legs":"X"},"action":"avoid","summary":"bad-avoid","bonus":0.20000000000000037},{"rt":1353.800000000745,"stimulus":"\n                    <p><b>Action: <em>avoid</em></b></p>\n                    <p>This is the bee that you just saw.</p>\n                    <img src=\"bees-with-color/bee-A2SF.svg\" width=\"200\">\n                    <p><span class=\"redText\">Bad choice,</span> the bee was friendly.<br>Your bonus pay is unchanged, and remains at $0.20.</p>\n            ","response":0,"trial_type":"html-button-response","trial_index":72,"time_elapsed":472982,"internal_node_id":"0.0-4.0-1.32","subject_id":"6161c0a63a36cd2224159da5","study_id":"6197b3f67c2b5cd3b6d9596a","session_id":"6197b9e8146ac66a3f9155b9","condition":"full-information","relevant_dimensions":["antennae","wings"],"bee_group":{"antennae":"B","wings":"2","pattern":"X","legs":"X"},"bonus":0.20000000000000037},{"rt":2905.199999999255,"stimulus":"bees-with-color/bee-B1DM.svg","response":1,"trial_type":"image-button-response","trial_index":73,"time_elapsed":475890,"internal_node_id":"0.0-4.0-0.33","subject_id":"6161c0a63a36cd2224159da5","study_id":"6197b3f67c2b5cd3b6d9596a","session_id":"6197b9e8146ac66a3f9155b9","condition":"full-information","relevant_dimensions":["antennae","wings"],"bee_group":{"antennae":"B","wings":"2","pattern":"X","legs":"X"},"action":"avoid","summary":"bad-avoid","bonus":0.20000000000000037},{"rt":1326.800000000745,"stimulus":"\n                    <p><b>Action: <em>avoid</em></b></p>\n                    <p>This is the bee that you just saw.</p>\n                    <img src=\"bees-with-color/bee-B1DM.svg\" width=\"200\">\n                    <p><span class=\"redText\">Bad choice,</span> the bee was friendly.<br>Your bonus pay is unchanged, and remains at $0.20.</p>\n            ","response":0,"trial_type":"html-button-response","trial_index":74,"time_elapsed":477219,"internal_node_id":"0.0-4.0-1.33","subject_id":"6161c0a63a36cd2224159da5","study_id":"6197b3f67c2b5cd3b6d9596a","session_id":"6197b9e8146ac66a3f9155b9","condition":"full-information","relevant_dimensions":["antennae","wings"],"bee_group":{"antennae":"B","wings":"2","pattern":"X","legs":"X"},"bonus":0.20000000000000037},{"rt":2157.89999999851,"stimulus":"bees-with-color/bee-B1SF.svg","response":0,"trial_type":"image-button-response","trial_index":75,"time_elapsed":479379,"internal_node_id":"0.0-4.0-0.34","subject_id":"6161c0a63a36cd2224159da5","study_id":"6197b3f67c2b5cd3b6d9596a","session_id":"6197b9e8146ac66a3f9155b9","condition":"full-information","relevant_dimensions":["antennae","wings"],"bee_group":{"antennae":"B","wings":"2","pattern":"X","legs":"X"},"action":"harvest","summary":"good-harvest","bonus":0.20000000000000037},{"rt":1429.5,"stimulus":"\n                    <p><b>Action: <em>harvest</em></b></p>\n                    <p>This is the bee that you just saw.</p>\n                    <img src=\"bees-with-color/bee-B1SF.svg\" width=\"200\">\n                    <p><span class=\"greenText\"><b>Successful harvest!</b></span><br>Your pay has increased by $0.02. Your bonus pay is now $0.22.</p>\n            ","response":0,"trial_type":"html-button-response","trial_index":76,"time_elapsed":480810,"internal_node_id":"0.0-4.0-1.34","subject_id":"6161c0a63a36cd2224159da5","study_id":"6197b3f67c2b5cd3b6d9596a","session_id":"6197b9e8146ac66a3f9155b9","condition":"full-information","relevant_dimensions":["antennae","wings"],"bee_group":{"antennae":"B","wings":"2","pattern":"X","legs":"X"},"bonus":0.20000000000000037},{"rt":3529.099999997765,"stimulus":"bees-with-color/bee-A1SF.svg","response":0,"trial_type":"image-button-response","trial_index":77,"time_elapsed":484342,"internal_node_id":"0.0-4.0-0.35","subject_id":"6161c0a63a36cd2224159da5","study_id":"6197b3f67c2b5cd3b6d9596a","session_id":"6197b9e8146ac66a3f9155b9","condition":"full-information","relevant_dimensions":["antennae","wings"],"bee_group":{"antennae":"B","wings":"2","pattern":"X","legs":"X"},"action":"harvest","summary":"good-harvest","bonus":0.20000000000000037},{"rt":1480.699999999255,"stimulus":"\n                    <p><b>Action: <em>harvest</em></b></p>\n                    <p>This is the bee that you just saw.</p>\n                    <img src=\"bees-with-color/bee-A1SF.svg\" width=\"200\">\n                    <p><span class=\"greenText\"><b>Successful harvest!</b></span><br>Your pay has increased by $0.02. Your bonus pay is now $0.24.</p>\n            ","response":0,"trial_type":"html-button-response","trial_index":78,"time_elapsed":485825,"internal_node_id":"0.0-4.0-1.35","subject_id":"6161c0a63a36cd2224159da5","study_id":"6197b3f67c2b5cd3b6d9596a","session_id":"6197b9e8146ac66a3f9155b9","condition":"full-information","relevant_dimensions":["antennae","wings"],"bee_group":{"antennae":"B","wings":"2","pattern":"X","legs":"X"},"bonus":0.20000000000000037},{"rt":2359.800000000745,"stimulus":"bees-with-color/bee-A1SM.svg","response":1,"trial_type":"image-button-response","trial_index":79,"time_elapsed":488187,"internal_node_id":"0.0-4.0-0.36","subject_id":"6161c0a63a36cd2224159da5","study_id":"6197b3f67c2b5cd3b6d9596a","session_id":"6197b9e8146ac66a3f9155b9","condition":"full-information","relevant_dimensions":["antennae","wings"],"bee_group":{"antennae":"B","wings":"2","pattern":"X","legs":"X"},"action":"avoid","summary":"bad-avoid","bonus":0.20000000000000037},{"rt":1458.300000000745,"stimulus":"\n                    <p><b>Action: <em>avoid</em></b></p>\n                    <p>This is the bee that you just saw.</p>\n                    <img src=\"bees-with-color/bee-A1SM.svg\" width=\"200\">\n                    <p><span class=\"redText\">Bad choice,</span> the bee was friendly.<br>Your bonus pay is unchanged, and remains at $0.24.</p>\n            ","response":0,"trial_type":"html-button-response","trial_index":80,"time_elapsed":489648,"internal_node_id":"0.0-4.0-1.36","subject_id":"6161c0a63a36cd2224159da5","study_id":"6197b3f67c2b5cd3b6d9596a","session_id":"6197b9e8146ac66a3f9155b9","condition":"full-information","relevant_dimensions":["antennae","wings"],"bee_group":{"antennae":"B","wings":"2","pattern":"X","legs":"X"},"bonus":0.20000000000000037},{"rt":1759.8999999985099,"stimulus":"bees-with-color/bee-B2SF.svg","response":1,"trial_type":"image-button-response","trial_index":81,"time_elapsed":491410,"internal_node_id":"0.0-4.0-0.37","subject_id":"6161c0a63a36cd2224159da5","study_id":"6197b3f67c2b5cd3b6d9596a","session_id":"6197b9e8146ac66a3f9155b9","condition":"full-information","relevant_dimensions":["antennae","wings"],"bee_group":{"antennae":"B","wings":"2","pattern":"X","legs":"X"},"action":"avoid","summary":"good-avoid","bonus":0.20000000000000037},{"rt":1421,"stimulus":"\n                    <p><b>Action: <em>avoid</em></b></p>\n                    <p>This is the bee that you just saw.</p>\n                    <img src=\"bees-with-color/bee-B2SF.svg\" width=\"200\">\n                    <p><span class=\"greenText\">Good choice!</span>  This bee would have stung you.<br>Your bonus pay is unchanged, and remains at $0.24.</p>\n            ","response":0,"trial_type":"html-button-response","trial_index":82,"time_elapsed":492834,"internal_node_id":"0.0-4.0-1.37","subject_id":"6161c0a63a36cd2224159da5","study_id":"6197b3f67c2b5cd3b6d9596a","session_id":"6197b9e8146ac66a3f9155b9","condition":"full-information","relevant_dimensions":["antennae","wings"],"bee_group":{"antennae":"B","wings":"2","pattern":"X","legs":"X"},"bonus":0.20000000000000037},{"rt":2219.400000002235,"stimulus":"bees-with-color/bee-B2DM.svg","response":1,"trial_type":"image-button-response","trial_index":83,"time_elapsed":495055,"internal_node_id":"0.0-4.0-0.38","subject_id":"6161c0a63a36cd2224159da5","study_id":"6197b3f67c2b5cd3b6d9596a","session_id":"6197b9e8146ac66a3f9155b9","condition":"full-information","relevant_dimensions":["antennae","wings"],"bee_group":{"antennae":"B","wings":"2","pattern":"X","legs":"X"},"action":"avoid","summary":"good-avoid","bonus":0.20000000000000037},{"rt":1508.699999999255,"stimulus":"\n                    <p><b>Action: <em>avoid</em></b></p>\n                    <p>This is the bee that you just saw.</p>\n                    <img src=\"bees-with-color/bee-B2DM.svg\" width=\"200\">\n                    <p><span class=\"greenText\">Good choice!</span>  This bee would have stung you.<br>Your bonus pay is unchanged, and remains at $0.24.</p>\n            ","response":0,"trial_type":"html-button-response","trial_index":84,"time_elapsed":496566,"internal_node_id":"0.0-4.0-1.38","subject_id":"6161c0a63a36cd2224159da5","study_id":"6197b3f67c2b5cd3b6d9596a","session_id":"6197b9e8146ac66a3f9155b9","condition":"full-information","relevant_dimensions":["antennae","wings"],"bee_group":{"antennae":"B","wings":"2","pattern":"X","legs":"X"},"bonus":0.20000000000000037},{"rt":2006,"stimulus":"bees-with-color/bee-A2DM.svg","response":1,"trial_type":"image-button-response","trial_index":85,"time_elapsed":498574,"internal_node_id":"0.0-4.0-0.39","subject_id":"6161c0a63a36cd2224159da5","study_id":"6197b3f67c2b5cd3b6d9596a","session_id":"6197b9e8146ac66a3f9155b9","condition":"full-information","relevant_dimensions":["antennae","wings"],"bee_group":{"antennae":"B","wings":"2","pattern":"X","legs":"X"},"action":"avoid","summary":"bad-avoid","bonus":0.20000000000000037},{"rt":1267.3999999985099,"stimulus":"\n                    <p><b>Action: <em>avoid</em></b></p>\n                    <p>This is the bee that you just saw.</p>\n                    <img src=\"bees-with-color/bee-A2DM.svg\" width=\"200\">\n                    <p><span class=\"redText\">Bad choice,</span> the bee was friendly.<br>Your bonus pay is unchanged, and remains at $0.24.</p>\n            ","response":0,"trial_type":"html-button-response","trial_index":86,"time_elapsed":499844,"internal_node_id":"0.0-4.0-1.39","subject_id":"6161c0a63a36cd2224159da5","study_id":"6197b3f67c2b5cd3b6d9596a","session_id":"6197b9e8146ac66a3f9155b9","condition":"full-information","relevant_dimensions":["antennae","wings"],"bee_group":{"antennae":"B","wings":"2","pattern":"X","legs":"X"},"bonus":0.20000000000000037},{"rt":1641.9000000022352,"stimulus":"bees-with-color/bee-B2SM.svg","response":1,"trial_type":"image-button-response","trial_index":87,"time_elapsed":501488,"internal_node_id":"0.0-4.0-0.40","subject_id":"6161c0a63a36cd2224159da5","study_id":"6197b3f67c2b5cd3b6d9596a","session_id":"6197b9e8146ac66a3f9155b9","condition":"full-information","relevant_dimensions":["antennae","wings"],"bee_group":{"antennae":"B","wings":"2","pattern":"X","legs":"X"},"action":"avoid","summary":"good-avoid","bonus":0.20000000000000037},{"rt":1446,"stimulus":"\n                    <p><b>Action: <em>avoid</em></b></p>\n                    <p>This is the bee that you just saw.</p>\n                    <img src=\"bees-with-color/bee-B2SM.svg\" width=\"200\">\n                    <p><span class=\"greenText\">Good choice!</span>  This bee would have stung you.<br>Your bonus pay is unchanged, and remains at $0.24.</p>\n            ","response":0,"trial_type":"html-button-response","trial_index":88,"time_elapsed":502936,"internal_node_id":"0.0-4.0-1.40","subject_id":"6161c0a63a36cd2224159da5","study_id":"6197b3f67c2b5cd3b6d9596a","session_id":"6197b9e8146ac66a3f9155b9","condition":"full-information","relevant_dimensions":["antennae","wings"],"bee_group":{"antennae":"B","wings":"2","pattern":"X","legs":"X"},"bonus":0.20000000000000037},{"rt":1788.8999999985099,"stimulus":"bees-with-color/bee-B1SM.svg","response":1,"trial_type":"image-button-response","trial_index":89,"time_elapsed":504727,"internal_node_id":"0.0-4.0-0.41","subject_id":"6161c0a63a36cd2224159da5","study_id":"6197b3f67c2b5cd3b6d9596a","session_id":"6197b9e8146ac66a3f9155b9","condition":"full-information","relevant_dimensions":["antennae","wings"],"bee_group":{"antennae":"B","wings":"2","pattern":"X","legs":"X"},"action":"avoid","summary":"bad-avoid","bonus":0.20000000000000037},{"rt":1380.5999999977648,"stimulus":"\n                    <p><b>Action: <em>avoid</em></b></p>\n                    <p>This is the bee that you just saw.</p>\n                    <img src=\"bees-with-color/bee-B1SM.svg\" width=\"200\">\n                    <p><span class=\"redText\">Bad choice,</span> the bee was friendly.<br>Your bonus pay is unchanged, and remains at $0.24.</p>\n            ","response":0,"trial_type":"html-button-response","trial_index":90,"time_elapsed":506110,"internal_node_id":"0.0-4.0-1.41","subject_id":"6161c0a63a36cd2224159da5","study_id":"6197b3f67c2b5cd3b6d9596a","session_id":"6197b9e8146ac66a3f9155b9","condition":"full-information","relevant_dimensions":["antennae","wings"],"bee_group":{"antennae":"B","wings":"2","pattern":"X","legs":"X"},"bonus":0.20000000000000037},{"rt":2316.39999999851,"stimulus":"bees-with-color/bee-B1DF.svg","response":1,"trial_type":"image-button-response","trial_index":91,"time_elapsed":508429,"internal_node_id":"0.0-4.0-0.42","subject_id":"6161c0a63a36cd2224159da5","study_id":"6197b3f67c2b5cd3b6d9596a","session_id":"6197b9e8146ac66a3f9155b9","condition":"full-information","relevant_dimensions":["antennae","wings"],"bee_group":{"antennae":"B","wings":"2","pattern":"X","legs":"X"},"action":"avoid","summary":"bad-avoid","bonus":0.20000000000000037},{"rt":1225.199999999255,"stimulus":"\n                    <p><b>Action: <em>avoid</em></b></p>\n                    <p>This is the bee that you just saw.</p>\n                    <img src=\"bees-with-color/bee-B1DF.svg\" width=\"200\">\n                    <p><span class=\"redText\">Bad choice,</span> the bee was friendly.<br>Your bonus pay is unchanged, and remains at $0.24.</p>\n            ","response":0,"trial_type":"html-button-response","trial_index":92,"time_elapsed":509657,"internal_node_id":"0.0-4.0-1.42","subject_id":"6161c0a63a36cd2224159da5","study_id":"6197b3f67c2b5cd3b6d9596a","session_id":"6197b9e8146ac66a3f9155b9","condition":"full-information","relevant_dimensions":["antennae","wings"],"bee_group":{"antennae":"B","wings":"2","pattern":"X","legs":"X"},"bonus":0.20000000000000037},{"rt":1600.699999999255,"stimulus":"bees-with-color/bee-A1DM.svg","response":1,"trial_type":"image-button-response","trial_index":93,"time_elapsed":511260,"internal_node_id":"0.0-4.0-0.43","subject_id":"6161c0a63a36cd2224159da5","study_id":"6197b3f67c2b5cd3b6d9596a","session_id":"6197b9e8146ac66a3f9155b9","condition":"full-information","relevant_dimensions":["antennae","wings"],"bee_group":{"antennae":"B","wings":"2","pattern":"X","legs":"X"},"action":"avoid","summary":"bad-avoid","bonus":0.20000000000000037},{"rt":1279.0999999977648,"stimulus":"\n                    <p><b>Action: <em>avoid</em></b></p>\n                    <p>This is the bee that you just saw.</p>\n                    <img src=\"bees-with-color/bee-A1DM.svg\" width=\"200\">\n                    <p><span class=\"redText\">Bad choice,</span> the bee was friendly.<br>Your bonus pay is unchanged, and remains at $0.24.</p>\n            ","response":0,"trial_type":"html-button-response","trial_index":94,"time_elapsed":512541,"internal_node_id":"0.0-4.0-1.43","subject_id":"6161c0a63a36cd2224159da5","study_id":"6197b3f67c2b5cd3b6d9596a","session_id":"6197b9e8146ac66a3f9155b9","condition":"full-information","relevant_dimensions":["antennae","wings"],"bee_group":{"antennae":"B","wings":"2","pattern":"X","legs":"X"},"bonus":0.20000000000000037},{"rt":1599.699999999255,"stimulus":"bees-with-color/bee-A1DF.svg","response":0,"trial_type":"image-button-response","trial_index":95,"time_elapsed":514143,"internal_node_id":"0.0-4.0-0.44","subject_id":"6161c0a63a36cd2224159da5","study_id":"6197b3f67c2b5cd3b6d9596a","session_id":"6197b9e8146ac66a3f9155b9","condition":"full-information","relevant_dimensions":["antennae","wings"],"bee_group":{"antennae":"B","wings":"2","pattern":"X","legs":"X"},"action":"harvest","summary":"good-harvest","bonus":0.20000000000000037},{"rt":1462.7999999970198,"stimulus":"\n                    <p><b>Action: <em>harvest</em></b></p>\n                    <p>This is the bee that you just saw.</p>\n                    <img src=\"bees-with-color/bee-A1DF.svg\" width=\"200\">\n                    <p><span class=\"greenText\"><b>Successful harvest!</b></span><br>Your pay has increased by $0.02. Your bonus pay is now $0.26.</p>\n            ","response":0,"trial_type":"html-button-response","trial_index":96,"time_elapsed":515608,"internal_node_id":"0.0-4.0-1.44","subject_id":"6161c0a63a36cd2224159da5","study_id":"6197b3f67c2b5cd3b6d9596a","session_id":"6197b9e8146ac66a3f9155b9","condition":"full-information","relevant_dimensions":["antennae","wings"],"bee_group":{"antennae":"B","wings":"2","pattern":"X","legs":"X"},"bonus":0.20000000000000037},{"rt":3329.800000000745,"stimulus":"bees-with-color/bee-A2DF.svg","response":0,"trial_type":"image-button-response","trial_index":97,"time_elapsed":518940,"internal_node_id":"0.0-4.0-0.45","subject_id":"6161c0a63a36cd2224159da5","study_id":"6197b3f67c2b5cd3b6d9596a","session_id":"6197b9e8146ac66a3f9155b9","condition":"full-information","relevant_dimensions":["antennae","wings"],"bee_group":{"antennae":"B","wings":"2","pattern":"X","legs":"X"},"action":"harvest","summary":"good-harvest","bonus":0.20000000000000037},{"rt":1568.6000000014901,"stimulus":"\n                    <p><b>Action: <em>harvest</em></b></p>\n                    <p>This is the bee that you just saw.</p>\n                    <img src=\"bees-with-color/bee-A2DF.svg\" width=\"200\">\n                    <p><span class=\"greenText\"><b>Successful harvest!</b></span><br>Your pay has increased by $0.02. Your bonus pay is now $0.28.</p>\n            ","response":0,"trial_type":"html-button-response","trial_index":98,"time_elapsed":520511,"internal_node_id":"0.0-4.0-1.45","subject_id":"6161c0a63a36cd2224159da5","study_id":"6197b3f67c2b5cd3b6d9596a","session_id":"6197b9e8146ac66a3f9155b9","condition":"full-information","relevant_dimensions":["antennae","wings"],"bee_group":{"antennae":"B","wings":"2","pattern":"X","legs":"X"},"bonus":0.20000000000000037},{"rt":2627,"stimulus":"bees-with-color/bee-A2SM.svg","response":1,"trial_type":"image-button-response","trial_index":99,"time_elapsed":523142,"internal_node_id":"0.0-4.0-0.46","subject_id":"6161c0a63a36cd2224159da5","study_id":"6197b3f67c2b5cd3b6d9596a","session_id":"6197b9e8146ac66a3f9155b9","condition":"full-information","relevant_dimensions":["antennae","wings"],"bee_group":{"antennae":"B","wings":"2","pattern":"X","legs":"X"},"action":"avoid","summary":"bad-avoid","bonus":0.20000000000000037},{"rt":1380.800000000745,"stimulus":"\n                    <p><b>Action: <em>avoid</em></b></p>\n                    <p>This is the bee that you just saw.</p>\n                    <img src=\"bees-with-color/bee-A2SM.svg\" width=\"200\">\n                    <p><span class=\"redText\">Bad choice,</span> the bee was friendly.<br>Your bonus pay is unchanged, and remains at $0.28.</p>\n            ","response":0,"trial_type":"html-button-response","trial_index":100,"time_elapsed":524525,"internal_node_id":"0.0-4.0-1.46","subject_id":"6161c0a63a36cd2224159da5","study_id":"6197b3f67c2b5cd3b6d9596a","session_id":"6197b9e8146ac66a3f9155b9","condition":"full-information","relevant_dimensions":["antennae","wings"],"bee_group":{"antennae":"B","wings":"2","pattern":"X","legs":"X"},"bonus":0.20000000000000037},{"rt":2088.599999997765,"stimulus":"bees-with-color/bee-B2DF.svg","response":1,"trial_type":"image-button-response","trial_index":101,"time_elapsed":526617,"internal_node_id":"0.0-4.0-0.47","subject_id":"6161c0a63a36cd2224159da5","study_id":"6197b3f67c2b5cd3b6d9596a","session_id":"6197b9e8146ac66a3f9155b9","condition":"full-information","relevant_dimensions":["antennae","wings"],"bee_group":{"antennae":"B","wings":"2","pattern":"X","legs":"X"},"action":"avoid","summary":"good-avoid","bonus":0.20000000000000037},{"rt":1430.9000000022352,"stimulus":"\n                    <p><b>Action: <em>avoid</em></b></p>\n                    <p>This is the bee that you just saw.</p>\n                    <img src=\"bees-with-color/bee-B2DF.svg\" width=\"200\">\n                    <p><span class=\"greenText\">Good choice!</span>  This bee would have stung you.<br>Your bonus pay is unchanged, and remains at $0.28.</p>\n            ","response":0,"trial_type":"html-button-response","trial_index":102,"time_elapsed":528050,"internal_node_id":"0.0-4.0-1.47","subject_id":"6161c0a63a36cd2224159da5","study_id":"6197b3f67c2b5cd3b6d9596a","session_id":"6197b9e8146ac66a3f9155b9","condition":"full-information","relevant_dimensions":["antennae","wings"],"bee_group":{"antennae":"B","wings":"2","pattern":"X","legs":"X"},"bonus":0.20000000000000037},{"rt":1444.7999999970198,"stimulus":"bees-with-color/bee-A2DF.svg","response":1,"trial_type":"image-button-response","trial_index":103,"time_elapsed":529498,"internal_node_id":"0.0-4.0-0.48","subject_id":"6161c0a63a36cd2224159da5","study_id":"6197b3f67c2b5cd3b6d9596a","session_id":"6197b9e8146ac66a3f9155b9","condition":"full-information","relevant_dimensions":["antennae","wings"],"bee_group":{"antennae":"B","wings":"2","pattern":"X","legs":"X"},"action":"avoid","summary":"bad-avoid","bonus":0.20000000000000037},{"rt":1430.1000000014901,"stimulus":"\n                    <p><b>Action: <em>avoid</em></b></p>\n                    <p>This is the bee that you just saw.</p>\n                    <img src=\"bees-with-color/bee-A2DF.svg\" width=\"200\">\n                    <p><span class=\"redText\">Bad choice,</span> the bee was friendly.<br>Your bonus pay is unchanged, and remains at $0.28.</p>\n            ","response":0,"trial_type":"html-button-response","trial_index":104,"time_elapsed":530931,"internal_node_id":"0.0-4.0-1.48","subject_id":"6161c0a63a36cd2224159da5","study_id":"6197b3f67c2b5cd3b6d9596a","session_id":"6197b9e8146ac66a3f9155b9","condition":"full-information","relevant_dimensions":["antennae","wings"],"bee_group":{"antennae":"B","wings":"2","pattern":"X","legs":"X"},"bonus":0.20000000000000037},{"rt":2437.2000000029802,"stimulus":"bees-with-color/bee-B2SF.svg","response":0,"trial_type":"image-button-response","trial_index":105,"time_elapsed":533370,"internal_node_id":"0.0-4.0-0.49","subject_id":"6161c0a63a36cd2224159da5","study_id":"6197b3f67c2b5cd3b6d9596a","session_id":"6197b9e8146ac66a3f9155b9","condition":"full-information","relevant_dimensions":["antennae","wings"],"bee_group":{"antennae":"B","wings":"2","pattern":"X","legs":"X"},"action":"harvest","summary":"bad-harvest","bonus":0.20000000000000037},{"rt":1784,"stimulus":"\n                    <p><b>Action: <em>harvest</em></b></p>\n                    <p>This is the bee that you just saw.</p>\n                    <img src=\"bees-with-color/bee-B2SF.svg\" width=\"200\">\n                    <p><span class=\"redText\">Bad choice, the bee was angry.</span><br><b>You have been stung!</b><br>Your pay has been decreased by $0.10. Your bonus pay is now $0.18.</p>\n            ","response":0,"trial_type":"html-button-response","trial_index":106,"time_elapsed":535156,"internal_node_id":"0.0-4.0-1.49","subject_id":"6161c0a63a36cd2224159da5","study_id":"6197b3f67c2b5cd3b6d9596a","session_id":"6197b9e8146ac66a3f9155b9","condition":"full-information","relevant_dimensions":["antennae","wings"],"bee_group":{"antennae":"B","wings":"2","pattern":"X","legs":"X"},"bonus":0.20000000000000037},{"rt":2535.900000002235,"stimulus":"bees-with-color/bee-B1SF.svg","response":0,"trial_type":"image-button-response","trial_index":107,"time_elapsed":537694,"internal_node_id":"0.0-4.0-0.50","subject_id":"6161c0a63a36cd2224159da5","study_id":"6197b3f67c2b5cd3b6d9596a","session_id":"6197b9e8146ac66a3f9155b9","condition":"full-information","relevant_dimensions":["antennae","wings"],"bee_group":{"antennae":"B","wings":"2","pattern":"X","legs":"X"},"action":"harvest","summary":"good-harvest","bonus":0.20000000000000037},{"rt":1350.1000000014901,"stimulus":"\n                    <p><b>Action: <em>harvest</em></b></p>\n                    <p>This is the bee that you just saw.</p>\n                    <img src=\"bees-with-color/bee-B1SF.svg\" width=\"200\">\n                    <p><span class=\"greenText\"><b>Successful harvest!</b></span><br>Your pay has increased by $0.02. Your bonus pay is now $0.20.</p>\n            ","response":0,"trial_type":"html-button-response","trial_index":108,"time_elapsed":539046,"internal_node_id":"0.0-4.0-1.50","subject_id":"6161c0a63a36cd2224159da5","study_id":"6197b3f67c2b5cd3b6d9596a","session_id":"6197b9e8146ac66a3f9155b9","condition":"full-information","relevant_dimensions":["antennae","wings"],"bee_group":{"antennae":"B","wings":"2","pattern":"X","legs":"X"},"bonus":0.20000000000000037},{"rt":3214.699999999255,"stimulus":"bees-with-color/bee-A1DF.svg","response":0,"trial_type":"image-button-response","trial_index":109,"time_elapsed":542263,"internal_node_id":"0.0-4.0-0.51","subject_id":"6161c0a63a36cd2224159da5","study_id":"6197b3f67c2b5cd3b6d9596a","session_id":"6197b9e8146ac66a3f9155b9","condition":"full-information","relevant_dimensions":["antennae","wings"],"bee_group":{"antennae":"B","wings":"2","pattern":"X","legs":"X"},"action":"harvest","summary":"good-harvest","bonus":0.20000000000000037},{"rt":1310,"stimulus":"\n                    <p><b>Action: <em>harvest</em></b></p>\n                    <p>This is the bee that you just saw.</p>\n                    <img src=\"bees-with-color/bee-A1DF.svg\" width=\"200\">\n                    <p><span class=\"greenText\"><b>Successful harvest!</b></span><br>Your pay has increased by $0.02. Your bonus pay is now $0.22.</p>\n            ","response":0,"trial_type":"html-button-response","trial_index":110,"time_elapsed":543575,"internal_node_id":"0.0-4.0-1.51","subject_id":"6161c0a63a36cd2224159da5","study_id":"6197b3f67c2b5cd3b6d9596a","session_id":"6197b9e8146ac66a3f9155b9","condition":"full-information","relevant_dimensions":["antennae","wings"],"bee_group":{"antennae":"B","wings":"2","pattern":"X","legs":"X"},"bonus":0.20000000000000037},{"rt":2332.5,"stimulus":"bees-with-color/bee-A2SF.svg","response":1,"trial_type":"image-button-response","trial_index":111,"time_elapsed":545909,"internal_node_id":"0.0-4.0-0.52","subject_id":"6161c0a63a36cd2224159da5","study_id":"6197b3f67c2b5cd3b6d9596a","session_id":"6197b9e8146ac66a3f9155b9","condition":"full-information","relevant_dimensions":["antennae","wings"],"bee_group":{"antennae":"B","wings":"2","pattern":"X","legs":"X"},"action":"avoid","summary":"bad-avoid","bonus":0.20000000000000037},{"rt":1449.199999999255,"stimulus":"\n                    <p><b>Action: <em>avoid</em></b></p>\n                    <p>This is the bee that you just saw.</p>\n                    <img src=\"bees-with-color/bee-A2SF.svg\" width=\"200\">\n                    <p><span class=\"redText\">Bad choice,</span> the bee was friendly.<br>Your bonus pay is unchanged, and remains at $0.22.</p>\n            ","response":0,"trial_type":"html-button-response","trial_index":112,"time_elapsed":547360,"internal_node_id":"0.0-4.0-1.52","subject_id":"6161c0a63a36cd2224159da5","study_id":"6197b3f67c2b5cd3b6d9596a","session_id":"6197b9e8146ac66a3f9155b9","condition":"full-information","relevant_dimensions":["antennae","wings"],"bee_group":{"antennae":"B","wings":"2","pattern":"X","legs":"X"},"bonus":0.20000000000000037},{"rt":1729.9000000022352,"stimulus":"bees-with-color/bee-B1SM.svg","response":1,"trial_type":"image-button-response","trial_index":113,"time_elapsed":549093,"internal_node_id":"0.0-4.0-0.53","subject_id":"6161c0a63a36cd2224159da5","study_id":"6197b3f67c2b5cd3b6d9596a","session_id":"6197b9e8146ac66a3f9155b9","condition":"full-information","relevant_dimensions":["antennae","wings"],"bee_group":{"antennae":"B","wings":"2","pattern":"X","legs":"X"},"action":"avoid","summary":"bad-avoid","bonus":0.20000000000000037},{"rt":1417.2000000029802,"stimulus":"\n                    <p><b>Action: <em>avoid</em></b></p>\n                    <p>This is the bee that you just saw.</p>\n                    <img src=\"bees-with-color/bee-B1SM.svg\" width=\"200\">\n                    <p><span class=\"redText\">Bad choice,</span> the bee was friendly.<br>Your bonus pay is unchanged, and remains at $0.22.</p>\n            ","response":0,"trial_type":"html-button-response","trial_index":114,"time_elapsed":550512,"internal_node_id":"0.0-4.0-1.53","subject_id":"6161c0a63a36cd2224159da5","study_id":"6197b3f67c2b5cd3b6d9596a","session_id":"6197b9e8146ac66a3f9155b9","condition":"full-information","relevant_dimensions":["antennae","wings"],"bee_group":{"antennae":"B","wings":"2","pattern":"X","legs":"X"},"bonus":0.20000000000000037},{"rt":1473,"stimulus":"bees-with-color/bee-B2SM.svg","response":1,"trial_type":"image-button-response","trial_index":115,"time_elapsed":551987,"internal_node_id":"0.0-4.0-0.54","subject_id":"6161c0a63a36cd2224159da5","study_id":"6197b3f67c2b5cd3b6d9596a","session_id":"6197b9e8146ac66a3f9155b9","condition":"full-information","relevant_dimensions":["antennae","wings"],"bee_group":{"antennae":"B","wings":"2","pattern":"X","legs":"X"},"action":"avoid","summary":"good-avoid","bonus":0.20000000000000037},{"rt":1509.5999999977648,"stimulus":"\n                    <p><b>Action: <em>avoid</em></b></p>\n                    <p>This is the bee that you just saw.</p>\n                    <img src=\"bees-with-color/bee-B2SM.svg\" width=\"200\">\n                    <p><span class=\"greenText\">Good choice!</span>  This bee would have stung you.<br>Your bonus pay is unchanged, and remains at $0.22.</p>\n            ","response":0,"trial_type":"html-button-response","trial_index":116,"time_elapsed":553499,"internal_node_id":"0.0-4.0-1.54","subject_id":"6161c0a63a36cd2224159da5","study_id":"6197b3f67c2b5cd3b6d9596a","session_id":"6197b9e8146ac66a3f9155b9","condition":"full-information","relevant_dimensions":["antennae","wings"],"bee_group":{"antennae":"B","wings":"2","pattern":"X","legs":"X"},"bonus":0.20000000000000037},{"rt":1868.1000000014901,"stimulus":"bees-with-color/bee-A1SF.svg","response":0,"trial_type":"image-button-response","trial_index":117,"time_elapsed":555369,"internal_node_id":"0.0-4.0-0.55","subject_id":"6161c0a63a36cd2224159da5","study_id":"6197b3f67c2b5cd3b6d9596a","session_id":"6197b9e8146ac66a3f9155b9","condition":"full-information","relevant_dimensions":["antennae","wings"],"bee_group":{"antennae":"B","wings":"2","pattern":"X","legs":"X"},"action":"harvest","summary":"good-harvest","bonus":0.20000000000000037},{"rt":1553.4000000022352,"stimulus":"\n                    <p><b>Action: <em>harvest</em></b></p>\n                    <p>This is the bee that you just saw.</p>\n                    <img src=\"bees-with-color/bee-A1SF.svg\" width=\"200\">\n                    <p><span class=\"greenText\"><b>Successful harvest!</b></span><br>Your pay has increased by $0.02. Your bonus pay is now $0.24.</p>\n            ","response":0,"trial_type":"html-button-response","trial_index":118,"time_elapsed":556924,"internal_node_id":"0.0-4.0-1.55","subject_id":"6161c0a63a36cd2224159da5","study_id":"6197b3f67c2b5cd3b6d9596a","session_id":"6197b9e8146ac66a3f9155b9","condition":"full-information","relevant_dimensions":["antennae","wings"],"bee_group":{"antennae":"B","wings":"2","pattern":"X","legs":"X"},"bonus":0.20000000000000037},{"rt":1709.7999999970198,"stimulus":"bees-with-color/bee-B2DM.svg","response":1,"trial_type":"image-button-response","trial_index":119,"time_elapsed":558637,"internal_node_id":"0.0-4.0-0.56","subject_id":"6161c0a63a36cd2224159da5","study_id":"6197b3f67c2b5cd3b6d9596a","session_id":"6197b9e8146ac66a3f9155b9","condition":"full-information","relevant_dimensions":["antennae","wings"],"bee_group":{"antennae":"B","wings":"2","pattern":"X","legs":"X"},"action":"avoid","summary":"good-avoid","bonus":0.20000000000000037},{"rt":1429,"stimulus":"\n                    <p><b>Action: <em>avoid</em></b></p>\n                    <p>This is the bee that you just saw.</p>\n                    <img src=\"bees-with-color/bee-B2DM.svg\" width=\"200\">\n                    <p><span class=\"greenText\">Good choice!</span>  This bee would have stung you.<br>Your bonus pay is unchanged, and remains at $0.24.</p>\n            ","response":0,"trial_type":"html-button-response","trial_index":120,"time_elapsed":560069,"internal_node_id":"0.0-4.0-1.56","subject_id":"6161c0a63a36cd2224159da5","study_id":"6197b3f67c2b5cd3b6d9596a","session_id":"6197b9e8146ac66a3f9155b9","condition":"full-information","relevant_dimensions":["antennae","wings"],"bee_group":{"antennae":"B","wings":"2","pattern":"X","legs":"X"},"bonus":0.20000000000000037},{"rt":1525,"stimulus":"bees-with-color/bee-B1DF.svg","response":0,"trial_type":"image-button-response","trial_index":121,"time_elapsed":561596,"internal_node_id":"0.0-4.0-0.57","subject_id":"6161c0a63a36cd2224159da5","study_id":"6197b3f67c2b5cd3b6d9596a","session_id":"6197b9e8146ac66a3f9155b9","condition":"full-information","relevant_dimensions":["antennae","wings"],"bee_group":{"antennae":"B","wings":"2","pattern":"X","legs":"X"},"action":"harvest","summary":"good-harvest","bonus":0.20000000000000037},{"rt":1568.7000000029802,"stimulus":"\n                    <p><b>Action: <em>harvest</em></b></p>\n                    <p>This is the bee that you just saw.</p>\n                    <img src=\"bees-with-color/bee-B1DF.svg\" width=\"200\">\n                    <p><span class=\"greenText\"><b>Successful harvest!</b></span><br>Your pay has increased by $0.02. Your bonus pay is now $0.26.</p>\n            ","response":0,"trial_type":"html-button-response","trial_index":122,"time_elapsed":563167,"internal_node_id":"0.0-4.0-1.57","subject_id":"6161c0a63a36cd2224159da5","study_id":"6197b3f67c2b5cd3b6d9596a","session_id":"6197b9e8146ac66a3f9155b9","condition":"full-information","relevant_dimensions":["antennae","wings"],"bee_group":{"antennae":"B","wings":"2","pattern":"X","legs":"X"},"bonus":0.20000000000000037},{"rt":2158,"stimulus":"bees-with-color/bee-B1DM.svg","response":1,"trial_type":"image-button-response","trial_index":123,"time_elapsed":565327,"internal_node_id":"0.0-4.0-0.58","subject_id":"6161c0a63a36cd2224159da5","study_id":"6197b3f67c2b5cd3b6d9596a","session_id":"6197b9e8146ac66a3f9155b9","condition":"full-information","relevant_dimensions":["antennae","wings"],"bee_group":{"antennae":"B","wings":"2","pattern":"X","legs":"X"},"action":"avoid","summary":"bad-avoid","bonus":0.20000000000000037},{"rt":1323.5,"stimulus":"\n                    <p><b>Action: <em>avoid</em></b></p>\n                    <p>This is the bee that you just saw.</p>\n                    <img src=\"bees-with-color/bee-B1DM.svg\" width=\"200\">\n                    <p><span class=\"redText\">Bad choice,</span> the bee was friendly.<br>Your bonus pay is unchanged, and remains at $0.26.</p>\n            ","response":0,"trial_type":"html-button-response","trial_index":124,"time_elapsed":566652,"internal_node_id":"0.0-4.0-1.58","subject_id":"6161c0a63a36cd2224159da5","study_id":"6197b3f67c2b5cd3b6d9596a","session_id":"6197b9e8146ac66a3f9155b9","condition":"full-information","relevant_dimensions":["antennae","wings"],"bee_group":{"antennae":"B","wings":"2","pattern":"X","legs":"X"},"bonus":0.20000000000000037},{"rt":1212.699999999255,"stimulus":"bees-with-color/bee-A2SM.svg","response":1,"trial_type":"image-button-response","trial_index":125,"time_elapsed":567869,"internal_node_id":"0.0-4.0-0.59","subject_id":"6161c0a63a36cd2224159da5","study_id":"6197b3f67c2b5cd3b6d9596a","session_id":"6197b9e8146ac66a3f9155b9","condition":"full-information","relevant_dimensions":["antennae","wings"],"bee_group":{"antennae":"B","wings":"2","pattern":"X","legs":"X"},"action":"avoid","summary":"bad-avoid","bonus":0.20000000000000037},{"rt":1302.800000000745,"stimulus":"\n                    <p><b>Action: <em>avoid</em></b></p>\n                    <p>This is the bee that you just saw.</p>\n                    <img src=\"bees-with-color/bee-A2SM.svg\" width=\"200\">\n                    <p><span class=\"redText\">Bad choice,</span> the bee was friendly.<br>Your bonus pay is unchanged, and remains at $0.26.</p>\n            ","response":0,"trial_type":"html-button-response","trial_index":126,"time_elapsed":569174,"internal_node_id":"0.0-4.0-1.59","subject_id":"6161c0a63a36cd2224159da5","study_id":"6197b3f67c2b5cd3b6d9596a","session_id":"6197b9e8146ac66a3f9155b9","condition":"full-information","relevant_dimensions":["antennae","wings"],"bee_group":{"antennae":"B","wings":"2","pattern":"X","legs":"X"},"bonus":0.20000000000000037},{"rt":1657.8999999985099,"stimulus":"bees-with-color/bee-A1DM.svg","response":0,"trial_type":"image-button-response","trial_index":127,"time_elapsed":570834,"internal_node_id":"0.0-4.0-0.60","subject_id":"6161c0a63a36cd2224159da5","study_id":"6197b3f67c2b5cd3b6d9596a","session_id":"6197b9e8146ac66a3f9155b9","condition":"full-information","relevant_dimensions":["antennae","wings"],"bee_group":{"antennae":"B","wings":"2","pattern":"X","legs":"X"},"action":"harvest","summary":"good-harvest","bonus":0.20000000000000037},{"rt":1692.4000000022352,"stimulus":"\n                    <p><b>Action: <em>harvest</em></b></p>\n                    <p>This is the bee that you just saw.</p>\n                    <img src=\"bees-with-color/bee-A1DM.svg\" width=\"200\">\n                    <p><span class=\"greenText\"><b>Successful harvest!</b></span><br>Your pay has increased by $0.02. Your bonus pay is now $0.28.</p>\n            ","response":0,"trial_type":"html-button-response","trial_index":128,"time_elapsed":572530,"internal_node_id":"0.0-4.0-1.60","subject_id":"6161c0a63a36cd2224159da5","study_id":"6197b3f67c2b5cd3b6d9596a","session_id":"6197b9e8146ac66a3f9155b9","condition":"full-information","relevant_dimensions":["antennae","wings"],"bee_group":{"antennae":"B","wings":"2","pattern":"X","legs":"X"},"bonus":0.20000000000000037},{"rt":1505.5,"stimulus":"bees-with-color/bee-A2DM.svg","response":1,"trial_type":"image-button-response","trial_index":129,"time_elapsed":574038,"internal_node_id":"0.0-4.0-0.61","subject_id":"6161c0a63a36cd2224159da5","study_id":"6197b3f67c2b5cd3b6d9596a","session_id":"6197b9e8146ac66a3f9155b9","condition":"full-information","relevant_dimensions":["antennae","wings"],"bee_group":{"antennae":"B","wings":"2","pattern":"X","legs":"X"},"action":"avoid","summary":"bad-avoid","bonus":0.20000000000000037},{"rt":1289.199999999255,"stimulus":"\n                    <p><b>Action: <em>avoid</em></b></p>\n                    <p>This is the bee that you just saw.</p>\n                    <img src=\"bees-with-color/bee-A2DM.svg\" width=\"200\">\n                    <p><span class=\"redText\">Bad choice,</span> the bee was friendly.<br>Your bonus pay is unchanged, and remains at $0.28.</p>\n            ","response":0,"trial_type":"html-button-response","trial_index":130,"time_elapsed":575330,"internal_node_id":"0.0-4.0-1.61","subject_id":"6161c0a63a36cd2224159da5","study_id":"6197b3f67c2b5cd3b6d9596a","session_id":"6197b9e8146ac66a3f9155b9","condition":"full-information","relevant_dimensions":["antennae","wings"],"bee_group":{"antennae":"B","wings":"2","pattern":"X","legs":"X"},"bonus":0.20000000000000037},{"rt":1356.9000000022352,"stimulus":"bees-with-color/bee-A1SM.svg","response":0,"trial_type":"image-button-response","trial_index":131,"time_elapsed":576689,"internal_node_id":"0.0-4.0-0.62","subject_id":"6161c0a63a36cd2224159da5","study_id":"6197b3f67c2b5cd3b6d9596a","session_id":"6197b9e8146ac66a3f9155b9","condition":"full-information","relevant_dimensions":["antennae","wings"],"bee_group":{"antennae":"B","wings":"2","pattern":"X","legs":"X"},"action":"harvest","summary":"good-harvest","bonus":0.20000000000000037},{"rt":1263.699999999255,"stimulus":"\n                    <p><b>Action: <em>harvest</em></b></p>\n                    <p>This is the bee that you just saw.</p>\n                    <img src=\"bees-with-color/bee-A1SM.svg\" width=\"200\">\n                    <p><span class=\"greenText\"><b>Successful harvest!</b></span><br>Your pay has increased by $0.02. Your bonus pay is now $0.30.</p>\n            ","response":0,"trial_type":"html-button-response","trial_index":132,"time_elapsed":577955,"internal_node_id":"0.0-4.0-1.62","subject_id":"6161c0a63a36cd2224159da5","study_id":"6197b3f67c2b5cd3b6d9596a","session_id":"6197b9e8146ac66a3f9155b9","condition":"full-information","relevant_dimensions":["antennae","wings"],"bee_group":{"antennae":"B","wings":"2","pattern":"X","legs":"X"},"bonus":0.20000000000000037},{"rt":1458.6000000014901,"stimulus":"bees-with-color/bee-B2DF.svg","response":1,"trial_type":"image-button-response","trial_index":133,"time_elapsed":579416,"internal_node_id":"0.0-4.0-0.63","subject_id":"6161c0a63a36cd2224159da5","study_id":"6197b3f67c2b5cd3b6d9596a","session_id":"6197b9e8146ac66a3f9155b9","condition":"full-information","relevant_dimensions":["antennae","wings"],"bee_group":{"antennae":"B","wings":"2","pattern":"X","legs":"X"},"action":"avoid","summary":"good-avoid","bonus":0.20000000000000037},{"rt":1104.199999999255,"stimulus":"\n                    <p><b>Action: <em>avoid</em></b></p>\n                    <p>This is the bee that you just saw.</p>\n                    <img src=\"bees-with-color/bee-B2DF.svg\" width=\"200\">\n                    <p><span class=\"greenText\">Good choice!</span>  This bee would have stung you.<br>Your bonus pay is unchanged, and remains at $0.30.</p>\n            ","response":0,"trial_type":"html-button-response","trial_index":134,"time_elapsed":580523,"internal_node_id":"0.0-4.0-1.63","subject_id":"6161c0a63a36cd2224159da5","study_id":"6197b3f67c2b5cd3b6d9596a","session_id":"6197b9e8146ac66a3f9155b9","condition":"full-information","relevant_dimensions":["antennae","wings"],"bee_group":{"antennae":"B","wings":"2","pattern":"X","legs":"X"},"bonus":0.20000000000000037},{"rt":15408.099999997765,"stimulus":"You have completed the first part of this experiment.<br><br>You will now begin a shorter second part, in which you will receive no feedback.<br>The same rules regarding bonus pay apply.<br><br>Press any key to begin.","response":"m","trial_type":"html-keyboard-response","trial_index":135,"time_elapsed":595959,"internal_node_id":"0.0-5.0","subject_id":"6161c0a63a36cd2224159da5","study_id":"6197b3f67c2b5cd3b6d9596a","session_id":"6197b9e8146ac66a3f9155b9","condition":"full-information","relevant_dimensions":["antennae","wings"],"bee_group":{"antennae":"B","wings":"2","pattern":"X","legs":"X"},"bonus":0.20000000000000037},{"rt":8827.5,"stimulus":"bees-with-color/bee-A2DF.svg","response":0,"trial_type":"image-button-response","trial_index":136,"time_elapsed":605086,"internal_node_id":"0.0-6.0-0.0","subject_id":"6161c0a63a36cd2224159da5","study_id":"6197b3f67c2b5cd3b6d9596a","session_id":"6197b9e8146ac66a3f9155b9","condition":"full-information","relevant_dimensions":["antennae","wings"],"bee_group":{"antennae":"B","wings":"2","pattern":"X","legs":"X"},"bonus":0.20000000000000037},{"rt":3481.199999999255,"stimulus":"bees-with-color/bee-B2DM.svg","response":1,"trial_type":"image-button-response","trial_index":137,"time_elapsed":608571,"internal_node_id":"0.0-6.0-0.1","subject_id":"6161c0a63a36cd2224159da5","study_id":"6197b3f67c2b5cd3b6d9596a","session_id":"6197b9e8146ac66a3f9155b9","condition":"full-information","relevant_dimensions":["antennae","wings"],"bee_group":{"antennae":"B","wings":"2","pattern":"X","legs":"X"},"bonus":0.20000000000000037},{"rt":1454.4000000022352,"stimulus":"bees-with-color/bee-B1DM.svg","response":0,"trial_type":"image-button-response","trial_index":138,"time_elapsed":610030,"internal_node_id":"0.0-6.0-0.2","subject_id":"6161c0a63a36cd2224159da5","study_id":"6197b3f67c2b5cd3b6d9596a","session_id":"6197b9e8146ac66a3f9155b9","condition":"full-information","relevant_dimensions":["antennae","wings"],"bee_group":{"antennae":"B","wings":"2","pattern":"X","legs":"X"},"bonus":0.20000000000000037},{"rt":1403.8999999985099,"stimulus":"bees-with-color/bee-B2DF.svg","response":1,"trial_type":"image-button-response","trial_index":139,"time_elapsed":611439,"internal_node_id":"0.0-6.0-0.3","subject_id":"6161c0a63a36cd2224159da5","study_id":"6197b3f67c2b5cd3b6d9596a","session_id":"6197b9e8146ac66a3f9155b9","condition":"full-information","relevant_dimensions":["antennae","wings"],"bee_group":{"antennae":"B","wings":"2","pattern":"X","legs":"X"},"bonus":0.20000000000000037},{"rt":2578.89999999851,"stimulus":"bees-with-color/bee-A2SF.svg","response":0,"trial_type":"image-button-response","trial_index":140,"time_elapsed":614022,"internal_node_id":"0.0-6.0-0.4","subject_id":"6161c0a63a36cd2224159da5","study_id":"6197b3f67c2b5cd3b6d9596a","session_id":"6197b9e8146ac66a3f9155b9","condition":"full-information","relevant_dimensions":["antennae","wings"],"bee_group":{"antennae":"B","wings":"2","pattern":"X","legs":"X"},"bonus":0.20000000000000037},{"rt":1274.6000000014901,"stimulus":"bees-with-color/bee-B1SM.svg","response":1,"trial_type":"image-button-response","trial_index":141,"time_elapsed":615300,"internal_node_id":"0.0-6.0-0.5","subject_id":"6161c0a63a36cd2224159da5","study_id":"6197b3f67c2b5cd3b6d9596a","session_id":"6197b9e8146ac66a3f9155b9","condition":"full-information","relevant_dimensions":["antennae","wings"],"bee_group":{"antennae":"B","wings":"2","pattern":"X","legs":"X"},"bonus":0.20000000000000037},{"rt":1210,"stimulus":"bees-with-color/bee-A1DM.svg","response":0,"trial_type":"image-button-response","trial_index":142,"time_elapsed":616514,"internal_node_id":"0.0-6.0-0.6","subject_id":"6161c0a63a36cd2224159da5","study_id":"6197b3f67c2b5cd3b6d9596a","session_id":"6197b9e8146ac66a3f9155b9","condition":"full-information","relevant_dimensions":["antennae","wings"],"bee_group":{"antennae":"B","wings":"2","pattern":"X","legs":"X"},"bonus":0.20000000000000037},{"rt":986.8999999985099,"stimulus":"bees-with-color/bee-B1DF.svg","response":0,"trial_type":"image-button-response","trial_index":143,"time_elapsed":617504,"internal_node_id":"0.0-6.0-0.7","subject_id":"6161c0a63a36cd2224159da5","study_id":"6197b3f67c2b5cd3b6d9596a","session_id":"6197b9e8146ac66a3f9155b9","condition":"full-information","relevant_dimensions":["antennae","wings"],"bee_group":{"antennae":"B","wings":"2","pattern":"X","legs":"X"},"bonus":0.20000000000000037},{"rt":1830.5999999977648,"stimulus":"bees-with-color/bee-B2SM.svg","response":0,"trial_type":"image-button-response","trial_index":144,"time_elapsed":619339,"internal_node_id":"0.0-6.0-0.8","subject_id":"6161c0a63a36cd2224159da5","study_id":"6197b3f67c2b5cd3b6d9596a","session_id":"6197b9e8146ac66a3f9155b9","condition":"full-information","relevant_dimensions":["antennae","wings"],"bee_group":{"antennae":"B","wings":"2","pattern":"X","legs":"X"},"bonus":0.20000000000000037},{"rt":1475,"stimulus":"bees-with-color/bee-B2SF.svg","response":0,"trial_type":"image-button-response","trial_index":145,"time_elapsed":620818,"internal_node_id":"0.0-6.0-0.9","subject_id":"6161c0a63a36cd2224159da5","study_id":"6197b3f67c2b5cd3b6d9596a","session_id":"6197b9e8146ac66a3f9155b9","condition":"full-information","relevant_dimensions":["antennae","wings"],"bee_group":{"antennae":"B","wings":"2","pattern":"X","legs":"X"},"bonus":0.20000000000000037},{"rt":2452,"stimulus":"bees-with-color/bee-A1SF.svg","response":0,"trial_type":"image-button-response","trial_index":146,"time_elapsed":623273,"internal_node_id":"0.0-6.0-0.10","subject_id":"6161c0a63a36cd2224159da5","study_id":"6197b3f67c2b5cd3b6d9596a","session_id":"6197b9e8146ac66a3f9155b9","condition":"full-information","relevant_dimensions":["antennae","wings"],"bee_group":{"antennae":"B","wings":"2","pattern":"X","legs":"X"},"bonus":0.20000000000000037},{"rt":1490.699999999255,"stimulus":"bees-with-color/bee-B1SF.svg","response":0,"trial_type":"image-button-response","trial_index":147,"time_elapsed":624766,"internal_node_id":"0.0-6.0-0.11","subject_id":"6161c0a63a36cd2224159da5","study_id":"6197b3f67c2b5cd3b6d9596a","session_id":"6197b9e8146ac66a3f9155b9","condition":"full-information","relevant_dimensions":["antennae","wings"],"bee_group":{"antennae":"B","wings":"2","pattern":"X","legs":"X"},"bonus":0.20000000000000037},{"rt":1769.2000000029802,"stimulus":"bees-with-color/bee-A1DF.svg","response":0,"trial_type":"image-button-response","trial_index":148,"time_elapsed":626538,"internal_node_id":"0.0-6.0-0.12","subject_id":"6161c0a63a36cd2224159da5","study_id":"6197b3f67c2b5cd3b6d9596a","session_id":"6197b9e8146ac66a3f9155b9","condition":"full-information","relevant_dimensions":["antennae","wings"],"bee_group":{"antennae":"B","wings":"2","pattern":"X","legs":"X"},"bonus":0.20000000000000037},{"rt":4066.900000002235,"stimulus":"bees-with-color/bee-A2DM.svg","response":1,"trial_type":"image-button-response","trial_index":149,"time_elapsed":630608,"internal_node_id":"0.0-6.0-0.13","subject_id":"6161c0a63a36cd2224159da5","study_id":"6197b3f67c2b5cd3b6d9596a","session_id":"6197b9e8146ac66a3f9155b9","condition":"full-information","relevant_dimensions":["antennae","wings"],"bee_group":{"antennae":"B","wings":"2","pattern":"X","legs":"X"},"bonus":0.20000000000000037},{"rt":3222,"stimulus":"bees-with-color/bee-A2SM.svg","response":1,"trial_type":"image-button-response","trial_index":150,"time_elapsed":633834,"internal_node_id":"0.0-6.0-0.14","subject_id":"6161c0a63a36cd2224159da5","study_id":"6197b3f67c2b5cd3b6d9596a","session_id":"6197b9e8146ac66a3f9155b9","condition":"full-information","relevant_dimensions":["antennae","wings"],"bee_group":{"antennae":"B","wings":"2","pattern":"X","legs":"X"},"bonus":0.20000000000000037},{"rt":2040.5999999977648,"stimulus":"bees-with-color/bee-A1SM.svg","response":1,"trial_type":"image-button-response","trial_index":151,"time_elapsed":635878,"internal_node_id":"0.0-6.0-0.15","subject_id":"6161c0a63a36cd2224159da5","study_id":"6197b3f67c2b5cd3b6d9596a","session_id":"6197b9e8146ac66a3f9155b9","condition":"full-information","relevant_dimensions":["antennae","wings"],"bee_group":{"antennae":"B","wings":"2","pattern":"X","legs":"X"},"bonus":0.20000000000000037},{"rt":1253.3999999985099,"stimulus":"bees-with-color/bee-B1DF.svg","response":0,"trial_type":"image-button-response","trial_index":152,"time_elapsed":637134,"internal_node_id":"0.0-6.0-0.16","subject_id":"6161c0a63a36cd2224159da5","study_id":"6197b3f67c2b5cd3b6d9596a","session_id":"6197b9e8146ac66a3f9155b9","condition":"full-information","relevant_dimensions":["antennae","wings"],"bee_group":{"antennae":"B","wings":"2","pattern":"X","legs":"X"},"bonus":0.20000000000000037},{"rt":1851.5,"stimulus":"bees-with-color/bee-A1DM.svg","response":1,"trial_type":"image-button-response","trial_index":153,"time_elapsed":638988,"internal_node_id":"0.0-6.0-0.17","subject_id":"6161c0a63a36cd2224159da5","study_id":"6197b3f67c2b5cd3b6d9596a","session_id":"6197b9e8146ac66a3f9155b9","condition":"full-information","relevant_dimensions":["antennae","wings"],"bee_group":{"antennae":"B","wings":"2","pattern":"X","legs":"X"},"bonus":0.20000000000000037},{"rt":1288.199999999255,"stimulus":"bees-with-color/bee-A2SF.svg","response":1,"trial_type":"image-button-response","trial_index":154,"time_elapsed":640278,"internal_node_id":"0.0-6.0-0.18","subject_id":"6161c0a63a36cd2224159da5","study_id":"6197b3f67c2b5cd3b6d9596a","session_id":"6197b9e8146ac66a3f9155b9","condition":"full-information","relevant_dimensions":["antennae","wings"],"bee_group":{"antennae":"B","wings":"2","pattern":"X","legs":"X"},"bonus":0.20000000000000037},{"rt":2249.60000000149,"stimulus":"bees-with-color/bee-B2DF.svg","response":0,"trial_type":"image-button-response","trial_index":155,"time_elapsed":642530,"internal_node_id":"0.0-6.0-0.19","subject_id":"6161c0a63a36cd2224159da5","study_id":"6197b3f67c2b5cd3b6d9596a","session_id":"6197b9e8146ac66a3f9155b9","condition":"full-information","relevant_dimensions":["antennae","wings"],"bee_group":{"antennae":"B","wings":"2","pattern":"X","legs":"X"},"bonus":0.20000000000000037},{"rt":2391.2000000029802,"stimulus":"bees-with-color/bee-B1SF.svg","response":0,"trial_type":"image-button-response","trial_index":156,"time_elapsed":644924,"internal_node_id":"0.0-6.0-0.20","subject_id":"6161c0a63a36cd2224159da5","study_id":"6197b3f67c2b5cd3b6d9596a","session_id":"6197b9e8146ac66a3f9155b9","condition":"full-information","relevant_dimensions":["antennae","wings"],"bee_group":{"antennae":"B","wings":"2","pattern":"X","legs":"X"},"bonus":0.20000000000000037},{"rt":1616.199999999255,"stimulus":"bees-with-color/bee-B2DM.svg","response":1,"trial_type":"i