[{"success":true,"trial_type":"fullscreen","trial_index":0,"time_elapsed":37415,"internal_node_id":"0.0-0.0","subject_id":"5c1cfb57e2d9150001b5975b","study_id":"6197b3f67c2b5cd3b6d9596a","session_id":"619be783cdabfebece6634cc","condition":"contingent","relevant_dimensions":["pattern","legs"],"bee_group":{"antennae":"X","wings":"X","pattern":"S","legs":"F"},"bonus":0.9400000000000013},{"success":true,"timeout":false,"failed_images":[],"failed_audio":[],"failed_video":[],"trial_type":"preload","trial_index":1,"time_elapsed":38997,"internal_node_id":"0.0-1.0","subject_id":"5c1cfb57e2d9150001b5975b","study_id":"6197b3f67c2b5cd3b6d9596a","session_id":"619be783cdabfebece6634cc","condition":"contingent","relevant_dimensions":["pattern","legs"],"bee_group":{"antennae":"X","wings":"X","pattern":"S","legs":"F"},"bonus":0.9400000000000013},{"rt":1266.2000000178814,"stimulus":"Welcome! Press any key to begin.","response":" ","trial_type":"html-keyboard-response","trial_index":2,"time_elapsed":40264,"internal_node_id":"0.0-2.0","subject_id":"5c1cfb57e2d9150001b5975b","study_id":"6197b3f67c2b5cd3b6d9596a","session_id":"619be783cdabfebece6634cc","condition":"contingent","relevant_dimensions":["pattern","legs"],"bee_group":{"antennae":"X","wings":"X","pattern":"S","legs":"F"},"bonus":0.9400000000000013},{"view_history":[{"page_index":0,"viewing_time":4439},{"page_index":1,"viewing_time":14215.59999999404},{"page_index":2,"viewing_time":26727.90000000596},{"page_index":3,"viewing_time":12232.200000017881},{"page_index":4,"viewing_time":3735.899999976158},{"page_index":5,"viewing_time":4919.9000000059605},{"page_index":6,"viewing_time":6488},{"page_index":7,"viewing_time":7536.0999999940395},{"page_index":8,"viewing_time":3191.7000000178814},{"page_index":9,"viewing_time":8065.199999988079},{"page_index":10,"viewing_time":1950.9000000059605},{"page_index":11,"viewing_time":9608.09999999404},{"page_index":12,"viewing_time":5951.9000000059605},{"page_index":13,"viewing_time":1040.0999999940395},{"page_index":14,"viewing_time":1816.0999999940395}],"rt":111919.20000001788,"trial_type":"instructions","trial_index":3,"time_elapsed":152184,"internal_node_id":"0.0-3.0-0.0","subject_id":"5c1cfb57e2d9150001b5975b","study_id":"6197b3f67c2b5cd3b6d9596a","session_id":"619be783cdabfebece6634cc","condition":"contingent","relevant_dimensions":["pattern","legs"],"bee_group":{"antennae":"X","wings":"X","pattern":"S","legs":"F"},"bonus":0.9400000000000013},{"rt":18442.09999999404,"response":{"Q0":["Two or six legs","Stripes or spots on body","Single or double wings","Antennae or no antennae"]},"question_order":[0],"trial_type":"survey-multi-select","trial_index":4,"time_elapsed":170633,"internal_node_id":"0.0-3.0-1.0","subject_id":"5c1cfb57e2d9150001b5975b","study_id":"6197b3f67c2b5cd3b6d9596a","session_id":"619be783cdabfebece6634cc","condition":"contingent","relevant_dimensions":["pattern","legs"],"bee_group":{"antennae":"X","wings":"X","pattern":"S","legs":"F"},"correct":true,"bonus":0.9400000000000013},{"rt":24291.80000001192,"response":{"Q1":"No.","Q2":"Based on the four features of the bee.","Q3":"You do not learn if it was friendly or dangerous, and do not alter your bonus."},"question_order":[0,1,2],"trial_type":"survey-multi-choice","trial_index":5,"time_elapsed":194929,"internal_node_id":"0.0-3.0-2.0","subject_id":"5c1cfb57e2d9150001b5975b","study_id":"6197b3f67c2b5cd3b6d9596a","session_id":"619be783cdabfebece6634cc","condition":"contingent","relevant_dimensions":["pattern","legs"],"bee_group":{"antennae":"X","wings":"X","pattern":"S","legs":"F"},"correct":true,"bonus":0.9400000000000013},{"rt":2357.199999988079,"stimulus":"<p>Congrats, you got everything right<br>When you're ready, click the button below to continue to the experiment.</p>","response":0,"trial_type":"html-button-response","trial_index":6,"time_elapsed":197289,"internal_node_id":"0.0-3.0-3.0","subject_id":"5c1cfb57e2d9150001b5975b","study_id":"6197b3f67c2b5cd3b6d9596a","session_id":"619be783cdabfebece6634cc","condition":"contingent","relevant_dimensions":["pattern","legs"],"bee_group":{"antennae":"X","wings":"X","pattern":"S","legs":"F"},"bonus":0.9400000000000013},{"rt":3499.199999988079,"stimulus":"bees-with-color/bee-B2SF.svg","response":0,"trial_type":"image-button-response","trial_index":7,"time_elapsed":200792,"internal_node_id":"0.0-4.0-0.0","subject_id":"5c1cfb57e2d9150001b5975b","study_id":"6197b3f67c2b5cd3b6d9596a","session_id":"619be783cdabfebece6634cc","condition":"contingent","relevant_dimensions":["pattern","legs"],"bee_group":{"antennae":"X","wings":"X","pattern":"S","legs":"F"},"action":"harvest","summary":"bad-harvest","bonus":0.9400000000000013},{"rt":4948.199999988079,"stimulus":"\n                    <p><b>Action: <em>harvest</em></b></p>\n                    <p>This is the bee that you just saw.</p>\n                    <img src=\"bees-with-color/bee-B2SF.svg\" width=\"200\">\n                    <p><span class=\"redText\">Bad choice, the bee was angry.</span><br><b>You have been stung!</b><br>Your pay has been decreased by $0.10. Your bonus pay is now $0.44.</p>\n            ","response":0,"trial_type":"html-button-response","trial_index":8,"time_elapsed":205745,"internal_node_id":"0.0-4.0-1.0","subject_id":"5c1cfb57e2d9150001b5975b","study_id":"6197b3f67c2b5cd3b6d9596a","session_id":"619be783cdabfebece6634cc","condition":"contingent","relevant_dimensions":["pattern","legs"],"bee_group":{"antennae":"X","wings":"X","pattern":"S","legs":"F"},"bonus":0.9400000000000013},{"rt":1660.4000000059605,"stimulus":"bees-with-color/bee-A1SM.svg","response":0,"trial_type":"image-button-response","trial_index":9,"time_elapsed":207408,"internal_node_id":"0.0-4.0-0.1","subject_id":"5c1cfb57e2d9150001b5975b","study_id":"6197b3f67c2b5cd3b6d9596a","session_id":"619be783cdabfebece6634cc","condition":"contingent","relevant_dimensions":["pattern","legs"],"bee_group":{"antennae":"X","wings":"X","pattern":"S","legs":"F"},"action":"harvest","summary":"good-harvest","bonus":0.9400000000000013},{"rt":1173,"stimulus":"\n                    <p><b>Action: <em>harvest</em></b></p>\n                    <p>This is the bee that you just saw.</p>\n                    <img src=\"bees-with-color/bee-A1SM.svg\" width=\"200\">\n                    <p><span class=\"greenText\"><b>Successful harvest!</b></span><br>Your pay has increased by $0.02. Your bonus pay is now $0.46.</p>\n            ","response":0,"trial_type":"html-button-response","trial_index":10,"time_elapsed":208584,"internal_node_id":"0.0-4.0-1.1","subject_id":"5c1cfb57e2d9150001b5975b","study_id":"6197b3f67c2b5cd3b6d9596a","session_id":"619be783cdabfebece6634cc","condition":"contingent","relevant_dimensions":["pattern","legs"],"bee_group":{"antennae":"X","wings":"X","pattern":"S","legs":"F"},"bonus":0.9400000000000013},{"rt":1309.4000000059605,"stimulus":"bees-with-color/bee-A2DF.svg","response":0,"trial_type":"image-button-response","trial_index":11,"time_elapsed":209896,"internal_node_id":"0.0-4.0-0.2","subject_id":"5c1cfb57e2d9150001b5975b","study_id":"6197b3f67c2b5cd3b6d9596a","session_id":"619be783cdabfebece6634cc","condition":"contingent","relevant_dimensions":["pattern","legs"],"bee_group":{"antennae":"X","wings":"X","pattern":"S","legs":"F"},"action":"harvest","summary":"good-harvest","bonus":0.9400000000000013},{"rt":1364.9000000059605,"stimulus":"\n                    <p><b>Action: <em>harvest</em></b></p>\n                    <p>This is the bee that you just saw.</p>\n                    <img src=\"bees-with-color/bee-A2DF.svg\" width=\"200\">\n                    <p><span class=\"greenText\"><b>Successful harvest!</b></span><br>Your pay has increased by $0.02. Your bonus pay is now $0.48.</p>\n            ","response":0,"trial_type":"html-button-response","trial_index":12,"time_elapsed":211264,"internal_node_id":"0.0-4.0-1.2","subject_id":"5c1cfb57e2d9150001b5975b","study_id":"6197b3f67c2b5cd3b6d9596a","session_id":"619be783cdabfebece6634cc","condition":"contingent","relevant_dimensions":["pattern","legs"],"bee_group":{"antennae":"X","wings":"X","pattern":"S","legs":"F"},"bonus":0.9400000000000013},{"rt":981.7999999821186,"stimulus":"bees-with-color/bee-B1SF.svg","response":1,"trial_type":"image-button-response","trial_index":13,"time_elapsed":212249,"internal_node_id":"0.0-4.0-0.3","subject_id":"5c1cfb57e2d9150001b5975b","study_id":"6197b3f67c2b5cd3b6d9596a","session_id":"619be783cdabfebece6634cc","condition":"contingent","relevant_dimensions":["pattern","legs"],"bee_group":{"antennae":"X","wings":"X","pattern":"S","legs":"F"},"action":"avoid","summary":"good-avoid","bonus":0.9400000000000013},{"rt":6229.300000011921,"stimulus":"\n                    <p><b>Action: <em>avoid</em></b></p>\n                    <p>This is the bee that you just saw.</p>\n                    <img src=\"bees-with-color/bee-B1SF.svg\" width=\"200\">\n                    <p><br>Your bonus pay is unchanged, and remains at $0.48.</p>\n            ","response":0,"trial_type":"html-button-response","trial_index":14,"time_elapsed":218480,"internal_node_id":"0.0-4.0-1.3","subject_id":"5c1cfb57e2d9150001b5975b","study_id":"6197b3f67c2b5cd3b6d9596a","session_id":"619be783cdabfebece6634cc","condition":"contingent","relevant_dimensions":["pattern","legs"],"bee_group":{"antennae":"X","wings":"X","pattern":"S","legs":"F"},"bonus":0.9400000000000013},{"rt":1412.300000011921,"stimulus":"bees-with-color/bee-B1DF.svg","response":1,"trial_type":"image-button-response","trial_index":15,"time_elapsed":219896,"internal_node_id":"0.0-4.0-0.4","subject_id":"5c1cfb57e2d9150001b5975b","study_id":"6197b3f67c2b5cd3b6d9596a","session_id":"619be783cdabfebece6634cc","condition":"contingent","relevant_dimensions":["pattern","legs"],"bee_group":{"antennae":"X","wings":"X","pattern":"S","legs":"F"},"action":"avoid","summary":"bad-avoid","bonus":0.9400000000000013},{"rt":1405.0999999940395,"stimulus":"\n                    <p><b>Action: <em>avoid</em></b></p>\n                    <p>This is the bee that you just saw.</p>\n                    <img src=\"bees-with-color/bee-B1DF.svg\" width=\"200\">\n                    <p><br>Your bonus pay is unchanged, and remains at $0.48.</p>\n            ","response":0,"trial_type":"html-button-response","trial_index":16,"time_elapsed":221304,"internal_node_id":"0.0-4.0-1.4","subject_id":"5c1cfb57e2d9150001b5975b","study_id":"6197b3f67c2b5cd3b6d9596a","session_id":"619be783cdabfebece6634cc","condition":"contingent","relevant_dimensions":["pattern","legs"],"bee_group":{"antennae":"X","wings":"X","pattern":"S","legs":"F"},"bonus":0.9400000000000013},{"rt":1205.4000000059605,"stimulus":"bees-with-color/bee-B2SM.svg","response":0,"trial_type":"image-button-response","trial_index":17,"time_elapsed":222512,"internal_node_id":"0.0-4.0-0.5","subject_id":"5c1cfb57e2d9150001b5975b","study_id":"6197b3f67c2b5cd3b6d9596a","session_id":"619be783cdabfebece6634cc","condition":"contingent","relevant_dimensions":["pattern","legs"],"bee_group":{"antennae":"X","wings":"X","pattern":"S","legs":"F"},"action":"harvest","summary":"good-harvest","bonus":0.9400000000000013},{"rt":2005.5,"stimulus":"\n                    <p><b>Action: <em>harvest</em></b></p>\n                    <p>This is the bee that you just saw.</p>\n                    <img src=\"bees-with-color/bee-B2SM.svg\" width=\"200\">\n                    <p><span class=\"greenText\"><b>Successful harvest!</b></span><br>Your pay has increased by $0.02. Your bonus pay is now $0.50.</p>\n            ","response":0,"trial_type":"html-button-response","trial_index":18,"time_elapsed":224520,"internal_node_id":"0.0-4.0-1.5","subject_id":"5c1cfb57e2d9150001b5975b","study_id":"6197b3f67c2b5cd3b6d9596a","session_id":"619be783cdabfebece6634cc","condition":"contingent","relevant_dimensions":["pattern","legs"],"bee_group":{"antennae":"X","wings":"X","pattern":"S","legs":"F"},"bonus":0.9400000000000013},{"rt":1684.5,"stimulus":"bees-with-color/bee-B1DM.svg","response":1,"trial_type":"image-button-response","trial_index":19,"time_elapsed":226208,"internal_node_id":"0.0-4.0-0.6","subject_id":"5c1cfb57e2d9150001b5975b","study_id":"6197b3f67c2b5cd3b6d9596a","session_id":"619be783cdabfebece6634cc","condition":"contingent","relevant_dimensions":["pattern","legs"],"bee_group":{"antennae":"X","wings":"X","pattern":"S","legs":"F"},"action":"avoid","summary":"bad-avoid","bonus":0.9400000000000013},{"rt":877.5,"stimulus":"\n                    <p><b>Action: <em>avoid</em></b></p>\n                    <p>This is the bee that you just saw.</p>\n                    <img src=\"bees-with-color/bee-B1DM.svg\" width=\"200\">\n                    <p><br>Your bonus pay is unchanged, and remains at $0.50.</p>\n            ","response":0,"trial_type":"html-button-response","trial_index":20,"time_elapsed":227089,"internal_node_id":"0.0-4.0-1.6","subject_id":"5c1cfb57e2d9150001b5975b","study_id":"6197b3f67c2b5cd3b6d9596a","session_id":"619be783cdabfebece6634cc","condition":"contingent","relevant_dimensions":["pattern","legs"],"bee_group":{"antennae":"X","wings":"X","pattern":"S","legs":"F"},"bonus":0.9400000000000013},{"rt":813.0999999940395,"stimulus":"bees-with-color/bee-A2DM.svg","response":0,"trial_type":"image-button-response","trial_index":21,"time_elapsed":227905,"internal_node_id":"0.0-4.0-0.7","subject_id":"5c1cfb57e2d9150001b5975b","study_id":"6197b3f67c2b5cd3b6d9596a","session_id":"619be783cdabfebece6634cc","condition":"contingent","relevant_dimensions":["pattern","legs"],"bee_group":{"antennae":"X","wings":"X","pattern":"S","legs":"F"},"action":"harvest","summary":"good-harvest","bonus":0.9400000000000013},{"rt":828.7999999821186,"stimulus":"\n                    <p><b>Action: <em>harvest</em></b></p>\n                    <p>This is the bee that you just saw.</p>\n                    <img src=\"bees-with-color/bee-A2DM.svg\" width=\"200\">\n                    <p><span class=\"greenText\"><b>Successful harvest!</b></span><br>Your pay has increased by $0.02. Your bonus pay is now $0.52.</p>\n            ","response":0,"trial_type":"html-button-response","trial_index":22,"time_elapsed":228737,"internal_node_id":"0.0-4.0-1.7","subject_id":"5c1cfb57e2d9150001b5975b","study_id":"6197b3f67c2b5cd3b6d9596a","session_id":"619be783cdabfebece6634cc","condition":"contingent","relevant_dimensions":["pattern","legs"],"bee_group":{"antennae":"X","wings":"X","pattern":"S","legs":"F"},"bonus":0.9400000000000013},{"rt":1203.2000000178814,"stimulus":"bees-with-color/bee-A2SM.svg","response":0,"trial_type":"image-button-response","trial_index":23,"time_elapsed":229944,"internal_node_id":"0.0-4.0-0.8","subject_id":"5c1cfb57e2d9150001b5975b","study_id":"6197b3f67c2b5cd3b6d9596a","session_id":"619be783cdabfebece6634cc","condition":"contingent","relevant_dimensions":["pattern","legs"],"bee_group":{"antennae":"X","wings":"X","pattern":"S","legs":"F"},"action":"harvest","summary":"good-harvest","bonus":0.9400000000000013},{"rt":997.8999999761581,"stimulus":"\n                    <p><b>Action: <em>harvest</em></b></p>\n                    <p>This is the bee that you just saw.</p>\n                    <img src=\"bees-with-color/bee-A2SM.svg\" width=\"200\">\n                    <p><span class=\"greenText\"><b>Successful harvest!</b></span><br>Your pay has increased by $0.02. Your bonus pay is now $0.54.</p>\n            ","response":0,"trial_type":"html-button-response","trial_index":24,"time_elapsed":230945,"internal_node_id":"0.0-4.0-1.8","subject_id":"5c1cfb57e2d9150001b5975b","study_id":"6197b3f67c2b5cd3b6d9596a","session_id":"619be783cdabfebece6634cc","condition":"contingent","relevant_dimensions":["pattern","legs"],"bee_group":{"antennae":"X","wings":"X","pattern":"S","legs":"F"},"bonus":0.9400000000000013},{"rt":1029,"stimulus":"bees-with-color/bee-A1SF.svg","response":0,"trial_type":"image-button-response","trial_index":25,"time_elapsed":231977,"internal_node_id":"0.0-4.0-0.9","subject_id":"5c1cfb57e2d9150001b5975b","study_id":"6197b3f67c2b5cd3b6d9596a","session_id":"619be783cdabfebece6634cc","condition":"contingent","relevant_dimensions":["pattern","legs"],"bee_group":{"antennae":"X","wings":"X","pattern":"S","legs":"F"},"action":"harvest","summary":"bad-harvest","bonus":0.9400000000000013},{"rt":948.5,"stimulus":"\n                    <p><b>Action: <em>harvest</em></b></p>\n                    <p>This is the bee that you just saw.</p>\n                    <img src=\"bees-with-color/bee-A1SF.svg\" width=\"200\">\n                    <p><span class=\"redText\">Bad choice, the bee was angry.</span><br><b>You have been stung!</b><br>Your pay has been decreased by $0.10. Your bonus pay is now $0.44.</p>\n            ","response":0,"trial_type":"html-button-response","trial_index":26,"time_elapsed":232928,"internal_node_id":"0.0-4.0-1.9","subject_id":"5c1cfb57e2d9150001b5975b","study_id":"6197b3f67c2b5cd3b6d9596a","session_id":"619be783cdabfebece6634cc","condition":"contingent","relevant_dimensions":["pattern","legs"],"bee_group":{"antennae":"X","wings":"X","pattern":"S","legs":"F"},"bonus":0.9400000000000013},{"rt":1077.5999999940395,"stimulus":"bees-with-color/bee-B1SM.svg","response":1,"trial_type":"image-button-response","trial_index":27,"time_elapsed":234009,"internal_node_id":"0.0-4.0-0.10","subject_id":"5c1cfb57e2d9150001b5975b","study_id":"6197b3f67c2b5cd3b6d9596a","session_id":"619be783cdabfebece6634cc","condition":"contingent","relevant_dimensions":["pattern","legs"],"bee_group":{"antennae":"X","wings":"X","pattern":"S","legs":"F"},"action":"avoid","summary":"bad-avoid","bonus":0.9400000000000013},{"rt":836.5999999940395,"stimulus":"\n                    <p><b>Action: <em>avoid</em></b></p>\n                    <p>This is the bee that you just saw.</p>\n                    <img src=\"bees-with-color/bee-B1SM.svg\" width=\"200\">\n                    <p><br>Your bonus pay is unchanged, and remains at $0.44.</p>\n            ","response":0,"trial_type":"html-button-response","trial_index":28,"time_elapsed":234848,"internal_node_id":"0.0-4.0-1.10","subject_id":"5c1cfb57e2d9150001b5975b","study_id":"6197b3f67c2b5cd3b6d9596a","session_id":"619be783cdabfebece6634cc","condition":"contingent","relevant_dimensions":["pattern","legs"],"bee_group":{"antennae":"X","wings":"X","pattern":"S","legs":"F"},"bonus":0.9400000000000013},{"rt":1006,"stimulus":"bees-with-color/bee-B2DF.svg","response":1,"trial_type":"image-button-response","trial_index":29,"time_elapsed":235857,"internal_node_id":"0.0-4.0-0.11","subject_id":"5c1cfb57e2d9150001b5975b","study_id":"6197b3f67c2b5cd3b6d9596a","session_id":"619be783cdabfebece6634cc","condition":"contingent","relevant_dimensions":["pattern","legs"],"bee_group":{"antennae":"X","wings":"X","pattern":"S","legs":"F"},"action":"avoid","summary":"bad-avoid","bonus":0.9400000000000013},{"rt":516.3000000119209,"stimulus":"\n                    <p><b>Action: <em>avoid</em></b></p>\n                    <p>This is the bee that you just saw.</p>\n                    <img src=\"bees-with-color/bee-B2DF.svg\" width=\"200\">\n                    <p><br>Your bonus pay is unchanged, and remains at $0.44.</p>\n            ","response":0,"trial_type":"html-button-response","trial_index":30,"time_elapsed":236376,"internal_node_id":"0.0-4.0-1.11","subject_id":"5c1cfb57e2d9150001b5975b","study_id":"6197b3f67c2b5cd3b6d9596a","session_id":"619be783cdabfebece6634cc","condition":"contingent","relevant_dimensions":["pattern","legs"],"bee_group":{"antennae":"X","wings":"X","pattern":"S","legs":"F"},"bonus":0.9400000000000013},{"rt":709.4000000059605,"stimulus":"bees-with-color/bee-B2DM.svg","response":1,"trial_type":"image-button-response","trial_index":31,"time_elapsed":237088,"internal_node_id":"0.0-4.0-0.12","subject_id":"5c1cfb57e2d9150001b5975b","study_id":"6197b3f67c2b5cd3b6d9596a","session_id":"619be783cdabfebece6634cc","condition":"contingent","relevant_dimensions":["pattern","legs"],"bee_group":{"antennae":"X","wings":"X","pattern":"S","legs":"F"},"action":"avoid","summary":"bad-avoid","bonus":0.9400000000000013},{"rt":485.7000000178814,"stimulus":"\n                    <p><b>Action: <em>avoid</em></b></p>\n                    <p>This is the bee that you just saw.</p>\n                    <img src=\"bees-with-color/bee-B2DM.svg\" width=\"200\">\n                    <p><br>Your bonus pay is unchanged, and remains at $0.44.</p>\n            ","response":0,"trial_type":"html-button-response","trial_index":32,"time_elapsed":237576,"internal_node_id":"0.0-4.0-1.12","subject_id":"5c1cfb57e2d9150001b5975b","study_id":"6197b3f67c2b5cd3b6d9596a","session_id":"619be783cdabfebece6634cc","condition":"contingent","relevant_dimensions":["pattern","legs"],"bee_group":{"antennae":"X","wings":"X","pattern":"S","legs":"F"},"bonus":0.9400000000000013},{"rt":1078.4000000059605,"stimulus":"bees-with-color/bee-A2SF.svg","response":0,"trial_type":"image-button-response","trial_index":33,"time_elapsed":238656,"internal_node_id":"0.0-4.0-0.13","subject_id":"5c1cfb57e2d9150001b5975b","study_id":"6197b3f67c2b5cd3b6d9596a","session_id":"619be783cdabfebece6634cc","condition":"contingent","relevant_dimensions":["pattern","legs"],"bee_group":{"antennae":"X","wings":"X","pattern":"S","legs":"F"},"action":"harvest","summary":"bad-harvest","bonus":0.9400000000000013},{"rt":3781.4000000059605,"stimulus":"\n                    <p><b>Action: <em>harvest</em></b></p>\n                    <p>This is the bee that you just saw.</p>\n                    <img src=\"bees-with-color/bee-A2SF.svg\" width=\"200\">\n                    <p><span class=\"redText\">Bad choice, the bee was angry.</span><br><b>You have been stung!</b><br>Your pay has been decreased by $0.10. Your bonus pay is now $0.34.</p>\n            ","response":0,"trial_type":"html-button-response","trial_index":34,"time_elapsed":242440,"internal_node_id":"0.0-4.0-1.13","subject_id":"5c1cfb57e2d9150001b5975b","study_id":"6197b3f67c2b5cd3b6d9596a","session_id":"619be783cdabfebece6634cc","condition":"contingent","relevant_dimensions":["pattern","legs"],"bee_group":{"antennae":"X","wings":"X","pattern":"S","legs":"F"},"bonus":0.9400000000000013},{"rt":942.3000000119209,"stimulus":"bees-with-color/bee-A1DF.svg","response":0,"trial_type":"image-button-response","trial_index":35,"time_elapsed":243384,"internal_node_id":"0.0-4.0-0.14","subject_id":"5c1cfb57e2d9150001b5975b","study_id":"6197b3f67c2b5cd3b6d9596a","session_id":"619be783cdabfebece6634cc","condition":"contingent","relevant_dimensions":["pattern","legs"],"bee_group":{"antennae":"X","wings":"X","pattern":"S","legs":"F"},"action":"harvest","summary":"good-harvest","bonus":0.9400000000000013},{"rt":1069.6000000238419,"stimulus":"\n                    <p><b>Action: <em>harvest</em></b></p>\n                    <p>This is the bee that you just saw.</p>\n                    <img src=\"bees-with-color/bee-A1DF.svg\" width=\"200\">\n                    <p><span class=\"greenText\"><b>Successful harvest!</b></span><br>Your pay has increased by $0.02. Your bonus pay is now $0.36.</p>\n            ","response":0,"trial_type":"html-button-response","trial_index":36,"time_elapsed":244456,"internal_node_id":"0.0-4.0-1.14","subject_id":"5c1cfb57e2d9150001b5975b","study_id":"6197b3f67c2b5cd3b6d9596a","session_id":"619be783cdabfebece6634cc","condition":"contingent","relevant_dimensions":["pattern","legs"],"bee_group":{"antennae":"X","wings":"X","pattern":"S","legs":"F"},"bonus":0.9400000000000013},{"rt":965.9000000059605,"stimulus":"bees-with-color/bee-A1DM.svg","response":0,"trial_type":"image-button-response","trial_index":37,"time_elapsed":245424,"internal_node_id":"0.0-4.0-0.15","subject_id":"5c1cfb57e2d9150001b5975b","study_id":"6197b3f67c2b5cd3b6d9596a","session_id":"619be783cdabfebece6634cc","condition":"contingent","relevant_dimensions":["pattern","legs"],"bee_group":{"antennae":"X","wings":"X","pattern":"S","legs":"F"},"action":"harvest","summary":"good-harvest","bonus":0.9400000000000013},{"rt":742.4000000059605,"stimulus":"\n                    <p><b>Action: <em>harvest</em></b></p>\n                    <p>This is the bee that you just saw.</p>\n                    <img src=\"bees-with-color/bee-A1DM.svg\" width=\"200\">\n                    <p><span class=\"greenText\"><b>Successful harvest!</b></span><br>Your pay has increased by $0.02. Your bonus pay is now $0.38.</p>\n            ","response":0,"trial_type":"html-button-response","trial_index":38,"time_elapsed":246169,"internal_node_id":"0.0-4.0-1.15","subject_id":"5c1cfb57e2d9150001b5975b","study_id":"6197b3f67c2b5cd3b6d9596a","session_id":"619be783cdabfebece6634cc","condition":"contingent","relevant_dimensions":["pattern","legs"],"bee_group":{"antennae":"X","wings":"X","pattern":"S","legs":"F"},"bonus":0.9400000000000013},{"rt":1517.2999999821186,"stimulus":"bees-with-color/bee-A1SM.svg","response":1,"trial_type":"image-button-response","trial_index":39,"time_elapsed":247688,"internal_node_id":"0.0-4.0-0.16","subject_id":"5c1cfb57e2d9150001b5975b","study_id":"6197b3f67c2b5cd3b6d9596a","session_id":"619be783cdabfebece6634cc","condition":"contingent","relevant_dimensions":["pattern","legs"],"bee_group":{"antennae":"X","wings":"X","pattern":"S","legs":"F"},"action":"avoid","summary":"bad-avoid","bonus":0.9400000000000013},{"rt":869.8999999761581,"stimulus":"\n                    <p><b>Action: <em>avoid</em></b></p>\n                    <p>This is the bee that you just saw.</p>\n                    <img src=\"bees-with-color/bee-A1SM.svg\" width=\"200\">\n                    <p><br>Your bonus pay is unchanged, and remains at $0.38.</p>\n            ","response":0,"trial_type":"html-button-response","trial_index":40,"time_elapsed":248560,"internal_node_id":"0.0-4.0-1.16","subject_id":"5c1cfb57e2d9150001b5975b","study_id":"6197b3f67c2b5cd3b6d9596a","session_id":"619be783cdabfebece6634cc","condition":"contingent","relevant_dimensions":["pattern","legs"],"bee_group":{"antennae":"X","wings":"X","pattern":"S","legs":"F"},"bonus":0.9400000000000013},{"rt":1766.300000011921,"stimulus":"bees-with-color/bee-A1DM.svg","response":0,"trial_type":"image-button-response","trial_index":41,"time_elapsed":250328,"internal_node_id":"0.0-4.0-0.17","subject_id":"5c1cfb57e2d9150001b5975b","study_id":"6197b3f67c2b5cd3b6d9596a","session_id":"619be783cdabfebece6634cc","condition":"contingent","relevant_dimensions":["pattern","legs"],"bee_group":{"antennae":"X","wings":"X","pattern":"S","legs":"F"},"action":"harvest","summary":"good-harvest","bonus":0.9400000000000013},{"rt":2646,"stimulus":"\n                    <p><b>Action: <em>harvest</em></b></p>\n                    <p>This is the bee that you just saw.</p>\n                    <img src=\"bees-with-color/bee-A1DM.svg\" width=\"200\">\n                    <p><span class=\"greenText\"><b>Successful harvest!</b></span><br>Your pay has increased by $0.02. Your bonus pay is now $0.40.</p>\n            ","response":0,"trial_type":"html-button-response","trial_index":42,"time_elapsed":252976,"internal_node_id":"0.0-4.0-1.17","subject_id":"5c1cfb57e2d9150001b5975b","study_id":"6197b3f67c2b5cd3b6d9596a","session_id":"619be783cdabfebece6634cc","condition":"contingent","relevant_dimensions":["pattern","legs"],"bee_group":{"antennae":"X","wings":"X","pattern":"S","legs":"F"},"bonus":0.9400000000000013},{"rt":1659.7999999821186,"stimulus":"bees-with-color/bee-B2DM.svg","response":1,"trial_type":"image-button-response","trial_index":43,"time_elapsed":254640,"internal_node_id":"0.0-4.0-0.18","subject_id":"5c1cfb57e2d9150001b5975b","study_id":"6197b3f67c2b5cd3b6d9596a","session_id":"619be783cdabfebece6634cc","condition":"contingent","relevant_dimensions":["pattern","legs"],"bee_group":{"antennae":"X","wings":"X","pattern":"S","legs":"F"},"action":"avoid","summary":"bad-avoid","bonus":0.9400000000000013},{"rt":621.9000000059605,"stimulus":"\n                    <p><b>Action: <em>avoid</em></b></p>\n                    <p>This is the bee that you just saw.</p>\n                    <img src=\"bees-with-color/bee-B2DM.svg\" width=\"200\">\n                    <p><br>Your bonus pay is unchanged, and remains at $0.40.</p>\n            ","response":0,"trial_type":"html-button-response","trial_index":44,"time_elapsed":255264,"internal_node_id":"0.0-4.0-1.18","subject_id":"5c1cfb57e2d9150001b5975b","study_id":"6197b3f67c2b5cd3b6d9596a","session_id":"619be783cdabfebece6634cc","condition":"contingent","relevant_dimensions":["pattern","legs"],"bee_group":{"antennae":"X","wings":"X","pattern":"S","legs":"F"},"bonus":0.9400000000000013},{"rt":1581.5999999940395,"stimulus":"bees-with-color/bee-A2SM.svg","response":1,"trial_type":"image-button-response","trial_index":45,"time_elapsed":256849,"internal_node_id":"0.0-4.0-0.19","subject_id":"5c1cfb57e2d9150001b5975b","study_id":"6197b3f67c2b5cd3b6d9596a","session_id":"619be783cdabfebece6634cc","condition":"contingent","relevant_dimensions":["pattern","legs"],"bee_group":{"antennae":"X","wings":"X","pattern":"S","legs":"F"},"action":"avoid","summary":"bad-avoid","bonus":0.9400000000000013},{"rt":653.5,"stimulus":"\n                    <p><b>Action: <em>avoid</em></b></p>\n                    <p>This is the bee that you just saw.</p>\n                    <img src=\"bees-with-color/bee-A2SM.svg\" width=\"200\">\n                    <p><br>Your bonus pay is unchanged, and remains at $0.40.</p>\n            ","response":0,"trial_type":"html-button-response","trial_index":46,"time_elapsed":257504,"internal_node_id":"0.0-4.0-1.19","subject_id":"5c1cfb57e2d9150001b5975b","study_id":"6197b3f67c2b5cd3b6d9596a","session_id":"619be783cdabfebece6634cc","condition":"contingent","relevant_dimensions":["pattern","legs"],"bee_group":{"antennae":"X","wings":"X","pattern":"S","legs":"F"},"bonus":0.9400000000000013},{"rt":1309.2000000178814,"stimulus":"bees-with-color/bee-B2SM.svg","response":1,"trial_type":"image-button-response","trial_index":47,"time_elapsed":258816,"internal_node_id":"0.0-4.0-0.20","subject_id":"5c1cfb57e2d9150001b5975b","study_id":"6197b3f67c2b5cd3b6d9596a","session_id":"619be783cdabfebece6634cc","condition":"contingent","relevant_dimensions":["pattern","legs"],"bee_group":{"antennae":"X","wings":"X","pattern":"S","legs":"F"},"action":"avoid","summary":"bad-avoid","bonus":0.9400000000000013},{"rt":565.8000000119209,"stimulus":"\n                    <p><b>Action: <em>avoid</em></b></p>\n                    <p>This is the bee that you just saw.</p>\n                    <img src=\"bees-with-color/bee-B2SM.svg\" width=\"200\">\n                    <p><br>Your bonus pay is unchanged, and remains at $0.40.</p>\n            ","response":0,"trial_type":"html-button-response","trial_index":48,"time_elapsed":259385,"internal_node_id":"0.0-4.0-1.20","subject_id":"5c1cfb57e2d9150001b5975b","study_id":"6197b3f67c2b5cd3b6d9596a","session_id":"619be783cdabfebece6634cc","condition":"contingent","relevant_dimensions":["pattern","legs"],"bee_group":{"antennae":"X","wings":"X","pattern":"S","legs":"F"},"bonus":0.9400000000000013},{"rt":1292.699999988079,"stimulus":"bees-with-color/bee-A2SF.svg","response":0,"trial_type":"image-button-response","trial_index":49,"time_elapsed":260680,"internal_node_id":"0.0-4.0-0.21","subject_id":"5c1cfb57e2d9150001b5975b","study_id":"6197b3f67c2b5cd3b6d9596a","session_id":"619be783cdabfebece6634cc","condition":"contingent","relevant_dimensions":["pattern","legs"],"bee_group":{"antennae":"X","wings":"X","pattern":"S","legs":"F"},"action":"harvest","summary":"bad-harvest","bonus":0.9400000000000013},{"rt":901.5,"stimulus":"\n                    <p><b>Action: <em>harvest</em></b></p>\n                    <p>This is the bee that you just saw.</p>\n                    <img src=\"bees-with-color/bee-A2SF.svg\" width=\"200\">\n                    <p><span class=\"redText\">Bad choice, the bee was angry.</span><br><b>You have been stung!</b><br>Your pay has been decreased by $0.10. Your bonus pay is now $0.30.</p>\n            ","response":0,"trial_type":"html-button-response","trial_index":50,"time_elapsed":261584,"internal_node_id":"0.0-4.0-1.21","subject_id":"5c1cfb57e2d9150001b5975b","study_id":"6197b3f67c2b5cd3b6d9596a","session_id":"619be783cdabfebece6634cc","condition":"contingent","relevant_dimensions":["pattern","legs"],"bee_group":{"antennae":"X","wings":"X","pattern":"S","legs":"F"},"bonus":0.9400000000000013},{"rt":1325.5,"stimulus":"bees-with-color/bee-B1SM.svg","response":0,"trial_type":"image-button-response","trial_index":51,"time_elapsed":262913,"internal_node_id":"0.0-4.0-0.22","subject_id":"5c1cfb57e2d9150001b5975b","study_id":"6197b3f67c2b5cd3b6d9596a","session_id":"619be783cdabfebece6634cc","condition":"contingent","relevant_dimensions":["pattern","legs"],"bee_group":{"antennae":"X","wings":"X","pattern":"S","legs":"F"},"action":"harvest","summary":"good-harvest","bonus":0.9400000000000013},{"rt":1788.9000000059605,"stimulus":"\n                    <p><b>Action: <em>harvest</em></b></p>\n                    <p>This is the bee that you just saw.</p>\n                    <img src=\"bees-with-color/bee-B1SM.svg\" width=\"200\">\n                    <p><span class=\"greenText\"><b>Successful harvest!</b></span><br>Your pay has increased by $0.02. Your bonus pay is now $0.32.</p>\n            ","response":0,"trial_type":"html-button-response","trial_index":52,"time_elapsed":264704,"internal_node_id":"0.0-4.0-1.22","subject_id":"5c1cfb57e2d9150001b5975b","study_id":"6197b3f67c2b5cd3b6d9596a","session_id":"619be783cdabfebece6634cc","condition":"contingent","relevant_dimensions":["pattern","legs"],"bee_group":{"antennae":"X","wings":"X","pattern":"S","legs":"F"},"bonus":0.9400000000000013},{"rt":1493.6000000238419,"stimulus":"bees-with-color/bee-B2SF.svg","response":1,"trial_type":"image-button-response","trial_index":53,"time_elapsed":266200,"internal_node_id":"0.0-4.0-0.23","subject_id":"5c1cfb57e2d9150001b5975b","study_id":"6197b3f67c2b5cd3b6d9596a","session_id":"619be783cdabfebece6634cc","condition":"contingent","relevant_dimensions":["pattern","legs"],"bee_group":{"antennae":"X","wings":"X","pattern":"S","legs":"F"},"action":"avoid","summary":"good-avoid","bonus":0.9400000000000013},{"rt":725.6999999880791,"stimulus":"\n                    <p><b>Action: <em>avoid</em></b></p>\n                    <p>This is the bee that you just saw.</p>\n                    <img src=\"bees-with-color/bee-B2SF.svg\" width=\"200\">\n                    <p><br>Your bonus pay is unchanged, and remains at $0.32.</p>\n            ","response":0,"trial_type":"html-button-response","trial_index":54,"time_elapsed":266929,"internal_node_id":"0.0-4.0-1.23","subject_id":"5c1cfb57e2d9150001b5975b","study_id":"6197b3f67c2b5cd3b6d9596a","session_id":"619be783cdabfebece6634cc","condition":"contingent","relevant_dimensions":["pattern","legs"],"bee_group":{"antennae":"X","wings":"X","pattern":"S","legs":"F"},"bonus":0.9400000000000013},{"rt":1413.699999988079,"stimulus":"bees-with-color/bee-A1DF.svg","response":0,"trial_type":"image-button-response","trial_index":55,"time_elapsed":268345,"internal_node_id":"0.0-4.0-0.24","subject_id":"5c1cfb57e2d9150001b5975b","study_id":"6197b3f67c2b5cd3b6d9596a","session_id":"619be783cdabfebece6634cc","condition":"contingent","relevant_dimensions":["pattern","legs"],"bee_group":{"antennae":"X","wings":"X","pattern":"S","legs":"F"},"action":"harvest","summary":"good-harvest","bonus":0.9400000000000013},{"rt":1061.199999988079,"stimulus":"\n                    <p><b>Action: <em>harvest</em></b></p>\n                    <p>This is the bee that you just saw.</p>\n                    <img src=\"bees-with-color/bee-A1DF.svg\" width=\"200\">\n                    <p><span class=\"greenText\"><b>Successful harvest!</b></span><br>Your pay has increased by $0.02. Your bonus pay is now $0.34.</p>\n            ","response":0,"trial_type":"html-button-response","trial_index":56,"time_elapsed":269408,"internal_node_id":"0.0-4.0-1.24","subject_id":"5c1cfb57e2d9150001b5975b","study_id":"6197b3f67c2b5cd3b6d9596a","session_id":"619be783cdabfebece6634cc","condition":"contingent","relevant_dimensions":["pattern","legs"],"bee_group":{"antennae":"X","wings":"X","pattern":"S","legs":"F"},"bonus":0.9400000000000013},{"rt":1134,"stimulus":"bees-with-color/bee-A2DF.svg","response":0,"trial_type":"image-button-response","trial_index":57,"time_elapsed":270545,"internal_node_id":"0.0-4.0-0.25","subject_id":"5c1cfb57e2d9150001b5975b","study_id":"6197b3f67c2b5cd3b6d9596a","session_id":"619be783cdabfebece6634cc","condition":"contingent","relevant_dimensions":["pattern","legs"],"bee_group":{"antennae":"X","wings":"X","pattern":"S","legs":"F"},"action":"harvest","summary":"good-harvest","bonus":0.9400000000000013},{"rt":932.9000000059605,"stimulus":"\n                    <p><b>Action: <em>harvest</em></b></p>\n                    <p>This is the bee that you just saw.</p>\n                    <img src=\"bees-with-color/bee-A2DF.svg\" width=\"200\">\n                    <p><span class=\"greenText\"><b>Successful harvest!</b></span><br>Your pay has increased by $0.02. Your bonus pay is now $0.36.</p>\n            ","response":0,"trial_type":"html-button-response","trial_index":58,"time_elapsed":271482,"internal_node_id":"0.0-4.0-1.25","subject_id":"5c1cfb57e2d9150001b5975b","study_id":"6197b3f67c2b5cd3b6d9596a","session_id":"619be783cdabfebece6634cc","condition":"contingent","relevant_dimensions":["pattern","legs"],"bee_group":{"antennae":"X","wings":"X","pattern":"S","legs":"F"},"bonus":0.9400000000000013},{"rt":1484.0999999940395,"stimulus":"bees-with-color/bee-B1DM.svg","response":1,"trial_type":"image-button-response","trial_index":59,"time_elapsed":272968,"internal_node_id":"0.0-4.0-0.26","subject_id":"5c1cfb57e2d9150001b5975b","study_id":"6197b3f67c2b5cd3b6d9596a","session_id":"619be783cdabfebece6634cc","condition":"contingent","relevant_dimensions":["pattern","legs"],"bee_group":{"antennae":"X","wings":"X","pattern":"S","legs":"F"},"action":"avoid","summary":"bad-avoid","bonus":0.9400000000000013},{"rt":813.9000000059605,"stimulus":"\n                    <p><b>Action: <em>avoid</em></b></p>\n                    <p>This is the bee that you just saw.</p>\n                    <img src=\"bees-with-color/bee-B1DM.svg\" width=\"200\">\n                    <p><br>Your bonus pay is unchanged, and remains at $0.36.</p>\n            ","response":0,"trial_type":"html-button-response","trial_index":60,"time_elapsed":273785,"internal_node_id":"0.0-4.0-1.26","subject_id":"5c1cfb57e2d9150001b5975b","study_id":"6197b3f67c2b5cd3b6d9596a","session_id":"619be783cdabfebece6634cc","condition":"contingent","relevant_dimensions":["pattern","legs"],"bee_group":{"antennae":"X","wings":"X","pattern":"S","legs":"F"},"bonus":0.9400000000000013},{"rt":1532.5999999940395,"stimulus":"bees-with-color/bee-B1DF.svg","response":0,"trial_type":"image-button-response","trial_index":61,"time_elapsed":275321,"internal_node_id":"0.0-4.0-0.27","subject_id":"5c1cfb57e2d9150001b5975b","study_id":"6197b3f67c2b5cd3b6d9596a","session_id":"619be783cdabfebece6634cc","condition":"contingent","relevant_dimensions":["pattern","legs"],"bee_group":{"antennae":"X","wings":"X","pattern":"S","legs":"F"},"action":"harvest","summary":"good-harvest","bonus":0.9400000000000013},{"rt":1069.2999999821186,"stimulus":"\n                    <p><b>Action: <em>harvest</em></b></p>\n                    <p>This is the bee that you just saw.</p>\n                    <img src=\"bees-with-color/bee-B1DF.svg\" width=\"200\">\n                    <p><span class=\"greenText\"><b>Successful harvest!</b></span><br>Your pay has increased by $0.02. Your bonus pay is now $0.38.</p>\n            ","response":0,"trial_type":"html-button-response","trial_index":62,"time_elapsed":276393,"internal_node_id":"0.0-4.0-1.27","subject_id":"5c1cfb57e2d9150001b5975b","study_id":"6197b3f67c2b5cd3b6d9596a","session_id":"619be783cdabfebece6634cc","condition":"contingent","relevant_dimensions":["pattern","legs"],"bee_group":{"antennae":"X","wings":"X","pattern":"S","legs":"F"},"bonus":0.9400000000000013},{"rt":1197.5,"stimulus":"bees-with-color/bee-A1SF.svg","response":1,"trial_type":"image-button-response","trial_index":63,"time_elapsed":277593,"internal_node_id":"0.0-4.0-0.28","subject_id":"5c1cfb57e2d9150001b5975b","study_id":"6197b3f67c2b5cd3b6d9596a","session_id":"619be783cdabfebece6634cc","condition":"contingent","relevant_dimensions":["pattern","legs"],"bee_group":{"antennae":"X","wings":"X","pattern":"S","legs":"F"},"action":"avoid","summary":"good-avoid","bonus":0.9400000000000013},{"rt":741.0999999940395,"stimulus":"\n                    <p><b>Action: <em>avoid</em></b></p>\n                    <p>This is the bee that you just saw.</p>\n                    <img src=\"bees-with-color/bee-A1SF.svg\" width=\"200\">\n                    <p><br>Your bonus pay is unchanged, and remains at $0.38.</p>\n            ","response":0,"trial_type":"html-button-response","trial_index":64,"time_elapsed":278336,"internal_node_id":"0.0-4.0-1.28","subject_id":"5c1cfb57e2d9150001b5975b","study_id":"6197b3f67c2b5cd3b6d9596a","session_id":"619be783cdabfebece6634cc","condition":"contingent","relevant_dimensions":["pattern","legs"],"bee_group":{"antennae":"X","wings":"X","pattern":"S","legs":"F"},"bonus":0.9400000000000013},{"rt":1045.5,"stimulus":"bees-with-color/bee-B2DF.svg","response":0,"trial_type":"image-button-response","trial_index":65,"time_elapsed":279384,"internal_node_id":"0.0-4.0-0.29","subject_id":"5c1cfb57e2d9150001b5975b","study_id":"6197b3f67c2b5cd3b6d9596a","session_id":"619be783cdabfebece6634cc","condition":"contingent","relevant_dimensions":["pattern","legs"],"bee_group":{"antennae":"X","wings":"X","pattern":"S","legs":"F"},"action":"harvest","summary":"good-harvest","bonus":0.9400000000000013},{"rt":757,"stimulus":"\n                    <p><b>Action: <em>harvest</em></b></p>\n                    <p>This is the bee that you just saw.</p>\n                    <img src=\"bees-with-color/bee-B2DF.svg\" width=\"200\">\n                    <p><span class=\"greenText\"><b>Successful harvest!</b></span><br>Your pay has increased by $0.02. Your bonus pay is now $0.40.</p>\n            ","response":0,"trial_type":"html-button-response","trial_index":66,"time_elapsed":280144,"internal_node_id":"0.0-4.0-1.29","subject_id":"5c1cfb57e2d9150001b5975b","study_id":"6197b3f67c2b5cd3b6d9596a","session_id":"619be783cdabfebece6634cc","condition":"contingent","relevant_dimensions":["pattern","legs"],"bee_group":{"antennae":"X","wings":"X","pattern":"S","legs":"F"},"bonus":0.9400000000000013},{"rt":1076.9000000059605,"stimulus":"bees-with-color/bee-B1SF.svg","response":1,"trial_type":"image-button-response","trial_index":67,"time_elapsed":281225,"internal_node_id":"0.0-4.0-0.30","subject_id":"5c1cfb57e2d9150001b5975b","study_id":"6197b3f67c2b5cd3b6d9596a","session_id":"619be783cdabfebece6634cc","condition":"contingent","relevant_dimensions":["pattern","legs"],"bee_group":{"antennae":"X","wings":"X","pattern":"S","legs":"F"},"action":"avoid","summary":"good-avoid","bonus":0.9400000000000013},{"rt":826.5999999940395,"stimulus":"\n                    <p><b>Action: <em>avoid</em></b></p>\n                    <p>This is the bee that you just saw.</p>\n                    <img src=\"bees-with-color/bee-B1SF.svg\" width=\"200\">\n                    <p><br>Your bonus pay is unchanged, and remains at $0.40.</p>\n            ","response":0,"trial_type":"html-button-response","trial_index":68,"time_elapsed":282056,"internal_node_id":"0.0-4.0-1.30","subject_id":"5c1cfb57e2d9150001b5975b","study_id":"6197b3f67c2b5cd3b6d9596a","session_id":"619be783cdabfebece6634cc","condition":"contingent","relevant_dimensions":["pattern","legs"],"bee_group":{"antennae":"X","wings":"X","pattern":"S","legs":"F"},"bonus":0.9400000000000013},{"rt":1286.300000011921,"stimulus":"bees-with-color/bee-A2DM.svg","response":0,"trial_type":"image-button-response","trial_index":69,"time_elapsed":283344,"internal_node_id":"0.0-4.0-0.31","subject_id":"5c1cfb57e2d9150001b5975b","study_id":"6197b3f67c2b5cd3b6d9596a","session_id":"619be783cdabfebece6634cc","condition":"contingent","relevant_dimensions":["pattern","legs"],"bee_group":{"antennae":"X","wings":"X","pattern":"S","legs":"F"},"action":"harvest","summary":"good-harvest","bonus":0.9400000000000013},{"rt":1149.4000000059605,"stimulus":"\n                    <p><b>Action: <em>harvest</em></b></p>\n                    <p>This is the bee that you just saw.</p>\n                    <img src=\"bees-with-color/bee-A2DM.svg\" width=\"200\">\n                    <p><span class=\"greenText\"><b>Successful harvest!</b></span><br>Your pay has increased by $0.02. Your bonus pay is now $0.42.</p>\n            ","response":0,"trial_type":"html-button-response","trial_index":70,"time_elapsed":284496,"internal_node_id":"0.0-4.0-1.31","subject_id":"5c1cfb57e2d9150001b5975b","study_id":"6197b3f67c2b5cd3b6d9596a","session_id":"619be783cdabfebece6634cc","condition":"contingent","relevant_dimensions":["pattern","legs"],"bee_group":{"antennae":"X","wings":"X","pattern":"S","legs":"F"},"bonus":0.9400000000000013},{"rt":1118.5999999940395,"stimulus":"bees-with-color/bee-B2DM.svg","response":0,"trial_type":"image-button-response","trial_index":71,"time_elapsed":285616,"internal_node_id":"0.0-4.0-0.32","subject_id":"5c1cfb57e2d9150001b5975b","study_id":"6197b3f67c2b5cd3b6d9596a","session_id":"619be783cdabfebece6634cc","condition":"contingent","relevant_dimensions":["pattern","legs"],"bee_group":{"antennae":"X","wings":"X","pattern":"S","legs":"F"},"action":"harvest","summary":"good-harvest","bonus":0.9400000000000013},{"rt":797.9000000059605,"stimulus":"\n                    <p><b>Action: <em>harvest</em></b></p>\n                    <p>This is the bee that you just saw.</p>\n                    <img src=\"bees-with-color/bee-B2DM.svg\" width=\"200\">\n                    <p><span class=\"greenText\"><b>Successful harvest!</b></span><br>Your pay has increased by $0.02. Your bonus pay is now $0.44.</p>\n            ","response":0,"trial_type":"html-button-response","trial_index":72,"time_elapsed":286416,"internal_node_id":"0.0-4.0-1.32","subject_id":"5c1cfb57e2d9150001b5975b","study_id":"6197b3f67c2b5cd3b6d9596a","session_id":"619be783cdabfebece6634cc","condition":"contingent","relevant_dimensions":["pattern","legs"],"bee_group":{"antennae":"X","wings":"X","pattern":"S","legs":"F"},"bonus":0.9400000000000013},{"rt":1573.7999999821186,"stimulus":"bees-with-color/bee-B1SM.svg","response":1,"trial_type":"image-button-response","trial_index":73,"time_elapsed":287992,"internal_node_id":"0.0-4.0-0.33","subject_id":"5c1cfb57e2d9150001b5975b","study_id":"6197b3f67c2b5cd3b6d9596a","session_id":"619be783cdabfebece6634cc","condition":"contingent","relevant_dimensions":["pattern","legs"],"bee_group":{"antennae":"X","wings":"X","pattern":"S","legs":"F"},"action":"avoid","summary":"bad-avoid","bonus":0.9400000000000013},{"rt":573.8000000119209,"stimulus":"\n                    <p><b>Action: <em>avoid</em></b></p>\n                    <p>This is the bee that you just saw.</p>\n                    <img src=\"bees-with-color/bee-B1SM.svg\" width=\"200\">\n                    <p><br>Your bonus pay is unchanged, and remains at $0.44.</p>\n            ","response":0,"trial_type":"html-button-response","trial_index":74,"time_elapsed":288568,"internal_node_id":"0.0-4.0-1.33","subject_id":"5c1cfb57e2d9150001b5975b","study_id":"6197b3f67c2b5cd3b6d9596a","session_id":"619be783cdabfebece6634cc","condition":"contingent","relevant_dimensions":["pattern","legs"],"bee_group":{"antennae":"X","wings":"X","pattern":"S","legs":"F"},"bonus":0.9400000000000013},{"rt":1582.5,"stimulus":"bees-with-color/bee-A2DM.svg","response":0,"trial_type":"image-button-response","trial_index":75,"time_elapsed":290153,"internal_node_id":"0.0-4.0-0.34","subject_id":"5c1cfb57e2d9150001b5975b","study_id":"6197b3f67c2b5cd3b6d9596a","session_id":"619be783cdabfebece6634cc","condition":"contingent","relevant_dimensions":["pattern","legs"],"bee_group":{"antennae":"X","wings":"X","pattern":"S","legs":"F"},"action":"harvest","summary":"good-harvest","bonus":0.9400000000000013},{"rt":661.3000000119209,"stimulus":"\n                    <p><b>Action: <em>harvest</em></b></p>\n                    <p>This is the bee that you just saw.</p>\n                    <img src=\"bees-with-color/bee-A2DM.svg\" width=\"200\">\n                    <p><span class=\"greenText\"><b>Successful harvest!</b></span><br>Your pay has increased by $0.02. Your bonus pay is now $0.46.</p>\n            ","response":0,"trial_type":"html-button-response","trial_index":76,"time_elapsed":290816,"internal_node_id":"0.0-4.0-1.34","subject_id":"5c1cfb57e2d9150001b5975b","study_id":"6197b3f67c2b5cd3b6d9596a","session_id":"619be783cdabfebece6634cc","condition":"contingent","relevant_dimensions":["pattern","legs"],"bee_group":{"antennae":"X","wings":"X","pattern":"S","legs":"F"},"bonus":0.9400000000000013},{"rt":1893.800000011921,"stimulus":"bees-with-color/bee-B1SF.svg","response":1,"trial_type":"image-button-response","trial_index":77,"time_elapsed":292712,"internal_node_id":"0.0-4.0-0.35","subject_id":"5c1cfb57e2d9150001b5975b","study_id":"6197b3f67c2b5cd3b6d9596a","session_id":"619be783cdabfebece6634cc","condition":"contingent","relevant_dimensions":["pattern","legs"],"bee_group":{"antennae":"X","wings":"X","pattern":"S","legs":"F"},"action":"avoid","summary":"good-avoid","bonus":0.9400000000000013},{"rt":453.2999999821186,"stimulus":"\n                    <p><b>Action: <em>avoid</em></b></p>\n                    <p>This is the bee that you just saw.</p>\n                    <img src=\"bees-with-color/bee-B1SF.svg\" width=\"200\">\n                    <p><br>Your bonus pay is unchanged, and remains at $0.46.</p>\n            ","response":0,"trial_type":"html-button-response","trial_index":78,"time_elapsed":293168,"internal_node_id":"0.0-4.0-1.35","subject_id":"5c1cfb57e2d9150001b5975b","study_id":"6197b3f67c2b5cd3b6d9596a","session_id":"619be783cdabfebece6634cc","condition":"contingent","relevant_dimensions":["pattern","legs"],"bee_group":{"antennae":"X","wings":"X","pattern":"S","legs":"F"},"bonus":0.9400000000000013},{"rt":2118.4000000059605,"stimulus":"bees-with-color/bee-A1DM.svg","response":0,"trial_type":"image-button-response","trial_index":79,"time_elapsed":295288,"internal_node_id":"0.0-4.0-0.36","subject_id":"5c1cfb57e2d9150001b5975b","study_id":"6197b3f67c2b5cd3b6d9596a","session_id":"619be783cdabfebece6634cc","condition":"contingent","relevant_dimensions":["pattern","legs"],"bee_group":{"antennae":"X","wings":"X","pattern":"S","legs":"F"},"action":"harvest","summary":"good-harvest","bonus":0.9400000000000013},{"rt":837.6000000238419,"stimulus":"\n                    <p><b>Action: <em>harvest</em></b></p>\n                    <p>This is the bee that you just saw.</p>\n                    <img src=\"bees-with-color/bee-A1DM.svg\" width=\"200\">\n                    <p><span class=\"greenText\"><b>Successful harvest!</b></span><br>Your pay has increased by $0.02. Your bonus pay is now $0.48.</p>\n            ","response":0,"trial_type":"html-button-response","trial_index":80,"time_elapsed":296128,"internal_node_id":"0.0-4.0-1.36","subject_id":"5c1cfb57e2d9150001b5975b","study_id":"6197b3f67c2b5cd3b6d9596a","session_id":"619be783cdabfebece6634cc","condition":"contingent","relevant_dimensions":["pattern","legs"],"bee_group":{"antennae":"X","wings":"X","pattern":"S","legs":"F"},"bonus":0.9400000000000013},{"rt":1093.300000011921,"stimulus":"bees-with-color/bee-A1DF.svg","response":0,"trial_type":"image-button-response","trial_index":81,"time_elapsed":297224,"internal_node_id":"0.0-4.0-0.37","subject_id":"5c1cfb57e2d9150001b5975b","study_id":"6197b3f67c2b5cd3b6d9596a","session_id":"619be783cdabfebece6634cc","condition":"contingent","relevant_dimensions":["pattern","legs"],"bee_group":{"antennae":"X","wings":"X","pattern":"S","legs":"F"},"action":"harvest","summary":"good-harvest","bonus":0.9400000000000013},{"rt":654.5,"stimulus":"\n                    <p><b>Action: <em>harvest</em></b></p>\n                    <p>This is the bee that you just saw.</p>\n                    <img src=\"bees-with-color/bee-A1DF.svg\" width=\"200\">\n                    <p><span class=\"greenText\"><b>Successful harvest!</b></span><br>Your pay has increased by $0.02. Your bonus pay is now $0.50.</p>\n            ","response":0,"trial_type":"html-button-response","trial_index":82,"time_elapsed":297881,"internal_node_id":"0.0-4.0-1.37","subject_id":"5c1cfb57e2d9150001b5975b","study_id":"6197b3f67c2b5cd3b6d9596a","session_id":"619be783cdabfebece6634cc","condition":"contingent","relevant_dimensions":["pattern","legs"],"bee_group":{"antennae":"X","wings":"X","pattern":"S","legs":"F"},"bonus":0.9400000000000013},{"rt":1077,"stimulus":"bees-with-color/bee-B1DM.svg","response":0,"trial_type":"image-button-response","trial_index":83,"time_elapsed":298960,"internal_node_id":"0.0-4.0-0.38","subject_id":"5c1cfb57e2d9150001b5975b","study_id":"6197b3f67c2b5cd3b6d9596a","session_id":"619be783cdabfebece6634cc","condition":"contingent","relevant_dimensions":["pattern","legs"],"bee_group":{"antennae":"X","wings":"X","pattern":"S","legs":"F"},"action":"harvest","summary":"good-harvest","bonus":0.9400000000000013},{"rt":701.7000000178814,"stimulus":"\n                    <p><b>Action: <em>harvest</em></b></p>\n                    <p>This is the bee that you just saw.</p>\n                    <img src=\"bees-with-color/bee-B1DM.svg\" width=\"200\">\n                    <p><span class=\"greenText\"><b>Successful harvest!</b></span><br>Your pay has increased by $0.02. Your bonus pay is now $0.52.</p>\n            ","response":0,"trial_type":"html-button-response","trial_index":84,"time_elapsed":299664,"internal_node_id":"0.0-4.0-1.38","subject_id":"5c1cfb57e2d9150001b5975b","study_id":"6197b3f67c2b5cd3b6d9596a","session_id":"619be783cdabfebece6634cc","condition":"contingent","relevant_dimensions":["pattern","legs"],"bee_group":{"antennae":"X","wings":"X","pattern":"S","legs":"F"},"bonus":0.9400000000000013},{"rt":1086.2999999821186,"stimulus":"bees-with-color/bee-A2SF.svg","response":0,"trial_type":"image-button-response","trial_index":85,"time_elapsed":300752,"internal_node_id":"0.0-4.0-0.39","subject_id":"5c1cfb57e2d9150001b5975b","study_id":"6197b3f67c2b5cd3b6d9596a","session_id":"619be783cdabfebece6634cc","condition":"contingent","relevant_dimensions":["pattern","legs"],"bee_group":{"antennae":"X","wings":"X","pattern":"S","legs":"F"},"action":"harvest","summary":"bad-harvest","bonus":0.9400000000000013},{"rt":749.4000000059605,"stimulus":"\n                    <p><b>Action: <em>harvest</em></b></p>\n                    <p>This is the bee that you just saw.</p>\n                    <img src=\"bees-with-color/bee-A2SF.svg\" width=\"200\">\n                    <p><span class=\"redText\">Bad choice, the bee was angry.</span><br><b>You have been stung!</b><br>Your pay has been decreased by $0.10. Your bonus pay is now $0.42.</p>\n            ","response":0,"trial_type":"html-button-response","trial_index":86,"time_elapsed":301504,"internal_node_id":"0.0-4.0-1.39","subject_id":"5c1cfb57e2d9150001b5975b","study_id":"6197b3f67c2b5cd3b6d9596a","session_id":"619be783cdabfebece6634cc","condition":"contingent","relevant_dimensions":["pattern","legs"],"bee_group":{"antennae":"X","wings":"X","pattern":"S","legs":"F"},"bonus":0.9400000000000013},{"rt":2181.5999999940395,"stimulus":"bees-with-color/bee-B2SM.svg","response":0,"trial_type":"image-button-response","trial_index":87,"time_elapsed":303688,"internal_node_id":"0.0-4.0-0.40","subject_id":"5c1cfb57e2d9150001b5975b","study_id":"6197b3f67c2b5cd3b6d9596a","session_id":"619be783cdabfebece6634cc","condition":"contingent","relevant_dimensions":["pattern","legs"],"bee_group":{"antennae":"X","wings":"X","pattern":"S","legs":"F"},"action":"harvest","summary":"good-harvest","bonus":0.9400000000000013},{"rt":781.5999999940395,"stimulus":"\n                    <p><b>Action: <em>harvest</em></b></p>\n                    <p>This is the bee that you just saw.</p>\n                    <img src=\"bees-with-color/bee-B2SM.svg\" width=\"200\">\n                    <p><span class=\"greenText\"><b>Successful harvest!</b></span><br>Your pay has increased by $0.02. Your bonus pay is now $0.44.</p>\n            ","response":0,"trial_type":"html-button-response","trial_index":88,"time_elapsed":304472,"internal_node_id":"0.0-4.0-1.40","subject_id":"5c1cfb57e2d9150001b5975b","study_id":"6197b3f67c2b5cd3b6d9596a","session_id":"619be783cdabfebece6634cc","condition":"contingent","relevant_dimensions":["pattern","legs"],"bee_group":{"antennae":"X","wings":"X","pattern":"S","legs":"F"},"bonus":0.9400000000000013},{"rt":1021,"stimulus":"bees-with-color/bee-A2SM.svg","response":0,"trial_type":"image-button-response","trial_index":89,"time_elapsed":305496,"internal_node_id":"0.0-4.0-0.41","subject_id":"5c1cfb57e2d9150001b5975b","study_id":"6197b3f67c2b5cd3b6d9596a","session_id":"619be783cdabfebece6634cc","condition":"contingent","relevant_dimensions":["pattern","legs"],"bee_group":{"antennae":"X","wings":"X","pattern":"S","legs":"F"},"action":"harvest","summary":"good-harvest","bonus":0.9400000000000013},{"rt":676,"stimulus":"\n                    <p><b>Action: <em>harvest</em></b></p>\n                    <p>This is the bee that you just saw.</p>\n                    <img src=\"bees-with-color/bee-A2SM.svg\" width=\"200\">\n                    <p><span class=\"greenText\"><b>Successful harvest!</b></span><br>Your pay has increased by $0.02. Your bonus pay is now $0.46.</p>\n            ","response":0,"trial_type":"html-button-response","trial_index":90,"time_elapsed":306176,"internal_node_id":"0.0-4.0-1.41","subject_id":"5c1cfb57e2d9150001b5975b","study_id":"6197b3f67c2b5cd3b6d9596a","session_id":"619be783cdabfebece6634cc","condition":"contingent","relevant_dimensions":["pattern","legs"],"bee_group":{"antennae":"X","wings":"X","pattern":"S","legs":"F"},"bonus":0.9400000000000013},{"rt":2005.0999999940395,"stimulus":"bees-with-color/bee-A1SM.svg","response":0,"trial_type":"image-button-response","trial_index":91,"time_elapsed":308184,"internal_node_id":"0.0-4.0-0.42","subject_id":"5c1cfb57e2d9150001b5975b","study_id":"6197b3f67c2b5cd3b6d9596a","session_id":"619be783cdabfebece6634cc","condition":"contingent","relevant_dimensions":["pattern","legs"],"bee_group":{"antennae":"X","wings":"X","pattern":"S","legs":"F"},"action":"harvest","summary":"good-harvest","bonus":0.9400000000000013},{"rt":836.8000000119209,"stimulus":"\n                    <p><b>Action: <em>harvest</em></b></p>\n                    <p>This is the bee that you just saw.</p>\n                    <img src=\"bees-with-color/bee-A1SM.svg\" width=\"200\">\n                    <p><span class=\"greenText\"><b>Successful harvest!</b></span><br>Your pay has increased by $0.02. Your bonus pay is now $0.48.</p>\n            ","response":0,"trial_type":"html-button-response","trial_index":92,"time_elapsed":309024,"internal_node_id":"0.0-4.0-1.42","subject_id":"5c1cfb57e2d9150001b5975b","study_id":"6197b3f67c2b5cd3b6d9596a","session_id":"619be783cdabfebece6634cc","condition":"contingent","relevant_dimensions":["pattern","legs"],"bee_group":{"antennae":"X","wings":"X","pattern":"S","legs":"F"},"bonus":0.9400000000000013},{"rt":1301.5999999940395,"stimulus":"bees-with-color/bee-B2DF.svg","response":0,"trial_type":"image-button-response","trial_index":93,"time_elapsed":310328,"internal_node_id":"0.0-4.0-0.43","subject_id":"5c1cfb57e2d9150001b5975b","study_id":"6197b3f67c2b5cd3b6d9596a","session_id":"619be783cdabfebece6634cc","condition":"contingent","relevant_dimensions":["pattern","legs"],"bee_group":{"antennae":"X","wings":"X","pattern":"S","legs":"F"},"action":"harvest","summary":"good-harvest","bonus":0.9400000000000013},{"rt":717.5,"stimulus":"\n                    <p><b>Action: <em>harvest</em></b></p>\n                    <p>This is the bee that you just saw.</p>\n                    <img src=\"bees-with-color/bee-B2DF.svg\" width=\"200\">\n                    <p><span class=\"greenText\"><b>Successful harvest!</b></span><br>Your pay has increased by $0.02. Your bonus pay is now $0.50.</p>\n            ","response":0,"trial_type":"html-button-response","trial_index":94,"time_elapsed":311048,"internal_node_id":"0.0-4.0-1.43","subject_id":"5c1cfb57e2d9150001b5975b","study_id":"6197b3f67c2b5cd3b6d9596a","session_id":"619be783cdabfebece6634cc","condition":"contingent","relevant_dimensions":["pattern","legs"],"bee_group":{"antennae":"X","wings":"X","pattern":"S","legs":"F"},"bonus":0.9400000000000013},{"rt":1133.800000011921,"stimulus":"bees-with-color/bee-A2DF.svg","response":0,"trial_type":"image-button-response","trial_index":95,"time_elapsed":312184,"internal_node_id":"0.0-4.0-0.44","subject_id":"5c1cfb57e2d9150001b5975b","study_id":"6197b3f67c2b5cd3b6d9596a","session_id":"619be783cdabfebece6634cc","condition":"contingent","relevant_dimensions":["pattern","legs"],"bee_group":{"antennae":"X","wings":"X","pattern":"S","legs":"F"},"action":"harvest","summary":"good-harvest","bonus":0.9400000000000013},{"rt":781.4000000059605,"stimulus":"\n                    <p><b>Action: <em>harvest</em></b></p>\n                    <p>This is the bee that you just saw.</p>\n                    <img src=\"bees-with-color/bee-A2DF.svg\" width=\"200\">\n                    <p><span class=\"greenText\"><b>Successful harvest!</b></span><br>Your pay has increased by $0.02. Your bonus pay is now $0.52.</p>\n            ","response":0,"trial_type":"html-button-response","trial_index":96,"time_elapsed":312968,"internal_node_id":"0.0-4.0-1.44","subject_id":"5c1cfb57e2d9150001b5975b","study_id":"6197b3f67c2b5cd3b6d9596a","session_id":"619be783cdabfebece6634cc","condition":"contingent","relevant_dimensions":["pattern","legs"],"bee_group":{"antennae":"X","wings":"X","pattern":"S","legs":"F"},"bonus":0.9400000000000013},{"rt":1205.7000000178814,"stimulus":"bees-with-color/bee-B2SF.svg","response":0,"trial_type":"image-button-response","trial_index":97,"time_elapsed":314176,"internal_node_id":"0.0-4.0-0.45","subject_id":"5c1cfb57e2d9150001b5975b","study_id":"6197b3f67c2b5cd3b6d9596a","session_id":"619be783cdabfebece6634cc","condition":"contingent","relevant_dimensions":["pattern","legs"],"bee_group":{"antennae":"X","wings":"X","pattern":"S","legs":"F"},"action":"harvest","summary":"bad-harvest","bonus":0.9400000000000013},{"rt":789.3000000119209,"stimulus":"\n                    <p><b>Action: <em>harvest</em></b></p>\n                    <p>This is the bee that you just saw.</p>\n                    <img src=\"bees-with-color/bee-B2SF.svg\" width=\"200\">\n                    <p><span class=\"redText\">Bad choice, the bee was angry.</span><br><b>You have been stung!</b><br>Your pay has been decreased by $0.10. Your bonus pay is now $0.42.</p>\n            ","response":0,"trial_type":"html-button-response","trial_index":98,"time_elapsed":314968,"internal_node_id":"0.0-4.0-1.45","subject_id":"5c1cfb57e2d9150001b5975b","study_id":"6197b3f67c2b5cd3b6d9596a","session_id":"619be783cdabfebece6634cc","condition":"contingent","relevant_dimensions":["pattern","legs"],"bee_group":{"antennae":"X","wings":"X","pattern":"S","legs":"F"},"bonus":0.9400000000000013},{"rt":1493.2000000178814,"stimulus":"bees-with-color/bee-A1SF.svg","response":0,"trial_type":"image-button-response","trial_index":99,"time_elapsed":316464,"internal_node_id":"0.0-4.0-0.46","subject_id":"5c1cfb57e2d9150001b5975b","study_id":"6197b3f67c2b5cd3b6d9596a","session_id":"619be783cdabfebece6634cc","condition":"contingent","relevant_dimensions":["pattern","legs"],"bee_group":{"antennae":"X","wings":"X","pattern":"S","legs":"F"},"action":"harvest","summary":"bad-harvest","bonus":0.9400000000000013},{"rt":725.0999999940395,"stimulus":"\n                    <p><b>Action: <em>harvest</em></b></p>\n                    <p>This is the bee that you just saw.</p>\n                    <img src=\"bees-with-color/bee-A1SF.svg\" width=\"200\">\n                    <p><span class=\"redText\">Bad choice, the bee was angry.</span><br><b>You have been stung!</b><br>Your pay has been decreased by $0.10. Your bonus pay is now $0.32.</p>\n            ","response":0,"trial_type":"html-button-response","trial_index":100,"time_elapsed":317192,"internal_node_id":"0.0-4.0-1.46","subject_id":"5c1cfb57e2d9150001b5975b","study_id":"6197b3f67c2b5cd3b6d9596a","session_id":"619be783cdabfebece6634cc","condition":"contingent","relevant_dimensions":["pattern","legs"],"bee_group":{"antennae":"X","wings":"X","pattern":"S","legs":"F"},"bonus":0.9400000000000013},{"rt":957.6999999880791,"stimulus":"bees-with-color/bee-B1DF.svg","response":0,"trial_type":"image-button-response","trial_index":101,"time_elapsed":318152,"internal_node_id":"0.0-4.0-0.47","subject_id":"5c1cfb57e2d9150001b5975b","study_id":"6197b3f67c2b5cd3b6d9596a","session_id":"619be783cdabfebece6634cc","condition":"contingent","relevant_dimensions":["pattern","legs"],"bee_group":{"antennae":"X","wings":"X","pattern":"S","legs":"F"},"action":"harvest","summary":"good-harvest","bonus":0.9400000000000013},{"rt":549.2999999821186,"stimulus":"\n                    <p><b>Action: <em>harvest</em></b></p>\n                    <p>This is the bee that you just saw.</p>\n                    <img src=\"bees-with-color/bee-B1DF.svg\" width=\"200\">\n                    <p><span class=\"greenText\"><b>Successful harvest!</b></span><br>Your pay has increased by $0.02. Your bonus pay is now $0.34.</p>\n            ","response":0,"trial_type":"html-button-response","trial_index":102,"time_elapsed":318704,"internal_node_id":"0.0-4.0-1.47","subject_id":"5c1cfb57e2d9150001b5975b","study_id":"6197b3f67c2b5cd3b6d9596a","session_id":"619be783cdabfebece6634cc","condition":"contingent","relevant_dimensions":["pattern","legs"],"bee_group":{"antennae":"X","wings":"X","pattern":"S","legs":"F"},"bonus":0.9400000000000013},{"rt":957.2000000178814,"stimulus":"bees-with-color/bee-A1DM.svg","response":0,"trial_type":"image-button-response","trial_index":103,"time_elapsed":319664,"internal_node_id":"0.0-4.0-0.48","subject_id":"5c1cfb57e2d9150001b5975b","study_id":"6197b3f67c2b5cd3b6d9596a","session_id":"619be783cdabfebece6634cc","condition":"contingent","relevant_dimensions":["pattern","legs"],"bee_group":{"antennae":"X","wings":"X","pattern":"S","legs":"F"},"action":"harvest","summary":"good-harvest","bonus":0.9400000000000013},{"rt":613.3999999761581,"stimulus":"\n                    <p><b>Action: <em>harvest</em></b></p>\n                    <p>This is the bee that you just saw.</p>\n                    <img src=\"bees-with-color/bee-A1DM.svg\" width=\"200\">\n                    <p><span class=\"greenText\"><b>Successful harvest!</b></span><br>Your pay has increased by $0.02. Your bonus pay is now $0.36.</p>\n            ","response":0,"trial_type":"html-button-response","trial_index":104,"time_elapsed":320280,"internal_node_id":"0.0-4.0-1.48","subject_id":"5c1cfb57e2d9150001b5975b","study_id":"6197b3f67c2b5cd3b6d9596a","session_id":"619be783cdabfebece6634cc","condition":"contingent","relevant_dimensions":["pattern","legs"],"bee_group":{"antennae":"X","wings":"X","pattern":"S","legs":"F"},"bonus":0.9400000000000013},{"rt":1390,"stimulus":"bees-with-color/bee-A1SM.svg","response":1,"trial_type":"image-button-response","trial_index":105,"time_elapsed":321672,"internal_node_id":"0.0-4.0-0.49","subject_id":"5c1cfb57e2d9150001b5975b","study_id":"6197b3f67c2b5cd3b6d9596a","session_id":"619be783cdabfebece6634cc","condition":"contingent","relevant_dimensions":["pattern","legs"],"bee_group":{"antennae":"X","wings":"X","pattern":"S","legs":"F"},"action":"avoid","summary":"bad-avoid","bonus":0.9400000000000013},{"rt":1038,"stimulus":"\n                    <p><b>Action: <em>avoid</em></b></p>\n                    <p>This is the bee that you just saw.</p>\n                    <img src=\"bees-with-color/bee-A1SM.svg\" width=\"200\">\n                    <p><br>Your bonus pay is unchanged, and remains at $0.36.</p>\n            ","response":0,"trial_type":"html-button-response","trial_index":106,"time_elapsed":322712,"internal_node_id":"0.0-4.0-1.49","subject_id":"5c1cfb57e2d9150001b5975b","study_id":"6197b3f67c2b5cd3b6d9596a","session_id":"619be783cdabfebece6634cc","condition":"contingent","relevant_dimensions":["pattern","legs"],"bee_group":{"antennae":"X","wings":"X","pattern":"S","legs":"F"},"bonus":0.9400000000000013},{"rt":2022.2000000178814,"stimulus":"bees-with-color/bee-A2SF.svg","response":1,"trial_type":"image-button-response","trial_index":107,"time_elapsed":324736,"internal_node_id":"0.0-4.0-0.50","subject_id":"5c1cfb57e2d9150001b5975b","study_id":"6197b3f67c2b5cd3b6d9596a","session_id":"619be783cdabfebece6634cc","condition":"contingent","relevant_dimensions":["pattern","legs"],"bee_group":{"antennae":"X","wings":"X","pattern":"S","legs":"F"},"action":"avoid","summary":"good-avoid","bonus":0.9400000000000013},{"rt":622,"stimulus":"\n                    <p><b>Action: <em>avoid</em></b></p>\n                    <p>This is the bee that you just saw.</p>\n                    <img src=\"bees-with-color/bee-A2SF.svg\" width=\"200\">\n                    <p><br>Your bonus pay is unchanged, and remains at $0.36.</p>\n            ","response":0,"trial_type":"html-button-response","trial_index":108,"time_elapsed":325360,"internal_node_id":"0.0-4.0-1.50","subject_id":"5c1cfb57e2d9150001b5975b","study_id":"6197b3f67c2b5cd3b6d9596a","session_id":"619be783cdabfebece6634cc","condition":"contingent","relevant_dimensions":["pattern","legs"],"bee_group":{"antennae":"X","wings":"X","pattern":"S","legs":"F"},"bonus":0.9400000000000013},{"rt":950.8000000119209,"stimulus":"bees-with-color/bee-B1SF.svg","response":1,"trial_type":"image-button-response","trial_index":109,"time_elapsed":326312,"internal_node_id":"0.0-4.0-0.51","subject_id":"5c1cfb57e2d9150001b5975b","study_id":"6197b3f67c2b5cd3b6d9596a","session_id":"619be783cdabfebece6634cc","condition":"contingent","relevant_dimensions":["pattern","legs"],"bee_group":{"antennae":"X","wings":"X","pattern":"S","legs":"F"},"action":"avoid","summary":"good-avoid","bonus":0.9400000000000013},{"rt":445.80000001192093,"stimulus":"\n                    <p><b>Action: <em>avoid</em></b></p>\n                    <p>This is the bee that you just saw.</p>\n                    <img src=\"bees-with-color/bee-B1SF.svg\" width=\"200\">\n                    <p><br>Your bonus pay is unchanged, and remains at $0.36.</p>\n            ","response":0,"trial_type":"html-button-response","trial_index":110,"time_elapsed":326760,"internal_node_id":"0.0-4.0-1.51","subject_id":"5c1cfb57e2d9150001b5975b","study_id":"6197b3f67c2b5cd3b6d9596a","session_id":"619be783cdabfebece6634cc","condition":"contingent","relevant_dimensions":["pattern","legs"],"bee_group":{"antennae":"X","wings":"X","pattern":"S","legs":"F"},"bonus":0.9400000000000013},{"rt":1237.9000000059605,"stimulus":"bees-with-color/bee-A2DM.svg","response":0,"trial_type":"image-button-response","trial_index":111,"time_elapsed":328000,"internal_node_id":"0.0-4.0-0.52","subject_id":"5c1cfb57e2d9150001b5975b","study_id":"6197b3f67c2b5cd3b6d9596a","session_id":"619be783cdabfebece6634cc","condition":"contingent","relevant_dimensions":["pattern","legs"],"bee_group":{"antennae":"X","wings":"X","pattern":"S","legs":"F"},"action":"harvest","summary":"good-harvest","bonus":0.9400000000000013},{"rt":709,"stimulus":"\n                    <p><b>Action: <em>harvest</em></b></p>\n                    <p>This is the bee that you just saw.</p>\n                    <img src=\"bees-with-color/bee-A2DM.svg\" width=\"200\">\n                    <p><span class=\"greenText\"><b>Successful harvest!</b></span><br>Your pay has increased by $0.02. Your bonus pay is now $0.38.</p>\n            ","response":0,"trial_type":"html-button-response","trial_index":112,"time_elapsed":328712,"internal_node_id":"0.0-4.0-1.52","subject_id":"5c1cfb57e2d9150001b5975b","study_id":"6197b3f67c2b5cd3b6d9596a","session_id":"619be783cdabfebece6634cc","condition":"contingent","relevant_dimensions":["pattern","legs"],"bee_group":{"antennae":"X","wings":"X","pattern":"S","legs":"F"},"bonus":0.9400000000000013},{"rt":1093.8999999761581,"stimulus":"bees-with-color/bee-B2DM.svg","response":0,"trial_type":"image-button-response","trial_index":113,"time_elapsed":329808,"internal_node_id":"0.0-4.0-0.53","subject_id":"5c1cfb57e2d9150001b5975b","study_id":"6197b3f67c2b5cd3b6d9596a","session_id":"619be783cdabfebece6634cc","condition":"contingent","relevant_dimensions":["pattern","legs"],"bee_group":{"antennae":"X","wings":"X","pattern":"S","legs":"F"},"action":"harvest","summary":"good-harvest","bonus":0.9400000000000013},{"rt":886.1999999880791,"stimulus":"\n                    <p><b>Action: <em>harvest</em></b></p>\n                    <p>This is the bee that you just saw.</p>\n                    <img src=\"bees-with-color/bee-B2DM.svg\" width=\"200\">\n                    <p><span class=\"greenText\"><b>Successful harvest!</b></span><br>Your pay has increased by $0.02. Your bonus pay is now $0.40.</p>\n            ","response":0,"trial_type":"html-button-response","trial_index":114,"time_elapsed":330696,"internal_node_id":"0.0-4.0-1.53","subject_id":"5c1cfb57e2d9150001b5975b","study_id":"6197b3f67c2b5cd3b6d9596a","session_id":"619be783cdabfebece6634cc","condition":"contingent","relevant_dimensions":["pattern","legs"],"bee_group":{"antennae":"X","wings":"X","pattern":"S","legs":"F"},"bonus":0.9400000000000013},{"rt":1286,"stimulus":"bees-with-color/bee-A2SM.svg","response":0,"trial_type":"image-button-response","trial_index":115,"time_elapsed":331987,"internal_node_id":"0.0-4.0-0.54","subject_id":"5c1cfb57e2d9150001b5975b","study_id":"6197b3f67c2b5cd3b6d9596a","session_id":"619be783cdabfebece6634cc","condition":"contingent","relevant_dimensions":["pattern","legs"],"bee_group":{"antennae":"X","wings":"X","pattern":"S","legs":"F"},"action":"harvest","summary":"good-harvest","bonus":0.9400000000000013},{"rt":1778.3999999761581,"stimulus":"\n                    <p><b>Action: <em>harvest</em></b></p>\n                    <p>This is the bee that you just saw.</p>\n                    <img src=\"bees-with-color/bee-A2SM.svg\" width=\"200\">\n                    <p><span class=\"greenText\"><b>Successful harvest!</b></span><br>Your pay has increased by $0.02. Your bonus pay is now $0.42.</p>\n            ","response":0,"trial_type":"html-button-response","trial_index":116,"time_elapsed":333768,"internal_node_id":"0.0-4.0-1.54","subject_id":"5c1cfb57e2d9150001b5975b","study_id":"6197b3f67c2b5cd3b6d9596a","session_id":"619be783cdabfebece6634cc","condition":"contingent","relevant_dimensions":["pattern","legs"],"bee_group":{"antennae":"X","wings":"X","pattern":"S","legs":"F"},"bonus":0.9400000000000013},{"rt":1477.5,"stimulus":"bees-with-color/bee-B2SM.svg","response":0,"trial_type":"image-button-response","trial_index":117,"time_elapsed":335248,"internal_node_id":"0.0-4.0-0.55","subject_id":"5c1cfb57e2d9150001b5975b","study_id":"6197b3f67c2b5cd3b6d9596a","session_id":"619be783cdabfebece6634cc","condition":"contingent","relevant_dimensions":["pattern","legs"],"bee_group":{"antennae":"X","wings":"X","pattern":"S","legs":"F"},"action":"harvest","summary":"good-harvest","bonus":0.9400000000000013},{"rt":933.4000000059605,"stimulus":"\n                    <p><b>Action: <em>harvest</em></b></p>\n                    <p>This is the bee that you just saw.</p>\n                    <img src=\"bees-with-color/bee-B2SM.svg\" width=\"200\">\n                    <p><span class=\"greenText\"><b>Successful harvest!</b></span><br>Your pay has increased by $0.02. Your bonus pay is now $0.44.</p>\n            ","response":0,"trial_type":"html-button-response","trial_index":118,"time_elapsed":336184,"internal_node_id":"0.0-4.0-1.55","subject_id":"5c1cfb57e2d9150001b5975b","study_id":"6197b3f67c2b5cd3b6d9596a","session_id":"619be783cdabfebece6634cc","condition":"contingent","relevant_dimensions":["pattern","legs"],"bee_group":{"antennae":"X","wings":"X","pattern":"S","legs":"F"},"bonus":0.9400000000000013},{"rt":1477.8999999761581,"stimulus":"bees-with-color/bee-B1SM.svg","response":0,"trial_type":"image-button-response","trial_index":119,"time_elapsed":337664,"internal_node_id":"0.0-4.0-0.56","subject_id":"5c1cfb57e2d9150001b5975b","study_id":"6197b3f67c2b5cd3b6d9596a","session_id":"619be783cdabfebece6634cc","condition":"contingent","relevant_dimensions":["pattern","legs"],"bee_group":{"antennae":"X","wings":"X","pattern":"S","legs":"F"},"action":"harvest","summary":"good-harvest","bonus":0.9400000000000013},{"rt":693.8000000119209,"stimulus":"\n                    <p><b>Action: <em>harvest</em></b></p>\n                    <p>This is the bee that you just saw.</p>\n                    <img src=\"bees-with-color/bee-B1SM.svg\" width=\"200\">\n                    <p><span class=\"greenText\"><b>Successful harvest!</b></span><br>Your pay has increased by $0.02. Your bonus pay is now $0.46.</p>\n            ","response":0,"trial_type":"html-button-response","trial_index":120,"time_elapsed":338360,"internal_node_id":"0.0-4.0-1.56","subject_id":"5c1cfb57e2d9150001b5975b","study_id":"6197b3f67c2b5cd3b6d9596a","session_id":"619be783cdabfebece6634cc","condition":"contingent","relevant_dimensions":["pattern","legs"],"bee_group":{"antennae":"X","wings":"X","pattern":"S","legs":"F"},"bonus":0.9400000000000013},{"rt":1493.9000000059605,"stimulus":"bees-with-color/bee-B1DF.svg","response":0,"trial_type":"image-button-response","trial_index":121,"time_elapsed":339856,"internal_node_id":"0.0-4.0-0.57","subject_id":"5c1cfb57e2d9150001b5975b","study_id":"6197b3f67c2b5cd3b6d9596a","session_id":"619be783cdabfebece6634cc","condition":"contingent","relevant_dimensions":["pattern","legs"],"bee_group":{"antennae":"X","wings":"X","pattern":"S","legs":"F"},"action":"harvest","summary":"good-harvest","bonus":0.9400000000000013},{"rt":1237.800000011921,"stimulus":"\n                    <p><b>Action: <em>harvest</em></b></p>\n                    <p>This is the bee that you just saw.</p>\n                    <img src=\"bees-with-color/bee-B1DF.svg\" width=\"200\">\n                    <p><span class=\"greenText\"><b>Successful harvest!</b></span><br>Your pay has increased by $0.02. Your bonus pay is now $0.48.</p>\n            ","response":0,"trial_type":"html-button-response","trial_index":122,"time_elapsed":341096,"internal_node_id":"0.0-4.0-1.57","subject_id":"5c1cfb57e2d9150001b5975b","study_id":"6197b3f67c2b5cd3b6d9596a","session_id":"619be783cdabfebece6634cc","condition":"contingent","relevant_dimensions":["pattern","legs"],"bee_group":{"antennae":"X","wings":"X","pattern":"S","legs":"F"},"bonus":0.9400000000000013},{"rt":1598.1000000238419,"stimulus":"bees-with-color/bee-B2SF.svg","response":1,"trial_type":"image-button-response","trial_index":123,"time_elapsed":342696,"internal_node_id":"0.0-4.0-0.58","subject_id":"5c1cfb57e2d9150001b5975b","study_id":"6197b3f67c2b5cd3b6d9596a","session_id":"619be783cdabfebece6634cc","condition":"contingent","relevant_dimensions":["pattern","legs"],"bee_group":{"antennae":"X","wings":"X","pattern":"S","legs":"F"},"action":"avoid","summary":"good-avoid","bonus":0.9400000000000013},{"rt":733.5999999940395,"stimulus":"\n                    <p><b>Action: <em>avoid</em></b></p>\n                    <p>This is the bee that you just saw.</p>\n                    <img src=\"bees-with-color/bee-B2SF.svg\" width=\"200\">\n                    <p><br>Your bonus pay is unchanged, and remains at $0.48.</p>\n            ","response":0,"trial_type":"html-button-response","trial_index":124,"time_elapsed":343432,"internal_node_id":"0.0-4.0-1.58","subject_id":"5c1cfb57e2d9150001b5975b","study_id":"6197b3f67c2b5cd3b6d9596a","session_id":"619be783cdabfebece6634cc","condition":"contingent","relevant_dimensions":["pattern","legs"],"bee_group":{"antennae":"X","wings":"X","pattern":"S","legs":"F"},"bonus":0.9400000000000013},{"rt":1117.800000011921,"stimulus":"bees-with-color/bee-A1DF.svg","response":0,"trial_type":"image-button-response","trial_index":125,"time_elapsed":344552,"internal_node_id":"0.0-4.0-0.59","subject_id":"5c1cfb57e2d9150001b5975b","study_id":"6197b3f67c2b5cd3b6d9596a","session_id":"619be783cdabfebece6634cc","condition":"contingent","relevant_dimensions":["pattern","legs"],"bee_group":{"antennae":"X","wings":"X","pattern":"S","legs":"F"},"action":"harvest","summary":"good-harvest","bonus":0.9400000000000013},{"rt":661.3999999761581,"stimulus":"\n                    <p><b>Action: <em>harvest</em></b></p>\n                    <p>This is the bee that you just saw.</p>\n                    <img src=\"bees-with-color/bee-A1DF.svg\" width=\"200\">\n                    <p><span class=\"greenText\"><b>Successful harvest!</b></span><br>Your pay has increased by $0.02. Your bonus pay is now $0.50.</p>\n            ","response":0,"trial_type":"html-button-response","trial_index":126,"time_elapsed":345216,"internal_node_id":"0.0-4.0-1.59","subject_id":"5c1cfb57e2d9150001b5975b","study_id":"6197b3f67c2b5cd3b6d9596a","session_id":"619be783cdabfebece6634cc","condition":"contingent","relevant_dimensions":["pattern","legs"],"bee_group":{"antennae":"X","wings":"X","pattern":"S","legs":"F"},"bonus":0.9400000000000013},{"rt":1341.8999999761581,"stimulus":"bees-with-color/bee-A2DF.svg","response":0,"trial_type":"image-button-response","trial_index":127,"time_elapsed":346560,"internal_node_id":"0.0-4.0-0.60","subject_id":"5c1cfb57e2d9150001b5975b","study_id":"6197b3f67c2b5cd3b6d9596a","session_id":"619be783cdabfebece6634cc","condition":"contingent","relevant_dimensions":["pattern","legs"],"bee_group":{"antennae":"X","wings":"X","pattern":"S","legs":"F"},"action":"harvest","summary":"good-harvest","bonus":0.9400000000000013},{"rt":740.7000000178814,"stimulus":"\n                    <p><b>Action: <em>harvest</em></b></p>\n                    <p>This is the bee that you just saw.</p>\n                    <img src=\"bees-with-color/bee-A2DF.svg\" width=\"200\">\n                    <p><span class=\"greenText\"><b>Successful harvest!</b></span><br>Your pay has increased by $0.02. Your bonus pay is now $0.52.</p>\n            ","response":0,"trial_type":"html-button-response","trial_index":128,"time_elapsed":347304,"internal_node_id":"0.0-4.0-1.60","subject_id":"5c1cfb57e2d9150001b5975b","study_id":"6197b3f67c2b5cd3b6d9596a","session_id":"619be783cdabfebece6634cc","condition":"contingent","relevant_dimensions":["pattern","legs"],"bee_group":{"antennae":"X","wings":"X","pattern":"S","legs":"F"},"bonus":0.9400000000000013},{"rt":1237.199999988079,"stimulus":"bees-with-color/bee-A1SF.svg","response":0,"trial_type":"image-button-response","trial_index":129,"time_elapsed":348544,"internal_node_id":"0.0-4.0-0.61","subject_id":"5c1cfb57e2d9150001b5975b","study_id":"6197b3f67c2b5cd3b6d9596a","session_id":"619be783cdabfebece6634cc","condition":"contingent","relevant_dimensions":["pattern","legs"],"bee_group":{"antennae":"X","wings":"X","pattern":"S","legs":"F"},"action":"harvest","summary":"bad-harvest","bonus":0.9400000000000013},{"rt":740.5999999940395,"stimulus":"\n                    <p><b>Action: <em>harvest</em></b></p>\n                    <p>This is the bee that you just saw.</p>\n                    <img src=\"bees-with-color/bee-A1SF.svg\" width=\"200\">\n                    <p><span class=\"redText\">Bad choice, the bee was angry.</span><br><b>You have been stung!</b><br>Your pay has been decreased by $0.10. Your bonus pay is now $0.42.</p>\n            ","response":0,"trial_type":"html-button-response","trial_index":130,"time_elapsed":349288,"internal_node_id":"0.0-4.0-1.61","subject_id":"5c1cfb57e2d9150001b5975b","study_id":"6197b3f67c2b5cd3b6d9596a","session_id":"619be783cdabfebece6634cc","condition":"contingent","relevant_dimensions":["pattern","legs"],"bee_group":{"antennae":"X","wings":"X","pattern":"S","legs":"F"},"bonus":0.9400000000000013},{"rt":1285.0999999940395,"stimulus":"bees-with-color/bee-B1DM.svg","response":0,"trial_type":"image-button-response","trial_index":131,"time_elapsed":350576,"internal_node_id":"0.0-4.0-0.62","subject_id":"5c1cfb57e2d9150001b5975b","study_id":"6197b3f67c2b5cd3b6d9596a","session_id":"619be783cdabfebece6634cc","condition":"contingent","relevant_dimensions":["pattern","legs"],"bee_group":{"antennae":"X","wings":"X","pattern":"S","legs":"F"},"action":"harvest","summary":"good-harvest","bonus":0.9400000000000013},{"rt":653.4000000059605,"stimulus":"\n                    <p><b>Action: <em>harvest</em></b></p>\n                    <p>This is the bee that you just saw.</p>\n                    <img src=\"bees-with-color/bee-B1DM.svg\" width=\"200\">\n                    <p><span class=\"greenText\"><b>Successful harvest!</b></span><br>Your pay has increased by $0.02. Your bonus pay is now $0.44.</p>\n            ","response":0,"trial_type":"html-button-response","trial_index":132,"time_elapsed":351232,"internal_node_id":"0.0-4.0-1.62","subject_id":"5c1cfb57e2d9150001b5975b","study_id":"6197b3f67c2b5cd3b6d9596a","session_id":"619be783cdabfebece6634cc","condition":"contingent","relevant_dimensions":["pattern","legs"],"bee_group":{"antennae":"X","wings":"X","pattern":"S","legs":"F"},"bonus":0.9400000000000013},{"rt":1422,"stimulus":"bees-with-color/bee-B2DF.svg","response":0,"trial_type":"image-button-response","trial_index":133,"time_elapsed":352659,"internal_node_id":"0.0-4.0-0.63","subject_id":"5c1cfb57e2d9150001b5975b","study_id":"6197b3f67c2b5cd3b6d9596a","session_id":"619be783cdabfebece6634cc","condition":"contingent","relevant_dimensions":["pattern","legs"],"bee_group":{"antennae":"X","wings":"X","pattern":"S","legs":"F"},"action":"harvest","summary":"good-harvest","bonus":0.9400000000000013},{"rt":704.7000000178814,"stimulus":"\n                    <p><b>Action: <em>harvest</em></b></p>\n                    <p>This is the bee that you just saw.</p>\n                    <img src=\"bees-with-color/bee-B2DF.svg\" width=\"200\">\n                    <p><span class=\"greenText\"><b>Successful harvest!</b></span><br>Your pay has increased by $0.02. Your bonus pay is now $0.46.</p>\n            ","response":0,"trial_type":"html-button-response","trial_index":134,"time_elapsed":353368,"internal_node_id":"0.0-4.0-1.63","subject_id":"5c1cfb57e2d9150001b5975b","study_id":"6197b3f67c2b5cd3b6d9596a","session_id":"619be783cdabfebece6634cc","condition":"contingent","relevant_dimensions":["pattern","legs"],"bee_group":{"antennae":"X","wings":"X","pattern":"S","legs":"F"},"bonus":0.9400000000000013},{"rt":4784.700000017881,"stimulus":"You have completed the first part of this experiment.<br><br>You will now begin a shorter second part, in which you will receive no feedback.<br>The same rules regarding bonus pay apply.<br><br>Press any key to begin.","response":" ","trial_type":"html-keyboard-response","trial_index":135,"time_elapsed":358155,"internal_node_id":"0.0-5.0","subject_id":"5c1cfb57e2d9150001b5975b","study_id":"6197b3f67c2b5cd3b6d9596a","session_id":"619be783cdabfebece6634cc","condition":"contingent","relevant_dimensions":["pattern","legs"],"bee_group":{"antennae":"X","wings":"X","pattern":"S","legs":"F"},"bonus":0.9400000000000013},{"rt":2218.699999988079,"stimulus":"bees-with-color/bee-B1SF.svg","response":1,"trial_type":"image-button-response","trial_index":136,"time_elapsed":360393,"internal_node_id":"0.0-6.0-0.0","subject_id":"5c1cfb57e2d9150001b5975b","study_id":"6197b3f67c2b5cd3b6d9596a","session_id":"619be783cdabfebece6634cc","condition":"contingent","relevant_dimensions":["pattern","legs"],"bee_group":{"antennae":"X","wings":"X","pattern":"S","legs":"F"},"bonus":0.9400000000000013},{"rt":1444,"stimulus":"bees-with-color/bee-A2SM.svg","response":0,"trial_type":"image-button-response","trial_index":137,"time_elapsed":361840,"internal_node_id":"0.0-6.0-0.1","subject_id":"5c1cfb57e2d9150001b5975b","study_id":"6197b3f67c2b5cd3b6d9596a","session_id":"619be783cdabfebece6634cc","condition":"contingent","relevant_dimensions":["pattern","legs"],"bee_group":{"antennae":"X","wings":"X","pattern":"S","legs":"F"},"bonus":0.9400000000000013},{"rt":2660.800000011921,"stimulus":"bees-with-color/bee-B1DF.svg","response":0,"trial_type":"image-button-response","trial_index":138,"time_elapsed":364505,"internal_node_id":"0.0-6.0-0.2","subject_id":"5c1cfb57e2d9150001b5975b","study_id":"6197b3f67c2b5cd3b6d9596a","session_id":"619be783cdabfebece6634cc","condition":"contingent","relevant_dimensions":["pattern","legs"],"bee_group":{"antennae":"X","wings":"X","pattern":"S","legs":"F"},"bonus":0.9400000000000013},{"rt":1506.9000000059605,"stimulus":"bees-with-color/bee-A1DF.svg","response":0,"trial_type":"image-button-response","trial_index":139,"time_elapsed":366017,"internal_node_id":"0.0-6.0-0.3","subject_id":"5c1cfb57e2d9150001b5975b","study_id":"6197b3f67c2b5cd3b6d9596a","session_id":"619be783cdabfebece6634cc","condition":"contingent","relevant_dimensions":["pattern","legs"],"bee_group":{"antennae":"X","wings":"X","pattern":"S","legs":"F"},"bonus":0.9400000000000013},{"rt":2012.800000011921,"stimulus":"bees-with-color/bee-A1SM.svg","response":0,"trial_type":"image-button-response","trial_index":140,"time_elapsed":368033,"internal_node_id":"0.0-6.0-0.4","subject_id":"5c1cfb57e2d9150001b5975b","study_id":"6197b3f67c2b5cd3b6d9596a","session_id":"619be783cdabfebece6634cc","condition":"contingent","relevant_dimensions":["pattern","legs"],"bee_group":{"antennae":"X","wings":"X","pattern":"S","legs":"F"},"bonus":0.9400000000000013},{"rt":1708,"stimulus":"bees-with-color/bee-B2DM.svg","response":0,"trial_type":"image-button-response","trial_index":141,"time_elapsed":369744,"internal_node_id":"0.0-6.0-0.5","subject_id":"5c1cfb57e2d9150001b5975b","study_id":"6197b3f67c2b5cd3b6d9596a","session_id":"619be783cdabfebece6634cc","condition":"contingent","relevant_dimensions":["pattern","legs"],"bee_group":{"antennae":"X","wings":"X","pattern":"S","legs":"F"},"bonus":0.9400000000000013},{"rt":1140.9000000059605,"stimulus":"bees-with-color/bee-B2SF.svg","response":1,"trial_type":"image-button-response","trial_index":142,"time_elapsed":370888,"internal_node_id":"0.0-6.0-0.6","subject_id":"5c1cfb57e2d9150001b5975b","study_id":"6197b3f67c2b5cd3b6d9596a","session_id":"619be783cdabfebece6634cc","condition":"contingent","relevant_dimensions":["pattern","legs"],"bee_group":{"antennae":"X","wings":"X","pattern":"S","legs":"F"},"bonus":0.9400000000000013},{"rt":1205.7000000178814,"stimulus":"bees-with-color/bee-A1DM.svg","response":0,"trial_type":"image-button-response","trial_index":143,"time_elapsed":372096,"internal_node_id":"0.0-6.0-0.7","subject_id":"5c1cfb57e2d9150001b5975b","study_id":"6197b3f67c2b5cd3b6d9596a","session_id":"619be783cdabfebece6634cc","condition":"contingent","relevant_dimensions":["pattern","legs"],"bee_group":{"antennae":"X","wings":"X","pattern":"S","legs":"F"},"bonus":0.9400000000000013},{"rt":965.2000000178814,"stimulus":"bees-with-color/bee-B2DF.svg","response":0,"trial_type":"image-button-response","trial_index":144,"time_elapsed":373064,"internal_node_id":"0.0-6.0-0.8","subject_id":"5c1cfb57e2d9150001b5975b","study_id":"6197b3f67c2b5cd3b6d9596a","session_id":"619be783cdabfebece6634cc","condition":"contingent","relevant_dimensions":["pattern","legs"],"bee_group":{"antennae":"X","wings":"X","pattern":"S","legs":"F"},"bonus":0.9400000000000013},{"rt":1021.2000000178814,"stimulus":"bees-with-color/bee-A2DM.svg","response":0,"trial_type":"image-button-response","trial_index":145,"time_elapsed":374088,"internal_node_id":"0.0-6.0-0.9","subject_id":"5c1cfb57e2d9150001b5975b","study_id":"6197b3f67c2b5cd3b6d9596a","session_id":"619be783cdabfebece6634cc","condition":"contingent","relevant_dimensions":["pattern","legs"],"bee_group":{"antennae":"X","wings":"X","pattern":"S","legs":"F"},"bonus":0.9400000000000013},{"rt":1549.2000000178814,"stimulus":"bees-with-color/bee-B2SM.svg","response":0,"trial_type":"image-button-response","trial_index":146,"time_elapsed":375640,"internal_node_id":"0.0-6.0-0.10","subject_id":"5c1cfb57e2d9150001b5975b","study_id":"6197b3f67c2b5cd3b6d9596a","session_id":"619be783cdabfebece6634cc","condition":"contingent","relevant_dimensions":["pattern","legs"],"bee_group":{"antennae":"X","wings":"X","pattern":"S","legs":"F"},"bonus":0.9400000000000013},{"rt":1253.4000000059605,"stimulus":"bees-with-color/bee-A1SF.svg","response":1,"trial_type":"image-button-response","trial_index":147,"time_elapsed":376896,"internal_node_id":"0.0-6.0-0.11","subject_id":"5c1cfb57e2d9150001b5975b","study_id":"6197b3f67c2b5cd3b6d9596a","session_id":"619be783cdabfebece6634cc","condition":"contingent","relevant_dimensions":["pattern","legs"],"bee_group":{"antennae":"X","wings":"X","pattern":"S","legs":"F"},"bonus":0.9400000000000013},{"rt":2573.300000011921,"stimulus":"bees-with-color/bee-B1SM.svg","response":0,"trial_type":"image-button-response","trial_index":148,"time_elapsed":379472,"internal_node_id":"0.0-6.0-0.12","subject_id":"5c1cfb57e2d9150001b5975b","study_id":"6197b3f67c2b5cd3b6d9596a","session_id":"619be783cdabfebece6634cc","condition":"contingent","relevant_dimensions":["pattern","legs"],"bee_group":{"antennae":"X","wings":"X","pattern":"S","legs":"F"},"bonus":0.9400000000000013},{"rt":997.1000000238419,"stimulus":"bees-with-color/bee-A2DF.svg","response":0,"trial_type":"image-button-response","trial_index":149,"time_elapsed":380472,"internal_node_id":"0.0-6.0-0.13","subject_id":"5c1cfb57e2d9150001b5975b","study_id":"6197b3f67c2b5cd3b6d9596a","session_id":"619be783cdabfebece6634cc","condition":"contingent","relevant_dimensions":["pattern","legs"],"bee_group":{"antennae":"X","wings":"X","pattern":"S","legs":"F"},"bonus":0.9400000000000013},{"rt":1573.199999988079,"stimulus":"bees-with-color/bee-A2SF.svg","response":1,"trial_type":"image-button-response","trial_index":150,"time_elapsed":382049,"internal_node_id":"0.0-6.0-0.14","subject_id":"5c1cfb57e2d9150001b5975b","study_id":"6197b3f67c2b5cd3b6d9596a","session_id":"619be783cdabfebece6634cc","condition":"contingent","relevant_dimensions":["pattern","legs"],"bee_group":{"antennae":"X","wings":"X","pattern":"S","legs":"F"},"bonus":0.9400000000000013},{"rt":1204.2000000178814,"stimulus":"bees-with-color/bee-B1DM.svg","response":0,"trial_type":"image-button-response","trial_index":151,"time_elapsed":383256,"internal_node_id":"0.0-6.0-0.15","subject_id":"5c1cfb57e2d9150001b5975b","study_id":"6197b3f67c2b5cd3b6d9596a","session_id":"619be783cdabfebece6634cc","condition":"contingent","relevant_dimensions":["pattern","legs"],"bee_group":{"antennae":"X","wings":"X","pattern":"S","legs":"F"},"bonus":0.9400000000000013},{"rt":1260.800000011921,"stimulus":"bees-with-color/bee-B2SF.svg","response":1,"trial_type":"image-button-response","trial_index":152,"time_elapsed":384520,"internal_node_id":"0.0-6.0-0.16","subject_id":"5c1cfb57e2d9150001b5975b","study_id":"6197b3f67c2b5cd3b6d9596a","session_id":"619be783cdabfebece6634cc","condition":"contingent","relevant_dimensions":["pattern","legs"],"bee_group":{"antennae":"X","wings":"X","pattern":"S","legs":"F"},"bonus":0.9400000000000013},{"rt":3773.7999999821186,"stimulus":"bees-with-color/bee-A1DM.svg","response":0,"trial_type":"image-button-response","trial_index":153,"time_elapsed":388297,"internal_node_id":"0.0-6.0-0.17","subject_id":"5c1cfb57e2d9150001b5975b","study_id":"6197b3f67c2b5cd3b6d9596a","session_id":"619be783cdabfebece6634cc","condition":"contingent","relevant_dimensions":["pattern","legs"],"bee_group":{"antennae":"X","wings":"X","pattern":"S","legs":"F"},"bonus":0.9400000000000013},{"rt":1116.8999999761581,"stimulus":"bees-with-color/bee-A2DM.svg","response":0,"trial_type":"image-button-response","trial_index":154,"time_elapsed":389417,"internal_node_id":"0.0-6.0-0.18","subject_id":"5c1cfb57e2d9150001b5975b","study_id":"6197b3f67c2b5cd3b6d9596a","session_id":"619be783cdabfebece6634cc","condition":"contingent","relevant_dimensions":["pattern","legs"],"bee_group":{"antennae":"X","wings":"X","pattern":"S","legs":"F"},"bonus":0.9400000000000013},{"rt":941.1999999880791,"stimulus":"bees-with-color/bee-B2DM.svg","response":0,"trial_type":"image-button-response","trial_index":155,"time_elapsed":390364,"internal_node_id":"0.0-6.0-0.19","subject_id":"5c1cfb57e2d9150001b5975b","study_id":"6197b3f67c2b5cd3b6d9596a","session_id":"619be783cdabfebece6634cc","condition":"contingent","relevant_dimensions":["pattern","legs"],"bee_group":{"antennae":"X","wings":"X","pattern":"S","legs":"F"},"bonus":0.9400000000000013},{"rt":2551,"stimulus":"bees-with-color/bee-B1SM.svg","response":0,"trial_type":"image-button-response","trial_index":156,"time_elapsed":392921,"internal_node_id":"0.0-6.0-0.20","subject_id":"5c1cfb57e2d9150001b5975b","study_id":"6197b3f67c2b5cd3b6d9596a","session_id":"619be783cdabfebece6634cc","condition":"contingent","relevant_dimensions":["pattern","legs"],"bee_group":{"antennae":"X","wings":"X","pattern":"S","legs":"F"},"bonus":0.9400000000000013},{"rt":1500.800000011921,"stimulus":"bees-with-color/bee-A1SF.svg","response":1,"trial_type":"image-button-response","trial_index":157,"time_elapsed":394424,"internal_node_id":"0.0-6.0-0.21","subject_id":"5c1cfb57e2d9150001b5975b","study_id":"6197b3f67c2b5cd3b6d9596a","session_id":"619be783cdabfebece6634cc","condition":"contingent","relevant_dimensions":["pattern","legs"],"bee_group":{"antennae":"X","wings":"X","pattern":"S","legs":"F"},"bonus":0.9400000000000013},{"rt":1093.2000000178814,"stimulus":"bees-with-color/bee-A1DF.svg","response":0,"trial_type":"image-button-response","trial_index":158,"time_elapsed":395520,"internal_node_id":"0.0-6.0-0.22","subject_id":"5c1cfb57e2d9150001b5975b","study_id":"6197b3f67c2b5cd3b6d9596a","session_id":"619be783cdabfebece6634cc","condition":"contingent","relevant_dimensions":["pattern","legs"],"bee_group":{"antennae":"X","wings":"X","pattern":"S","legs":"F"},"bonus":0.9400000000000013},{"rt":1548.8999999761581,"stimulus":"bees-with-color/bee-A1SM.svg","response":0,"trial_type":"image-button-response","trial_index":159,"time_elapsed":397072,"internal_node_id":"0.0-6.0-0.23","subject_id":"5c1cfb57e2d9150001b5975b","study_id":"6197b3f67c2b5cd3b6d9596a","session_id":"619be783cdabfebece6634cc","condition":"contingent","relevant_dimensions":["pattern","legs"],"bee_group":{"antennae":"X","wings":"X","pattern":"S","legs":"F"},"bonus":0.9400000000000013},{"rt":1493.5,"stimulus":"bees-with-color/bee-B1SF.svg","response":1,"trial_type":"image-button-response","trial_index":160,"time_elapsed":398569,"internal_node_id":"0.0-6.0-0.24","subject_id":"5c1cfb57e2d9150001b5975b","study_id":"6197b3f67c2b5cd3b6d9596a","session_id":"619be783cdabfebece6634cc","condition":"contingent","relevant_dimensions":["pattern","legs"],"bee_group":{"antennae":"X","wings":"X","pattern":"S","legs":"F"},"bonus":0.9400000000000013},{"rt":3380.5,"stimulus":"bees-with-color/bee-A2DF.svg","response":0,"trial_type":"image-button-response","trial_index":161,"time_elapsed":401952,"internal_node_id":"0.0-6.0-0.25","subject_id":"5c1cfb57e2d9150001b5975b","study_id":"6197b3f67c2b5cd3b6d9596a","session_id":"619be783cdabfebece6634cc","condition":"contingent","relevant_dimensions":["pattern","legs"],"bee_group":{"antennae":"X","wings":"X","pattern":"S","legs":"F"},"bonus":0.9400000000000013},{"rt":1212.699999988079,"stimulus":"bees-with-color/bee-A2SM.svg","response":0,"trial_type":"image-button-response","trial_index":162,"time_elapsed":403168,"internal_node_id":"0.0-6.0-0.26","subject_id":"5c1cfb57e2d9150001b5975b","study_id":"6197b3f67c2b5cd3b6d9596a","session_id":"619be783cdabfebece