[{"success":true,"trial_type":"fullscreen","trial_index":0,"time_elapsed":4829,"internal_node_id":"0.0-0.0","subject_id":"60df6e426572fff9d1e253b0","study_id":"6197b3f67c2b5cd3b6d9596a","session_id":"619be789325d1b33eae0a03c","condition":"full-information","relevant_dimensions":["antennae","pattern"],"bee_group":{"antennae":"B","wings":"X","pattern":"S","legs":"X"},"bonus":1.6200000000000012},{"success":true,"timeout":false,"failed_images":[],"failed_audio":[],"failed_video":[],"trial_type":"preload","trial_index":1,"time_elapsed":6360,"internal_node_id":"0.0-1.0","subject_id":"60df6e426572fff9d1e253b0","study_id":"6197b3f67c2b5cd3b6d9596a","session_id":"619be789325d1b33eae0a03c","condition":"full-information","relevant_dimensions":["antennae","pattern"],"bee_group":{"antennae":"B","wings":"X","pattern":"S","legs":"X"},"bonus":1.6200000000000012},{"rt":1464.5999999940395,"stimulus":"Welcome! Press any key to begin.","response":" ","trial_type":"html-keyboard-response","trial_index":2,"time_elapsed":7826,"internal_node_id":"0.0-2.0","subject_id":"60df6e426572fff9d1e253b0","study_id":"6197b3f67c2b5cd3b6d9596a","session_id":"619be789325d1b33eae0a03c","condition":"full-information","relevant_dimensions":["antennae","pattern"],"bee_group":{"antennae":"B","wings":"X","pattern":"S","legs":"X"},"bonus":1.6200000000000012},{"view_history":[{"page_index":0,"viewing_time":3632.5999999940395},{"page_index":1,"viewing_time":11097.299999982119},{"page_index":2,"viewing_time":17205.70000001788},{"page_index":3,"viewing_time":16087},{"page_index":4,"viewing_time":20048.09999999404},{"page_index":5,"viewing_time":5992.9000000059605},{"page_index":6,"viewing_time":10495.799999982119},{"page_index":7,"viewing_time":5822.4000000059605},{"page_index":8,"viewing_time":5352.5999999940395},{"page_index":9,"viewing_time":2632.9000000059605},{"page_index":10,"viewing_time":1852.5999999940395},{"page_index":11,"viewing_time":8034.5},{"page_index":12,"viewing_time":20354},{"page_index":13,"viewing_time":1213.300000011921},{"page_index":14,"viewing_time":2442.800000011921}],"rt":132265,"trial_type":"instructions","trial_index":3,"time_elapsed":140091,"internal_node_id":"0.0-3.0-0.0","subject_id":"60df6e426572fff9d1e253b0","study_id":"6197b3f67c2b5cd3b6d9596a","session_id":"619be789325d1b33eae0a03c","condition":"full-information","relevant_dimensions":["antennae","pattern"],"bee_group":{"antennae":"B","wings":"X","pattern":"S","legs":"X"},"bonus":1.6200000000000012},{"rt":10099.700000017881,"response":{"Q0":["Two or six legs","Stripes or spots on body","Single or double wings","Antennae or no antennae"]},"question_order":[0],"trial_type":"survey-multi-select","trial_index":4,"time_elapsed":150195,"internal_node_id":"0.0-3.0-1.0","subject_id":"60df6e426572fff9d1e253b0","study_id":"6197b3f67c2b5cd3b6d9596a","session_id":"619be789325d1b33eae0a03c","condition":"full-information","relevant_dimensions":["antennae","pattern"],"bee_group":{"antennae":"B","wings":"X","pattern":"S","legs":"X"},"correct":true,"bonus":1.6200000000000012},{"rt":25871.20000001788,"response":{"Q1":"No.","Q2":"Based on the four features of the bee.","Q3":"You do not learn if it was friendly or dangerous, and do not alter your bonus."},"question_order":[0,1,2],"trial_type":"survey-multi-choice","trial_index":5,"time_elapsed":176070,"internal_node_id":"0.0-3.0-2.0","subject_id":"60df6e426572fff9d1e253b0","study_id":"6197b3f67c2b5cd3b6d9596a","session_id":"619be789325d1b33eae0a03c","condition":"full-information","relevant_dimensions":["antennae","pattern"],"bee_group":{"antennae":"B","wings":"X","pattern":"S","legs":"X"},"correct":false,"bonus":1.6200000000000012},{"rt":2668,"stimulus":"<p>You did not answer all comprehension questions correctly.<br>Press <b>continue</b> to review the instructions again.</p>","response":0,"trial_type":"html-button-response","trial_index":6,"time_elapsed":178743,"internal_node_id":"0.0-3.0-3.0","subject_id":"60df6e426572fff9d1e253b0","study_id":"6197b3f67c2b5cd3b6d9596a","session_id":"619be789325d1b33eae0a03c","condition":"full-information","relevant_dimensions":["antennae","pattern"],"bee_group":{"antennae":"B","wings":"X","pattern":"S","legs":"X"},"bonus":1.6200000000000012},{"view_history":[{"page_index":0,"viewing_time":1260.199999988079},{"page_index":1,"viewing_time":4684.4000000059605},{"page_index":2,"viewing_time":932.5},{"page_index":3,"viewing_time":452.09999999403954},{"page_index":4,"viewing_time":584.4000000059605},{"page_index":5,"viewing_time":341.5},{"page_index":6,"viewing_time":521.9000000059605},{"page_index":7,"viewing_time":792.2999999821186},{"page_index":8,"viewing_time":182.80000001192093},{"page_index":9,"viewing_time":151.90000000596046},{"page_index":10,"viewing_time":362.7999999821186},{"page_index":11,"viewing_time":1861.4000000059605},{"page_index":12,"viewing_time":991.9000000059605},{"page_index":13,"viewing_time":982.1999999880791},{"page_index":14,"viewing_time":662.3000000119209}],"rt":14764.799999982119,"trial_type":"instructions","trial_index":7,"time_elapsed":193510,"internal_node_id":"0.0-3.0-4.0-0.0","subject_id":"60df6e426572fff9d1e253b0","study_id":"6197b3f67c2b5cd3b6d9596a","session_id":"619be789325d1b33eae0a03c","condition":"full-information","relevant_dimensions":["antennae","pattern"],"bee_group":{"antennae":"B","wings":"X","pattern":"S","legs":"X"},"bonus":1.6200000000000012},{"rt":5259.0999999940395,"response":{"Q0":["Two or six legs","Stripes or spots on body","Single or double wings","Antennae or no antennae"]},"question_order":[0],"trial_type":"survey-multi-select","trial_index":8,"time_elapsed":198772,"internal_node_id":"0.0-3.0-4.0-1.0","subject_id":"60df6e426572fff9d1e253b0","study_id":"6197b3f67c2b5cd3b6d9596a","session_id":"619be789325d1b33eae0a03c","condition":"full-information","relevant_dimensions":["antennae","pattern"],"bee_group":{"antennae":"B","wings":"X","pattern":"S","legs":"X"},"correct":true,"bonus":1.6200000000000012},{"rt":6125.600000023842,"response":{"Q1":"No.","Q2":"Based on the four features of the bee.","Q3":"You learn if it was friendly or dangerous, but do not alter your bonus."},"question_order":[0,1,2],"trial_type":"survey-multi-choice","trial_index":9,"time_elapsed":204904,"internal_node_id":"0.0-3.0-4.0-2.0","subject_id":"60df6e426572fff9d1e253b0","study_id":"6197b3f67c2b5cd3b6d9596a","session_id":"619be789325d1b33eae0a03c","condition":"full-information","relevant_dimensions":["antennae","pattern"],"bee_group":{"antennae":"B","wings":"X","pattern":"S","legs":"X"},"correct":true,"bonus":1.6200000000000012},{"rt":2027.800000011921,"stimulus":"<p>Congrats, you got everything right<br>When you're ready, click the button below to continue to the experiment.</p>","response":0,"trial_type":"html-button-response","trial_index":10,"time_elapsed":206936,"internal_node_id":"0.0-3.0-4.0-3.0","subject_id":"60df6e426572fff9d1e253b0","study_id":"6197b3f67c2b5cd3b6d9596a","session_id":"619be789325d1b33eae0a03c","condition":"full-information","relevant_dimensions":["antennae","pattern"],"bee_group":{"antennae":"B","wings":"X","pattern":"S","legs":"X"},"bonus":1.6200000000000012},{"rt":6322,"stimulus":"bees-with-color/bee-B1DM.svg","response":0,"trial_type":"image-button-response","trial_index":11,"time_elapsed":213260,"internal_node_id":"0.0-4.0-0.0","subject_id":"60df6e426572fff9d1e253b0","study_id":"6197b3f67c2b5cd3b6d9596a","session_id":"619be789325d1b33eae0a03c","condition":"full-information","relevant_dimensions":["antennae","pattern"],"bee_group":{"antennae":"B","wings":"X","pattern":"S","legs":"X"},"action":"harvest","summary":"good-harvest","bonus":1.6200000000000012},{"rt":101800.40000000596,"stimulus":"\n                    <p><b>Action: <em>harvest</em></b></p>\n                    <p>This is the bee that you just saw.</p>\n                    <img src=\"bees-with-color/bee-B1DM.svg\" width=\"200\">\n                    <p><span class=\"greenText\"><b>Successful harvest!</b></span><br>Your pay has increased by $0.02. Your bonus pay is now $0.56.</p>\n            ","response":0,"trial_type":"html-button-response","trial_index":12,"time_elapsed":315063,"internal_node_id":"0.0-4.0-1.0","subject_id":"60df6e426572fff9d1e253b0","study_id":"6197b3f67c2b5cd3b6d9596a","session_id":"619be789325d1b33eae0a03c","condition":"full-information","relevant_dimensions":["antennae","pattern"],"bee_group":{"antennae":"B","wings":"X","pattern":"S","legs":"X"},"bonus":1.6200000000000012},{"rt":2179,"stimulus":"bees-with-color/bee-A1DF.svg","response":1,"trial_type":"image-button-response","trial_index":13,"time_elapsed":317247,"internal_node_id":"0.0-4.0-0.1","subject_id":"60df6e426572fff9d1e253b0","study_id":"6197b3f67c2b5cd3b6d9596a","session_id":"619be789325d1b33eae0a03c","condition":"full-information","relevant_dimensions":["antennae","pattern"],"bee_group":{"antennae":"B","wings":"X","pattern":"S","legs":"X"},"action":"avoid","summary":"bad-avoid","bonus":1.6200000000000012},{"rt":18792.5,"stimulus":"\n                    <p><b>Action: <em>avoid</em></b></p>\n                    <p>This is the bee that you just saw.</p>\n                    <img src=\"bees-with-color/bee-A1DF.svg\" width=\"200\">\n                    <p><span class=\"redText\">Bad choice,</span> the bee was friendly.<br>Your bonus pay is unchanged, and remains at $0.56.</p>\n            ","response":0,"trial_type":"html-button-response","trial_index":14,"time_elapsed":336041,"internal_node_id":"0.0-4.0-1.1","subject_id":"60df6e426572fff9d1e253b0","study_id":"6197b3f67c2b5cd3b6d9596a","session_id":"619be789325d1b33eae0a03c","condition":"full-information","relevant_dimensions":["antennae","pattern"],"bee_group":{"antennae":"B","wings":"X","pattern":"S","legs":"X"},"bonus":1.6200000000000012},{"rt":1780.300000011921,"stimulus":"bees-with-color/bee-B2SM.svg","response":0,"trial_type":"image-button-response","trial_index":15,"time_elapsed":337824,"internal_node_id":"0.0-4.0-0.2","subject_id":"60df6e426572fff9d1e253b0","study_id":"6197b3f67c2b5cd3b6d9596a","session_id":"619be789325d1b33eae0a03c","condition":"full-information","relevant_dimensions":["antennae","pattern"],"bee_group":{"antennae":"B","wings":"X","pattern":"S","legs":"X"},"action":"harvest","summary":"bad-harvest","bonus":1.6200000000000012},{"rt":16904.90000000596,"stimulus":"\n                    <p><b>Action: <em>harvest</em></b></p>\n                    <p>This is the bee that you just saw.</p>\n                    <img src=\"bees-with-color/bee-B2SM.svg\" width=\"200\">\n                    <p><span class=\"redText\">Bad choice, the bee was angry.</span><br><b>You have been stung!</b><br>Your pay has been decreased by $0.10. Your bonus pay is now $0.46.</p>\n            ","response":0,"trial_type":"html-button-response","trial_index":16,"time_elapsed":354730,"internal_node_id":"0.0-4.0-1.2","subject_id":"60df6e426572fff9d1e253b0","study_id":"6197b3f67c2b5cd3b6d9596a","session_id":"619be789325d1b33eae0a03c","condition":"full-information","relevant_dimensions":["antennae","pattern"],"bee_group":{"antennae":"B","wings":"X","pattern":"S","legs":"X"},"bonus":1.6200000000000012},{"rt":4978.5,"stimulus":"bees-with-color/bee-B1SM.svg","response":0,"trial_type":"image-button-response","trial_index":17,"time_elapsed":359711,"internal_node_id":"0.0-4.0-0.3","subject_id":"60df6e426572fff9d1e253b0","study_id":"6197b3f67c2b5cd3b6d9596a","session_id":"619be789325d1b33eae0a03c","condition":"full-information","relevant_dimensions":["antennae","pattern"],"bee_group":{"antennae":"B","wings":"X","pattern":"S","legs":"X"},"action":"harvest","summary":"bad-harvest","bonus":1.6200000000000012},{"rt":18723.09999999404,"stimulus":"\n                    <p><b>Action: <em>harvest</em></b></p>\n                    <p>This is the bee that you just saw.</p>\n                    <img src=\"bees-with-color/bee-B1SM.svg\" width=\"200\">\n                    <p><span class=\"redText\">Bad choice, the bee was angry.</span><br><b>You have been stung!</b><br>Your pay has been decreased by $0.10. Your bonus pay is now $0.36.</p>\n            ","response":0,"trial_type":"html-button-response","trial_index":18,"time_elapsed":378436,"internal_node_id":"0.0-4.0-1.3","subject_id":"60df6e426572fff9d1e253b0","study_id":"6197b3f67c2b5cd3b6d9596a","session_id":"619be789325d1b33eae0a03c","condition":"full-information","relevant_dimensions":["antennae","pattern"],"bee_group":{"antennae":"B","wings":"X","pattern":"S","legs":"X"},"bonus":1.6200000000000012},{"rt":4381.199999988079,"stimulus":"bees-with-color/bee-B1DF.svg","response":0,"trial_type":"image-button-response","trial_index":19,"time_elapsed":382819,"internal_node_id":"0.0-4.0-0.4","subject_id":"60df6e426572fff9d1e253b0","study_id":"6197b3f67c2b5cd3b6d9596a","session_id":"619be789325d1b33eae0a03c","condition":"full-information","relevant_dimensions":["antennae","pattern"],"bee_group":{"antennae":"B","wings":"X","pattern":"S","legs":"X"},"action":"harvest","summary":"good-harvest","bonus":1.6200000000000012},{"rt":12375.399999976158,"stimulus":"\n                    <p><b>Action: <em>harvest</em></b></p>\n                    <p>This is the bee that you just saw.</p>\n                    <img src=\"bees-with-color/bee-B1DF.svg\" width=\"200\">\n                    <p><span class=\"greenText\"><b>Successful harvest!</b></span><br>Your pay has increased by $0.02. Your bonus pay is now $0.38.</p>\n            ","response":0,"trial_type":"html-button-response","trial_index":20,"time_elapsed":395197,"internal_node_id":"0.0-4.0-1.4","subject_id":"60df6e426572fff9d1e253b0","study_id":"6197b3f67c2b5cd3b6d9596a","session_id":"619be789325d1b33eae0a03c","condition":"full-information","relevant_dimensions":["antennae","pattern"],"bee_group":{"antennae":"B","wings":"X","pattern":"S","legs":"X"},"bonus":1.6200000000000012},{"rt":1434.0999999940395,"stimulus":"bees-with-color/bee-A1SF.svg","response":0,"trial_type":"image-button-response","trial_index":21,"time_elapsed":396635,"internal_node_id":"0.0-4.0-0.5","subject_id":"60df6e426572fff9d1e253b0","study_id":"6197b3f67c2b5cd3b6d9596a","session_id":"619be789325d1b33eae0a03c","condition":"full-information","relevant_dimensions":["antennae","pattern"],"bee_group":{"antennae":"B","wings":"X","pattern":"S","legs":"X"},"action":"harvest","summary":"good-harvest","bonus":1.6200000000000012},{"rt":12142.59999999404,"stimulus":"\n                    <p><b>Action: <em>harvest</em></b></p>\n                    <p>This is the bee that you just saw.</p>\n                    <img src=\"bees-with-color/bee-A1SF.svg\" width=\"200\">\n                    <p><span class=\"greenText\"><b>Successful harvest!</b></span><br>Your pay has increased by $0.02. Your bonus pay is now $0.40.</p>\n            ","response":0,"trial_type":"html-button-response","trial_index":22,"time_elapsed":408778,"internal_node_id":"0.0-4.0-1.5","subject_id":"60df6e426572fff9d1e253b0","study_id":"6197b3f67c2b5cd3b6d9596a","session_id":"619be789325d1b33eae0a03c","condition":"full-information","relevant_dimensions":["antennae","pattern"],"bee_group":{"antennae":"B","wings":"X","pattern":"S","legs":"X"},"bonus":1.6200000000000012},{"rt":14632.300000011921,"stimulus":"bees-with-color/bee-A1DM.svg","response":0,"trial_type":"image-button-response","trial_index":23,"time_elapsed":423413,"internal_node_id":"0.0-4.0-0.6","subject_id":"60df6e426572fff9d1e253b0","study_id":"6197b3f67c2b5cd3b6d9596a","session_id":"619be789325d1b33eae0a03c","condition":"full-information","relevant_dimensions":["antennae","pattern"],"bee_group":{"antennae":"B","wings":"X","pattern":"S","legs":"X"},"action":"harvest","summary":"good-harvest","bonus":1.6200000000000012},{"rt":3282.699999988079,"stimulus":"\n                    <p><b>Action: <em>harvest</em></b></p>\n                    <p>This is the bee that you just saw.</p>\n                    <img src=\"bees-with-color/bee-A1DM.svg\" width=\"200\">\n                    <p><span class=\"greenText\"><b>Successful harvest!</b></span><br>Your pay has increased by $0.02. Your bonus pay is now $0.42.</p>\n            ","response":0,"trial_type":"html-button-response","trial_index":24,"time_elapsed":426697,"internal_node_id":"0.0-4.0-1.6","subject_id":"60df6e426572fff9d1e253b0","study_id":"6197b3f67c2b5cd3b6d9596a","session_id":"619be789325d1b33eae0a03c","condition":"full-information","relevant_dimensions":["antennae","pattern"],"bee_group":{"antennae":"B","wings":"X","pattern":"S","legs":"X"},"bonus":1.6200000000000012},{"rt":14758.5,"stimulus":"bees-with-color/bee-A2SM.svg","response":1,"trial_type":"image-button-response","trial_index":25,"time_elapsed":441460,"internal_node_id":"0.0-4.0-0.7","subject_id":"60df6e426572fff9d1e253b0","study_id":"6197b3f67c2b5cd3b6d9596a","session_id":"619be789325d1b33eae0a03c","condition":"full-information","relevant_dimensions":["antennae","pattern"],"bee_group":{"antennae":"B","wings":"X","pattern":"S","legs":"X"},"action":"avoid","summary":"bad-avoid","bonus":1.6200000000000012},{"rt":23951.899999976158,"stimulus":"\n                    <p><b>Action: <em>avoid</em></b></p>\n                    <p>This is the bee that you just saw.</p>\n                    <img src=\"bees-with-color/bee-A2SM.svg\" width=\"200\">\n                    <p><span class=\"redText\">Bad choice,</span> the bee was friendly.<br>Your bonus pay is unchanged, and remains at $0.42.</p>\n            ","response":0,"trial_type":"html-button-response","trial_index":26,"time_elapsed":465417,"internal_node_id":"0.0-4.0-1.7","subject_id":"60df6e426572fff9d1e253b0","study_id":"6197b3f67c2b5cd3b6d9596a","session_id":"619be789325d1b33eae0a03c","condition":"full-information","relevant_dimensions":["antennae","pattern"],"bee_group":{"antennae":"B","wings":"X","pattern":"S","legs":"X"},"bonus":1.6200000000000012},{"rt":18813.69999998808,"stimulus":"bees-with-color/bee-A2DF.svg","response":0,"trial_type":"image-button-response","trial_index":27,"time_elapsed":484235,"internal_node_id":"0.0-4.0-0.8","subject_id":"60df6e426572fff9d1e253b0","study_id":"6197b3f67c2b5cd3b6d9596a","session_id":"619be789325d1b33eae0a03c","condition":"full-information","relevant_dimensions":["antennae","pattern"],"bee_group":{"antennae":"B","wings":"X","pattern":"S","legs":"X"},"action":"harvest","summary":"good-harvest","bonus":1.6200000000000012},{"rt":3360.2999999821186,"stimulus":"\n                    <p><b>Action: <em>harvest</em></b></p>\n                    <p>This is the bee that you just saw.</p>\n                    <img src=\"bees-with-color/bee-A2DF.svg\" width=\"200\">\n                    <p><span class=\"greenText\"><b>Successful harvest!</b></span><br>Your pay has increased by $0.02. Your bonus pay is now $0.44.</p>\n            ","response":0,"trial_type":"html-button-response","trial_index":28,"time_elapsed":487597,"internal_node_id":"0.0-4.0-1.8","subject_id":"60df6e426572fff9d1e253b0","study_id":"6197b3f67c2b5cd3b6d9596a","session_id":"619be789325d1b33eae0a03c","condition":"full-information","relevant_dimensions":["antennae","pattern"],"bee_group":{"antennae":"B","wings":"X","pattern":"S","legs":"X"},"bonus":1.6200000000000012},{"rt":22177.59999999404,"stimulus":"bees-with-color/bee-A2SF.svg","response":1,"trial_type":"image-button-response","trial_index":29,"time_elapsed":509780,"internal_node_id":"0.0-4.0-0.9","subject_id":"60df6e426572fff9d1e253b0","study_id":"6197b3f67c2b5cd3b6d9596a","session_id":"619be789325d1b33eae0a03c","condition":"full-information","relevant_dimensions":["antennae","pattern"],"bee_group":{"antennae":"B","wings":"X","pattern":"S","legs":"X"},"action":"avoid","summary":"bad-avoid","bonus":1.6200000000000012},{"rt":6023.5,"stimulus":"\n                    <p><b>Action: <em>avoid</em></b></p>\n                    <p>This is the bee that you just saw.</p>\n                    <img src=\"bees-with-color/bee-A2SF.svg\" width=\"200\">\n                    <p><span class=\"redText\">Bad choice,</span> the bee was friendly.<br>Your bonus pay is unchanged, and remains at $0.44.</p>\n            ","response":0,"trial_type":"html-button-response","trial_index":30,"time_elapsed":515805,"internal_node_id":"0.0-4.0-1.9","subject_id":"60df6e426572fff9d1e253b0","study_id":"6197b3f67c2b5cd3b6d9596a","session_id":"619be789325d1b33eae0a03c","condition":"full-information","relevant_dimensions":["antennae","pattern"],"bee_group":{"antennae":"B","wings":"X","pattern":"S","legs":"X"},"bonus":1.6200000000000012},{"rt":8840.300000011921,"stimulus":"bees-with-color/bee-A1SM.svg","response":0,"trial_type":"image-button-response","trial_index":31,"time_elapsed":524648,"internal_node_id":"0.0-4.0-0.10","subject_id":"60df6e426572fff9d1e253b0","study_id":"6197b3f67c2b5cd3b6d9596a","session_id":"619be789325d1b33eae0a03c","condition":"full-information","relevant_dimensions":["antennae","pattern"],"bee_group":{"antennae":"B","wings":"X","pattern":"S","legs":"X"},"action":"harvest","summary":"good-harvest","bonus":1.6200000000000012},{"rt":2753.100000023842,"stimulus":"\n                    <p><b>Action: <em>harvest</em></b></p>\n                    <p>This is the bee that you just saw.</p>\n                    <img src=\"bees-with-color/bee-A1SM.svg\" width=\"200\">\n                    <p><span class=\"greenText\"><b>Successful harvest!</b></span><br>Your pay has increased by $0.02. Your bonus pay is now $0.46.</p>\n            ","response":0,"trial_type":"html-button-response","trial_index":32,"time_elapsed":527402,"internal_node_id":"0.0-4.0-1.10","subject_id":"60df6e426572fff9d1e253b0","study_id":"6197b3f67c2b5cd3b6d9596a","session_id":"619be789325d1b33eae0a03c","condition":"full-information","relevant_dimensions":["antennae","pattern"],"bee_group":{"antennae":"B","wings":"X","pattern":"S","legs":"X"},"bonus":1.6200000000000012},{"rt":2920.4000000059605,"stimulus":"bees-with-color/bee-B2DM.svg","response":0,"trial_type":"image-button-response","trial_index":33,"time_elapsed":530324,"internal_node_id":"0.0-4.0-0.11","subject_id":"60df6e426572fff9d1e253b0","study_id":"6197b3f67c2b5cd3b6d9596a","session_id":"619be789325d1b33eae0a03c","condition":"full-information","relevant_dimensions":["antennae","pattern"],"bee_group":{"antennae":"B","wings":"X","pattern":"S","legs":"X"},"action":"harvest","summary":"good-harvest","bonus":1.6200000000000012},{"rt":32184.80000001192,"stimulus":"\n                    <p><b>Action: <em>harvest</em></b></p>\n                    <p>This is the bee that you just saw.</p>\n                    <img src=\"bees-with-color/bee-B2DM.svg\" width=\"200\">\n                    <p><span class=\"greenText\"><b>Successful harvest!</b></span><br>Your pay has increased by $0.02. Your bonus pay is now $0.48.</p>\n            ","response":0,"trial_type":"html-button-response","trial_index":34,"time_elapsed":562510,"internal_node_id":"0.0-4.0-1.11","subject_id":"60df6e426572fff9d1e253b0","study_id":"6197b3f67c2b5cd3b6d9596a","session_id":"619be789325d1b33eae0a03c","condition":"full-information","relevant_dimensions":["antennae","pattern"],"bee_group":{"antennae":"B","wings":"X","pattern":"S","legs":"X"},"bonus":1.6200000000000012},{"rt":18962,"stimulus":"bees-with-color/bee-B1SF.svg","response":0,"trial_type":"image-button-response","trial_index":35,"time_elapsed":581474,"internal_node_id":"0.0-4.0-0.12","subject_id":"60df6e426572fff9d1e253b0","study_id":"6197b3f67c2b5cd3b6d9596a","session_id":"619be789325d1b33eae0a03c","condition":"full-information","relevant_dimensions":["antennae","pattern"],"bee_group":{"antennae":"B","wings":"X","pattern":"S","legs":"X"},"action":"harvest","summary":"bad-harvest","bonus":1.6200000000000012},{"rt":28757.70000001788,"stimulus":"\n                    <p><b>Action: <em>harvest</em></b></p>\n                    <p>This is the bee that you just saw.</p>\n                    <img src=\"bees-with-color/bee-B1SF.svg\" width=\"200\">\n                    <p><span class=\"redText\">Bad choice, the bee was angry.</span><br><b>You have been stung!</b><br>Your pay has been decreased by $0.10. Your bonus pay is now $0.38.</p>\n            ","response":0,"trial_type":"html-button-response","trial_index":36,"time_elapsed":610234,"internal_node_id":"0.0-4.0-1.12","subject_id":"60df6e426572fff9d1e253b0","study_id":"6197b3f67c2b5cd3b6d9596a","session_id":"619be789325d1b33eae0a03c","condition":"full-information","relevant_dimensions":["antennae","pattern"],"bee_group":{"antennae":"B","wings":"X","pattern":"S","legs":"X"},"bonus":1.6200000000000012},{"rt":2058.300000011921,"stimulus":"bees-with-color/bee-B2DF.svg","response":0,"trial_type":"image-button-response","trial_index":37,"time_elapsed":612294,"internal_node_id":"0.0-4.0-0.13","subject_id":"60df6e426572fff9d1e253b0","study_id":"6197b3f67c2b5cd3b6d9596a","session_id":"619be789325d1b33eae0a03c","condition":"full-information","relevant_dimensions":["antennae","pattern"],"bee_group":{"antennae":"B","wings":"X","pattern":"S","legs":"X"},"action":"harvest","summary":"good-harvest","bonus":1.6200000000000012},{"rt":901.8000000119209,"stimulus":"\n                    <p><b>Action: <em>harvest</em></b></p>\n                    <p>This is the bee that you just saw.</p>\n                    <img src=\"bees-with-color/bee-B2DF.svg\" width=\"200\">\n                    <p><span class=\"greenText\"><b>Successful harvest!</b></span><br>Your pay has increased by $0.02. Your bonus pay is now $0.40.</p>\n            ","response":0,"trial_type":"html-button-response","trial_index":38,"time_elapsed":613200,"internal_node_id":"0.0-4.0-1.13","subject_id":"60df6e426572fff9d1e253b0","study_id":"6197b3f67c2b5cd3b6d9596a","session_id":"619be789325d1b33eae0a03c","condition":"full-information","relevant_dimensions":["antennae","pattern"],"bee_group":{"antennae":"B","wings":"X","pattern":"S","legs":"X"},"bonus":1.6200000000000012},{"rt":2057.5999999940395,"stimulus":"bees-with-color/bee-B2SF.svg","response":1,"trial_type":"image-button-response","trial_index":39,"time_elapsed":615259,"internal_node_id":"0.0-4.0-0.14","subject_id":"60df6e426572fff9d1e253b0","study_id":"6197b3f67c2b5cd3b6d9596a","session_id":"619be789325d1b33eae0a03c","condition":"full-information","relevant_dimensions":["antennae","pattern"],"bee_group":{"antennae":"B","wings":"X","pattern":"S","legs":"X"},"action":"avoid","summary":"good-avoid","bonus":1.6200000000000012},{"rt":1281.0999999940395,"stimulus":"\n                    <p><b>Action: <em>avoid</em></b></p>\n                    <p>This is the bee that you just saw.</p>\n                    <img src=\"bees-with-color/bee-B2SF.svg\" width=\"200\">\n                    <p><span class=\"greenText\">Good choice!</span>  This bee would have stung you.<br>Your bonus pay is unchanged, and remains at $0.40.</p>\n            ","response":0,"trial_type":"html-button-response","trial_index":40,"time_elapsed":616541,"internal_node_id":"0.0-4.0-1.14","subject_id":"60df6e426572fff9d1e253b0","study_id":"6197b3f67c2b5cd3b6d9596a","session_id":"619be789325d1b33eae0a03c","condition":"full-information","relevant_dimensions":["antennae","pattern"],"bee_group":{"antennae":"B","wings":"X","pattern":"S","legs":"X"},"bonus":1.6200000000000012},{"rt":1280.8999999761581,"stimulus":"bees-with-color/bee-A2DM.svg","response":0,"trial_type":"image-button-response","trial_index":41,"time_elapsed":617824,"internal_node_id":"0.0-4.0-0.15","subject_id":"60df6e426572fff9d1e253b0","study_id":"6197b3f67c2b5cd3b6d9596a","session_id":"619be789325d1b33eae0a03c","condition":"full-information","relevant_dimensions":["antennae","pattern"],"bee_group":{"antennae":"B","wings":"X","pattern":"S","legs":"X"},"action":"harvest","summary":"good-harvest","bonus":1.6200000000000012},{"rt":584,"stimulus":"\n                    <p><b>Action: <em>harvest</em></b></p>\n                    <p>This is the bee that you just saw.</p>\n                    <img src=\"bees-with-color/bee-A2DM.svg\" width=\"200\">\n                    <p><span class=\"greenText\"><b>Successful harvest!</b></span><br>Your pay has increased by $0.02. Your bonus pay is now $0.42.</p>\n            ","response":0,"trial_type":"html-button-response","trial_index":42,"time_elapsed":618409,"internal_node_id":"0.0-4.0-1.15","subject_id":"60df6e426572fff9d1e253b0","study_id":"6197b3f67c2b5cd3b6d9596a","session_id":"619be789325d1b33eae0a03c","condition":"full-information","relevant_dimensions":["antennae","pattern"],"bee_group":{"antennae":"B","wings":"X","pattern":"S","legs":"X"},"bonus":1.6200000000000012},{"rt":1721.199999988079,"stimulus":"bees-with-color/bee-B2SM.svg","response":1,"trial_type":"image-button-response","trial_index":43,"time_elapsed":620131,"internal_node_id":"0.0-4.0-0.16","subject_id":"60df6e426572fff9d1e253b0","study_id":"6197b3f67c2b5cd3b6d9596a","session_id":"619be789325d1b33eae0a03c","condition":"full-information","relevant_dimensions":["antennae","pattern"],"bee_group":{"antennae":"B","wings":"X","pattern":"S","legs":"X"},"action":"avoid","summary":"good-avoid","bonus":1.6200000000000012},{"rt":700.5,"stimulus":"\n                    <p><b>Action: <em>avoid</em></b></p>\n                    <p>This is the bee that you just saw.</p>\n                    <img src=\"bees-with-color/bee-B2SM.svg\" width=\"200\">\n                    <p><span class=\"greenText\">Good choice!</span>  This bee would have stung you.<br>Your bonus pay is unchanged, and remains at $0.42.</p>\n            ","response":0,"trial_type":"html-button-response","trial_index":44,"time_elapsed":620834,"internal_node_id":"0.0-4.0-1.16","subject_id":"60df6e426572fff9d1e253b0","study_id":"6197b3f67c2b5cd3b6d9596a","session_id":"619be789325d1b33eae0a03c","condition":"full-information","relevant_dimensions":["antennae","pattern"],"bee_group":{"antennae":"B","wings":"X","pattern":"S","legs":"X"},"bonus":1.6200000000000012},{"rt":1719.800000011921,"stimulus":"bees-with-color/bee-A1SM.svg","response":0,"trial_type":"image-button-response","trial_index":45,"time_elapsed":622557,"internal_node_id":"0.0-4.0-0.17","subject_id":"60df6e426572fff9d1e253b0","study_id":"6197b3f67c2b5cd3b6d9596a","session_id":"619be789325d1b33eae0a03c","condition":"full-information","relevant_dimensions":["antennae","pattern"],"bee_group":{"antennae":"B","wings":"X","pattern":"S","legs":"X"},"action":"harvest","summary":"good-harvest","bonus":1.6200000000000012},{"rt":521.5999999940395,"stimulus":"\n                    <p><b>Action: <em>harvest</em></b></p>\n                    <p>This is the bee that you just saw.</p>\n                    <img src=\"bees-with-color/bee-A1SM.svg\" width=\"200\">\n                    <p><span class=\"greenText\"><b>Successful harvest!</b></span><br>Your pay has increased by $0.02. Your bonus pay is now $0.44.</p>\n            ","response":0,"trial_type":"html-button-response","trial_index":46,"time_elapsed":623081,"internal_node_id":"0.0-4.0-1.17","subject_id":"60df6e426572fff9d1e253b0","study_id":"6197b3f67c2b5cd3b6d9596a","session_id":"619be789325d1b33eae0a03c","condition":"full-information","relevant_dimensions":["antennae","pattern"],"bee_group":{"antennae":"B","wings":"X","pattern":"S","legs":"X"},"bonus":1.6200000000000012},{"rt":3338.7000000178814,"stimulus":"bees-with-color/bee-A2DM.svg","response":0,"trial_type":"image-button-response","trial_index":47,"time_elapsed":626421,"internal_node_id":"0.0-4.0-0.18","subject_id":"60df6e426572fff9d1e253b0","study_id":"6197b3f67c2b5cd3b6d9596a","session_id":"619be789325d1b33eae0a03c","condition":"full-information","relevant_dimensions":["antennae","pattern"],"bee_group":{"antennae":"B","wings":"X","pattern":"S","legs":"X"},"action":"harvest","summary":"good-harvest","bonus":1.6200000000000012},{"rt":845,"stimulus":"\n                    <p><b>Action: <em>harvest</em></b></p>\n                    <p>This is the bee that you just saw.</p>\n                    <img src=\"bees-with-color/bee-A2DM.svg\" width=\"200\">\n                    <p><span class=\"greenText\"><b>Successful harvest!</b></span><br>Your pay has increased by $0.02. Your bonus pay is now $0.46.</p>\n            ","response":0,"trial_type":"html-button-response","trial_index":48,"time_elapsed":627269,"internal_node_id":"0.0-4.0-1.18","subject_id":"60df6e426572fff9d1e253b0","study_id":"6197b3f67c2b5cd3b6d9596a","session_id":"619be789325d1b33eae0a03c","condition":"full-information","relevant_dimensions":["antennae","pattern"],"bee_group":{"antennae":"B","wings":"X","pattern":"S","legs":"X"},"bonus":1.6200000000000012},{"rt":761,"stimulus":"bees-with-color/bee-A1DF.svg","response":0,"trial_type":"image-button-response","trial_index":49,"time_elapsed":628032,"internal_node_id":"0.0-4.0-0.19","subject_id":"60df6e426572fff9d1e253b0","study_id":"6197b3f67c2b5cd3b6d9596a","session_id":"619be789325d1b33eae0a03c","condition":"full-information","relevant_dimensions":["antennae","pattern"],"bee_group":{"antennae":"B","wings":"X","pattern":"S","legs":"X"},"action":"harvest","summary":"good-harvest","bonus":1.6200000000000012},{"rt":437.2000000178814,"stimulus":"\n                    <p><b>Action: <em>harvest</em></b></p>\n                    <p>This is the bee that you just saw.</p>\n                    <img src=\"bees-with-color/bee-A1DF.svg\" width=\"200\">\n                    <p><span class=\"greenText\"><b>Successful harvest!</b></span><br>Your pay has increased by $0.02. Your bonus pay is now $0.48.</p>\n            ","response":0,"trial_type":"html-button-response","trial_index":50,"time_elapsed":628471,"internal_node_id":"0.0-4.0-1.19","subject_id":"60df6e426572fff9d1e253b0","study_id":"6197b3f67c2b5cd3b6d9596a","session_id":"619be789325d1b33eae0a03c","condition":"full-information","relevant_dimensions":["antennae","pattern"],"bee_group":{"antennae":"B","wings":"X","pattern":"S","legs":"X"},"bonus":1.6200000000000012},{"rt":700.8000000119209,"stimulus":"bees-with-color/bee-B1DM.svg","response":0,"trial_type":"image-button-response","trial_index":51,"time_elapsed":629173,"internal_node_id":"0.0-4.0-0.20","subject_id":"60df6e426572fff9d1e253b0","study_id":"6197b3f67c2b5cd3b6d9596a","session_id":"619be789325d1b33eae0a03c","condition":"full-information","relevant_dimensions":["antennae","pattern"],"bee_group":{"antennae":"B","wings":"X","pattern":"S","legs":"X"},"action":"harvest","summary":"good-harvest","bonus":1.6200000000000012},{"rt":462.90000000596046,"stimulus":"\n                    <p><b>Action: <em>harvest</em></b></p>\n                    <p>This is the bee that you just saw.</p>\n                    <img src=\"bees-with-color/bee-B1DM.svg\" width=\"200\">\n                    <p><span class=\"greenText\"><b>Successful harvest!</b></span><br>Your pay has increased by $0.02. Your bonus pay is now $0.50.</p>\n            ","response":0,"trial_type":"html-button-response","trial_index":52,"time_elapsed":629637,"internal_node_id":"0.0-4.0-1.20","subject_id":"60df6e426572fff9d1e253b0","study_id":"6197b3f67c2b5cd3b6d9596a","session_id":"619be789325d1b33eae0a03c","condition":"full-information","relevant_dimensions":["antennae","pattern"],"bee_group":{"antennae":"B","wings":"X","pattern":"S","legs":"X"},"bonus":1.6200000000000012},{"rt":820.7000000178814,"stimulus":"bees-with-color/bee-B2DM.svg","response":0,"trial_type":"image-button-response","trial_index":53,"time_elapsed":630459,"internal_node_id":"0.0-4.0-0.21","subject_id":"60df6e426572fff9d1e253b0","study_id":"6197b3f67c2b5cd3b6d9596a","session_id":"619be789325d1b33eae0a03c","condition":"full-information","relevant_dimensions":["antennae","pattern"],"bee_group":{"antennae":"B","wings":"X","pattern":"S","legs":"X"},"action":"harvest","summary":"good-harvest","bonus":1.6200000000000012},{"rt":482,"stimulus":"\n                    <p><b>Action: <em>harvest</em></b></p>\n                    <p>This is the bee that you just saw.</p>\n                    <img src=\"bees-with-color/bee-B2DM.svg\" width=\"200\">\n                    <p><span class=\"greenText\"><b>Successful harvest!</b></span><br>Your pay has increased by $0.02. Your bonus pay is now $0.52.</p>\n            ","response":0,"trial_type":"html-button-response","trial_index":54,"time_elapsed":630942,"internal_node_id":"0.0-4.0-1.21","subject_id":"60df6e426572fff9d1e253b0","study_id":"6197b3f67c2b5cd3b6d9596a","session_id":"619be789325d1b33eae0a03c","condition":"full-information","relevant_dimensions":["antennae","pattern"],"bee_group":{"antennae":"B","wings":"X","pattern":"S","legs":"X"},"bonus":1.6200000000000012},{"rt":1210.7000000178814,"stimulus":"bees-with-color/bee-B1SM.svg","response":1,"trial_type":"image-button-response","trial_index":55,"time_elapsed":632154,"internal_node_id":"0.0-4.0-0.22","subject_id":"60df6e426572fff9d1e253b0","study_id":"6197b3f67c2b5cd3b6d9596a","session_id":"619be789325d1b33eae0a03c","condition":"full-information","relevant_dimensions":["antennae","pattern"],"bee_group":{"antennae":"B","wings":"X","pattern":"S","legs":"X"},"action":"avoid","summary":"good-avoid","bonus":1.6200000000000012},{"rt":611.4000000059605,"stimulus":"\n                    <p><b>Action: <em>avoid</em></b></p>\n                    <p>This is the bee that you just saw.</p>\n                    <img src=\"bees-with-color/bee-B1SM.svg\" width=\"200\">\n                    <p><span class=\"greenText\">Good choice!</span>  This bee would have stung you.<br>Your bonus pay is unchanged, and remains at $0.52.</p>\n            ","response":0,"trial_type":"html-button-response","trial_index":56,"time_elapsed":632767,"internal_node_id":"0.0-4.0-1.22","subject_id":"60df6e426572fff9d1e253b0","study_id":"6197b3f67c2b5cd3b6d9596a","session_id":"619be789325d1b33eae0a03c","condition":"full-information","relevant_dimensions":["antennae","pattern"],"bee_group":{"antennae":"B","wings":"X","pattern":"S","legs":"X"},"bonus":1.6200000000000012},{"rt":711,"stimulus":"bees-with-color/bee-A2DF.svg","response":0,"trial_type":"image-button-response","trial_index":57,"time_elapsed":633480,"internal_node_id":"0.0-4.0-0.23","subject_id":"60df6e426572fff9d1e253b0","study_id":"6197b3f67c2b5cd3b6d9596a","session_id":"619be789325d1b33eae0a03c","condition":"full-information","relevant_dimensions":["antennae","pattern"],"bee_group":{"antennae":"B","wings":"X","pattern":"S","legs":"X"},"action":"harvest","summary":"good-harvest","bonus":1.6200000000000012},{"rt":460.30000001192093,"stimulus":"\n                    <p><b>Action: <em>harvest</em></b></p>\n                    <p>This is the bee that you just saw.</p>\n                    <img src=\"bees-with-color/bee-A2DF.svg\" width=\"200\">\n                    <p><span class=\"greenText\"><b>Successful harvest!</b></span><br>Your pay has increased by $0.02. Your bonus pay is now $0.54.</p>\n            ","response":0,"trial_type":"html-button-response","trial_index":58,"time_elapsed":633941,"internal_node_id":"0.0-4.0-1.23","subject_id":"60df6e426572fff9d1e253b0","study_id":"6197b3f67c2b5cd3b6d9596a","session_id":"619be789325d1b33eae0a03c","condition":"full-information","relevant_dimensions":["antennae","pattern"],"bee_group":{"antennae":"B","wings":"X","pattern":"S","legs":"X"},"bonus":1.6200000000000012},{"rt":1531,"stimulus":"bees-with-color/bee-A2SF.svg","response":0,"trial_type":"image-button-response","trial_index":59,"time_elapsed":635473,"internal_node_id":"0.0-4.0-0.24","subject_id":"60df6e426572fff9d1e253b0","study_id":"6197b3f67c2b5cd3b6d9596a","session_id":"619be789325d1b33eae0a03c","condition":"full-information","relevant_dimensions":["antennae","pattern"],"bee_group":{"antennae":"B","wings":"X","pattern":"S","legs":"X"},"action":"harvest","summary":"good-harvest","bonus":1.6200000000000012},{"rt":480.69999998807907,"stimulus":"\n                    <p><b>Action: <em>harvest</em></b></p>\n                    <p>This is the bee that you just saw.</p>\n                    <img src=\"bees-with-color/bee-A2SF.svg\" width=\"200\">\n                    <p><span class=\"greenText\"><b>Successful harvest!</b></span><br>Your pay has increased by $0.02. Your bonus pay is now $0.56.</p>\n            ","response":0,"trial_type":"html-button-response","trial_index":60,"time_elapsed":635956,"internal_node_id":"0.0-4.0-1.24","subject_id":"60df6e426572fff9d1e253b0","study_id":"6197b3f67c2b5cd3b6d9596a","session_id":"619be789325d1b33eae0a03c","condition":"full-information","relevant_dimensions":["antennae","pattern"],"bee_group":{"antennae":"B","wings":"X","pattern":"S","legs":"X"},"bonus":1.6200000000000012},{"rt":1931.5,"stimulus":"bees-with-color/bee-A2SM.svg","response":0,"trial_type":"image-button-response","trial_index":61,"time_elapsed":637888,"internal_node_id":"0.0-4.0-0.25","subject_id":"60df6e426572fff9d1e253b0","study_id":"6197b3f67c2b5cd3b6d9596a","session_id":"619be789325d1b33eae0a03c","condition":"full-information","relevant_dimensions":["antennae","pattern"],"bee_group":{"antennae":"B","wings":"X","pattern":"S","legs":"X"},"action":"harvest","summary":"good-harvest","bonus":1.6200000000000012},{"rt":513.1000000238419,"stimulus":"\n                    <p><b>Action: <em>harvest</em></b></p>\n                    <p>This is the bee that you just saw.</p>\n                    <img src=\"bees-with-color/bee-A2SM.svg\" width=\"200\">\n                    <p><span class=\"greenText\"><b>Successful harvest!</b></span><br>Your pay has increased by $0.02. Your bonus pay is now $0.58.</p>\n            ","response":0,"trial_type":"html-button-response","trial_index":62,"time_elapsed":638402,"internal_node_id":"0.0-4.0-1.25","subject_id":"60df6e426572fff9d1e253b0","study_id":"6197b3f67c2b5cd3b6d9596a","session_id":"619be789325d1b33eae0a03c","condition":"full-information","relevant_dimensions":["antennae","pattern"],"bee_group":{"antennae":"B","wings":"X","pattern":"S","legs":"X"},"bonus":1.6200000000000012},{"rt":1140.1000000238419,"stimulus":"bees-with-color/bee-B1SF.svg","response":1,"trial_type":"image-button-response","trial_index":63,"time_elapsed":639544,"internal_node_id":"0.0-4.0-0.26","subject_id":"60df6e426572fff9d1e253b0","study_id":"6197b3f67c2b5cd3b6d9596a","session_id":"619be789325d1b33eae0a03c","condition":"full-information","relevant_dimensions":["antennae","pattern"],"bee_group":{"antennae":"B","wings":"X","pattern":"S","legs":"X"},"action":"avoid","summary":"good-avoid","bonus":1.6200000000000012},{"rt":553,"stimulus":"\n                    <p><b>Action: <em>avoid</em></b></p>\n                    <p>This is the bee that you just saw.</p>\n                    <img src=\"bees-with-color/bee-B1SF.svg\" width=\"200\">\n                    <p><span class=\"greenText\">Good choice!</span>  This bee would have stung you.<br>Your bonus pay is unchanged, and remains at $0.58.</p>\n            ","response":0,"trial_type":"html-button-response","trial_index":64,"time_elapsed":640099,"internal_node_id":"0.0-4.0-1.26","subject_id":"60df6e426572fff9d1e253b0","study_id":"6197b3f67c2b5cd3b6d9596a","session_id":"619be789325d1b33eae0a03c","condition":"full-information","relevant_dimensions":["antennae","pattern"],"bee_group":{"antennae":"B","wings":"X","pattern":"S","legs":"X"},"bonus":1.6200000000000012},{"rt":667.8999999761581,"stimulus":"bees-with-color/bee-B2DF.svg","response":0,"trial_type":"image-button-response","trial_index":65,"time_elapsed":640770,"internal_node_id":"0.0-4.0-0.27","subject_id":"60df6e426572fff9d1e253b0","study_id":"6197b3f67c2b5cd3b6d9596a","session_id":"619be789325d1b33eae0a03c","condition":"full-information","relevant_dimensions":["antennae","pattern"],"bee_group":{"antennae":"B","wings":"X","pattern":"S","legs":"X"},"action":"harvest","summary":"good-harvest","bonus":1.6200000000000012},{"rt":437.69999998807907,"stimulus":"\n                    <p><b>Action: <em>harvest</em></b></p>\n                    <p>This is the bee that you just saw.</p>\n                    <img src=\"bees-with-color/bee-B2DF.svg\" width=\"200\">\n                    <p><span class=\"greenText\"><b>Successful harvest!</b></span><br>Your pay has increased by $0.02. Your bonus pay is now $0.60.</p>\n            ","response":0,"trial_type":"html-button-response","trial_index":66,"time_elapsed":641210,"internal_node_id":"0.0-4.0-1.27","subject_id":"60df6e426572fff9d1e253b0","study_id":"6197b3f67c2b5cd3b6d9596a","session_id":"619be789325d1b33eae0a03c","condition":"full-information","relevant_dimensions":["antennae","pattern"],"bee_group":{"antennae":"B","wings":"X","pattern":"S","legs":"X"},"bonus":1.6200000000000012},{"rt":910.8000000119209,"stimulus":"bees-with-color/bee-B1DF.svg","response":0,"trial_type":"image-button-response","trial_index":67,"time_elapsed":642122,"internal_node_id":"0.0-4.0-0.28","subject_id":"60df6e426572fff9d1e253b0","study_id":"6197b3f67c2b5cd3b6d9596a","session_id":"619be789325d1b33eae0a03c","condition":"full-information","relevant_dimensions":["antennae","pattern"],"bee_group":{"antennae":"B","wings":"X","pattern":"S","legs":"X"},"action":"harvest","summary":"good-harvest","bonus":1.6200000000000012},{"rt":602,"stimulus":"\n                    <p><b>Action: <em>harvest</em></b></p>\n                    <p>This is the bee that you just saw.</p>\n                    <img src=\"bees-with-color/bee-B1DF.svg\" width=\"200\">\n                    <p><span class=\"greenText\"><b>Successful harvest!</b></span><br>Your pay has increased by $0.02. Your bonus pay is now $0.62.</p>\n            ","response":0,"trial_type":"html-button-response","trial_index":68,"time_elapsed":642725,"internal_node_id":"0.0-4.0-1.28","subject_id":"60df6e426572fff9d1e253b0","study_id":"6197b3f67c2b5cd3b6d9596a","session_id":"619be789325d1b33eae0a03c","condition":"full-information","relevant_dimensions":["antennae","pattern"],"bee_group":{"antennae":"B","wings":"X","pattern":"S","legs":"X"},"bonus":1.6200000000000012},{"rt":3572.699999988079,"stimulus":"bees-with-color/bee-B2SF.svg","response":1,"trial_type":"image-button-response","trial_index":69,"time_elapsed":646299,"internal_node_id":"0.0-4.0-0.29","subject_id":"60df6e426572fff9d1e253b0","study_id":"6197b3f67c2b5cd3b6d9596a","session_id":"619be789325d1b33eae0a03c","condition":"full-information","relevant_dimensions":["antennae","pattern"],"bee_group":{"antennae":"B","wings":"X","pattern":"S","legs":"X"},"action":"avoid","summary":"good-avoid","bonus":1.6200000000000012},{"rt":532.7999999821186,"stimulus":"\n                    <p><b>Action: <em>avoid</em></b></p>\n                    <p>This is the bee that you just saw.</p>\n                    <img src=\"bees-with-color/bee-B2SF.svg\" width=\"200\">\n                    <p><span class=\"greenText\">Good choice!</span>  This bee would have stung you.<br>Your bonus pay is unchanged, and remains at $0.62.</p>\n            ","response":0,"trial_type":"html-button-response","trial_index":70,"time_elapsed":646834,"internal_node_id":"0.0-4.0-1.29","subject_id":"60df6e426572fff9d1e253b0","study_id":"6197b3f67c2b5cd3b6d9596a","session_id":"619be789325d1b33eae0a03c","condition":"full-information","relevant_dimensions":["antennae","pattern"],"bee_group":{"antennae":"B","wings":"X","pattern":"S","legs":"X"},"bonus":1.6200000000000012},{"rt":826.6999999880791,"stimulus":"bees-with-color/bee-A1DM.svg","response":0,"trial_type":"image-button-response","trial_index":71,"time_elapsed":647666,"internal_node_id":"0.0-4.0-0.30","subject_id":"60df6e426572fff9d1e253b0","study_id":"6197b3f67c2b5cd3b6d9596a","session_id":"619be789325d1b33eae0a03c","condition":"full-information","relevant_dimensions":["antennae","pattern"],"bee_group":{"antennae":"B","wings":"X","pattern":"S","legs":"X"},"action":"harvest","summary":"good-harvest","bonus":1.6200000000000012},{"rt":375.5,"stimulus":"\n                    <p><b>Action: <em>harvest</em></b></p>\n                    <p>This is the bee that you just saw.</p>\n                    <img src=\"bees-with-color/bee-A1DM.svg\" width=\"200\">\n                    <p><span class=\"greenText\"><b>Successful harvest!</b></span><br>Your pay has increased by $0.02. Your bonus pay is now $0.64.</p>\n            ","response":0,"trial_type":"html-button-response","trial_index":72,"time_elapsed":648044,"internal_node_id":"0.0-4.0-1.30","subject_id":"60df6e426572fff9d1e253b0","study_id":"6197b3f67c2b5cd3b6d9596a","session_id":"619be789325d1b33eae0a03c","condition":"full-information","relevant_dimensions":["antennae","pattern"],"bee_group":{"antennae":"B","wings":"X","pattern":"S","legs":"X"},"bonus":1.6200000000000012},{"rt":1051.800000011921,"stimulus":"bees-with-color/bee-A1SF.svg","response":0,"trial_type":"image-button-response","trial_index":73,"time_elapsed":649099,"internal_node_id":"0.0-4.0-0.31","subject_id":"60df6e426572fff9d1e253b0","study_id":"6197b3f67c2b5cd3b6d9596a","session_id":"619be789325d1b33eae0a03c","condition":"full-information","relevant_dimensions":["antennae","pattern"],"bee_group":{"antennae":"B","wings":"X","pattern":"S","legs":"X"},"action":"harvest","summary":"good-harvest","bonus":1.6200000000000012},{"rt":398.5,"stimulus":"\n                    <p><b>Action: <em>harvest</em></b></p>\n                    <p>This is the bee that you just saw.</p>\n                    <img src=\"bees-with-color/bee-A1SF.svg\" width=\"200\">\n                    <p><span class=\"greenText\"><b>Successful harvest!</b></span><br>Your pay has increased by $0.02. Your bonus pay is now $0.66.</p>\n            ","response":0,"trial_type":"html-button-response","trial_index":74,"time_elapsed":649499,"internal_node_id":"0.0-4.0-1.31","subject_id":"60df6e426572fff9d1e253b0","study_id":"6197b3f67c2b5cd3b6d9596a","session_id":"619be789325d1b33eae0a03c","condition":"full-information","relevant_dimensions":["antennae","pattern"],"bee_group":{"antennae":"B","wings":"X","pattern":"S","legs":"X"},"bonus":1.6200000000000012},{"rt":847.3000000119209,"stimulus":"bees-with-color/bee-A2DM.svg","response":0,"trial_type":"image-button-response","trial_index":75,"time_elapsed":650351,"internal_node_id":"0.0-4.0-0.32","subject_id":"60df6e426572fff9d1e253b0","study_id":"6197b3f67c2b5cd3b6d9596a","session_id":"619be789325d1b33eae0a03c","condition":"full-information","relevant_dimensions":["antennae","pattern"],"bee_group":{"antennae":"B","wings":"X","pattern":"S","legs":"X"},"action":"harvest","summary":"good-harvest","bonus":1.6200000000000012},{"rt":420.69999998807907,"stimulus":"\n                    <p><b>Action: <em>harvest</em></b></p>\n                    <p>This is the bee that you just saw.</p>\n                    <img src=\"bees-with-color/bee-A2DM.svg\" width=\"200\">\n                    <p><span class=\"greenText\"><b>Successful harvest!</b></span><br>Your pay has increased by $0.02. Your bonus pay is now $0.68.</p>\n            ","response":0,"trial_type":"html-button-response","trial_index":76,"time_elapsed":650773,"internal_node_id":"0.0-4.0-1.32","subject_id":"60df6e426572fff9d1e253b0","study_id":"6197b3f67c2b5cd3b6d9596a","session_id":"619be789325d1b33eae0a03c","condition":"full-information","relevant_dimensions":["antennae","pattern"],"bee_group":{"antennae":"B","wings":"X","pattern":"S","legs":"X"},"bonus":1.6200000000000012},{"rt":810.4000000059605,"stimulus":"bees-with-color/bee-A2DF.svg","response":0,"trial_type":"image-button-response","trial_index":77,"time_elapsed":651585,"internal_node_id":"0.0-4.0-0.33","subject_id":"60df6e426572fff9d1e253b0","study_id":"6197b3f67c2b5cd3b6d9596a","session_id":"619be789325d1b33eae0a03c","condition":"full-information","relevant_dimensions":["antennae","pattern"],"bee_group":{"antennae":"B","wings":"X","pattern":"S","legs":"X"},"action":"harvest","summary":"good-harvest","bonus":1.6200000000000012},{"rt":671,"stimulus":"\n                    <p><b>Action: <em>harvest</em></b></p>\n                    <p>This is the bee that you just saw.</p>\n                    <img src=\"bees-with-color/bee-A2DF.svg\" width=\"200\">\n                    <p><span class=\"greenText\"><b>Successful harvest!</b></span><br>Your pay has increased by $0.02. Your bonus pay is now $0.70.</p>\n            ","response":0,"trial_type":"html-button-response","trial_index":78,"time_elapsed":652257,"internal_node_id":"0.0-4.0-1.33","subject_id":"60df6e426572fff9d1e253b0","study_id":"6197b3f67c2b5cd3b6d9596a","session_id":"619be789325d1b33eae0a03c","condition":"full-information","relevant_dimensions":["antennae","pattern"],"bee_group":{"antennae":"B","wings":"X","pattern":"S","legs":"X"},"bonus":1.6200000000000012},{"rt":773.5,"stimulus":"bees-with-color/bee-A1DF.svg","response":0,"trial_type":"image-button-response","trial_index":79,"time_elapsed":653031,"internal_node_id":"0.0-4.0-0.34","subject_id":"60df6e426572fff9d1e253b0","study_id":"6197b3f67c2b5cd3b6d9596a","session_id":"619be789325d1b33eae0a03c","condition":"full-information","relevant_dimensions":["antennae","pattern"],"bee_group":{"antennae":"B","wings":"X","pattern":"S","legs":"X"},"action":"harvest","summary":"good-harvest","bonus":1.6200000000000012},{"rt":447.40000000596046,"stimulus":"\n                    <p><b>Action: <em>harvest</em></b></p>\n                    <p>This is the bee that you just saw.</p>\n                    <img src=\"bees-with-color/bee-A1DF.svg\" width=\"200\">\n                    <p><span class=\"greenText\"><b>Successful harvest!</b></span><br>Your pay has increased by $0.02. Your bonus pay is now $0.72.</p>\n            ","response":0,"trial_type":"html-button-response","trial_index":80,"time_elapsed":653481,"internal_node_id":"0.0-4.0-1.34","subject_id":"60df6e426572fff9d1e253b0","study_id":"6197b3f67c2b5cd3b6d9596a","session_id":"619be789325d1b33eae0a03c","condition":"full-information","relevant_dimensions":["antennae","pattern"],"bee_group":{"antennae":"B","wings":"X","pattern":"S","legs":"X"},"bonus":1.6200000000000012},{"rt":1110.7000000178814,"stimulus":"bees-with-color/bee-B1SF.svg","response":1,"trial_type":"image-button-response","trial_index":81,"time_elapsed":654593,"internal_node_id":"0.0-4.0-0.35","subject_id":"60df6e426572fff9d1e253b0","study_id":"6197b3f67c2b5cd3b6d9596a","session_id":"619be789325d1b33eae0a03c","condition":"full-information","relevant_dimensions":["antennae","pattern"],"bee_group":{"antennae":"B","wings":"X","pattern":"S","legs":"X"},"action":"avoid","summary":"good-avoid","bonus":1.6200000000000012},{"rt":442.5,"stimulus":"\n                    <p><b>Action: <em>avoid</em></b></p>\n                    <p>This is the bee that you just saw.</p>\n                    <img src=\"bees-with-color/bee-B1SF.svg\" width=\"200\">\n                    <p><span class=\"greenText\">Good choice!</span>  This bee would have stung you.<br>Your bonus pay is unchanged, and remains at $0.72.</p>\n            ","response":0,"trial_type":"html-button-response","trial_index":82,"time_elapsed":655036,"internal_node_id":"0.0-4.0-1.35","subject_id":"60df6e426572fff9d1e253b0","study_id":"6197b3f67c2b5cd3b6d9596a","session_id":"619be789325d1b33eae0a03c","condition":"full-information","relevant_dimensions":["antennae","pattern"],"bee_group":{"antennae":"B","wings":"X","pattern":"S","legs":"X"},"bonus":1.6200000000000012},{"rt":2310,"stimulus":"bees-with-color/bee-A1SM.svg","response":0,"trial_type":"image-button-response","trial_index":83,"time_elapsed":657348,"internal_node_id":"0.0-4.0-0.36","subject_id":"60df6e426572fff9d1e253b0","study_id":"6197b3f67c2b5cd3b6d9596a","session_id":"619be789325d1b33eae0a03c","condition":"full-information","relevant_dimensions":["antennae","pattern"],"bee_group":{"antennae":"B","wings":"X","pattern":"S","legs":"X"},"action":"harvest","summary":"good-harvest","bonus":1.6200000000000012},{"rt":390.40000000596046,"stimulus":"\n                    <p><b>Action: <em>harvest</em></b></p>\n                    <p>This is the bee that you just saw.</p>\n                    <img src=\"bees-with-color/bee-A1SM.svg\" width=\"200\">\n                    <p><span class=\"greenText\"><b>Successful harvest!</b></span><br>Your pay has increased by $0.02. Your bonus pay is now $0.74.</p>\n            ","response":0,"trial_type":"html-button-response","trial_index":84,"time_elapsed":657740,"internal_node_id":"0.0-4.0-1.36","subject_id":"60df6e426572fff9d1e253b0","study_id":"6197b3f67c2b5cd3b6d9596a","session_id":"619be789325d1b33eae0a03c","condition":"full-information","relevant_dimensions":["antennae","pattern"],"bee_group":{"antennae":"B","wings":"X","pattern":"S","legs":"X"},"bonus":1.6200000000000012},{"rt":1402,"stimulus":"bees-with-color/bee-B2DF.svg","response":0,"trial_type":"image-button-response","trial_index":85,"time_elapsed":659143,"internal_node_id":"0.0-4.0-0.37","subject_id":"60df6e426572fff9d1e253b0","study_id":"6197b3f67c2b5cd3b6d9596a","session_id":"619be789325d1b33eae0a03c","condition":"full-information","relevant_dimensions":["antennae","pattern"],"bee_group":{"antennae":"B","wings":"X","pattern":"S","legs":"X"},"action":"harvest","summary":"good-harvest","bonus":1.6200000000000012},{"rt":351.19999998807907,"stimulus":"\n                    <p><b>Action: <em>harvest</em></b></p>\n                    <p>This is the bee that you just saw.</p>\n                    <img src=\"bees-with-color/bee-B2DF.svg\" width=\"200\">\n                    <p><span class=\"greenText\"><b>Successful harvest!</b></span><br>Your pay has increased by $0.02. Your bonus pay is now $0.76.</p>\n            ","response":0,"trial_type":"html-button-response","trial_index":86,"time_elapsed":659497,"internal_node_id":"0.0-4.0-1.37","subject_id":"60df6e426572fff9d1e253b0","study_id":"6197b3f67c2b5cd3b6d9596a","session_id":"619be789325d1b33eae0a03c","condition":"full-information","relevant_dimensions":["antennae","pattern"],"bee_group":{"antennae":"B","wings":"X","pattern":"S","legs":"X"},"bonus":1.6200000000000012},{"rt":678.1999999880791,"stimulus":"bees-with-color/bee-B1DM.svg","response":0,"trial_type":"image-button-response","trial_index":87,"time_elapsed":660177,"internal_node_id":"0.0-4.0-0.38","subject_id":"60df6e426572fff9d1e253b0","study_id":"6197b3f67c2b5cd3b6d9596a","session_id":"619be789325d1b33eae0a03c","condition":"full-information","relevant_dimensions":["antennae","pattern"],"bee_group":{"antennae":"B","wings":"X","pattern":"S","legs":"X"},"action":"harvest","summary":"good-harvest","bonus":1.6200000000000012},{"rt":430.2000000178814,"stimulus":"\n                    <p><b>Action: <em>harvest</em></b></p>\n                    <p>This is the bee that you just saw.</p>\n                    <img src=\"bees-with-color/bee-B1DM.svg\" width=\"200\">\n                    <p><span class=\"greenText\"><b>Successful harvest!</b></span><br>Your pay has increased by $0.02. Your bonus pay is now $0.78.</p>\n            ","response":0,"trial_type":"html-button-response","trial_index":88,"time_elapsed":660609,"internal_node_id":"0.0-4.0-1.38","subject_id":"60df6e426572fff9d1e253b0","study_id":"6197b3f67c2b5cd3b6d9596a","session_id":"619be789325d1b33eae0a03c","condition":"full-information","relevant_dimensions":["antennae","pattern"],"bee_group":{"antennae":"B","wings":"X","pattern":"S","legs":"X"},"bonus":1.6200000000000012},{"rt":1599.800000011921,"stimulus":"bees-with-color/bee-B2SM.svg","response":1,"trial_type":"image-button-response","trial_index":89,"time_elapsed":662211,"internal_node_id":"0.0-4.0-0.39","subject_id":"60df6e426572fff9d1e253b0","study_id":"6197b3f67c2b5cd3b6d9596a","session_id":"619be789325d1b33eae0a03c","condition":"full-information","relevant_dimensions":["antennae","pattern"],"bee_group":{"antennae":"B","wings":"X","pattern":"S","legs":"X"},"action":"avoid","summary":"good-avoid","bonus":1.6200000000000012},{"rt":520.6999999880791,"stimulus":"\n                    <p><b>Action: <em>avoid</em></b></p>\n                    <p>This is the bee that you just saw.</p>\n                    <img src=\"bees-with-color/bee-B2SM.svg\" width=\"200\">\n                    <p><span class=\"greenText\">Good choice!</span>  This bee would have stung you.<br>Your bonus pay is unchanged, and remains at $0.78.</p>\n            ","response":0,"trial_type":"html-button-response","trial_index":90,"time_elapsed":662734,"internal_node_id":"0.0-4.0-1.39","subject_id":"60df6e426572fff9d1e253b0","study_id":"6197b3f67c2b5cd3b6d9596a","session_id":"619be789325d1b33eae0a03c","condition":"full-information","relevant_dimensions":["antennae","pattern"],"bee_group":{"antennae":"B","wings":"X","pattern":"S","legs":"X"},"bonus":1.6200000000000012},{"rt":1477.7000000178814,"stimulus":"bees-with-color/bee-B1SM.svg","response":1,"trial_type":"image-button-response","trial_index":91,"time_elapsed":664215,"internal_node_id":"0.0-4.0-0.40","subject_id":"60df6e426572fff9d1e253b0","study_id":"6197b3f67c2b5cd3b6d9596a","session_id":"619be789325d1b33eae0a03c","condition":"full-information","relevant_dimensions":["antennae","pattern"],"bee_group":{"antennae":"B","wings":"X","pattern":"S","legs":"X"},"action":"avoid","summary":"good-avoid","bonus":1.6200000000000012},{"rt":560.2000000178814,"stimulus":"\n                    <p><b>Action: <em>avoid</em></b></p>\n                    <p>This is the bee that you just saw.</p>\n                    <img src=\"bees-with-color/bee-B1SM.svg\" width=\"200\">\n                    <p><span class=\"greenText\">Good choice!</span>  This bee would have stung you.<br>Your bonus pay is unchanged, and remains at $0.78.</p>\n            ","response":0,"trial_type":"html-button-response","trial_index":92,"time_elapsed":664777,"internal_node_id":"0.0-4.0-1.40","subject_id":"60df6e426572fff9d1e253b0","study_id":"6197b3f67c2b5cd3b6d9596a","session_id":"619be789325d1b33eae0a03c","condition":"full-information","relevant_dimensions":["antennae","pattern"],"bee_group":{"antennae":"B","wings":"X","pattern":"S","legs":"X"},"bonus":1.6200000000000012},{"rt":1721.0999999940395,"stimulus":"bees-with-color/bee-B2SF.svg","response":1,"trial_type":"image-button-response","trial_index":93,"time_elapsed":666499,"internal_node_id":"0.0-4.0-0.41","subject_id":"60df6e426572fff9d1e253b0","study_id":"6197b3f67c2b5cd3b6d9596a","session_id":"619be789325d1b33eae0a03c","condition":"full-information","relevant_dimensions":["antennae","pattern"],"bee_group":{"antennae":"B","wings":"X","pattern":"S","legs":"X"},"action":"avoid","summary":"good-avoid","bonus":1.6200000000000012},{"rt":478.90000000596046,"stimulus":"\n                    <p><b>Action: <em>avoid</em></b></p>\n                    <p>This is the bee that you just saw.</p>\n                    <img src=\"bees-with-color/bee-B2SF.svg\" width=\"200\">\n                    <p><span class=\"greenText\">Good choice!</span>  This bee would have stung you.<br>Your bonus pay is unchanged, and remains at $0.78.</p>\n            ","response":0,"trial_type":"html-button-response","trial_index":94,"time_elapsed":666982,"internal_node_id":"0.0-4.0-1.41","subject_id":"60df6e426572fff9d1e253b0","study_id":"6197b3f67c2b5cd3b6d9596a","session_id":"619be789325d1b33eae0a03c","condition":"full-information","relevant_dimensions":["antennae","pattern"],"bee_group":{"antennae":"B","wings":"X","pattern":"S","legs":"X"},"bonus":1.6200000000000012},{"rt":1140.2000000178814,"stimulus":"bees-with-color/bee-A2SF.svg","response":0,"trial_type":"image-button-response","trial_index":95,"time_elapsed":668124,"internal_node_id":"0.0-4.0-0.42","subject_id":"60df6e426572fff9d1e253b0","study_id":"6197b3f67c2b5cd3b6d9596a","session_id":"619be789325d1b33eae0a03c","condition":"full-information","relevant_dimensions":["antennae","pattern"],"bee_group":{"antennae":"B","wings":"X","pattern":"S","legs":"X"},"action":"harvest","summary":"good-harvest","bonus":1.6200000000000012},{"rt":474.09999999403954,"stimulus":"\n                    <p><b>Action: <em>harvest</em></b></p>\n                    <p>This is the bee that you just saw.</p>\n                    <img src=\"bees-with-color/bee-A2SF.svg\" width=\"200\">\n                    <p><span class=\"greenText\"><b>Successful harvest!</b></span><br>Your pay has increased by $0.02. Your bonus pay is now $0.80.</p>\n            ","response":0,"trial_type":"html-button-response","trial_index":96,"time_elapsed":668599,"internal_node_id":"0.0-4.0-1.42","subject_id":"60df6e426572fff9d1e253b0","study_id":"6197b3f67c2b5cd3b6d9596a","session_id":"619be789325d1b33eae0a03c","condition":"full-information","relevant_dimensions":["antennae","pattern"],"bee_group":{"antennae":"B","wings":"X","pattern":"S","legs":"X"},"bonus":1.6200000000000012},{"rt":808.5,"stimulus":"bees-with-color/bee-A1SF.svg","response":0,"trial_type":"image-button-response","trial_index":97,"time_elapsed":669410,"internal_node_id":"0.0-4.0-0.43","subject_id":"60df6e426572fff9d1e253b0","study_id":"6197b3f67c2b5cd3b6d9596a","session_id":"619be789325d1b33eae0a03c","condition":"full-information","relevant_dimensions":["antennae","pattern"],"bee_group":{"antennae":"B","wings":"X","pattern":"S","legs":"X"},"action":"harvest","summary":"good-harvest","bonus":1.6200000000000012},{"rt":553.4000000059605,"stimulus":"\n                    <p><b>Action: <em>harvest</em></b></p>\n                    <p>This is the bee that you just saw.</p>\n                    <img src=\"bees-with-color/bee-A1SF.svg\" width=\"200\">\n                    <p><span class=\"greenText\"><b>Successful harvest!</b></span><br>Your pay has increased by $0.02. Your bonus pay is now $0.82.</p>\n            ","response":0,"trial_type":"html-button-response","trial_index":98,"time_elapsed":669964,"internal_node_id":"0.0-4.0-1.43","subject_id":"60df6e426572fff9d1e253b0","study_id":"6197b3f67c2b5cd3b6d9596a","session_id":"619be789325d1b33eae0a03c","condition":"full-information","relevant_dimensions":["antennae","pattern"],"bee_group":{"antennae":"B","wings":"X","pattern":"S","legs":"X"},"bonus":1.6200000000000012},{"rt":708.7000000178814,"stimulus":"bees-with-color/bee-A1DM.svg","response":0,"trial_type":"image-button-response","trial_index":99,"time_elapsed":670675,"internal_node_id":"0.0-4.0-0.44","subject_id":"60df6e426572fff9d1e253b0","study_id":"6197b3f67c2b5cd3b6d9596a","session_id":"619be789325d1b33eae0a03c","condition":"full-information","relevant_dimensions":["antennae","pattern"],"bee_group":{"antennae":"B","wings":"X","pattern":"S","legs":"X"},"action":"harvest","summary":"good-harvest","bonus":1.6200000000000012},{"rt":600.9000000059605,"stimulus":"\n                    <p><b>Action: <em>harvest</em></b></p>\n                    <p>This is the bee that you just saw.</p>\n                    <img src=\"bees-with-color/bee-A1DM.svg\" width=\"200\">\n                    <p><span class=\"greenText\"><b>Successful harvest!</b></span><br>Your pay has increased by $0.02. Your bonus pay is now $0.84.</p>\n            ","response":0,"trial_type":"html-button-response","trial_index":100,"time_elapsed":671277,"internal_node_id":"0.0-4.0-1.44","subject_id":"60df6e426572fff9d1e253b0","study_id":"6197b3f67c2b5cd3b6d9596a","session_id":"619be789325d1b33eae0a03c","condition":"full-information","relevant_dimensions":["antennae","pattern"],"bee_group":{"antennae":"B","wings":"X","pattern":"S","legs":"X"},"bonus":1.6200000000000012},{"rt":2110.5999999940395,"stimulus":"bees-with-color/bee-A2SM.svg","response":0,"trial_type":"image-button-response","trial_index":101,"time_elapsed":673389,"internal_node_id":"0.0-4.0-0.45","subject_id":"60df6e426572fff9d1e253b0","study_id":"6197b3f67c2b5cd3b6d9596a","session_id":"619be789325d1b33eae0a03c","condition":"full-information","relevant_dimensions":["antennae","pattern"],"bee_group":{"antennae":"B","wings":"X","pattern":"S","legs":"X"},"action":"harvest","summary":"good-harvest","bonus":1.6200000000000012},{"rt":390.90000000596046,"stimulus":"\n                    <p><b>Action: <em>harvest</em></b></p>\n                    <p>This is the bee that you just saw.</p>\n                    <img src=\"bees-with-color/bee-A2SM.svg\" width=\"200\">\n                    <p><span class=\"greenText\"><b>Successful harvest!</b></span><br>Your pay has increased by $0.02. Your bonus pay is now $0.86.</p>\n            ","response":0,"trial_type":"html-button-response","trial_index":102,"time_elapsed":673781,"internal_node_id":"0.0-4.0-1.45","subject_id":"60df6e426572fff9d1e253b0","study_id":"6197b3f67c2b5cd3b6d9596a","session_id":"619be789325d1b33eae0a03c","condition":"full-information","relevant_dimensions":["antennae","pattern"],"bee_group":{"antennae":"B","wings":"X","pattern":"S","legs":"X"},"bonus":1.6200000000000012},{"rt":790.9000000059605,"stimulus":"bees-with-color/bee-B2DM.svg","response":0,"trial_type":"image-button-response","trial_index":103,"time_elapsed":674573,"internal_node_id":"0.0-4.0-0.46","subject_id":"60df6e426572fff9d1e253b0","study_id":"6197b3f67c2b5cd3b6d9596a","session_id":"619be789325d1b33eae0a03c","condition":"full-information","relevant_dimensions":["antennae","pattern"],"bee_group":{"antennae":"B","wings":"X","pattern":"S","legs":"X"},"action":"harvest","summary":"good-harvest","bonus":1.6200000000000012},{"rt":410.40000000596046,"stimulus":"\n                    <p><b>Action: <em>harvest</em></b></p>\n                    <p>This is the bee that you just saw.</p>\n                    <img src=\"bees-with-color/bee-B2DM.svg\" width=\"200\">\n                    <p><span class=\"greenText\"><b>Successful harvest!</b></span><br>Your pay has increased by $0.02. Your bonus pay is now $0.88.</p>\n            ","response":0,"trial_type":"html-button-response","trial_index":104,"time_elapsed":674985,"internal_node_id":"0.0-4.0-1.46","subject_id":"60df6e426572fff9d1e253b0","study_id":"6197b3f67c2b5cd3b6d9596a","session_id":"619be789325d1b33eae0a03c","condition":"full-information","relevant_dimensions":["antennae","pattern"],"bee_group":{"antennae":"B","wings":"X","pattern":"S","legs":"X"},"bonus":1.6200000000000012},{"rt":750.7000000178814,"stimulus":"bees-with-color/bee-B1DF.svg","response":0,"trial_type":"image-button-response","trial_index":105,"time_elapsed":675737,"internal_node_id":"0.0-4.0-0.47","subject_id":"60df6e426572fff9d1e253b0","study_id":"6197b3f67c2b5cd3b6d9596a","session_id":"619be789325d1b33eae0a03c","condition":"full-information","relevant_dimensions":["antennae","pattern"],"bee_group":{"antennae":"B","wings":"X","pattern":"S","legs":"X"},"action":"harvest","summary":"good-harvest","bonus":1.6200000000000012},{"rt":431.59999999403954,"stimulus":"\n                    <p><b>Action: <em>harvest</em></b></p>\n                    <p>This is the bee that you just saw.</p>\n                    <img src=\"bees-with-color/bee-B1DF.svg\" width=\"200\">\n                    <p><span class=\"greenText\"><b>Successful harvest!</b></span><br>Your pay has increased by $0.02. Your bonus pay is now $0.90.</p>\n            ","response":0,"trial_type":"html-button-response","trial_index":106,"time_elapsed":676170,"internal_node_id":"0.0-4.0-1.47","subject_id":"60df6e426572fff9d1e253b0","study_id":"6197b3f67c2b5cd3b6d9596a","session_id":"619be789325d1b33eae0a03c","condition":"full-information","relevant_dimensions":["antennae","pattern"],"bee_group":{"antennae":"B","wings":"X","pattern":"S","legs":"X"},"bonus":1.6200000000000012},{"rt":649.5999999940395,"stimulus":"bees-with-color/bee-B1DM.svg","response":0,"trial_type":"image-button-response","trial_index":107,"time_elapsed":676821,"internal_node_id":"0.0-4.0-0.48","subject_id":"60df6e426572fff9d1e253b0","study_id":"6197b3f67c2b5cd3b6d9596a","session_id":"619be789325d1b33eae0a03c","condition":"full-information","relevant_dimensions":["antennae","pattern"],"bee_group":{"antennae":"B","wings":"X","pattern":"S","legs":"X"},"action":"harvest","summary":"good-harvest","bonus":1.6200000000000012},{"rt":370.5,"stimulus":"\n                    <p><b>Action: <em>harvest</em></b></p>\n                    <p>This is the bee that you just saw.</p>\n                    <img src=\"bees-with-color/bee-B1DM.svg\" width=\"200\">\n                    <p><span class=\"greenText\"><b>Successful harvest!</b></span><br>Your pay has increased by $0.02. Your bonus pay is now $0.92.</p>\n            ","response":0,"trial_type":"html-button-response","trial_index":108,"time_elapsed":677193,"internal_node_id":"0.0-4.0-1.48","subject_id":"60df6e426572fff9d1e253b0","study_id":"6197b3f67c2b5cd3b6d9596a","session_id":"619be789325d1b33eae0a03c","condition":"full-information","relevant_dimensions":["antennae","pattern"],"bee_group":{"antennae":"B","wings":"X","pattern":"S","legs":"X"},"bonus":1.6200000000000012},{"rt":1090.800000011921,"stimulus":"bees-with-color/bee-B1SM.svg","response":1,"trial_type":"image-button-response","trial_index":109,"time_elapsed":678285,"internal_node_id":"0.0-4.0-0.49","subject_id":"60df6e426572fff9d1e253b0","study_id":"6197b3f67c2b5cd3b6d9596a","session_id":"619be789325d1b33eae0a03c","condition":"full-information","relevant_dimensions":["antennae","pattern"],"bee_group":{"antennae":"B","wings":"X","pattern":"S","legs":"X"},"action":"avoid","summary":"good-avoid","bonus":1.6200000000000012},{"rt":412.2999999821186,"stimulus":"\n                    <p><b>Action: <em>avoid</em></b></p>\n                    <p>This is the bee that you just saw.</p>\n                    <img src=\"bees-with-color/bee-B1SM.svg\" width=\"200\">\n                    <p><span class=\"greenText\">Good choice!</span>  This bee would have stung you.<br>Your bonus pay is unchanged, and remains at $0.92.</p>\n            ","response":0,"trial_type":"html-button-response","trial_index":110,"time_elapsed":678698,"internal_node_id":"0.0-4.0-1.49","subject_id":"60df6e426572fff9d1e253b0","study_id":"6197b3f67c2b5cd3b6d9596a","session_id":"619be789325d1b33eae0a03c","condition":"full-information","relevant_dimensions":["antennae","pattern"],"bee_group":{"antennae":"B","wings":"X","pattern":"S","legs":"X"},"bonus":1.6200000000000012},{"rt":750.2000000178814,"stimulus":"bees-with-color/bee-A2SF.svg","response":0,"trial_type":"image-button-response","trial_index":111,"time_elapsed":679450,"internal_node_id":"0.0-4.0-0.50","subject_id":"60df6e426572fff9d1e253b0","study_id":"6197b3f67c2b5cd3b6d9596a","session_id":"619be789325d1b33eae0a03c","condition":"full-information","relevant_dimensions":["antennae","pattern"],"bee_group":{"antennae":"B","wings":"X","pattern":"S","legs":"X"},"action":"harvest","summary":"good-harvest","bonus":1.6200000000000012},{"rt":413.5,"stimulus":"\n                    <p><b>Action: <em>harvest</em></b></p>\n                    <p>This is the bee that you just saw.</p>\n                    <img src=\"bees-with-color/bee-A2SF.svg\" width=\"200\">\n                    <p><span class=\"greenText\"><b>Successful harvest!</b></span><br>Your pay has increased by $0.02. Your bonus pay is now $0.94.</p>\n            ","response":0,"trial_type":"html-button-response","trial_index":112,"time_elapsed":679865,"internal_node_id":"0.0-4.0-1.50","subject_id":"60df6e426572fff9d1e253b0","study_id":"6197b3f67c2b5cd3b6d9596a","session_id":"619be789325d1b33eae0a03c","condition":"full-information","relevant_dimensions":["antennae","pattern"],"bee_group":{"antennae":"B","wings":"X","pattern":"S","legs":"X"},"bonus":1.6200000000000012},{"rt":1048,"stimulus":"bees-with-color/bee-B2SF.svg","response":1,"trial_type":"image-button-response","trial_index":113,"time_elapsed":680915,"internal_node_id":"0.0-4.0-0.51","subject_id":"60df6e426572fff9d1e253b0","study_id":"6197b3f67c2b5cd3b6d9596a","session_id":"619be789325d1b33eae0a03c","condition":"full-information","relevant_dimensions":["antennae","pattern"],"bee_group":{"antennae":"B","wings":"X","pattern":"S","legs":"X"},"action":"avoid","summary":"good-avoid","bonus":1.6200000000000012},{"rt":400.90000000596046,"stimulus":"\n                    <p><b>Action: <em>avoid</em></b></p>\n                    <p>This is the bee that you just saw.</p>\n                    <img src=\"bees-with-color/bee-B2SF.svg\" width=\"200\">\n                    <p><span class=\"greenText\">Good choice!</span>  This bee would have stung you.<br>Your bonus pay is unchanged, and remains at $0.94.</p>\n            ","response":0,"trial_type":"html-button-response","trial_index":114,"time_elapsed":681317,"internal_node_id":"0.0-4.0-1.51","subject_id":"60df6e426572fff9d1e253b0","study_id":"6197b3f67c2b5cd3b6d9596a","session_id":"619be789325d1b33eae0a03c","condition":"full-information","relevant_dimensions":["antennae","pattern"],"bee_group":{"antennae":"B","wings":"X","pattern":"S","legs":"X"},"bonus":1.6200000000000012},{"rt":884.6999999880791,"stimulus":"bees-with-color/bee-A2SM.svg","response":0,"trial_type":"image-button-response","trial_index":115,"time_elapsed":682203,"internal_node_id":"0.0-4.0-0.52","subject_id":"60df6e426572fff9d1e253b0","study_id":"6197b3f67c2b5cd3b6d9596a","session_id":"619be789325d1b33eae0a03c","condition":"full-information","relevant_dimensions":["antennae","pattern"],"bee_group":{"antennae":"B","wings":"X","pattern":"S","legs":"X"},"action":"harvest","summary":"good-harvest","bonus":1.6200000000000012},{"rt":338.7000000178814,"stimulus":"\n                    <p><b>Action: <em>harvest</em></b></p>\n                    <p>This is the bee that you just saw.</p>\n                    <img src=\"bees-with-color/bee-A2SM.svg\" width=\"200\">\n                    <p><span class=\"greenText\"><b>Successful harvest!</b></span><br>Your pay has increased by $0.02. Your bonus pay is now $0.96.</p>\n            ","response":0,"trial_type":"html-button-response","trial_index":116,"time_elapsed":682543,"internal_node_id":"0.0-4.0-1.52","subject_id":"60df6e426572fff9d1e253b0","study_id":"6197b3f67c2b5cd3b6d9596a","session_id":"619be789325d1b33eae0a03c","condition":"full-information","relevant_dimensions":["antennae","pattern"],"bee_group":{"antennae":"B","wings":"X","pattern":"S","legs":"X"},"bonus":1.6200000000000012},{"rt":1451.7999999821186,"stimulus":"bees-with-color/bee-B2DF.svg","response":0,"trial_type":"image-button-response","trial_index":117,"time_elapsed":683998,"internal_node_id":"0.0-4.0-0.53","subject_id":"60df6e426572fff9d1e253b0","study_id":"6197b3f67c2b5cd3b6d9596a","session_id":"619be789325d1b33eae0a03c","condition":"full-information","relevant_dimensions":["antennae","pattern"],"bee_group":{"antennae":"B","wings":"X","pattern":"S","legs":"X"},"action":"harvest","summary":"good-harvest","bonus":1.6200000000000012},{"rt":376,"stimulus":"\n                    <p><b>Action: <em>harvest</em></b></p>\n                    <p>This is the bee that you just saw.</p>\n                    <img src=\"bees-with-color/bee-B2DF.svg\" width=\"200\">\n                    <p><span class=\"greenText\"><b>Successful harvest!</b></span><br>Your pay has increased by $0.02. Your bonus pay is now $0.98.</p>\n            ","response":0,"trial_type":"html-button-response","trial_index":118,"time_elapsed":684377,"internal_node_id":"0.0-4.0-1.53","subject_id":"60df6e426572fff9d1e253b0","study_id":"6197b3f67c2b5cd3b6d9596a","session_id":"619be789325d1b33eae0a03c","condition":"full-information","relevant_dimensions":["antennae","pattern"],"bee_group":{"antennae":"B","wings":"X","pattern":"S","legs":"X"},"bonus":1.6200000000000012},{"rt":721.5,"stimulus":"bees-with-color/bee-A1DF.svg","response":0,"trial_type":"image-button-response","trial_index":119,"time_elapsed":685099,"internal_node_id":"0.0-4.0-0.54","subject_id":"60df6e426572fff9d1e253b0","study_id":"6197b3f67c2b5cd3b6d9596a","session_id":"619be789325d1b33eae0a03c","condition":"full-information","relevant_dimensions":["antennae","pattern"],"bee_group":{"antennae":"B","wings":"X","pattern":"S","legs":"X"},"action":"harvest","summary":"good-harvest","bonus":1.6200000000000012},{"rt":347.2000000178814,"stimulus":"\n                    <p><b>Action: <em>harvest</em></b></p>\n                    <p>This is the bee that you just saw.</p>\n                    <img src=\"bees-with-color/bee-A1DF.svg\" width=\"200\">\n                    <p><span class=\"greenText\"><b>Successful harvest!</b></span><br>Your pay has increased by $0.02. Your bonus pay is now $1.00.</p>\n            ","response":0,"trial_type":"html-button-response","trial_index":120,"time_elapsed":685452,"internal_node_id":"0.0-4.0-1.54","subject_id":"60df6e426572fff9d1e253b0","study_id":"6197b3f67c2b5cd3b6d9596a","session_id":"619be789325d1b33eae0a03c","condition":"full-information","relevant_dimensions":["antennae","pattern"],"bee_group":{"antennae":"B","wings":"X","pattern":"S","legs":"X"},"bonus":1.6200000000000012},{"rt":1481.2000000178814,"stimulus":"bees-with-color/bee-A1SM.svg","response":0,"trial_type":"image-button-response","trial_index":121,"time_elapsed":686936,"internal_node_id":"0.0-4.0-0.55","subject_id":"60df6e426572fff9d1e253b0","study_id":"6197b3f67c2b5cd3b6d9596a","session_id":"619be789325d1b33eae0a03c","condition":"full-information","relevant_dimensions":["antennae","pattern"],"bee_group":{"antennae":"B","wings":"X","pattern":"S","legs":"X"},"action":"harvest","summary":"good-harvest","bonus":1.6200000000000012},{"rt":409.19999998807907,"stimulus":"\n                    <p><b>Action: <em>harvest</em></b></p>\n                    <p>This is the bee that you just saw.</p>\n                    <img src=\"bees-with-color/bee-A1SM.svg\" width=\"200\">\n                    <p><span class=\"greenText\"><b>Successful harvest!</b></span><br>Your pay has increased by $0.02. Your bonus pay is now $1.02.</p>\n            ","response":0,"trial_type":"html-button-response","trial_index":122,"time_elapsed":687347,"internal_node_id":"0.0-4.0-1.55","subject_id":"60df6e426572fff9d1e253b0","study_id":"6197b3f67c2b5cd3b6d9596a","session_id":"619be789325d1b33eae0a03c","condition":"full-information","relevant_dimensions":["antennae","pattern"],"bee_group":{"antennae":"B","wings":"X","pattern":"S","legs":"X"},"bonus":1.6200000000000012},{"rt":621.2000000178814,"stimulus":"bees-with-color/bee-A1DM.svg","response":0,"trial_type":"image-button-response","trial_index":123,"time_elapsed":687970,"internal_node_id":"0.0-4.0-0.56","subject_id":"60df6e426572fff9d1e253b0","study_id":"6197b3f67c2b5cd3b6d9596a","session_id":"619be789325d1b33eae0a03c","condition":"full-information","relevant_dimensions":["antennae","pattern"],"bee_group":{"antennae":"B","wings":"X","pattern":"S","legs":"X"},"action":"harvest","summary":"good-harvest","bonus":1.6200000000000012},{"rt":362.7999999821186,"stimulus":"\n                    <p><b>Action: <em>harvest</em></b></p>\n                    <p>This is the bee that you just saw.</p>\n                    <img src=\"bees-with-color/bee-A1DM.svg\" width=\"200\">\n                    <p><span class=\"greenText\"><b>Successful harvest!</b></span><br>Your pay has increased by $0.02. Your bonus pay is now $1.04.</p>\n            ","response":0,"trial_type":"html-button-response","trial_index":124,"time_elapsed":688334,"internal_node_id":"0.0-4.0-1.56","subject_id":"60df6e426572fff9d1e253b0","study_id":"6197b3f67c2b5cd3b6d9596a","session_id":"619be789325d1b33eae0a03c","condition":"full-information","relevant_dimensions":["antennae","pattern"],"bee_group":{"antennae":"B","wings":"X","pattern":"S","legs":"X"},"bonus":1.6200000000000012},{"rt":727.9000000059605,"stimulus":"bees-with-color/bee-A2DM.svg","response":0,"trial_type":"image-button-response","trial_index":125,"time_elapsed":689065,"internal_node_id":"0.0-4.0-0.57","subject_id":"60df6e426572fff9d1e253b0","study_id":"6197b3f67c2b5cd3b6d9596a","session_id":"619be789325d1b33eae0a03c","condition":"full-information","relevant_dimensions":["antennae","pattern"],"bee_group":{"antennae":"B","wings":"X","pattern":"S","legs":"X"},"action":"harvest","summary":"good-harvest","bonus":1.6200000000000012},{"rt":354.2000000178814,"stimulus":"\n                    <p><b>Action: <em>harvest</em></b></p>\n                    <p>This is the bee that you just saw.</p>\n                    <img src=\"bees-with-color/bee-A2DM.svg\" width=\"200\">\n                    <p><span class=\"greenText\"><b>Successful harvest!</b></span><br>Your pay has increased by $0.02. Your bonus pay is now $1.06.</p>\n            ","response":0,"trial_type":"html-button-response","trial_index":126,"time_elapsed":689424,"internal_node_id":"0.0-4.0-1.57","subject_id":"60df6e426572fff9d1e253b0","study_id":"6197b3f67c2b5cd3b6d9596a","session_id":"619be789325d1b33eae0a03c","condition":"full-information","relevant_dimensions":["antennae","pattern"],"bee_group":{"antennae":"B","wings":"X","pattern":"S","legs":"X"},"bonus":1.6200000000000012},{"rt":1150.2000000178814,"stimulus":"bees-with-color/bee-A1SF.svg","response":0,"trial_type":"image-button-response","trial_index":127,"time_elapsed":690576,"internal_node_id":"0.0-4.0-0.58","subject_id":"60df6e426572fff9d1e253b0","study_id":"6197b3f67c2b5cd3b6d9596a","session_id":"619be789325d1b33eae0a03c","condition":"full-information","relevant_dimensions":["antennae","pattern"],"bee_group":{"antennae":"B","wings":"X","pattern":"S","legs":"X"},"action":"harvest","summary":"good-harvest","bonus":1.6200000000000012},{"rt":380.90000000596046,"stimulus":"\n                    <p><b>Action: <em>harvest</em></b></p>\n                    <p>This is the bee that you just saw.</p>\n                    <img src=\"bees-with-color/bee-A1SF.svg\" width=\"200\">\n                    <p><span class=\"greenText\"><b>Successful harvest!</b></span><br>Your pay has increased by $0.02. Your bonus pay is now $1.08.</p>\n            ","response":0,"trial_type":"html-button-response","trial_index":128,"time_elapsed":690958,"internal_node_id":"0.0-4.0-1.58","subject_id":"60df6e426572fff9d1e253b0","study_id":"6197b3f67c2b5cd3b6d9596a","session_id":"619be789325d1b33eae0a03c","condition":"full-information","relevant_dimensions":["antennae","pattern"],"bee_group":{"antennae":"B","wings":"X","pattern":"S","legs":"X"},"bonus":1.6200000000000012},{"rt":1141.9000000059605,"stimulus":"bees-with-color/bee-B1DF.svg","response":0,"trial_type":"image-button-response","trial_index":129,"time_elapsed":692102,"internal_node_id":"0.0-4.0-0.59","subject_id":"60df6e426572fff9d1e253b0","study_id":"6197b3f67c2b5cd3b6d9596a","session_id":"619be789325d1b33eae0a03c","condition":"full-information","relevant_dimensions":["antennae","pattern"],"bee_group":{"antennae":"B","wings":"X","pattern":"S","legs":"X"},"action":"harvest","summary":"good-harvest","bonus":1.6200000000000012},{"rt":438.69999998807907,"stimulus":"\n                    <p><b>Action: <em>harvest</em></b></p>\n                    <p>This is the bee that you just saw.</p>\n                    <img src=\"bees-with-color/bee-B1DF.svg\" width=\"200\">\n                    <p><span class=\"greenText\"><b>Successful harvest!</b></span><br>Your pay has increased by $0.02. Your bonus pay is now $1.10.</p>\n            ","response":0,"trial_type":"html-button-response","trial_index":130,"time_elapsed":692543,"internal_node_id":"0.0-4.0-1.59","subject_id":"60df6e426572fff9d1e253b0","study_id":"6197b3f67c2b5cd3b6d9596a","session_id":"619be789325d1b33eae0a03c","condition":"full-information","relevant_dimensions":["antennae","pattern"],"bee_group":{"antennae":"B","wings":"X","pattern":"S","legs":"X"},"bonus":1.6200000000000012},{"rt":1141.199999988079,"stimulus":"bees-with-color/bee-B2SM.svg","response":1,"trial_type":"image-button-response","trial_index":131,"time_elapsed":693685,"internal_node_id":"0.0-4.0-0.60","subject_id":"60df6e426572fff9d1e253b0","study_id":"6197b3f67c2b5cd3b6d9596a","session_id":"619be789325d1b33eae0a03c","condition":"full-information","relevant_dimensions":["antennae","pattern"],"bee_group":{"antennae":"B","wings":"X","pattern":"S","legs":"X"},"action":"avoid","summary":"good-avoid","bonus":1.6200000000000012},{"rt":382,"stimulus":"\n                    <p><b>Action: <em>avoid</em></b></p>\n                    <p>This is the bee that you just saw.</p>\n                    <img src=\"bees-with-color/bee-B2SM.svg\" width=\"200\">\n                    <p><span class=\"greenText\">Good choice!</span>  This bee would have stung you.<br>Your bonus pay is unchanged, and remains at $1.10.</p>\n            ","response":0,"trial_type":"html-button-response","trial_index":132,"time_elapsed":694070,"internal_node_id":"0.0-4.0-1.60","subject_id":"60df6e426572fff9d1e253b0","study_id":"6197b3f67c2b5cd3b6d9596a","session_id":"619be789325d1b33eae0a03c","condition":"full-information","relevant_dimensions":["antennae","pattern"],"bee_group":{"antennae":"B","wings":"X","pattern":"S","legs":"X"},"bonus":1.6200000000000012},{"rt":969.2999999821186,"stimulus":"bees-with-color/bee-B2DM.svg","response":0,"trial_type":"image-button-response","trial_index":133,"time_elapsed":695041,"internal_node_id":"0.0-4.0-0.61","subject_id":"60df6e426572fff9d1e253b0","study_id":"6197b3f67c2b5cd3b6d9596a","session_id":"619be789325d1b33eae0a03c","condition":"full-information","relevant_dimensions":["antennae","pattern"],"bee_group":{"antennae":"B","wings":"X","pattern":"S","legs":"X"},"action":"harvest","summary":"good-harvest","bonus":1.6200000000000012},{"rt":360.90000000596046,"stimulus":"\n                    <p><b>Action: <em>harvest</em></b></p>\n                    <p>This is the bee that you just saw.</p>\n                    <img src=\"bees-with-color/bee-B2DM.svg\" width=\"200\">\n                    <p><span class=\"greenText\"><b>Successful harvest!</b></span><br>Your pay has increased by $0.02. Your bonus pay is now $1.12.</p>\n            ","response":0,"trial_type":"html-button-response","trial_index":134,"time_elapsed":695404,"internal_node_id":"0.0-4.0-1.61","subject_id":"60df6e426572fff9d1e253b0","study_id":"6197b3f67c2b5cd3b6d9596a","session_id":"619be789325d1b33eae0a03c","condition":"full-information","relevant_dimensions":["antennae","pattern"],"bee_group":{"antennae":"B","wings":"X","pattern":"S","legs":"X"},"bonus":1.6200000000000012},{"rt":670.5,"stimulus":"bees-with-color/bee-A2DF.svg","response":0,"trial_type":"image-button-response","trial_index":135,"time_elapsed":696076,"internal_node_id":"0.0-4.0-0.62","subject_id":"60df6e426572fff9d1e253b0","study_id":"6197b3f67c2b5cd3b6d9596a","session_id":"619be789325d1b33eae0a03c","condition":"full-information","relevant_dimensions":["antennae","pattern"],"bee_group":{"antennae":"B","wings":"X","pattern":"S","legs":"X"},"action":"harvest","summary":"good-harvest","bonus":1.6200000000000012},{"rt":331,"stimulus":"\n                    <p><b>Action: <em>harvest</em></b></p>\n                    <p>This is the bee that you just saw.</p>\n                    <img src=\"bees-with-color/bee-A2DF.svg\" width=\"200\">\n                    <p><span class=\"greenText\"><b>Successful harvest!</b></span><br>Your pay has increased by $0.02. Your bonus pay is now $1.14.</p>\n            ","response":0,"trial_type":"html-button-response","trial_index":136,"time_elapsed":696408,"internal_node_id":"0.0-4.0-1.62","subject_id":"60df6e426572fff9d1e253b0","study_id":"6197b3f67c2b5cd3b6d9596a","session_id":"619be789325d1b33eae0a03c","condition":"full-information","relevant_dimensions":["antennae","pattern"],"bee_group":{"antennae":"B","wings":"X","pattern":"S","legs":"X"},"bonus":1.6200000000000012},{"rt":880.5,"stimulus":"bees-with-color/bee-B1SF.svg","response":1,"trial_type":"image-button-response","trial_index":137,"time_elapsed":697290,"internal_node_id":"0.0-4.0-0.63","subject_id":"60df6e426572fff9d1e253b0","study_id":"6197b3f67c2b5cd3b6d9596a","session_id":"619be789325d1b33eae0a03c","condition":"full-information","relevant_dimensions":["antennae","pattern"],"bee_group":{"antennae":"B","wings":"X","pattern":"S","legs":"X"},"action":"avoid","summary":"good-avoid","bonus":1.6200000000000012},{"rt":542.2000000178814,"stimulus":"\n                    <p><b>Action: <em>avoid</em></b></p>\n                    <p>This is the bee that you just saw.</p>\n                    <img src=\"bees-with-color/bee-B1SF.svg\" width=\"200\">\n                    <p><span class=\"greenText\">Good choice!</span>  This bee would have stung you.<br>Your bonus pay is unchanged, and remains at $1.14.</p>\n            ","response":0,"trial_type":"html-button-response","trial_index":138,"time_elapsed":697834,"internal_node_id":"0.0-4.0-1.63","subject_id":"60df6e426572fff9d1e253b0","study_id":"6197b3f67c2b5cd3b6d9596a","session_id":"619be789325d1b33eae0a03c","condition":"full-information","relevant_dimensions":["antennae","pattern"],"bee_group":{"antennae":"B","wings":"X","pattern":"S","legs":"X"},"bonus":1.6200000000000012},{"rt":10967,"stimulus":"You have completed the first part of this experiment.<br><br>You will now begin a shorter second part, in which you will receive no feedback.<br>The same rules regarding bonus pay apply.<br><br>Press any key to begin.","response":" ","trial_type":"html-keyboard-response","trial_index":139,"time_elapsed":708804,"internal_node_id":"0.0-5.0","subject_id":"60df6e426572fff9d1e253b0","study_id":"6197b3f67c2b5cd3b6d9596a","session_id":"619be789325d1b33eae0a03c","condition":"full-information","relevant_dimensions":["antennae","pattern"],"bee_group":{"antennae":"B","wings":"X","pattern":"S","legs":"X"},"bonus":1.6200000000000012},{"rt":1659.800000011921,"stimulus":"bees-with-color/bee-B2SF.svg","response":1,"trial_type":"image-button-response","trial_index":140,"time_elapsed":710473,"internal_node_id":"0.0-6.0-0.0","subject_id":"60df6e426572fff9d1e253b0","study_id":"6197b3f67c2b5cd3b6d9596a","session_id":"619be789325d1b33eae0a03c","condition":"full-information","relevant_dimensions":["antennae","pattern"],"bee_group":{"antennae":"B","wings":"X","pattern":"S","legs":"X"},"bonus":1.6200000000000012},{"rt":1980.4000000059605,"stimulus":"bees-with-color/bee-B2DF.svg","response":0,"trial_type":"image-button-response","trial_index":141,"time_elapsed":712455,"internal_node_id":"0.0-6.0-0.1","subject_id":"60df6e426572fff9d1e253b0","study_id":"6197b3f67c2b5cd3b6d9596a","session_id":"619be789325d1b33eae0a03c","condition":"full-information","relevant_dimensions":["antennae","pattern"],"bee_group":{"antennae":"B","wings":"X","pattern":"S","legs":"X"},"bonus":1.6200000000000012},{"rt":1131.1000000238419,"stimulus":"bees-with-color/bee-B1DM.svg","response":0,"trial_type":"image-button-response","trial_index":142,"time_elapsed":713588,"internal_node_id":"0.0-6.0-0.2","subject_id":"60df6e426572fff9d1e253b0","study_id":"6197b3f67c2b5cd3b6d9596a","session_id":"619be789325d1b33eae0a03c","condition":"full-information","relevant_dimensions":["antennae","pattern"],"bee_group":{"antennae":"B","wings":"X","pattern":"S","legs":"X"},"bonus":1.6200000000000012},{"rt":671.3000000119209,"stimulus":"bees-with-color/bee-A2DM.svg","response":0,"trial_type":"image-button-response","trial_index":143,"time_elapsed":714260,"internal_node_id":"0.0-6.0-0.3","subject_id":"60df6e426572fff9d1e253b0","study_id":"6197b3f67c2b5cd3b6d9596a","session_id":"619be789325d1b33eae0a03c","condition":"full-information","relevant_dimensions":["antennae","pattern"],"bee_group":{"antennae":"B","wings":"X","pattern":"S","legs":"X"},"bonus":1.6200000000000012},{"rt":4649.199999988079,"stimulus":"bees-with-color/bee-A2SF.svg","response":0,"trial_type":"image-button-response","trial_index":144,"time_elapsed":718913,"internal_node_id":"0.0-6.0-0.4","subject_id":"60df6e426572fff9d1e253b0","study_id":"6197b3f67c2b5cd3b6d9596a","session_id":"619be789325d1b33eae0a03c","condition":"full-information","relevant_dimensions":["antennae","pattern"],"bee_group":{"antennae":"B","wings":"X","pattern":"S","legs":"X"},"bonus":1.6200000000000012},{"rt":779.7000000178814,"stimulus":"bees-with-color/bee-A2SM.svg","response":0,"trial_type":"image-button-response","trial_index":145,"time_elapsed":719695,"internal_node_id":"0.0-6.0-0.5","subject_id":"60df6e426572fff9d1e253b0","study_id":"6197b3f67c2b5cd3b6d9596a","session_id":"619be789325d1b33eae0a03c","condition":"full-information","relevant_dimensions":["antennae","pattern"],"bee_group":{"antennae":"B","wings":"X","pattern":"S","legs":"X"},"bonus":1.6200000000000012},{"rt":926.9000000059605,"stimulus":"bees-with-color/bee-A1SM.svg","response":0,"trial_type":"image-button-response","trial_index":146,"time_elapsed":720628,"internal_node_id":"0.0-6.0-0.6","subject_id":"60df6e426572fff9d1e253b0","study_id":"6197b3f67c2b5cd3b6d9596a","session_id":"619be789325d1b33eae0a03c","condition":"full-information","relevant_dimensions":["antennae","pattern"],"bee_group":{"antennae":"B","wings":"X","pattern":"S","legs":"X"},"bonus":1.6200000000000012},{"rt":1027.0999999940395,"stimulus":"bees-with-color/bee-B2SM.svg","response":1,"trial_type":"image-button-response","trial_index":147,"time_elapsed":721660,"internal_node_id":"0.0-6.0-0.7","subject_id":"60df6e426572fff9d1e253b0","study_id":"6197b3f67c2b5cd3b6d9596a","session_id":"619be789325d1b33eae0a03c","condition":"full-information","relevant_dimensions":["antennae","pattern"],"bee_group":{"antennae":"B","wings":"X","pattern":"S","legs":"X"},"bonus":1.6200000000000012},{"rt":659.5999999940395,"stimulus":"bees-with-color/bee-A1DF.svg","response":0,"trial_type":"image-button-response","trial_index":148,"time_elapsed":722323,"internal_node_id":"0.0-6.0-0.8","subject_id":"60df6e426572fff9d1e253b0","study_id":"6197b3f67c2b5cd3b6d9596a","session_id":"619be789325d1b33eae0a03c","condition":"full-information","relevant_dimensions":["antennae","pattern"],"bee_group":{"antennae":"B","wings":"X","pattern":"S","legs":"X"},"bonus":1.6200000000000012},{"rt":1161.0999999940395,"stimulus":"bees-with-color/bee-B2DM.svg","response":0,"trial_type":"image-button-response","trial_index":149,"time_elapsed":723486,"internal_node_id":"0.0-6.0-0.9","subject_id":"60df6e426572fff9d1e253b0","study_id":"6197b3f67c2b5cd3b6d9596a","session_id":"619be789325d1b33eae0a03c","condition":"full-information","relevant_dimensions":["antennae","pattern"],"bee_group":{"antennae":"B","wings":"X","pattern":"S","legs":"X"},"bonus":1.6200000000000012},{"rt":882.3000000119209,"stimulus":"bees-with-color/bee-B1SF.svg","response":1,"trial_type":"image-button-response","trial_index":150,"time_elapsed":724370,"internal_node_id":"0.0-6.0-0.10","subject_id":"60df6e426572fff9d1e253b0","study_id":"6197b3f67c2b5cd3b6d9596a","session_id":"619be789325d1b33eae0a03c","condition":"full-information","relevant_dimensions":["antennae","pattern"],"bee_group":{"antennae":"B","wings":"X","pattern":"S","legs":"X"},"bonus":1.6200000000000012},{"rt":779,"stimulus":"bees-with-color/bee-A1DM.svg","response":0,"trial_type":"image-button-response","trial_index":151,"time_elapsed":725152,"internal_node_id":"0.0-6.0-0.11","subject_id":"60df6e426572fff9d1e253b0","study_id":"6197b3f67c2b5cd3b6d9596a","session_id":"619be789325d1b33eae0a03c","condition":"full-information","relevant_dimensions":["antennae","pattern"],"bee_group":{"antennae":"B","wings":"X","pattern":"S","legs":"X"},"bonus":1.6200000000000012},{"rt":2320,"stimulus":"bees-with-color/bee-B1SM.svg","response":1,"trial_type":"image-button-response","trial_index":152,"time_elapsed":727474,"internal_node_id":"0.0-6.0-0.12","subject_id":"60df6e426572fff9d1e253b0","study_id":"6197b3f67c2b5cd3b6d9596a","session_id":"619be789325d1b33eae0a03c","condition":"full-information","relevant_dimensions":["antennae","pattern"],"bee_group":{"antennae":"B","wings":"X","pattern":"S","legs":"X"},"bonus":1.6200000000000012},{"rt":670.5,"stimulus":"bees-with-color/bee-A2DF.svg","response":0,"trial_type":"image-button-response","trial_index":153,"time_elapsed":728146,"internal_node_id":"0.0-6.0-0.13","subject_id":"60df6e426572fff9d1e253b0","study_id":"6197b3f67c2b5cd3b6d9596a","session_id":"619be789325d1b33eae0a03c","condition":"full-information","relevant_dimensions":["antennae","pattern"],"bee_group":{"antennae":"B","wings":"X","pattern":"S","legs":"X"},"bonus":1.6200000000000012},{"rt":1099.800000011921,"stimulus":"bees-with-color/bee-B1DF.svg","response":0,"trial_type":"image-button-response","trial_index":154,"time_elapsed":729248,"internal_node_id":"0.0-6.0-0.14","subject_id":"60df6e426572fff9d1e253b0","study_id":"6197b3f67c2b5cd3b6d9596a","se