[{"success":true,"trial_type":"fullscreen","trial_index":0,"time_elapsed":9390,"internal_node_id":"0.0-0.0","subject_id":"6130b27b15fbd6ac2aa9f340","study_id":"60edd13110225f80f9f3709b","session_id":"6196c4a44f0a5ef7e9eeef65","condition":"full-information","relevant_dimensions":["pattern","legs"],"bee_group":{"antennae":"X","wings":"X","pattern":"D","legs":"M"},"bonus":1.320000000000001},{"success":true,"timeout":false,"failed_images":[],"failed_audio":[],"failed_video":[],"trial_type":"preload","trial_index":1,"time_elapsed":11037,"internal_node_id":"0.0-1.0","subject_id":"6130b27b15fbd6ac2aa9f340","study_id":"60edd13110225f80f9f3709b","session_id":"6196c4a44f0a5ef7e9eeef65","condition":"full-information","relevant_dimensions":["pattern","legs"],"bee_group":{"antennae":"X","wings":"X","pattern":"D","legs":"M"},"bonus":1.320000000000001},{"rt":1921.5,"stimulus":"Welcome! Press any key to begin.","response":" ","trial_type":"html-keyboard-response","trial_index":2,"time_elapsed":12959,"internal_node_id":"0.0-2.0","subject_id":"6130b27b15fbd6ac2aa9f340","study_id":"60edd13110225f80f9f3709b","session_id":"6196c4a44f0a5ef7e9eeef65","condition":"full-information","relevant_dimensions":["pattern","legs"],"bee_group":{"antennae":"X","wings":"X","pattern":"D","legs":"M"},"bonus":1.320000000000001},{"view_history":[{"page_index":0,"viewing_time":6412.799999952316},{"page_index":1,"viewing_time":15726.800000190735},{"page_index":2,"viewing_time":13911},{"page_index":3,"viewing_time":20292.299999952316},{"page_index":4,"viewing_time":11717.399999856949},{"page_index":5,"viewing_time":8043.5},{"page_index":6,"viewing_time":6782.700000047684},{"page_index":7,"viewing_time":8395.5},{"page_index":8,"viewing_time":5152.600000143051},{"page_index":9,"viewing_time":3679.899999856949},{"page_index":10,"viewing_time":3431.100000143051},{"page_index":11,"viewing_time":16627.799999952316},{"page_index":12,"viewing_time":12411.5},{"page_index":13,"viewing_time":1089},{"page_index":14,"viewing_time":2830}],"rt":136504.20000004768,"trial_type":"instructions","trial_index":3,"time_elapsed":149464,"internal_node_id":"0.0-3.0-0.0","subject_id":"6130b27b15fbd6ac2aa9f340","study_id":"60edd13110225f80f9f3709b","session_id":"6196c4a44f0a5ef7e9eeef65","condition":"full-information","relevant_dimensions":["pattern","legs"],"bee_group":{"antennae":"X","wings":"X","pattern":"D","legs":"M"},"bonus":1.320000000000001},{"rt":18845.900000095367,"response":{"Q0":["Two or six legs","Stripes or spots on body","Single or double wings","Antennae or no antennae"]},"question_order":[0],"trial_type":"survey-multi-select","trial_index":4,"time_elapsed":168312,"internal_node_id":"0.0-3.0-1.0","subject_id":"6130b27b15fbd6ac2aa9f340","study_id":"60edd13110225f80f9f3709b","session_id":"6196c4a44f0a5ef7e9eeef65","condition":"full-information","relevant_dimensions":["pattern","legs"],"bee_group":{"antennae":"X","wings":"X","pattern":"D","legs":"M"},"correct":true,"bonus":1.320000000000001},{"rt":26100.699999809265,"response":{"Q1":"No.","Q2":"Based on the four features of the bee.","Q3":"You learn if it was friendly or dangerous, but do not alter your bonus."},"question_order":[0,1,2],"trial_type":"survey-multi-choice","trial_index":5,"time_elapsed":194415,"internal_node_id":"0.0-3.0-2.0","subject_id":"6130b27b15fbd6ac2aa9f340","study_id":"60edd13110225f80f9f3709b","session_id":"6196c4a44f0a5ef7e9eeef65","condition":"full-information","relevant_dimensions":["pattern","legs"],"bee_group":{"antennae":"X","wings":"X","pattern":"D","legs":"M"},"correct":true,"bonus":1.320000000000001},{"rt":2860.2999999523163,"stimulus":"<p>Congrats, you got everything right<br>When you're ready, click the button below to continue to the experiment.</p>","response":0,"trial_type":"html-button-response","trial_index":6,"time_elapsed":197278,"internal_node_id":"0.0-3.0-3.0","subject_id":"6130b27b15fbd6ac2aa9f340","study_id":"60edd13110225f80f9f3709b","session_id":"6196c4a44f0a5ef7e9eeef65","condition":"full-information","relevant_dimensions":["pattern","legs"],"bee_group":{"antennae":"X","wings":"X","pattern":"D","legs":"M"},"bonus":1.320000000000001},{"rt":3909.600000143051,"stimulus":"bees-with-color/bee-A1DF.svg","response":0,"trial_type":"image-button-response","trial_index":7,"time_elapsed":201189,"internal_node_id":"0.0-4.0-0.0","subject_id":"6130b27b15fbd6ac2aa9f340","study_id":"60edd13110225f80f9f3709b","session_id":"6196c4a44f0a5ef7e9eeef65","condition":"full-information","relevant_dimensions":["pattern","legs"],"bee_group":{"antennae":"X","wings":"X","pattern":"D","legs":"M"},"action":"harvest","summary":"good-harvest","bonus":1.320000000000001},{"rt":6962.799999952316,"stimulus":"\n                    <p><b>Action: <em>harvest</em></b></p>\n                    <p>This is the bee that you just saw.</p>\n                    <img src=\"bees-with-color/bee-A1DF.svg\" width=\"200\">\n                    <p><span class=\"greenText\"><b>Successful harvest!</b></span><br>Your pay has increased by $0.02. Your bonus pay is now $0.56.</p>\n            ","response":0,"trial_type":"html-button-response","trial_index":8,"time_elapsed":208153,"internal_node_id":"0.0-4.0-1.0","subject_id":"6130b27b15fbd6ac2aa9f340","study_id":"60edd13110225f80f9f3709b","session_id":"6196c4a44f0a5ef7e9eeef65","condition":"full-information","relevant_dimensions":["pattern","legs"],"bee_group":{"antennae":"X","wings":"X","pattern":"D","legs":"M"},"bonus":1.320000000000001},{"rt":2565.100000143051,"stimulus":"bees-with-color/bee-B2DM.svg","response":1,"trial_type":"image-button-response","trial_index":9,"time_elapsed":210719,"internal_node_id":"0.0-4.0-0.1","subject_id":"6130b27b15fbd6ac2aa9f340","study_id":"60edd13110225f80f9f3709b","session_id":"6196c4a44f0a5ef7e9eeef65","condition":"full-information","relevant_dimensions":["pattern","legs"],"bee_group":{"antennae":"X","wings":"X","pattern":"D","legs":"M"},"action":"avoid","summary":"good-avoid","bonus":1.320000000000001},{"rt":84759.59999990463,"stimulus":"\n                    <p><b>Action: <em>avoid</em></b></p>\n                    <p>This is the bee that you just saw.</p>\n                    <img src=\"bees-with-color/bee-B2DM.svg\" width=\"200\">\n                    <p><span class=\"greenText\">Good choice!</span>  This bee would have stung you.<br>Your bonus pay is unchanged, and remains at $0.56.</p>\n            ","response":0,"trial_type":"html-button-response","trial_index":10,"time_elapsed":295478,"internal_node_id":"0.0-4.0-1.1","subject_id":"6130b27b15fbd6ac2aa9f340","study_id":"60edd13110225f80f9f3709b","session_id":"6196c4a44f0a5ef7e9eeef65","condition":"full-information","relevant_dimensions":["pattern","legs"],"bee_group":{"antennae":"X","wings":"X","pattern":"D","legs":"M"},"bonus":1.320000000000001},{"rt":5103.799999952316,"stimulus":"bees-with-color/bee-A2SF.svg","response":1,"trial_type":"image-button-response","trial_index":11,"time_elapsed":300583,"internal_node_id":"0.0-4.0-0.2","subject_id":"6130b27b15fbd6ac2aa9f340","study_id":"60edd13110225f80f9f3709b","session_id":"6196c4a44f0a5ef7e9eeef65","condition":"full-information","relevant_dimensions":["pattern","legs"],"bee_group":{"antennae":"X","wings":"X","pattern":"D","legs":"M"},"action":"avoid","summary":"bad-avoid","bonus":1.320000000000001},{"rt":13285.100000143051,"stimulus":"\n                    <p><b>Action: <em>avoid</em></b></p>\n                    <p>This is the bee that you just saw.</p>\n                    <img src=\"bees-with-color/bee-A2SF.svg\" width=\"200\">\n                    <p><span class=\"redText\">Bad choice,</span> the bee was friendly.<br>Your bonus pay is unchanged, and remains at $0.56.</p>\n            ","response":0,"trial_type":"html-button-response","trial_index":12,"time_elapsed":313869,"internal_node_id":"0.0-4.0-1.2","subject_id":"6130b27b15fbd6ac2aa9f340","study_id":"60edd13110225f80f9f3709b","session_id":"6196c4a44f0a5ef7e9eeef65","condition":"full-information","relevant_dimensions":["pattern","legs"],"bee_group":{"antennae":"X","wings":"X","pattern":"D","legs":"M"},"bonus":1.320000000000001},{"rt":1371.1000001430511,"stimulus":"bees-with-color/bee-B1SF.svg","response":0,"trial_type":"image-button-response","trial_index":13,"time_elapsed":315241,"internal_node_id":"0.0-4.0-0.3","subject_id":"6130b27b15fbd6ac2aa9f340","study_id":"60edd13110225f80f9f3709b","session_id":"6196c4a44f0a5ef7e9eeef65","condition":"full-information","relevant_dimensions":["pattern","legs"],"bee_group":{"antennae":"X","wings":"X","pattern":"D","legs":"M"},"action":"harvest","summary":"good-harvest","bonus":1.320000000000001},{"rt":8979.300000190735,"stimulus":"\n                    <p><b>Action: <em>harvest</em></b></p>\n                    <p>This is the bee that you just saw.</p>\n                    <img src=\"bees-with-color/bee-B1SF.svg\" width=\"200\">\n                    <p><span class=\"greenText\"><b>Successful harvest!</b></span><br>Your pay has increased by $0.02. Your bonus pay is now $0.58.</p>\n            ","response":0,"trial_type":"html-button-response","trial_index":14,"time_elapsed":324221,"internal_node_id":"0.0-4.0-1.3","subject_id":"6130b27b15fbd6ac2aa9f340","study_id":"60edd13110225f80f9f3709b","session_id":"6196c4a44f0a5ef7e9eeef65","condition":"full-information","relevant_dimensions":["pattern","legs"],"bee_group":{"antennae":"X","wings":"X","pattern":"D","legs":"M"},"bonus":1.320000000000001},{"rt":2282.7000000476837,"stimulus":"bees-with-color/bee-B2DF.svg","response":1,"trial_type":"image-button-response","trial_index":15,"time_elapsed":326505,"internal_node_id":"0.0-4.0-0.4","subject_id":"6130b27b15fbd6ac2aa9f340","study_id":"60edd13110225f80f9f3709b","session_id":"6196c4a44f0a5ef7e9eeef65","condition":"full-information","relevant_dimensions":["pattern","legs"],"bee_group":{"antennae":"X","wings":"X","pattern":"D","legs":"M"},"action":"avoid","summary":"bad-avoid","bonus":1.320000000000001},{"rt":15387.300000190735,"stimulus":"\n                    <p><b>Action: <em>avoid</em></b></p>\n                    <p>This is the bee that you just saw.</p>\n                    <img src=\"bees-with-color/bee-B2DF.svg\" width=\"200\">\n                    <p><span class=\"redText\">Bad choice,</span> the bee was friendly.<br>Your bonus pay is unchanged, and remains at $0.58.</p>\n            ","response":0,"trial_type":"html-button-response","trial_index":16,"time_elapsed":341893,"internal_node_id":"0.0-4.0-1.4","subject_id":"6130b27b15fbd6ac2aa9f340","study_id":"60edd13110225f80f9f3709b","session_id":"6196c4a44f0a5ef7e9eeef65","condition":"full-information","relevant_dimensions":["pattern","legs"],"bee_group":{"antennae":"X","wings":"X","pattern":"D","legs":"M"},"bonus":1.320000000000001},{"rt":1617.1000001430511,"stimulus":"bees-with-color/bee-B1SM.svg","response":1,"trial_type":"image-button-response","trial_index":17,"time_elapsed":343511,"internal_node_id":"0.0-4.0-0.5","subject_id":"6130b27b15fbd6ac2aa9f340","study_id":"60edd13110225f80f9f3709b","session_id":"6196c4a44f0a5ef7e9eeef65","condition":"full-information","relevant_dimensions":["pattern","legs"],"bee_group":{"antennae":"X","wings":"X","pattern":"D","legs":"M"},"action":"avoid","summary":"bad-avoid","bonus":1.320000000000001},{"rt":1920.9000000953674,"stimulus":"\n                    <p><b>Action: <em>avoid</em></b></p>\n                    <p>This is the bee that you just saw.</p>\n                    <img src=\"bees-with-color/bee-B1SM.svg\" width=\"200\">\n                    <p><span class=\"redText\">Bad choice,</span> the bee was friendly.<br>Your bonus pay is unchanged, and remains at $0.58.</p>\n            ","response":0,"trial_type":"html-button-response","trial_index":18,"time_elapsed":345432,"internal_node_id":"0.0-4.0-1.5","subject_id":"6130b27b15fbd6ac2aa9f340","study_id":"60edd13110225f80f9f3709b","session_id":"6196c4a44f0a5ef7e9eeef65","condition":"full-information","relevant_dimensions":["pattern","legs"],"bee_group":{"antennae":"X","wings":"X","pattern":"D","legs":"M"},"bonus":1.320000000000001},{"rt":2708.7000000476837,"stimulus":"bees-with-color/bee-A2DM.svg","response":1,"trial_type":"image-button-response","trial_index":19,"time_elapsed":348142,"internal_node_id":"0.0-4.0-0.6","subject_id":"6130b27b15fbd6ac2aa9f340","study_id":"60edd13110225f80f9f3709b","session_id":"6196c4a44f0a5ef7e9eeef65","condition":"full-information","relevant_dimensions":["pattern","legs"],"bee_group":{"antennae":"X","wings":"X","pattern":"D","legs":"M"},"action":"avoid","summary":"good-avoid","bonus":1.320000000000001},{"rt":764.7000000476837,"stimulus":"\n                    <p><b>Action: <em>avoid</em></b></p>\n                    <p>This is the bee that you just saw.</p>\n                    <img src=\"bees-with-color/bee-A2DM.svg\" width=\"200\">\n                    <p><span class=\"greenText\">Good choice!</span>  This bee would have stung you.<br>Your bonus pay is unchanged, and remains at $0.58.</p>\n            ","response":0,"trial_type":"html-button-response","trial_index":20,"time_elapsed":348907,"internal_node_id":"0.0-4.0-1.6","subject_id":"6130b27b15fbd6ac2aa9f340","study_id":"60edd13110225f80f9f3709b","session_id":"6196c4a44f0a5ef7e9eeef65","condition":"full-information","relevant_dimensions":["pattern","legs"],"bee_group":{"antennae":"X","wings":"X","pattern":"D","legs":"M"},"bonus":1.320000000000001},{"rt":2788.4000000953674,"stimulus":"bees-with-color/bee-B2SM.svg","response":1,"trial_type":"image-button-response","trial_index":21,"time_elapsed":351696,"internal_node_id":"0.0-4.0-0.7","subject_id":"6130b27b15fbd6ac2aa9f340","study_id":"60edd13110225f80f9f3709b","session_id":"6196c4a44f0a5ef7e9eeef65","condition":"full-information","relevant_dimensions":["pattern","legs"],"bee_group":{"antennae":"X","wings":"X","pattern":"D","legs":"M"},"action":"avoid","summary":"bad-avoid","bonus":1.320000000000001},{"rt":928.9000000953674,"stimulus":"\n                    <p><b>Action: <em>avoid</em></b></p>\n                    <p>This is the bee that you just saw.</p>\n                    <img src=\"bees-with-color/bee-B2SM.svg\" width=\"200\">\n                    <p><span class=\"redText\">Bad choice,</span> the bee was friendly.<br>Your bonus pay is unchanged, and remains at $0.58.</p>\n            ","response":0,"trial_type":"html-button-response","trial_index":22,"time_elapsed":352626,"internal_node_id":"0.0-4.0-1.7","subject_id":"6130b27b15fbd6ac2aa9f340","study_id":"60edd13110225f80f9f3709b","session_id":"6196c4a44f0a5ef7e9eeef65","condition":"full-information","relevant_dimensions":["pattern","legs"],"bee_group":{"antennae":"X","wings":"X","pattern":"D","legs":"M"},"bonus":1.320000000000001},{"rt":1614.2999999523163,"stimulus":"bees-with-color/bee-A2DF.svg","response":0,"trial_type":"image-button-response","trial_index":23,"time_elapsed":354241,"internal_node_id":"0.0-4.0-0.8","subject_id":"6130b27b15fbd6ac2aa9f340","study_id":"60edd13110225f80f9f3709b","session_id":"6196c4a44f0a5ef7e9eeef65","condition":"full-information","relevant_dimensions":["pattern","legs"],"bee_group":{"antennae":"X","wings":"X","pattern":"D","legs":"M"},"action":"harvest","summary":"good-harvest","bonus":1.320000000000001},{"rt":791,"stimulus":"\n                    <p><b>Action: <em>harvest</em></b></p>\n                    <p>This is the bee that you just saw.</p>\n                    <img src=\"bees-with-color/bee-A2DF.svg\" width=\"200\">\n                    <p><span class=\"greenText\"><b>Successful harvest!</b></span><br>Your pay has increased by $0.02. Your bonus pay is now $0.60.</p>\n            ","response":0,"trial_type":"html-button-response","trial_index":24,"time_elapsed":355033,"internal_node_id":"0.0-4.0-1.8","subject_id":"6130b27b15fbd6ac2aa9f340","study_id":"60edd13110225f80f9f3709b","session_id":"6196c4a44f0a5ef7e9eeef65","condition":"full-information","relevant_dimensions":["pattern","legs"],"bee_group":{"antennae":"X","wings":"X","pattern":"D","legs":"M"},"bonus":1.320000000000001},{"rt":1181.2000000476837,"stimulus":"bees-with-color/bee-B1DF.svg","response":0,"trial_type":"image-button-response","trial_index":25,"time_elapsed":356215,"internal_node_id":"0.0-4.0-0.9","subject_id":"6130b27b15fbd6ac2aa9f340","study_id":"60edd13110225f80f9f3709b","session_id":"6196c4a44f0a5ef7e9eeef65","condition":"full-information","relevant_dimensions":["pattern","legs"],"bee_group":{"antennae":"X","wings":"X","pattern":"D","legs":"M"},"action":"harvest","summary":"good-harvest","bonus":1.320000000000001},{"rt":716.5,"stimulus":"\n                    <p><b>Action: <em>harvest</em></b></p>\n                    <p>This is the bee that you just saw.</p>\n                    <img src=\"bees-with-color/bee-B1DF.svg\" width=\"200\">\n                    <p><span class=\"greenText\"><b>Successful harvest!</b></span><br>Your pay has increased by $0.02. Your bonus pay is now $0.62.</p>\n            ","response":0,"trial_type":"html-button-response","trial_index":26,"time_elapsed":356932,"internal_node_id":"0.0-4.0-1.9","subject_id":"6130b27b15fbd6ac2aa9f340","study_id":"60edd13110225f80f9f3709b","session_id":"6196c4a44f0a5ef7e9eeef65","condition":"full-information","relevant_dimensions":["pattern","legs"],"bee_group":{"antennae":"X","wings":"X","pattern":"D","legs":"M"},"bonus":1.320000000000001},{"rt":2348.899999856949,"stimulus":"bees-with-color/bee-A1SM.svg","response":1,"trial_type":"image-button-response","trial_index":27,"time_elapsed":359282,"internal_node_id":"0.0-4.0-0.10","subject_id":"6130b27b15fbd6ac2aa9f340","study_id":"60edd13110225f80f9f3709b","session_id":"6196c4a44f0a5ef7e9eeef65","condition":"full-information","relevant_dimensions":["pattern","legs"],"bee_group":{"antennae":"X","wings":"X","pattern":"D","legs":"M"},"action":"avoid","summary":"bad-avoid","bonus":1.320000000000001},{"rt":809.2999999523163,"stimulus":"\n                    <p><b>Action: <em>avoid</em></b></p>\n                    <p>This is the bee that you just saw.</p>\n                    <img src=\"bees-with-color/bee-A1SM.svg\" width=\"200\">\n                    <p><span class=\"redText\">Bad choice,</span> the bee was friendly.<br>Your bonus pay is unchanged, and remains at $0.62.</p>\n            ","response":0,"trial_type":"html-button-response","trial_index":28,"time_elapsed":360092,"internal_node_id":"0.0-4.0-1.10","subject_id":"6130b27b15fbd6ac2aa9f340","study_id":"60edd13110225f80f9f3709b","session_id":"6196c4a44f0a5ef7e9eeef65","condition":"full-information","relevant_dimensions":["pattern","legs"],"bee_group":{"antennae":"X","wings":"X","pattern":"D","legs":"M"},"bonus":1.320000000000001},{"rt":1566.7999999523163,"stimulus":"bees-with-color/bee-B2SF.svg","response":0,"trial_type":"image-button-response","trial_index":29,"time_elapsed":361660,"internal_node_id":"0.0-4.0-0.11","subject_id":"6130b27b15fbd6ac2aa9f340","study_id":"60edd13110225f80f9f3709b","session_id":"6196c4a44f0a5ef7e9eeef65","condition":"full-information","relevant_dimensions":["pattern","legs"],"bee_group":{"antennae":"X","wings":"X","pattern":"D","legs":"M"},"action":"harvest","summary":"good-harvest","bonus":1.320000000000001},{"rt":710.4000000953674,"stimulus":"\n                    <p><b>Action: <em>harvest</em></b></p>\n                    <p>This is the bee that you just saw.</p>\n                    <img src=\"bees-with-color/bee-B2SF.svg\" width=\"200\">\n                    <p><span class=\"greenText\"><b>Successful harvest!</b></span><br>Your pay has increased by $0.02. Your bonus pay is now $0.64.</p>\n            ","response":0,"trial_type":"html-button-response","trial_index":30,"time_elapsed":362371,"internal_node_id":"0.0-4.0-1.11","subject_id":"6130b27b15fbd6ac2aa9f340","study_id":"60edd13110225f80f9f3709b","session_id":"6196c4a44f0a5ef7e9eeef65","condition":"full-information","relevant_dimensions":["pattern","legs"],"bee_group":{"antennae":"X","wings":"X","pattern":"D","legs":"M"},"bonus":1.320000000000001},{"rt":1118.3999998569489,"stimulus":"bees-with-color/bee-A1DM.svg","response":1,"trial_type":"image-button-response","trial_index":31,"time_elapsed":363490,"internal_node_id":"0.0-4.0-0.12","subject_id":"6130b27b15fbd6ac2aa9f340","study_id":"60edd13110225f80f9f3709b","session_id":"6196c4a44f0a5ef7e9eeef65","condition":"full-information","relevant_dimensions":["pattern","legs"],"bee_group":{"antennae":"X","wings":"X","pattern":"D","legs":"M"},"action":"avoid","summary":"good-avoid","bonus":1.320000000000001},{"rt":807.2999999523163,"stimulus":"\n                    <p><b>Action: <em>avoid</em></b></p>\n                    <p>This is the bee that you just saw.</p>\n                    <img src=\"bees-with-color/bee-A1DM.svg\" width=\"200\">\n                    <p><span class=\"greenText\">Good choice!</span>  This bee would have stung you.<br>Your bonus pay is unchanged, and remains at $0.64.</p>\n            ","response":0,"trial_type":"html-button-response","trial_index":32,"time_elapsed":364297,"internal_node_id":"0.0-4.0-1.12","subject_id":"6130b27b15fbd6ac2aa9f340","study_id":"60edd13110225f80f9f3709b","session_id":"6196c4a44f0a5ef7e9eeef65","condition":"full-information","relevant_dimensions":["pattern","legs"],"bee_group":{"antennae":"X","wings":"X","pattern":"D","legs":"M"},"bonus":1.320000000000001},{"rt":2216.7999999523163,"stimulus":"bees-with-color/bee-A2SM.svg","response":1,"trial_type":"image-button-response","trial_index":33,"time_elapsed":366515,"internal_node_id":"0.0-4.0-0.13","subject_id":"6130b27b15fbd6ac2aa9f340","study_id":"60edd13110225f80f9f3709b","session_id":"6196c4a44f0a5ef7e9eeef65","condition":"full-information","relevant_dimensions":["pattern","legs"],"bee_group":{"antennae":"X","wings":"X","pattern":"D","legs":"M"},"action":"avoid","summary":"bad-avoid","bonus":1.320000000000001},{"rt":642,"stimulus":"\n                    <p><b>Action: <em>avoid</em></b></p>\n                    <p>This is the bee that you just saw.</p>\n                    <img src=\"bees-with-color/bee-A2SM.svg\" width=\"200\">\n                    <p><span class=\"redText\">Bad choice,</span> the bee was friendly.<br>Your bonus pay is unchanged, and remains at $0.64.</p>\n            ","response":0,"trial_type":"html-button-response","trial_index":34,"time_elapsed":367157,"internal_node_id":"0.0-4.0-1.13","subject_id":"6130b27b15fbd6ac2aa9f340","study_id":"60edd13110225f80f9f3709b","session_id":"6196c4a44f0a5ef7e9eeef65","condition":"full-information","relevant_dimensions":["pattern","legs"],"bee_group":{"antennae":"X","wings":"X","pattern":"D","legs":"M"},"bonus":1.320000000000001},{"rt":1970.6000001430511,"stimulus":"bees-with-color/bee-B1DM.svg","response":0,"trial_type":"image-button-response","trial_index":35,"time_elapsed":369129,"internal_node_id":"0.0-4.0-0.14","subject_id":"6130b27b15fbd6ac2aa9f340","study_id":"60edd13110225f80f9f3709b","session_id":"6196c4a44f0a5ef7e9eeef65","condition":"full-information","relevant_dimensions":["pattern","legs"],"bee_group":{"antennae":"X","wings":"X","pattern":"D","legs":"M"},"action":"harvest","summary":"bad-harvest","bonus":1.320000000000001},{"rt":1749.2999999523163,"stimulus":"\n                    <p><b>Action: <em>harvest</em></b></p>\n                    <p>This is the bee that you just saw.</p>\n                    <img src=\"bees-with-color/bee-B1DM.svg\" width=\"200\">\n                    <p><span class=\"redText\">Bad choice, the bee was angry.</span><br><b>You have been stung!</b><br>Your pay has been decreased by $0.10. Your bonus pay is now $0.54.</p>\n            ","response":0,"trial_type":"html-button-response","trial_index":36,"time_elapsed":370878,"internal_node_id":"0.0-4.0-1.14","subject_id":"6130b27b15fbd6ac2aa9f340","study_id":"60edd13110225f80f9f3709b","session_id":"6196c4a44f0a5ef7e9eeef65","condition":"full-information","relevant_dimensions":["pattern","legs"],"bee_group":{"antennae":"X","wings":"X","pattern":"D","legs":"M"},"bonus":1.320000000000001},{"rt":1895.5,"stimulus":"bees-with-color/bee-A1SF.svg","response":0,"trial_type":"image-button-response","trial_index":37,"time_elapsed":372775,"internal_node_id":"0.0-4.0-0.15","subject_id":"6130b27b15fbd6ac2aa9f340","study_id":"60edd13110225f80f9f3709b","session_id":"6196c4a44f0a5ef7e9eeef65","condition":"full-information","relevant_dimensions":["pattern","legs"],"bee_group":{"antennae":"X","wings":"X","pattern":"D","legs":"M"},"action":"harvest","summary":"good-harvest","bonus":1.320000000000001},{"rt":709.9000000953674,"stimulus":"\n                    <p><b>Action: <em>harvest</em></b></p>\n                    <p>This is the bee that you just saw.</p>\n                    <img src=\"bees-with-color/bee-A1SF.svg\" width=\"200\">\n                    <p><span class=\"greenText\"><b>Successful harvest!</b></span><br>Your pay has increased by $0.02. Your bonus pay is now $0.56.</p>\n            ","response":0,"trial_type":"html-button-response","trial_index":38,"time_elapsed":373485,"internal_node_id":"0.0-4.0-1.15","subject_id":"6130b27b15fbd6ac2aa9f340","study_id":"60edd13110225f80f9f3709b","session_id":"6196c4a44f0a5ef7e9eeef65","condition":"full-information","relevant_dimensions":["pattern","legs"],"bee_group":{"antennae":"X","wings":"X","pattern":"D","legs":"M"},"bonus":1.320000000000001},{"rt":2640.9000000953674,"stimulus":"bees-with-color/bee-B1DM.svg","response":0,"trial_type":"image-button-response","trial_index":39,"time_elapsed":376127,"internal_node_id":"0.0-4.0-0.16","subject_id":"6130b27b15fbd6ac2aa9f340","study_id":"60edd13110225f80f9f3709b","session_id":"6196c4a44f0a5ef7e9eeef65","condition":"full-information","relevant_dimensions":["pattern","legs"],"bee_group":{"antennae":"X","wings":"X","pattern":"D","legs":"M"},"action":"harvest","summary":"bad-harvest","bonus":1.320000000000001},{"rt":680.4000000953674,"stimulus":"\n                    <p><b>Action: <em>harvest</em></b></p>\n                    <p>This is the bee that you just saw.</p>\n                    <img src=\"bees-with-color/bee-B1DM.svg\" width=\"200\">\n                    <p><span class=\"redText\">Bad choice, the bee was angry.</span><br><b>You have been stung!</b><br>Your pay has been decreased by $0.10. Your bonus pay is now $0.46.</p>\n            ","response":0,"trial_type":"html-button-response","trial_index":40,"time_elapsed":376808,"internal_node_id":"0.0-4.0-1.16","subject_id":"6130b27b15fbd6ac2aa9f340","study_id":"60edd13110225f80f9f3709b","session_id":"6196c4a44f0a5ef7e9eeef65","condition":"full-information","relevant_dimensions":["pattern","legs"],"bee_group":{"antennae":"X","wings":"X","pattern":"D","legs":"M"},"bonus":1.320000000000001},{"rt":1432.7999999523163,"stimulus":"bees-with-color/bee-A1SM.svg","response":1,"trial_type":"image-button-response","trial_index":41,"time_elapsed":378241,"internal_node_id":"0.0-4.0-0.17","subject_id":"6130b27b15fbd6ac2aa9f340","study_id":"60edd13110225f80f9f3709b","session_id":"6196c4a44f0a5ef7e9eeef65","condition":"full-information","relevant_dimensions":["pattern","legs"],"bee_group":{"antennae":"X","wings":"X","pattern":"D","legs":"M"},"action":"avoid","summary":"bad-avoid","bonus":1.320000000000001},{"rt":714.4000000953674,"stimulus":"\n                    <p><b>Action: <em>avoid</em></b></p>\n                    <p>This is the bee that you just saw.</p>\n                    <img src=\"bees-with-color/bee-A1SM.svg\" width=\"200\">\n                    <p><span class=\"redText\">Bad choice,</span> the bee was friendly.<br>Your bonus pay is unchanged, and remains at $0.46.</p>\n            ","response":0,"trial_type":"html-button-response","trial_index":42,"time_elapsed":378956,"internal_node_id":"0.0-4.0-1.17","subject_id":"6130b27b15fbd6ac2aa9f340","study_id":"60edd13110225f80f9f3709b","session_id":"6196c4a44f0a5ef7e9eeef65","condition":"full-information","relevant_dimensions":["pattern","legs"],"bee_group":{"antennae":"X","wings":"X","pattern":"D","legs":"M"},"bonus":1.320000000000001},{"rt":968.7999999523163,"stimulus":"bees-with-color/bee-A1SF.svg","response":0,"trial_type":"image-button-response","trial_index":43,"time_elapsed":379926,"internal_node_id":"0.0-4.0-0.18","subject_id":"6130b27b15fbd6ac2aa9f340","study_id":"60edd13110225f80f9f3709b","session_id":"6196c4a44f0a5ef7e9eeef65","condition":"full-information","relevant_dimensions":["pattern","legs"],"bee_group":{"antennae":"X","wings":"X","pattern":"D","legs":"M"},"action":"harvest","summary":"good-harvest","bonus":1.320000000000001},{"rt":635.2999999523163,"stimulus":"\n                    <p><b>Action: <em>harvest</em></b></p>\n                    <p>This is the bee that you just saw.</p>\n                    <img src=\"bees-with-color/bee-A1SF.svg\" width=\"200\">\n                    <p><span class=\"greenText\"><b>Successful harvest!</b></span><br>Your pay has increased by $0.02. Your bonus pay is now $0.48.</p>\n            ","response":0,"trial_type":"html-button-response","trial_index":44,"time_elapsed":380561,"internal_node_id":"0.0-4.0-1.18","subject_id":"6130b27b15fbd6ac2aa9f340","study_id":"60edd13110225f80f9f3709b","session_id":"6196c4a44f0a5ef7e9eeef65","condition":"full-information","relevant_dimensions":["pattern","legs"],"bee_group":{"antennae":"X","wings":"X","pattern":"D","legs":"M"},"bonus":1.320000000000001},{"rt":4890.599999904633,"stimulus":"bees-with-color/bee-A2SM.svg","response":0,"trial_type":"image-button-response","trial_index":45,"time_elapsed":385453,"internal_node_id":"0.0-4.0-0.19","subject_id":"6130b27b15fbd6ac2aa9f340","study_id":"60edd13110225f80f9f3709b","session_id":"6196c4a44f0a5ef7e9eeef65","condition":"full-information","relevant_dimensions":["pattern","legs"],"bee_group":{"antennae":"X","wings":"X","pattern":"D","legs":"M"},"action":"harvest","summary":"good-harvest","bonus":1.320000000000001},{"rt":605.4000000953674,"stimulus":"\n                    <p><b>Action: <em>harvest</em></b></p>\n                    <p>This is the bee that you just saw.</p>\n                    <img src=\"bees-with-color/bee-A2SM.svg\" width=\"200\">\n                    <p><span class=\"greenText\"><b>Successful harvest!</b></span><br>Your pay has increased by $0.02. Your bonus pay is now $0.50.</p>\n            ","response":0,"trial_type":"html-button-response","trial_index":46,"time_elapsed":386059,"internal_node_id":"0.0-4.0-1.19","subject_id":"6130b27b15fbd6ac2aa9f340","study_id":"60edd13110225f80f9f3709b","session_id":"6196c4a44f0a5ef7e9eeef65","condition":"full-information","relevant_dimensions":["pattern","legs"],"bee_group":{"antennae":"X","wings":"X","pattern":"D","legs":"M"},"bonus":1.320000000000001},{"rt":3392.9000000953674,"stimulus":"bees-with-color/bee-B1SF.svg","response":0,"trial_type":"image-button-response","trial_index":47,"time_elapsed":389452,"internal_node_id":"0.0-4.0-0.20","subject_id":"6130b27b15fbd6ac2aa9f340","study_id":"60edd13110225f80f9f3709b","session_id":"6196c4a44f0a5ef7e9eeef65","condition":"full-information","relevant_dimensions":["pattern","legs"],"bee_group":{"antennae":"X","wings":"X","pattern":"D","legs":"M"},"action":"harvest","summary":"good-harvest","bonus":1.320000000000001},{"rt":974.6000001430511,"stimulus":"\n                    <p><b>Action: <em>harvest</em></b></p>\n                    <p>This is the bee that you just saw.</p>\n                    <img src=\"bees-with-color/bee-B1SF.svg\" width=\"200\">\n                    <p><span class=\"greenText\"><b>Successful harvest!</b></span><br>Your pay has increased by $0.02. Your bonus pay is now $0.52.</p>\n            ","response":0,"trial_type":"html-button-response","trial_index":48,"time_elapsed":390427,"internal_node_id":"0.0-4.0-1.20","subject_id":"6130b27b15fbd6ac2aa9f340","study_id":"60edd13110225f80f9f3709b","session_id":"6196c4a44f0a5ef7e9eeef65","condition":"full-information","relevant_dimensions":["pattern","legs"],"bee_group":{"antennae":"X","wings":"X","pattern":"D","legs":"M"},"bonus":1.320000000000001},{"rt":3333.2999999523163,"stimulus":"bees-with-color/bee-B1SM.svg","response":0,"trial_type":"image-button-response","trial_index":49,"time_elapsed":393761,"internal_node_id":"0.0-4.0-0.21","subject_id":"6130b27b15fbd6ac2aa9f340","study_id":"60edd13110225f80f9f3709b","session_id":"6196c4a44f0a5ef7e9eeef65","condition":"full-information","relevant_dimensions":["pattern","legs"],"bee_group":{"antennae":"X","wings":"X","pattern":"D","legs":"M"},"action":"harvest","summary":"good-harvest","bonus":1.320000000000001},{"rt":647.2999999523163,"stimulus":"\n                    <p><b>Action: <em>harvest</em></b></p>\n                    <p>This is the bee that you just saw.</p>\n                    <img src=\"bees-with-color/bee-B1SM.svg\" width=\"200\">\n                    <p><span class=\"greenText\"><b>Successful harvest!</b></span><br>Your pay has increased by $0.02. Your bonus pay is now $0.54.</p>\n            ","response":0,"trial_type":"html-button-response","trial_index":50,"time_elapsed":394409,"internal_node_id":"0.0-4.0-1.21","subject_id":"6130b27b15fbd6ac2aa9f340","study_id":"60edd13110225f80f9f3709b","session_id":"6196c4a44f0a5ef7e9eeef65","condition":"full-information","relevant_dimensions":["pattern","legs"],"bee_group":{"antennae":"X","wings":"X","pattern":"D","legs":"M"},"bonus":1.320000000000001},{"rt":3532.4000000953674,"stimulus":"bees-with-color/bee-A2DM.svg","response":1,"trial_type":"image-button-response","trial_index":51,"time_elapsed":397943,"internal_node_id":"0.0-4.0-0.22","subject_id":"6130b27b15fbd6ac2aa9f340","study_id":"60edd13110225f80f9f3709b","session_id":"6196c4a44f0a5ef7e9eeef65","condition":"full-information","relevant_dimensions":["pattern","legs"],"bee_group":{"antennae":"X","wings":"X","pattern":"D","legs":"M"},"action":"avoid","summary":"good-avoid","bonus":1.320000000000001},{"rt":839.7999999523163,"stimulus":"\n                    <p><b>Action: <em>avoid</em></b></p>\n                    <p>This is the bee that you just saw.</p>\n                    <img src=\"bees-with-color/bee-A2DM.svg\" width=\"200\">\n                    <p><span class=\"greenText\">Good choice!</span>  This bee would have stung you.<br>Your bonus pay is unchanged, and remains at $0.54.</p>\n            ","response":0,"trial_type":"html-button-response","trial_index":52,"time_elapsed":398783,"internal_node_id":"0.0-4.0-1.22","subject_id":"6130b27b15fbd6ac2aa9f340","study_id":"60edd13110225f80f9f3709b","session_id":"6196c4a44f0a5ef7e9eeef65","condition":"full-information","relevant_dimensions":["pattern","legs"],"bee_group":{"antennae":"X","wings":"X","pattern":"D","legs":"M"},"bonus":1.320000000000001},{"rt":1513.7000000476837,"stimulus":"bees-with-color/bee-B1DF.svg","response":0,"trial_type":"image-button-response","trial_index":53,"time_elapsed":400298,"internal_node_id":"0.0-4.0-0.23","subject_id":"6130b27b15fbd6ac2aa9f340","study_id":"60edd13110225f80f9f3709b","session_id":"6196c4a44f0a5ef7e9eeef65","condition":"full-information","relevant_dimensions":["pattern","legs"],"bee_group":{"antennae":"X","wings":"X","pattern":"D","legs":"M"},"action":"harvest","summary":"good-harvest","bonus":1.320000000000001},{"rt":1035.2000000476837,"stimulus":"\n                    <p><b>Action: <em>harvest</em></b></p>\n                    <p>This is the bee that you just saw.</p>\n                    <img src=\"bees-with-color/bee-B1DF.svg\" width=\"200\">\n                    <p><span class=\"greenText\"><b>Successful harvest!</b></span><br>Your pay has increased by $0.02. Your bonus pay is now $0.56.</p>\n            ","response":0,"trial_type":"html-button-response","trial_index":54,"time_elapsed":401333,"internal_node_id":"0.0-4.0-1.23","subject_id":"6130b27b15fbd6ac2aa9f340","study_id":"60edd13110225f80f9f3709b","session_id":"6196c4a44f0a5ef7e9eeef65","condition":"full-information","relevant_dimensions":["pattern","legs"],"bee_group":{"antennae":"X","wings":"X","pattern":"D","legs":"M"},"bonus":1.320000000000001},{"rt":3045.0999999046326,"stimulus":"bees-with-color/bee-B2DM.svg","response":1,"trial_type":"image-button-response","trial_index":55,"time_elapsed":404379,"internal_node_id":"0.0-4.0-0.24","subject_id":"6130b27b15fbd6ac2aa9f340","study_id":"60edd13110225f80f9f3709b","session_id":"6196c4a44f0a5ef7e9eeef65","condition":"full-information","relevant_dimensions":["pattern","legs"],"bee_group":{"antennae":"X","wings":"X","pattern":"D","legs":"M"},"action":"avoid","summary":"good-avoid","bonus":1.320000000000001},{"rt":701.7000000476837,"stimulus":"\n                    <p><b>Action: <em>avoid</em></b></p>\n                    <p>This is the bee that you just saw.</p>\n                    <img src=\"bees-with-color/bee-B2DM.svg\" width=\"200\">\n                    <p><span class=\"greenText\">Good choice!</span>  This bee would have stung you.<br>Your bonus pay is unchanged, and remains at $0.56.</p>\n            ","response":0,"trial_type":"html-button-response","trial_index":56,"time_elapsed":405082,"internal_node_id":"0.0-4.0-1.24","subject_id":"6130b27b15fbd6ac2aa9f340","study_id":"60edd13110225f80f9f3709b","session_id":"6196c4a44f0a5ef7e9eeef65","condition":"full-information","relevant_dimensions":["pattern","legs"],"bee_group":{"antennae":"X","wings":"X","pattern":"D","legs":"M"},"bonus":1.320000000000001},{"rt":2492.9000000953674,"stimulus":"bees-with-color/bee-A1DF.svg","response":0,"trial_type":"image-button-response","trial_index":57,"time_elapsed":407576,"internal_node_id":"0.0-4.0-0.25","subject_id":"6130b27b15fbd6ac2aa9f340","study_id":"60edd13110225f80f9f3709b","session_id":"6196c4a44f0a5ef7e9eeef65","condition":"full-information","relevant_dimensions":["pattern","legs"],"bee_group":{"antennae":"X","wings":"X","pattern":"D","legs":"M"},"action":"harvest","summary":"good-harvest","bonus":1.320000000000001},{"rt":1073.2000000476837,"stimulus":"\n                    <p><b>Action: <em>harvest</em></b></p>\n                    <p>This is the bee that you just saw.</p>\n                    <img src=\"bees-with-color/bee-A1DF.svg\" width=\"200\">\n                    <p><span class=\"greenText\"><b>Successful harvest!</b></span><br>Your pay has increased by $0.02. Your bonus pay is now $0.58.</p>\n            ","response":0,"trial_type":"html-button-response","trial_index":58,"time_elapsed":408650,"internal_node_id":"0.0-4.0-1.25","subject_id":"6130b27b15fbd6ac2aa9f340","study_id":"60edd13110225f80f9f3709b","session_id":"6196c4a44f0a5ef7e9eeef65","condition":"full-information","relevant_dimensions":["pattern","legs"],"bee_group":{"antennae":"X","wings":"X","pattern":"D","legs":"M"},"bonus":1.320000000000001},{"rt":5256,"stimulus":"bees-with-color/bee-A2SF.svg","response":0,"trial_type":"image-button-response","trial_index":59,"time_elapsed":413907,"internal_node_id":"0.0-4.0-0.26","subject_id":"6130b27b15fbd6ac2aa9f340","study_id":"60edd13110225f80f9f3709b","session_id":"6196c4a44f0a5ef7e9eeef65","condition":"full-information","relevant_dimensions":["pattern","legs"],"bee_group":{"antennae":"X","wings":"X","pattern":"D","legs":"M"},"action":"harvest","summary":"good-harvest","bonus":1.320000000000001},{"rt":665.9000000953674,"stimulus":"\n                    <p><b>Action: <em>harvest</em></b></p>\n                    <p>This is the bee that you just saw.</p>\n                    <img src=\"bees-with-color/bee-A2SF.svg\" width=\"200\">\n                    <p><span class=\"greenText\"><b>Successful harvest!</b></span><br>Your pay has increased by $0.02. Your bonus pay is now $0.60.</p>\n            ","response":0,"trial_type":"html-button-response","trial_index":60,"time_elapsed":414573,"internal_node_id":"0.0-4.0-1.26","subject_id":"6130b27b15fbd6ac2aa9f340","study_id":"60edd13110225f80f9f3709b","session_id":"6196c4a44f0a5ef7e9eeef65","condition":"full-information","relevant_dimensions":["pattern","legs"],"bee_group":{"antennae":"X","wings":"X","pattern":"D","legs":"M"},"bonus":1.320000000000001},{"rt":4484.899999856949,"stimulus":"bees-with-color/bee-B2SM.svg","response":0,"trial_type":"image-button-response","trial_index":61,"time_elapsed":419059,"internal_node_id":"0.0-4.0-0.27","subject_id":"6130b27b15fbd6ac2aa9f340","study_id":"60edd13110225f80f9f3709b","session_id":"6196c4a44f0a5ef7e9eeef65","condition":"full-information","relevant_dimensions":["pattern","legs"],"bee_group":{"antennae":"X","wings":"X","pattern":"D","legs":"M"},"action":"harvest","summary":"good-harvest","bonus":1.320000000000001},{"rt":9823.400000095367,"stimulus":"\n                    <p><b>Action: <em>harvest</em></b></p>\n                    <p>This is the bee that you just saw.</p>\n                    <img src=\"bees-with-color/bee-B2SM.svg\" width=\"200\">\n                    <p><span class=\"greenText\"><b>Successful harvest!</b></span><br>Your pay has increased by $0.02. Your bonus pay is now $0.62.</p>\n            ","response":0,"trial_type":"html-button-response","trial_index":62,"time_elapsed":428883,"internal_node_id":"0.0-4.0-1.27","subject_id":"6130b27b15fbd6ac2aa9f340","study_id":"60edd13110225f80f9f3709b","session_id":"6196c4a44f0a5ef7e9eeef65","condition":"full-information","relevant_dimensions":["pattern","legs"],"bee_group":{"antennae":"X","wings":"X","pattern":"D","legs":"M"},"bonus":1.320000000000001},{"rt":1754.9000000953674,"stimulus":"bees-with-color/bee-A1DM.svg","response":0,"trial_type":"image-button-response","trial_index":63,"time_elapsed":430639,"internal_node_id":"0.0-4.0-0.28","subject_id":"6130b27b15fbd6ac2aa9f340","study_id":"60edd13110225f80f9f3709b","session_id":"6196c4a44f0a5ef7e9eeef65","condition":"full-information","relevant_dimensions":["pattern","legs"],"bee_group":{"antennae":"X","wings":"X","pattern":"D","legs":"M"},"action":"harvest","summary":"bad-harvest","bonus":1.320000000000001},{"rt":11784.599999904633,"stimulus":"\n                    <p><b>Action: <em>harvest</em></b></p>\n                    <p>This is the bee that you just saw.</p>\n                    <img src=\"bees-with-color/bee-A1DM.svg\" width=\"200\">\n                    <p><span class=\"redText\">Bad choice, the bee was angry.</span><br><b>You have been stung!</b><br>Your pay has been decreased by $0.10. Your bonus pay is now $0.52.</p>\n            ","response":0,"trial_type":"html-button-response","trial_index":64,"time_elapsed":442424,"internal_node_id":"0.0-4.0-1.28","subject_id":"6130b27b15fbd6ac2aa9f340","study_id":"60edd13110225f80f9f3709b","session_id":"6196c4a44f0a5ef7e9eeef65","condition":"full-information","relevant_dimensions":["pattern","legs"],"bee_group":{"antennae":"X","wings":"X","pattern":"D","legs":"M"},"bonus":1.320000000000001},{"rt":4483.200000047684,"stimulus":"bees-with-color/bee-B2SF.svg","response":0,"trial_type":"image-button-response","trial_index":65,"time_elapsed":446908,"internal_node_id":"0.0-4.0-0.29","subject_id":"6130b27b15fbd6ac2aa9f340","study_id":"60edd13110225f80f9f3709b","session_id":"6196c4a44f0a5ef7e9eeef65","condition":"full-information","relevant_dimensions":["pattern","legs"],"bee_group":{"antennae":"X","wings":"X","pattern":"D","legs":"M"},"action":"harvest","summary":"good-harvest","bonus":1.320000000000001},{"rt":8375.200000047684,"stimulus":"\n                    <p><b>Action: <em>harvest</em></b></p>\n                    <p>This is the bee that you just saw.</p>\n                    <img src=\"bees-with-color/bee-B2SF.svg\" width=\"200\">\n                    <p><span class=\"greenText\"><b>Successful harvest!</b></span><br>Your pay has increased by $0.02. Your bonus pay is now $0.54.</p>\n            ","response":0,"trial_type":"html-button-response","trial_index":66,"time_elapsed":455284,"internal_node_id":"0.0-4.0-1.29","subject_id":"6130b27b15fbd6ac2aa9f340","study_id":"60edd13110225f80f9f3709b","session_id":"6196c4a44f0a5ef7e9eeef65","condition":"full-information","relevant_dimensions":["pattern","legs"],"bee_group":{"antennae":"X","wings":"X","pattern":"D","legs":"M"},"bonus":1.320000000000001},{"rt":7014.200000047684,"stimulus":"bees-with-color/bee-A2DF.svg","response":0,"trial_type":"image-button-response","trial_index":67,"time_elapsed":462299,"internal_node_id":"0.0-4.0-0.30","subject_id":"6130b27b15fbd6ac2aa9f340","study_id":"60edd13110225f80f9f3709b","session_id":"6196c4a44f0a5ef7e9eeef65","condition":"full-information","relevant_dimensions":["pattern","legs"],"bee_group":{"antennae":"X","wings":"X","pattern":"D","legs":"M"},"action":"harvest","summary":"good-harvest","bonus":1.320000000000001},{"rt":10499.900000095367,"stimulus":"\n                    <p><b>Action: <em>harvest</em></b></p>\n                    <p>This is the bee that you just saw.</p>\n                    <img src=\"bees-with-color/bee-A2DF.svg\" width=\"200\">\n                    <p><span class=\"greenText\"><b>Successful harvest!</b></span><br>Your pay has increased by $0.02. Your bonus pay is now $0.56.</p>\n            ","response":0,"trial_type":"html-button-response","trial_index":68,"time_elapsed":472800,"internal_node_id":"0.0-4.0-1.30","subject_id":"6130b27b15fbd6ac2aa9f340","study_id":"60edd13110225f80f9f3709b","session_id":"6196c4a44f0a5ef7e9eeef65","condition":"full-information","relevant_dimensions":["pattern","legs"],"bee_group":{"antennae":"X","wings":"X","pattern":"D","legs":"M"},"bonus":1.320000000000001},{"rt":1328.2999999523163,"stimulus":"bees-with-color/bee-B2DF.svg","response":0,"trial_type":"image-button-response","trial_index":69,"time_elapsed":474129,"internal_node_id":"0.0-4.0-0.31","subject_id":"6130b27b15fbd6ac2aa9f340","study_id":"60edd13110225f80f9f3709b","session_id":"6196c4a44f0a5ef7e9eeef65","condition":"full-information","relevant_dimensions":["pattern","legs"],"bee_group":{"antennae":"X","wings":"X","pattern":"D","legs":"M"},"action":"harvest","summary":"good-harvest","bonus":1.320000000000001},{"rt":1259.5,"stimulus":"\n                    <p><b>Action: <em>harvest</em></b></p>\n                    <p>This is the bee that you just saw.</p>\n                    <img src=\"bees-with-color/bee-B2DF.svg\" width=\"200\">\n                    <p><span class=\"greenText\"><b>Successful harvest!</b></span><br>Your pay has increased by $0.02. Your bonus pay is now $0.58.</p>\n            ","response":0,"trial_type":"html-button-response","trial_index":70,"time_elapsed":475390,"internal_node_id":"0.0-4.0-1.31","subject_id":"6130b27b15fbd6ac2aa9f340","study_id":"60edd13110225f80f9f3709b","session_id":"6196c4a44f0a5ef7e9eeef65","condition":"full-information","relevant_dimensions":["pattern","legs"],"bee_group":{"antennae":"X","wings":"X","pattern":"D","legs":"M"},"bonus":1.320000000000001},{"rt":1914.1000001430511,"stimulus":"bees-with-color/bee-A2SF.svg","response":0,"trial_type":"image-button-response","trial_index":71,"time_elapsed":477305,"internal_node_id":"0.0-4.0-0.32","subject_id":"6130b27b15fbd6ac2aa9f340","study_id":"60edd13110225f80f9f3709b","session_id":"6196c4a44f0a5ef7e9eeef65","condition":"full-information","relevant_dimensions":["pattern","legs"],"bee_group":{"antennae":"X","wings":"X","pattern":"D","legs":"M"},"action":"harvest","summary":"good-harvest","bonus":1.320000000000001},{"rt":708.0999999046326,"stimulus":"\n                    <p><b>Action: <em>harvest</em></b></p>\n                    <p>This is the bee that you just saw.</p>\n                    <img src=\"bees-with-color/bee-A2SF.svg\" width=\"200\">\n                    <p><span class=\"greenText\"><b>Successful harvest!</b></span><br>Your pay has increased by $0.02. Your bonus pay is now $0.60.</p>\n            ","response":0,"trial_type":"html-button-response","trial_index":72,"time_elapsed":478013,"internal_node_id":"0.0-4.0-1.32","subject_id":"6130b27b15fbd6ac2aa9f340","study_id":"60edd13110225f80f9f3709b","session_id":"6196c4a44f0a5ef7e9eeef65","condition":"full-information","relevant_dimensions":["pattern","legs"],"bee_group":{"antennae":"X","wings":"X","pattern":"D","legs":"M"},"bonus":1.320000000000001},{"rt":3450.7000000476837,"stimulus":"bees-with-color/bee-A1SM.svg","response":1,"trial_type":"image-button-response","trial_index":73,"time_elapsed":481465,"internal_node_id":"0.0-4.0-0.33","subject_id":"6130b27b15fbd6ac2aa9f340","study_id":"60edd13110225f80f9f3709b","session_id":"6196c4a44f0a5ef7e9eeef65","condition":"full-information","relevant_dimensions":["pattern","legs"],"bee_group":{"antennae":"X","wings":"X","pattern":"D","legs":"M"},"action":"avoid","summary":"bad-avoid","bonus":1.320000000000001},{"rt":1826.7000000476837,"stimulus":"\n                    <p><b>Action: <em>avoid</em></b></p>\n                    <p>This is the bee that you just saw.</p>\n                    <img src=\"bees-with-color/bee-A1SM.svg\" width=\"200\">\n                    <p><span class=\"redText\">Bad choice,</span> the bee was friendly.<br>Your bonus pay is unchanged, and remains at $0.60.</p>\n            ","response":0,"trial_type":"html-button-response","trial_index":74,"time_elapsed":483292,"internal_node_id":"0.0-4.0-1.33","subject_id":"6130b27b15fbd6ac2aa9f340","study_id":"60edd13110225f80f9f3709b","session_id":"6196c4a44f0a5ef7e9eeef65","condition":"full-information","relevant_dimensions":["pattern","legs"],"bee_group":{"antennae":"X","wings":"X","pattern":"D","legs":"M"},"bonus":1.320000000000001},{"rt":13015.599999904633,"stimulus":"bees-with-color/bee-A2DF.svg","response":0,"trial_type":"image-button-response","trial_index":75,"time_elapsed":496309,"internal_node_id":"0.0-4.0-0.34","subject_id":"6130b27b15fbd6ac2aa9f340","study_id":"60edd13110225f80f9f3709b","session_id":"6196c4a44f0a5ef7e9eeef65","condition":"full-information","relevant_dimensions":["pattern","legs"],"bee_group":{"antennae":"X","wings":"X","pattern":"D","legs":"M"},"action":"harvest","summary":"good-harvest","bonus":1.320000000000001},{"rt":806,"stimulus":"\n                    <p><b>Action: <em>harvest</em></b></p>\n                    <p>This is the bee that you just saw.</p>\n                    <img src=\"bees-with-color/bee-A2DF.svg\" width=\"200\">\n                    <p><span class=\"greenText\"><b>Successful harvest!</b></span><br>Your pay has increased by $0.02. Your bonus pay is now $0.62.</p>\n            ","response":0,"trial_type":"html-button-response","trial_index":76,"time_elapsed":497116,"internal_node_id":"0.0-4.0-1.34","subject_id":"6130b27b15fbd6ac2aa9f340","study_id":"60edd13110225f80f9f3709b","session_id":"6196c4a44f0a5ef7e9eeef65","condition":"full-information","relevant_dimensions":["pattern","legs"],"bee_group":{"antennae":"X","wings":"X","pattern":"D","legs":"M"},"bonus":1.320000000000001},{"rt":9588,"stimulus":"bees-with-color/bee-B2SM.svg","response":0,"trial_type":"image-button-response","trial_index":77,"time_elapsed":506705,"internal_node_id":"0.0-4.0-0.35","subject_id":"6130b27b15fbd6ac2aa9f340","study_id":"60edd13110225f80f9f3709b","session_id":"6196c4a44f0a5ef7e9eeef65","condition":"full-information","relevant_dimensions":["pattern","legs"],"bee_group":{"antennae":"X","wings":"X","pattern":"D","legs":"M"},"action":"harvest","summary":"good-harvest","bonus":1.320000000000001},{"rt":869.3999998569489,"stimulus":"\n                    <p><b>Action: <em>harvest</em></b></p>\n                    <p>This is the bee that you just saw.</p>\n                    <img src=\"bees-with-color/bee-B2SM.svg\" width=\"200\">\n                    <p><span class=\"greenText\"><b>Successful harvest!</b></span><br>Your pay has increased by $0.02. Your bonus pay is now $0.64.</p>\n            ","response":0,"trial_type":"html-button-response","trial_index":78,"time_elapsed":507575,"internal_node_id":"0.0-4.0-1.35","subject_id":"6130b27b15fbd6ac2aa9f340","study_id":"60edd13110225f80f9f3709b","session_id":"6196c4a44f0a5ef7e9eeef65","condition":"full-information","relevant_dimensions":["pattern","legs"],"bee_group":{"antennae":"X","wings":"X","pattern":"D","legs":"M"},"bonus":1.320000000000001},{"rt":11979.900000095367,"stimulus":"bees-with-color/bee-A1DF.svg","response":0,"trial_type":"image-button-response","trial_index":79,"time_elapsed":519555,"internal_node_id":"0.0-4.0-0.36","subject_id":"6130b27b15fbd6ac2aa9f340","study_id":"60edd13110225f80f9f3709b","session_id":"6196c4a44f0a5ef7e9eeef65","condition":"full-information","relevant_dimensions":["pattern","legs"],"bee_group":{"antennae":"X","wings":"X","pattern":"D","legs":"M"},"action":"harvest","summary":"good-harvest","bonus":1.320000000000001},{"rt":8048.700000047684,"stimulus":"\n                    <p><b>Action: <em>harvest</em></b></p>\n                    <p>This is the bee that you just saw.</p>\n                    <img src=\"bees-with-color/bee-A1DF.svg\" width=\"200\">\n                    <p><span class=\"greenText\"><b>Successful harvest!</b></span><br>Your pay has increased by $0.02. Your bonus pay is now $0.66.</p>\n            ","response":0,"trial_type":"html-button-response","trial_index":80,"time_elapsed":527605,"internal_node_id":"0.0-4.0-1.36","subject_id":"6130b27b15fbd6ac2aa9f340","study_id":"60edd13110225f80f9f3709b","session_id":"6196c4a44f0a5ef7e9eeef65","condition":"full-information","relevant_dimensions":["pattern","legs"],"bee_group":{"antennae":"X","wings":"X","pattern":"D","legs":"M"},"bonus":1.320000000000001},{"rt":13344.300000190735,"stimulus":"bees-with-color/bee-B2SF.svg","response":0,"trial_type":"image-button-response","trial_index":81,"time_elapsed":540949,"internal_node_id":"0.0-4.0-0.37","subject_id":"6130b27b15fbd6ac2aa9f340","study_id":"60edd13110225f80f9f3709b","session_id":"6196c4a44f0a5ef7e9eeef65","condition":"full-information","relevant_dimensions":["pattern","legs"],"bee_group":{"antennae":"X","wings":"X","pattern":"D","legs":"M"},"action":"harvest","summary":"good-harvest","bonus":1.320000000000001},{"rt":947.8999998569489,"stimulus":"\n                    <p><b>Action: <em>harvest</em></b></p>\n                    <p>This is the bee that you just saw.</p>\n                    <img src=\"bees-with-color/bee-B2SF.svg\" width=\"200\">\n                    <p><span class=\"greenText\"><b>Successful harvest!</b></span><br>Your pay has increased by $0.02. Your bonus pay is now $0.68.</p>\n            ","response":0,"trial_type":"html-button-response","trial_index":82,"time_elapsed":541898,"internal_node_id":"0.0-4.0-1.37","subject_id":"6130b27b15fbd6ac2aa9f340","study_id":"60edd13110225f80f9f3709b","session_id":"6196c4a44f0a5ef7e9eeef65","condition":"full-information","relevant_dimensions":["pattern","legs"],"bee_group":{"antennae":"X","wings":"X","pattern":"D","legs":"M"},"bonus":1.320000000000001},{"rt":7219.099999904633,"stimulus":"bees-with-color/bee-B1DM.svg","response":1,"trial_type":"image-button-response","trial_index":83,"time_elapsed":549118,"internal_node_id":"0.0-4.0-0.38","subject_id":"6130b27b15fbd6ac2aa9f340","study_id":"60edd13110225f80f9f3709b","session_id":"6196c4a44f0a5ef7e9eeef65","condition":"full-information","relevant_dimensions":["pattern","legs"],"bee_group":{"antennae":"X","wings":"X","pattern":"D","legs":"M"},"action":"avoid","summary":"good-avoid","bonus":1.320000000000001},{"rt":1538.7000000476837,"stimulus":"\n                    <p><b>Action: <em>avoid</em></b></p>\n                    <p>This is the bee that you just saw.</p>\n                    <img src=\"bees-with-color/bee-B1DM.svg\" width=\"200\">\n                    <p><span class=\"greenText\">Good choice!</span>  This bee would have stung you.<br>Your bonus pay is unchanged, and remains at $0.68.</p>\n            ","response":0,"trial_type":"html-button-response","trial_index":84,"time_elapsed":550657,"internal_node_id":"0.0-4.0-1.38","subject_id":"6130b27b15fbd6ac2aa9f340","study_id":"60edd13110225f80f9f3709b","session_id":"6196c4a44f0a5ef7e9eeef65","condition":"full-information","relevant_dimensions":["pattern","legs"],"bee_group":{"antennae":"X","wings":"X","pattern":"D","legs":"M"},"bonus":1.320000000000001},{"rt":14470.799999952316,"stimulus":"bees-with-color/bee-B2DM.svg","response":1,"trial_type":"image-button-response","trial_index":85,"time_elapsed":565129,"internal_node_id":"0.0-4.0-0.39","subject_id":"6130b27b15fbd6ac2aa9f340","study_id":"60edd13110225f80f9f3709b","session_id":"6196c4a44f0a5ef7e9eeef65","condition":"full-information","relevant_dimensions":["pattern","legs"],"bee_group":{"antennae":"X","wings":"X","pattern":"D","legs":"M"},"action":"avoid","summary":"good-avoid","bonus":1.320000000000001},{"rt":2472.399999856949,"stimulus":"\n                    <p><b>Action: <em>avoid</em></b></p>\n                    <p>This is the bee that you just saw.</p>\n                    <img src=\"bees-with-color/bee-B2DM.svg\" width=\"200\">\n                    <p><span class=\"greenText\">Good choice!</span>  This bee would have stung you.<br>Your bonus pay is unchanged, and remains at $0.68.</p>\n            ","response":0,"trial_type":"html-button-response","trial_index":86,"time_elapsed":567602,"internal_node_id":"0.0-4.0-1.39","subject_id":"6130b27b15fbd6ac2aa9f340","study_id":"60edd13110225f80f9f3709b","session_id":"6196c4a44f0a5ef7e9eeef65","condition":"full-information","relevant_dimensions":["pattern","legs"],"bee_group":{"antennae":"X","wings":"X","pattern":"D","legs":"M"},"bonus":1.320000000000001},{"rt":11186.900000095367,"stimulus":"bees-with-color/bee-A2SM.svg","response":1,"trial_type":"image-button-response","trial_index":87,"time_elapsed":578790,"internal_node_id":"0.0-4.0-0.40","subject_id":"6130b27b15fbd6ac2aa9f340","study_id":"60edd13110225f80f9f3709b","session_id":"6196c4a44f0a5ef7e9eeef65","condition":"full-information","relevant_dimensions":["pattern","legs"],"bee_group":{"antennae":"X","wings":"X","pattern":"D","legs":"M"},"action":"avoid","summary":"bad-avoid","bonus":1.320000000000001},{"rt":762.7999999523163,"stimulus":"\n                    <p><b>Action: <em>avoid</em></b></p>\n                    <p>This is the bee that you just saw.</p>\n                    <img src=\"bees-with-color/bee-A2SM.svg\" width=\"200\">\n                    <p><span class=\"redText\">Bad choice,</span> the bee was friendly.<br>Your bonus pay is unchanged, and remains at $0.68.</p>\n            ","response":0,"trial_type":"html-button-response","trial_index":88,"time_elapsed":579553,"internal_node_id":"0.0-4.0-1.40","subject_id":"6130b27b15fbd6ac2aa9f340","study_id":"60edd13110225f80f9f3709b","session_id":"6196c4a44f0a5ef7e9eeef65","condition":"full-information","relevant_dimensions":["pattern","legs"],"bee_group":{"antennae":"X","wings":"X","pattern":"D","legs":"M"},"bonus":1.320000000000001},{"rt":1322.7999999523163,"stimulus":"bees-with-color/bee-B1DF.svg","response":0,"trial_type":"image-button-response","trial_index":89,"time_elapsed":580877,"internal_node_id":"0.0-4.0-0.41","subject_id":"6130b27b15fbd6ac2aa9f340","study_id":"60edd13110225f80f9f3709b","session_id":"6196c4a44f0a5ef7e9eeef65","condition":"full-information","relevant_dimensions":["pattern","legs"],"bee_group":{"antennae":"X","wings":"X","pattern":"D","legs":"M"},"action":"harvest","summary":"good-harvest","bonus":1.320000000000001},{"rt":857.3999998569489,"stimulus":"\n                    <p><b>Action: <em>harvest</em></b></p>\n                    <p>This is the bee that you just saw.</p>\n                    <img src=\"bees-with-color/bee-B1DF.svg\" width=\"200\">\n                    <p><span class=\"greenText\"><b>Successful harvest!</b></span><br>Your pay has increased by $0.02. Your bonus pay is now $0.70.</p>\n            ","response":0,"trial_type":"html-button-response","trial_index":90,"time_elapsed":581735,"internal_node_id":"0.0-4.0-1.41","subject_id":"6130b27b15fbd6ac2aa9f340","study_id":"60edd13110225f80f9f3709b","session_id":"6196c4a44f0a5ef7e9eeef65","condition":"full-information","relevant_dimensions":["pattern","legs"],"bee_group":{"antennae":"X","wings":"X","pattern":"D","legs":"M"},"bonus":1.320000000000001},{"rt":5479.099999904633,"stimulus":"bees-with-color/bee-A1DM.svg","response":1,"trial_type":"image-button-response","trial_index":91,"time_elapsed":587215,"internal_node_id":"0.0-4.0-0.42","subject_id":"6130b27b15fbd6ac2aa9f340","study_id":"60edd13110225f80f9f3709b","session_id":"6196c4a44f0a5ef7e9eeef65","condition":"full-information","relevant_dimensions":["pattern","legs"],"bee_group":{"antennae":"X","wings":"X","pattern":"D","legs":"M"},"action":"avoid","summary":"good-avoid","bonus":1.320000000000001},{"rt":855.6000001430511,"stimulus":"\n                    <p><b>Action: <em>avoid</em></b></p>\n                    <p>This is the bee that you just saw.</p>\n                    <img src=\"bees-with-color/bee-A1DM.svg\" width=\"200\">\n                    <p><span class=\"greenText\">Good choice!</span>  This bee would have stung you.<br>Your bonus pay is unchanged, and remains at $0.70.</p>\n            ","response":0,"trial_type":"html-button-response","trial_index":92,"time_elapsed":588071,"internal_node_id":"0.0-4.0-1.42","subject_id":"6130b27b15fbd6ac2aa9f340","study_id":"60edd13110225f80f9f3709b","session_id":"6196c4a44f0a5ef7e9eeef65","condition":"full-information","relevant_dimensions":["pattern","legs"],"bee_group":{"antennae":"X","wings":"X","pattern":"D","legs":"M"},"bonus":1.320000000000001},{"rt":12898.100000143051,"stimulus":"bees-with-color/bee-A2DM.svg","response":1,"trial_type":"image-button-response","trial_index":93,"time_elapsed":600971,"internal_node_id":"0.0-4.0-0.43","subject_id":"6130b27b15fbd6ac2aa9f340","study_id":"60edd13110225f80f9f3709b","session_id":"6196c4a44f0a5ef7e9eeef65","condition":"full-information","relevant_dimensions":["pattern","legs"],"bee_group":{"antennae":"X","wings":"X","pattern":"D","legs":"M"},"action":"avoid","summary":"good-avoid","bonus":1.320000000000001},{"rt":744.2000000476837,"stimulus":"\n                    <p><b>Action: <em>avoid</em></b></p>\n                    <p>This is the bee that you just saw.</p>\n                    <img src=\"bees-with-color/bee-A2DM.svg\" width=\"200\">\n                    <p><span class=\"greenText\">Good choice!</span>  This bee would have stung you.<br>Your bonus pay is unchanged, and remains at $0.70.</p>\n            ","response":0,"trial_type":"html-button-response","trial_index":94,"time_elapsed":601716,"internal_node_id":"0.0-4.0-1.43","subject_id":"6130b27b15fbd6ac2aa9f340","study_id":"60edd13110225f80f9f3709b","session_id":"6196c4a44f0a5ef7e9eeef65","condition":"full-information","relevant_dimensions":["pattern","legs"],"bee_group":{"antennae":"X","wings":"X","pattern":"D","legs":"M"},"bonus":1.320000000000001},{"rt":2801.9000000953674,"stimulus":"bees-with-color/bee-B2DF.svg","response":1,"trial_type":"image-button-response","trial_index":95,"time_elapsed":604519,"internal_node_id":"0.0-4.0-0.44","subject_id":"6130b27b15fbd6ac2aa9f340","study_id":"60edd13110225f80f9f3709b","session_id":"6196c4a44f0a5ef7e9eeef65","condition":"full-information","relevant_dimensions":["pattern","legs"],"bee_group":{"antennae":"X","wings":"X","pattern":"D","legs":"M"},"action":"avoid","summary":"bad-avoid","bonus":1.320000000000001},{"rt":1079.5999999046326,"stimulus":"\n                    <p><b>Action: <em>avoid</em></b></p>\n                    <p>This is the bee that you just saw.</p>\n                    <img src=\"bees-with-color/bee-B2DF.svg\" width=\"200\">\n                    <p><span class=\"redText\">Bad choice,</span> the bee was friendly.<br>Your bonus pay is unchanged, and remains at $0.70.</p>\n            ","response":0,"trial_type":"html-button-response","trial_index":96,"time_elapsed":605599,"internal_node_id":"0.0-4.0-1.44","subject_id":"6130b27b15fbd6ac2aa9f340","study_id":"60edd13110225f80f9f3709b","session_id":"6196c4a44f0a5ef7e9eeef65","condition":"full-information","relevant_dimensions":["pattern","legs"],"bee_group":{"antennae":"X","wings":"X","pattern":"D","legs":"M"},"bonus":1.320000000000001},{"rt":1226.7000000476837,"stimulus":"bees-with-color/bee-A1SF.svg","response":0,"trial_type":"image-button-response","trial_index":97,"time_elapsed":606826,"internal_node_id":"0.0-4.0-0.45","subject_id":"6130b27b15fbd6ac2aa9f340","study_id":"60edd13110225f80f9f3709b","session_id":"6196c4a44f0a5ef7e9eeef65","condition":"full-information","relevant_dimensions":["pattern","legs"],"bee_group":{"antennae":"X","wings":"X","pattern":"D","legs":"M"},"action":"harvest","summary":"good-harvest","bonus":1.320000000000001},{"rt":689.5,"stimulus":"\n                    <p><b>Action: <em>harvest</em></b></p>\n                    <p>This is the bee that you just saw.</p>\n                    <img src=\"bees-with-color/bee-A1SF.svg\" width=\"200\">\n                    <p><span class=\"greenText\"><b>Successful harvest!</b></span><br>Your pay has increased by $0.02. Your bonus pay is now $0.72.</p>\n            ","response":0,"trial_type":"html-button-response","trial_index":98,"time_elapsed":607517,"internal_node_id":"0.0-4.0-1.45","subject_id":"6130b27b15fbd6ac2aa9f340","study_id":"60edd13110225f80f9f3709b","session_id":"6196c4a44f0a5ef7e9eeef65","condition":"full-information","relevant_dimensions":["pattern","legs"],"bee_group":{"antennae":"X","wings":"X","pattern":"D","legs":"M"},"bonus":1.320000000000001},{"rt":2313.5999999046326,"stimulus":"bees-with-color/bee-B1SM.svg","response":0,"trial_type":"image-button-response","trial_index":99,"time_elapsed":609831,"internal_node_id":"0.0-4.0-0.46","subject_id":"6130b27b15fbd6ac2aa9f340","study_id":"60edd13110225f80f9f3709b","session_id":"6196c4a44f0a5ef7e9eeef65","condition":"full-information","relevant_dimensions":["pattern","legs"],"bee_group":{"antennae":"X","wings":"X","pattern":"D","legs":"M"},"action":"harvest","summary":"good-harvest","bonus":1.320000000000001},{"rt":1112.5,"stimulus":"\n                    <p><b>Action: <em>harvest</em></b></p>\n                    <p>This is the bee that you just saw.</p>\n                    <img src=\"bees-with-color/bee-B1SM.svg\" width=\"200\">\n                    <p><span class=\"greenText\"><b>Successful harvest!</b></span><br>Your pay has increased by $0.02. Your bonus pay is now $0.74.</p>\n            ","response":0,"trial_type":"html-button-response","trial_index":100,"time_elapsed":610944,"internal_node_id":"0.0-4.0-1.46","subject_id":"6130b27b15fbd6ac2aa9f340","study_id":"60edd13110225f80f9f3709b","session_id":"6196c4a44f0a5ef7e9eeef65","condition":"full-information","relevant_dimensions":["pattern","legs"],"bee_group":{"antennae":"X","wings":"X","pattern":"D","legs":"M"},"bonus":1.320000000000001},{"rt":1249.4000000953674,"stimulus":"bees-with-color/bee-B1SF.svg","response":0,"trial_type":"image-button-response","trial_index":101,"time_elapsed":612194,"internal_node_id":"0.0-4.0-0.47","subject_id":"6130b27b15fbd6ac2aa9f340","study_id":"60edd13110225f80f9f3709b","session_id":"6196c4a44f0a5ef7e9eeef65","condition":"full-information","relevant_dimensions":["pattern","legs"],"bee_group":{"antennae":"X","wings":"X","pattern":"D","legs":"M"},"action":"harvest","summary":"good-harvest","bonus":1.320000000000001},{"rt":741.9000000953674,"stimulus":"\n                    <p><b>Action: <em>harvest</em></b></p>\n                    <p>This is the bee that you just saw.</p>\n                    <img src=\"bees-with-color/bee-B1SF.svg\" width=\"200\">\n                    <p><span class=\"greenText\"><b>Successful harvest!</b></span><br>Your pay has increased by $0.02. Your bonus pay is now $0.76.</p>\n            ","response":0,"trial_type":"html-button-response","trial_index":102,"time_elapsed":612937,"internal_node_id":"0.0-4.0-1.47","subject_id":"6130b27b15fbd6ac2aa9f340","study_id":"60edd13110225f80f9f3709b","session_id":"6196c4a44f0a5ef7e9eeef65","condition":"full-information","relevant_dimensions":["pattern","legs"],"bee_group":{"antennae":"X","wings":"X","pattern":"D","legs":"M"},"bonus":1.320000000000001},{"rt":10938.300000190735,"stimulus":"bees-with-color/bee-A2SM.svg","response":1,"trial_type":"image-button-response","trial_index":103,"time_elapsed":623876,"internal_node_id":"0.0-4.0-0.48","subject_id":"6130b27b15fbd6ac2aa9f340","study_id":"60edd13110225f80f9f3709b","session_id":"6196c4a44f0a5ef7e9eeef65","condition":"full-information","relevant_dimensions":["pattern","legs"],"bee_group":{"antennae":"X","wings":"X","pattern":"D","legs":"M"},"action":"avoid","summary":"bad-avoid","bonus":1.320000000000001},{"rt":6278.5,"stimulus":"\n                    <p><b>Action: <em>avoid</em></b></p>\n                    <p>This is the bee that you just saw.</p>\n                    <img src=\"bees-with-color/bee-A2SM.svg\" width=\"200\">\n                    <p><span class=\"redText\">Bad choice,</span> the bee was friendly.<br>Your bonus pay is unchanged, and remains at $0.76.</p>\n            ","response":0,"trial_type":"html-button-response","trial_index":104,"time_elapsed":630155,"internal_node_id":"0.0-4.0-1.48","subject_id":"6130b27b15fbd6ac2aa9f340","study_id":"60edd13110225f80f9f3709b","session_id":"6196c4a44f0a5ef7e9eeef65","condition":"full-information","relevant_dimensions":["pattern","legs"],"bee_group":{"antennae":"X","wings":"X","pattern":"D","legs":"M"},"bonus":1.320000000000001},{"rt":1195.8999998569489,"stimulus":"bees-with-color/bee-B1SF.svg","response":0,"trial_type":"image-button-response","trial_index":105,"time_elapsed":631352,"internal_node_id":"0.0-4.0-0.49","subject_id":"6130b27b15fbd6ac2aa9f340","study_id":"60edd13110225f80f9f3709b","session_id":"6196c4a44f0a5ef7e9eeef65","condition":"full-information","relevant_dimensions":["pattern","legs"],"bee_group":{"antennae":"X","wings":"X","pattern":"D","legs":"M"},"action":"harvest","summary":"good-harvest","bonus":1.320000000000001},{"rt":876.3000001907349,"stimulus":"\n                    <p><b>Action: <em>harvest</em></b></p>\n                    <p>This is the bee that you just saw.</p>\n                    <img src=\"bees-with-color/bee-B1SF.svg\" width=\"200\">\n                    <p><span class=\"greenText\"><b>Successful harvest!</b></span><br>Your pay has increased by $0.02. Your bonus pay is now $0.78.</p>\n            ","response":0,"trial_type":"html-button-response","trial_index":106,"time_elapsed":632229,"internal_node_id":"0.0-4.0-1.49","subject_id":"6130b27b15fbd6ac2aa9f340","study_id":"60edd13110225f80f9f3709b","session_id":"6196c4a44f0a5ef7e9eeef65","condition":"full-information","relevant_dimensions":["pattern","legs"],"bee_group":{"antennae":"X","wings":"X","pattern":"D","legs":"M"},"bonus":1.320000000000001},{"rt":1983,"stimulus":"bees-with-color/bee-B2SF.svg","response":0,"trial_type":"image-button-response","trial_index":107,"time_elapsed":634212,"internal_node_id":"0.0-4.0-0.50","subject_id":"6130b27b15fbd6ac2aa9f340","study_id":"60edd13110225f80f9f3709b","session_id":"6196c4a44f0a5ef7e9eeef65","condition":"full-information","relevant_dimensions":["pattern","legs"],"bee_group":{"antennae":"X","wings":"X","pattern":"D","legs":"M"},"action":"harvest","summary":"good-harvest","bonus":1.320000000000001},{"rt":692.2000000476837,"stimulus":"\n                    <p><b>Action: <em>harvest</em></b></p>\n                    <p>This is the bee that you just saw.</p>\n                    <img src=\"bees-with-color/bee-B2SF.svg\" width=\"200\">\n                    <p><span class=\"greenText\"><b>Successful harvest!</b></span><br>Your pay has increased by $0.02. Your bonus pay is now $0.80.</p>\n            ","response":0,"trial_type":"html-button-response","trial_index":108,"time_elapsed":634905,"internal_node_id":"0.0-4.0-1.50","subject_id":"6130b27b15fbd6ac2aa9f340","study_id":"60edd13110225f80f9f3709b","session_id":"6196c4a44f0a5ef7e9eeef65","condition":"full-information","relevant_dimensions":["pattern","legs"],"bee_group":{"antennae":"X","wings":"X","pattern":"D","legs":"M"},"bonus":1.320000000000001},{"rt":6046.399999856949,"stimulus":"bees-with-color/bee-A1SF.svg","response":0,"trial_type":"image-button-response","trial_index":109,"time_elapsed":640953,"internal_node_id":"0.0-4.0-0.51","subject_id":"6130b27b15fbd6ac2aa9f340","study_id":"60edd13110225f80f9f3709b","session_id":"6196c4a44f0a5ef7e9eeef65","condition":"full-information","relevant_dimensions":["pattern","legs"],"bee_group":{"antennae":"X","wings":"X","pattern":"D","legs":"M"},"action":"harvest","summary":"good-harvest","bonus":1.320000000000001},{"rt":13751.100000143051,"stimulus":"\n                    <p><b>Action: <em>harvest</em></b></p>\n                    <p>This is the bee that you just saw.</p>\n                    <img src=\"bees-with-color/bee-A1SF.svg\" width=\"200\">\n                    <p><span class=\"greenText\"><b>Successful harvest!</b></span><br>Your pay has increased by $0.02. Your bonus pay is now $0.82.</p>\n            ","response":0,"trial_type":"html-button-response","trial_index":110,"time_elapsed":654705,"internal_node_id":"0.0-4.0-1.51","subject_id":"6130b27b15fbd6ac2aa9f340","study_id":"60edd13110225f80f9f3709b","session_id":"6196c4a44f0a5ef7e9eeef65","condition":"full-information","relevant_dimensions":["pattern","legs"],"bee_group":{"antennae":"X","wings":"X","pattern":"D","legs":"M"},"bonus":1.320000000000001},{"rt":6421,"stimulus":"bees-with-color/bee-A2DF.svg","response":0,"trial_type":"image-button-response","trial_index":111,"time_elapsed":661126,"internal_node_id":"0.0-4.0-0.52","subject_id":"6130b27b15fbd6ac2aa9f340","study_id":"60edd13110225f80f9f3709b","session_id":"6196c4a44f0a5ef7e9eeef65","condition":"full-information","relevant_dimensions":["pattern","legs"],"bee_group":{"antennae":"X","wings":"X","pattern":"D","legs":"M"},"action":"harvest","summary":"good-harvest","bonus":1.320000000000001},{"rt":2967.7000000476837,"stimulus":"\n                    <p><b>Action: <em>harvest</em></b></p>\n                    <p>This is the bee that you just saw.</p>\n                    <img src=\"bees-with-color/bee-A2DF.svg\" width=\"200\">\n                    <p><span class=\"greenText\"><b>Successful harvest!</b></span><br>Your pay has increased by $0.02. Your bonus pay is now $0.84.</p>\n            ","response":0,"trial_type":"html-button-response","trial_index":112,"time_elapsed":664095,"internal_node_id":"0.0-4.0-1.52","subject_id":"6130b27b15fbd6ac2aa9f340","study_id":"60edd13110225f80f9f3709b","session_id":"6196c4a44f0a5ef7e9eeef65","condition":"full-information","relevant_dimensions":["pattern","legs"],"bee_group":{"antennae":"X","wings":"X","pattern":"D","legs":"M"},"bonus":1.320000000000001},{"rt":9097.899999856949,"stimulus":"bees-with-color/bee-B2SM.svg","response":0,"trial_type":"image-button-response","trial_index":113,"time_elapsed":673193,"internal_node_id":"0.0-4.0-0.53","subject_id":"6130b27b15fbd6ac2aa9f340","study_id":"60edd13110225f80f9f3709b","session_id":"6196c4a44f0a5ef7e9eeef65","condition":"full-information","relevant_dimensions":["pattern","legs"],"bee_group":{"antennae":"X","wings":"X","pattern":"D","legs":"M"},"action":"harvest","summary":"good-harvest","bonus":1.320000000000001},{"rt":941.0999999046326,"stimulus":"\n                    <p><b>Action: <em>harvest</em></b></p>\n                    <p>This is the bee that you just saw.</p>\n                    <img src=\"bees-with-color/bee-B2SM.svg\" width=\"200\">\n                    <p><span class=\"greenText\"><b>Successful harvest!</b></span><br>Your pay has increased by $0.02. Your bonus pay is now $0.86.</p>\n            ","response":0,"trial_type":"html-button-response","trial_index":114,"time_elapsed":674135,"internal_node_id":"0.0-4.0-1.53","subject_id":"6130b27b15fbd6ac2aa9f340","study_id":"60edd13110225f80f9f3709b","session_id":"6196c4a44f0a5ef7e9eeef65","condition":"full-information","relevant_dimensions":["pattern","legs"],"bee_group":{"antennae":"X","wings":"X","pattern":"D","legs":"M"},"bonus":1.320000000000001},{"rt":8501.299999952316,"stimulus":"bees-with-color/bee-B1DM.svg","response":1,"trial_type":"image-button-response","trial_index":115,"time_elapsed":682637,"internal_node_id":"0.0-4.0-0.54","subject_id":"6130b27b15fbd6ac2aa9f340","study_id":"60edd13110225f80f9f3709b","session_id":"6196c4a44f0a5ef7e9eeef65","condition":"full-information","relevant_dimensions":["pattern","legs"],"bee_group":{"antennae":"X","wings":"X","pattern":"D","legs":"M"},"action":"avoid","summary":"good-avoid","bonus":1.320000000000001},{"rt":1196.4000000953674,"stimulus":"\n                    <p><b>Action: <em>avoid</em></b></p>\n                    <p>This is the bee that you just saw.</p>\n                    <img src=\"bees-with-color/bee-B1DM.svg\" width=\"200\">\n                    <p><span class=\"greenText\">Good choice!</span>  This bee would have stung you.<br>Your bonus pay is unchanged, and remains at $0.86.</p>\n            ","response":0,"trial_type":"html-button-response","trial_index":116,"time_elapsed":683835,"internal_node_id":"0.0-4.0-1.54","subject_id":"6130b27b15fbd6ac2aa9f340","study_id":"60edd13110225f80f9f3709b","session_id":"6196c4a44f0a5ef7e9eeef65","condition":"full-information","relevant_dimensions":["pattern","legs"],"bee_group":{"antennae":"X","wings":"X","pattern":"D","legs":"M"},"bonus":1.320000000000001},{"rt":4543.599999904633,"stimulus":"bees-with-color/bee-A1DM.svg","response":1,"trial_type":"image-button-response","trial_index":117,"time_elapsed":688379,"internal_node_id":"0.0-4.0-0.55","subject_id":"6130b27b15fbd6ac2aa9f340","study_id":"60edd13110225f80f9f3709b","session_id":"6196c4a44f0a5ef7e9eeef65","condition":"full-information","relevant_dimensions":["pattern","legs"],"bee_group":{"antennae":"X","wings":"X","pattern":"D","legs":"M"},"action":"avoid","summary":"good-avoid","bonus":1.320000000000001},{"rt":844.2999999523163,"stimulus":"\n                    <p><b>Action: <em>avoid</em></b></p>\n                    <p>This is the bee that you just saw.</p>\n                    <img src=\"bees-with-color/bee-A1DM.svg\" width=\"200\">\n                    <p><span class=\"greenText\">Good choice!</span>  This bee would have stung you.<br>Your bonus pay is unchanged, and remains at $0.86.</p>\n            ","response":0,"trial_type":"html-button-response","trial_index":118,"time_elapsed":689224,"internal_node_id":"0.0-4.0-1.55","subject_id":"6130b27b15fbd6ac2aa9f340","study_id":"60edd13110225f80f9f3709b","session_id":"6196c4a44f0a5ef7e9eeef65","condition":"full-information","relevant_dimensions":["pattern","legs"],"bee_group":{"antennae":"X","wings":"X","pattern":"D","legs":"M"},"bonus":1.320000000000001},{"rt":2007,"stimulus":"bees-with-color/bee-A1DF.svg","response":0,"trial_type":"image-button-response","trial_index":119,"time_elapsed":691232,"internal_node_id":"0.0-4.0-0.56","subject_id":"6130b27b15fbd6ac2aa9f340","study_id":"60edd13110225f80f9f3709b","session_id":"6196c4a44f0a5ef7e9eeef65","condition":"full-information","relevant_dimensions":["pattern","legs"],"bee_group":{"antennae":"X","wings":"X","pattern":"D","legs":"M"},"action":"harvest","summary":"good-harvest","bonus":1.320000000000001},{"rt":1020.1000001430511,"stimulus":"\n                    <p><b>Action: <em>harvest</em></b></p>\n                    <p>This is the bee that you just saw.</p>\n                    <img src=\"bees-with-color/bee-A1DF.svg\" width=\"200\">\n                    <p><span class=\"greenText\"><b>Successful harvest!</b></span><br>Your pay has increased by $0.02. Your bonus pay is now $0.88.</p>\n            ","response":0,"trial_type":"html-button-response","trial_index":120,"time_elapsed":692253,"internal_node_id":"0.0-4.0-1.56","subject_id":"6130b27b15fbd6ac2aa9f340","study_id":"60edd13110225f80f9f3709b","session_id":"6196c4a44f0a5ef7e9eeef65","condition":"full-information","relevant_dimensions":["pattern","legs"],"bee_group":{"antennae":"X","wings":"X","pattern":"D","legs":"M"},"bonus":1.320000000000001},{"rt":1394.1000001430511,"stimulus":"bees-with-color/bee-B1DF.svg","response":0,"trial_type":"image-button-response","trial_index":121,"time_elapsed":693648,"internal_node_id":"0.0-4.0-0.57","subject_id":"6130b27b15fbd6ac2aa9f340","study_id":"60edd13110225f80f9f3709b","session_id":"6196c4a44f0a5ef7e9eeef65","condition":"full-information","relevant_dimensions":["pattern","legs"],"bee_group":{"antennae":"X","wings":"X","pattern":"D","legs":"M"},"action":"harvest","summary":"good-harvest","bonus":1.320000000000001},{"rt":803.6999998092651,"stimulus":"\n                    <p><b>Action: <em>harvest</em></b></p>\n                    <p>This is the bee that you just saw.</p>\n                    <img src=\"bees-with-color/bee-B1DF.svg\" width=\"200\">\n                    <p><span class=\"greenText\"><b>Successful harvest!</b></span><br>Your pay has increased by $0.02. Your bonus pay is now $0.90.</p>\n            ","response":0,"trial_type":"html-button-response","trial_index":122,"time_elapsed":694453,"internal_node_id":"0.0-4.0-1.57","subject_id":"6130b27b15fbd6ac2aa9f340","study_id":"60edd13110225f80f9f3709b","session_id":"6196c4a44f0a5ef7e9eeef65","condition":"full-information","relevant_dimensions":["pattern","legs"],"bee_group":{"antennae":"X","wings":"X","pattern":"D","legs":"M"},"bonus":1.320000000000001},{"rt":10035.299999952316,"stimulus":"bees-with-color/bee-B1SM.svg","response":0,"trial_type":"image-button-response","trial_index":123,"time_elapsed":704488,"internal_node_id":"0.0-4.0-0.58","subject_id":"6130b27b15fbd6ac2aa9f340","study_id":"60edd13110225f80f9f3709b","session_id":"6196c4a44f0a5ef7e9eeef65","condition":"full-information","relevant_dimensions":["pattern","legs"],"bee_group":{"antennae":"X","wings":"X","pattern":"D","legs":"M"},"action":"harvest","summary":"good-harvest","bonus":1.320000000000001},{"rt":1539.3000001907349,"stimulus":"\n                    <p><b>Action: <em>harvest</em></b></p>\n                    <p>This is the bee that you just saw.</p>\n                    <img src=\"bees-with-color/bee-B1SM.svg\" width=\"200\">\n                    <p><span class=\"greenText\"><b>Successful harvest!</b></span><br>Your pay has increased by $0.02. Your bonus pay is now $0.92.</p>\n            ","response":0,"trial_type":"html-button-response","trial_index":124,"time_elapsed":706028,"internal_node_id":"0.0-4.0-1.58","subject_id":"6130b27b15fbd6ac2aa9f340","study_id":"60edd13110225f80f9f3709b","session_id":"6196c4a44f0a5ef7e9eeef65","condition":"full-information","relevant_dimensions":["pattern","legs"],"bee_group":{"antennae":"X","wings":"X","pattern":"D","legs":"M"},"bonus":1.320000000000001},{"rt":11679,"stimulus":"bees-with-color/bee-A1SM.svg","response":1,"trial_type":"image-button-response","trial_index":125,"time_elapsed":717708,"internal_node_id":"0.0-4.0-0.59","subject_id":"6130b27b15fbd6ac2aa9f340","study_id":"60edd13110225f80f9f3709b","session_id":"6196c4a44f0a5ef7e9eeef65","condition":"full-information","relevant_dimensions":["pattern","legs"],"bee_group":{"antennae":"X","wings":"X","pattern":"D","legs":"M"},"action":"avoid","summary":"bad-avoid","bonus":1.320000000000001},{"rt":1245.5999999046326,"stimulus":"\n                    <p><b>Action: <em>avoid</em></b></p>\n                    <p>This is the bee that you just saw.</p>\n                    <img src=\"bees-with-color/bee-A1SM.svg\" width=\"200\">\n                    <p><span class=\"redText\">Bad choice,</span> the bee was friendly.<br>Your bonus pay is unchanged, and remains at $0.92.</p>\n            ","response":0,"trial_type":"html-button-response","trial_index":126,"time_elapsed":718955,"internal_node_id":"0.0-4.0-1.59","subject_id":"6130b27b15fbd6ac2aa9f340","study_id":"60edd13110225f80f9f3709b","session_id":"6196c4a44f0a5ef7e9eeef65","condition":"full-information","relevant_dimensions":["pattern","legs"],"bee_group":{"antennae":"X","wings":"X","pattern":"D","legs":"M"},"bonus":1.320000000000001},{"rt":1206,"stimulus":"bees-with-color/bee-A2DM.svg","response":1,"trial_type":"image-button-response","trial_index":127,"time_elapsed":720162,"internal_node_id":"0.0-4.0-0.60","subject_id":"6130b27b15fbd6ac2aa9f340","study_id":"60edd13110225f80f9f3709b","session_id":"6196c4a44f0a5ef7e9eeef65","condition":"full-information","relevant_dimensions":["pattern","legs"],"bee_group":{"antennae":"X","wings":"X","pattern":"D","legs":"M"},"action":"avoid","summary":"good-avoid","bonus":1.320000000000001},{"rt":710.2999999523163,"stimulus":"\n                    <p><b>Action: <em>avoid</em></b></p>\n                    <p>This is the bee that you just saw.</p>\n                    <img src=\"bees-with-color/bee-A2DM.svg\" width=\"200\">\n                    <p><span class=\"greenText\">Good choice!</span>  This bee would have stung you.<br>Your bonus pay is unchanged, and remains at $0.92.</p>\n            ","response":0,"trial_type":"html-button-response","trial_index":128,"time_elapsed":720873,"internal_node_id":"0.0-4.0-1.60","subject_id":"6130b27b15fbd6ac2aa9f340","study_id":"60edd13110225f80f9f3709b","session_id":"6196c4a44f0a5ef7e9eeef65","condition":"full-information","relevant_dimensions":["pattern","legs"],"bee_group":{"antennae":"X","wings":"X","pattern":"D","legs":"M"},"bonus":1.320000000000001},{"rt":9433.799999952316,"stimulus":"bees-with-color/bee-B2DF.svg","response":0,"trial_type":"image-button-response","trial_index":129,"time_elapsed":730307,"internal_node_id":"0.0-4.0-0.61","subject_id":"6130b27b15fbd6ac2aa9f340","study_id":"60edd13110225f80f9f3709b","session_id":"6196c4a44f0a5ef7e9eeef65","condition":"full-information","relevant_dimensions":["pattern","legs"],"bee_group":{"antennae":"X","wings":"X","pattern":"D","legs":"M"},"action":"harvest","summary":"good-harvest","bonus":1.320000000000001},{"rt":972.4000000953674,"stimulus":"\n                    <p><b>Action: <em>harvest</em></b></p>\n                    <p>This is the bee that you just saw.</p>\n                    <img src=\"bees-with-color/bee-B2DF.svg\" width=\"200\">\n                    <p><span class=\"greenText\"><b>Successful harvest!</b></span><br>Your pay has increased by $0.02. Your bonus pay is now $0.94.</p>\n            ","response":0,"trial_type":"html-button-response","trial_index":130,"time_elapsed":731280,"internal_node_id":"0.0-4.0-1.61","subject_id":"6130b27b15fbd6ac2aa9f340","study_id":"60edd13110225f80f9f3709b","session_id":"6196c4a44f0a5ef7e9eeef65","condition":"full-information","relevant_dimensions":["pattern","legs"],"bee_group":{"antennae":"X","wings":"X","pattern":"D","legs":"M"},"bonus":1.320000000000001},{"rt":5365.200000047684,"stimulus":"bees-with-color/bee-A2SF.svg","response":0,"trial_type":"image-button-response","trial_index":131,"time_elapsed":736647,"internal_node_id":"0.0-4.0-0.62","subject_id":"6130b27b15fbd6ac2aa9f340","study_id":"60edd13110225f80f9f3709b","session_id":"6196c4a44f0a5ef7e9eeef65","condition":"full-information","relevant_dimensions":["pattern","legs"],"bee_group":{"antennae":"X","wings":"X","pattern":"D","legs":"M"},"action":"harvest","summary":"good-harvest","bonus":1.320000000000001},{"rt":1175.2000000476837,"stimulus":"\n                    <p><b>Action: <em>harvest</em></b></p>\n                    <p>This is the bee that you just saw.</p>\n                    <img src=\"bees-with-color/bee-A2SF.svg\" width=\"200\">\n                    <p><span class=\"greenText\"><b>Successful harvest!</b></span><br>Your pay has increased by $0.02. Your bonus pay is now $0.96.</p>\n            ","response":0,"trial_type":"html-button-response","trial_index":132,"time_elapsed":737823,"internal_node_id":"0.0-4.0-1.62","subject_id":"6130b27b15fbd6ac2aa9f340","study_id":"60edd13110225f80f9f3709b","session_id":"6196c4a44f0a5ef7e9eeef65","condition":"full-information","relevant_dimensions":["pattern","legs"],"bee_group":{"antennae":"X","wings":"X","pattern":"D","legs":"M"},"bonus":1.320000000000001},{"rt":7481.599999904633,"stimulus":"bees-with-color/bee-B2DM.svg","response":1,"trial_type":"image-button-response","trial_index":133,"time_elapsed":745305,"internal_node_id":"0.0-4.0-0.63","subject_id":"6130b27b15fbd6ac2aa9f340","study_id":"60edd13110225f80f9f3709b","session_id":"6196c4a44f0a5ef7e9eeef65","condition":"full-information","relevant_dimensions":["pattern","legs"],"bee_group":{"antennae":"X","wings":"X","pattern":"D","legs":"M"},"action":"avoid","summary":"good-avoid","bonus":1.320000000000001},{"rt":917.9000000953674,"stimulus":"\n                    <p><b>Action: <em>avoid</em></b></p>\n                    <p>This is the bee that you just saw.</p>\n                    <img src=\"bees-with-color/bee-B2DM.svg\" width=\"200\">\n                    <p><span class=\"greenText\">Good choice!</span>  This bee would have stung you.<br>Your bonus pay is unchanged, and remains at $0.96.</p>\n            ","response":0,"trial_type":"html-button-response","trial_index":134,"time_elapsed":746224,"internal_node_id":"0.0-4.0-1.63","subject_id":"6130b27b15fbd6ac2aa9f340","study_id":"60edd13110225f80f9f3709b","session_id":"6196c4a44f0a5ef7e9eeef65","condition":"full-information","relevant_dimensions":["pattern","legs"],"bee_group":{"antennae":"X","wings":"X","pattern":"D","legs":"M"},"bonus":1.320000000000001},{"rt":8567.399999856949,"stimulus":"You have completed the first part of this experiment.<br><br>You will now begin a shorter second part, in which you will receive no feedback.<br>The same rules regarding bonus pay apply.<br><br>Press any key to begin.","response":" ","trial_type":"html-keyboard-response","trial_index":135,"time_elapsed":754792,"internal_node_id":"0.0-5.0","subject_id":"6130b27b15fbd6ac2aa9f340","study_id":"60edd13110225f80f9f3709b","session_id":"6196c4a44f0a5ef7e9eeef65","condition":"full-information","relevant_dimensions":["pattern","legs"],"bee_group":{"antennae":"X","wings":"X","pattern":"D","legs":"M"},"bonus":1.320000000000001},{"rt":10200.300000190735,"stimulus":"bees-with-color/bee-A1SM.svg","response":1,"trial_type":"image-button-response","trial_index":136,"time_elapsed":764997,"internal_node_id":"0.0-6.0-0.0","subject_id":"6130b27b15fbd6ac2aa9f340","study_id":"60edd13110225f80f9f3709b","session_id":"6196c4a44f0a5ef7e9eeef65","condition":"full-information","relevant_dimensions":["pattern","legs"],"bee_group":{"antennae":"X","wings":"X","pattern":"D","legs":"M"},"bonus":1.320000000000001},{"rt":8174.5,"stimulus":"bees-with-color/bee-B2SM.svg","response":1,"trial_type":"image-button-response","trial_index":137,"time_elapsed":773173,"internal_node_id":"0.0-6.0-0.1","subject_id":"6130b27b15fbd6ac2aa9f340","study_id":"60edd13110225f80f9f3709b","session_id":"6196c4a44f0a5ef7e9eeef65","condition":"full-information","relevant_dimensions":["pattern","legs"],"bee_group":{"antennae":"X","wings":"X","pattern":"D","legs":"M"},"bonus":1.320000000000001},{"rt":1072.8999998569489,"stimulus":"bees-with-color/bee-B2SF.svg","response":0,"trial_type":"image-button-response","trial_index":138,"time_elapsed":774247,"internal_node_id":"0.0-6.0-0.2","subject_id":"6130b27b15fbd6ac2aa9f340","study_id":"60edd13110225f80f9f3709b","session_id":"6196c4a44f0a5ef7e9eeef65","condition":"full-information","relevant_dimensions":["pattern","legs"],"bee_group":{"antennae":"X","wings":"X","pattern":"D","legs":"M"},"bonus":1.320000000000001},{"rt":8012.900000095367,"stimulus":"bees-with-color/bee-A1DM.svg","response":1,"trial_type":"image-button-response","trial_index":139,"time_elapsed":782260,"internal_node_id":"0.0-6.0-0.3","subject_id":"6130b27b15fbd6ac2aa9f340","study_id":"60edd13110225f80f9f3709b","session_id":"6196c4a44f0a5ef7e9eeef65","condition":"full-information","relevant_dimensions":["pattern","legs"],"bee_group":{"antennae":"X","wings":"X","pattern":"D","legs":"M"},"bonus":1.320000000000001},{"rt":943.7000000476837,"stimulus":"bees-with-color/bee-A2DM.svg","response":1,"trial_type":"image-button-response","trial_index":140,"time_elapsed":783206,"internal_node_id":"0.0-6.0-0.4","subject_id":"6130b27b15fbd6ac2aa9f340","study_id":"60edd13110225f80f9f3709b","session_id":"6196c4a44f0a5ef7e9eeef65","condition":"full-information","relevant_dimensions":["pattern","legs"],"bee_group":{"antennae":"X","wings":"X","pattern":"D","legs":"M"},"bonus":1.320000000000001},{"rt":1461.1000001430511,"stimulus":"bees-with-color/bee-B2DF.svg","response":0,"trial_type":"image-button-response","trial_index":141,"time_elapsed":784668,"internal_node_id":"0.0-6.0-0.5","subject_id":"6130b27b15fbd6ac2aa9f340","study_id":"60edd13110225f80f9f3709b","session_id":"6196c4a44f0a5ef7e9eeef65","condition":"full-information","relevant_dimensions":["pattern","legs"],"bee_group":{"antennae":"X","wings":"X","pattern":"D","legs":"M"},"bonus":1.320000000000001},{"rt":2048.7000000476837,"stimulus":"bees-with-color/bee-A1SF.svg","response":0,"trial_type":"image-button-response","trial_index":142,"time_elapsed":786717,"internal_node_id":"0.0-6.0-0.6","subject_id":"6130b27b15fbd6ac2aa9f340","study_id":"60edd13110225f80f9f3709b","session_id":"6196c4a44f0a5ef7e9eeef65","condition":"full-information","relevant_dimensions":["pattern","legs"],"bee_group":{"antennae":"X","wings":"X","pattern":"D","legs":"M"},"bonus":1.320000000000001},{"rt":1785.2999999523163,"stimulus":"bees-with-color/bee-A2SM.svg","response":1,"trial_type":"image-button-response","trial_index":143,"time_elapsed":788504,"internal_node_id":"0.0-6.0-0.7","subject_id":"6130b27b15fbd6ac2aa9f340","study_id":"60edd13110225f80f9f3709b","session_id":"6196c4a44f0a5ef7e9eeef65","condition":"full-information","relevant_dimensions":["pattern","legs"],"bee_group":{"antennae":"X","wings":"X","pattern":"D","legs":"M"},"bonus":1.320000000000001},{"rt":1693.6999998092651,"stimulus":"bees-with-color/bee-A2DF.svg","response":0,"trial_type":"image-button-response","trial_index":144,"time_elapsed":790199,"internal_node_id":"0.0-6.0-0.8","subject_id":"6130b27b15fbd6ac2aa9f340","study_id":"60edd13110225f80f9f3709b","session_id":"6196c4a44f0a5ef7e9eeef65","condition":"full-information","relevant_dimensions":["pattern","legs"],"bee_group":{"antennae":"X","wings":"X","pattern":"D","legs":"M"},"bonus":1.320000000000001},{"rt":1395,"stimulus":"bees-with-color/bee-A2SF.svg","response":1,"trial_type":"image-button-response","trial_index":145,"time_elapsed":791594,"internal_node_id":"0.0-6.0-0.9","subject_id":"6130b27b15fbd6ac2aa9f340","study_id":"60edd13110225f80f9f3709b","session_id":"6196c4a44f0a5ef7e9eeef65","condition":"full-information","relevant_dimensions":["pattern","legs"],"bee_group":{"antennae":"X","wings":"X","pattern":"D","legs":"M"},"bonus":1.320000000000001},{"rt":1037.9000000953674,"stimulus":"bees-with-color/bee-B1DF.svg","response":0,"trial_type":"image-button-response","trial_index":146,"time_elapsed":792633,"internal_node_id":"0.0-6.0-0.10","subject_id":"6130b27b15fbd6ac2aa9f340","study_id":"60edd13110225f80f9f3709b","session_id":"6196c4a44f0a5ef7e9eeef65","condition":"full-information","relevant_dimensions":["pattern","legs"],"bee_group":{"antennae":"X","wings":"X","pattern":"D","legs":"M"},"bonus":1.320000000000001},{"rt":794.5,"stimulus":"bees-with-color/bee-B1SF.svg","response":0,"trial_type":"image-button-response","trial_index":147,"time_elapsed":793429,"internal_node_id":"0.0-6.0-0.11","subject_id":"6130b27b15fbd6ac2aa9f340","study_id":"60edd13110225f80f9f3709b","session_id":"6196c4a44f0a5ef7e9eeef65","condition":"full-information","relevant_dimensions":["pattern","legs"],"bee_group":{"antennae":"X","wings":"X","pattern":"D","legs":"M"},"bonus":1.320000000000001},{"rt":2039.7000000476837,"stimulus":"bees-with-color/bee-B1SM.svg","response":0,"trial_type":"image-button-response","trial_index":148,"time_elapsed":795469,"internal_node_id":"0.0-6.0-0.12","subject_id":"6130b27b15fbd6ac2aa9f340","study_id":"60edd13110225f80f9f3709b","session_id":"6196c4a44f0a5ef7e9eeef65","condition":"full-information","relevant_dimensions":["pattern","legs"],"bee_group":{"antennae":"X","wings":"X","pattern":"D","legs":"M"},"bonus":1.320000000000001},{"rt":6558.399999856949,"stimulus":"bees-with-color/bee-B1DM.svg","response":1,"trial_type":"image-button-response","trial_index":149,"time_elapsed":802029,"internal_node_id":"0.0-6.0-0.13","subject_id":"6130b27b15fbd6ac2aa9f340","study_id":"60edd13110225f80f9f3709b","session_id":"6196c4a44f0a5ef7e9eeef65","condition":"full-information","relevant_dimensions":["pattern","legs"],"bee_group":{"antennae":"X","wings":"X","pattern":"D","legs":"M"},"bonus":1.320000000000001},{"rt":4026.4000000953674,"stimulus":"bees-with-color/bee-A1DF.svg","response":0,"trial_type":"image-button-response","trial_index":150,"time_elapsed":806056,"internal_node_id":"0.0-6.0-0.14","subject_id":"6130b27b15fbd6ac2aa9f340","study_id":"60edd13110225f80f9f3709b","session_id":"6196c4a44f0a5ef7e9eeef65","condition":"full-information","relevant_dimensions":["pattern","legs"],"bee_group":{"antennae":"X","wings":"X","pattern":"D","legs":"M"},"bonus":1.320000000000001},{"rt":4172.799999952316,"stimulus":"bees-with-color/bee-B2DM.svg","response":1,"trial_type":"image-button-response","trial_index":151,"time_elapsed":810230,"internal_node_id":"0.0-6.0-0.15","subject_id":"6130b27b15fbd6ac2aa9f340","study_id":"60edd13110225f80f9f3709b","session_id":"6196c4a44f0a5ef7e9eeef65","condition":"full-information","relevant_dimensions":["pattern","legs"],"bee_group":{"antennae":"X","wings":"X","pattern":"D","legs":"M"},"bonus":1.320000000000001},{"rt":8811.200000047684,"stimulus":"bees-with-color/bee-A2SM.svg","response":1,"trial_type":"image-button-response","trial_index":152,"time_elapsed":819042,"internal_node_id":"0.0-6.0-0.16","subject_id":"6130b27b15fbd6ac2aa9f340","study_id":"60edd13110225f80f9f3709b","session_id":"6196c4a44f0a5ef7e9eeef65","condition":"full-information","relevant_dimensions":["pattern","legs"],"bee_group":{"antennae":"X","wings":"X","pattern":"D","legs":"M"},"bonus":1.320000000000001},{"rt":1039.5,"stimulus":"bees-with-color/bee-B2DM.svg","response":1,"trial_type":"image-button-response","trial_index":153,"time_elapsed":820083,"internal_node_id":"0.0-6.0-0.17","subject_id":"6130b27b15fbd6ac2aa9f340","study_id":"60edd13110225f80f9f3709b","session_id":"6196c4a44f0a5ef7e9eeef65","condition":"full-information","relevant_dimensions":["pattern","legs"],"bee_group":{"antennae":"X","wings":"X","pattern":"D","legs":"M"},"bonus":1.320000000000001},{"rt":1416.0999999046326,"stimulus":"bees-with-color/bee-B2SF.svg","response":0,"trial_type":"image-button-response","trial_index":154,"time_elapsed":821500,"internal_node_id":"0.0-6.0-0.18","subject_id":"6130b27b15fbd6ac2aa9f340","study_id":"60edd13110225f80f9f3709b","session_id":"6196c4a44f0a5ef7e9eeef65","condition":"full-information","relevant_dimensions":["pattern","legs"],"bee_group":{"antennae":"X","wings":"X","pattern":"D","legs":"M"},"bonus":1.320000000000001},{"rt":3274,"stimulus":"bees-with-color/bee-B1SM.svg","response":0,"trial_type":"image-button-response","trial_index":155,"time_elapsed":824775,"internal_node_id":"0.0-6.0-0.19","subject_id":"6130b27b15fbd6ac2aa9f340","study_id":"60edd13110225f80f9f3709b","session_id":"6196c4a44f0a5ef7e9eeef65","condition":"full-information","relevant_dimensions":["pattern","legs"],"bee_group":{"antennae":"X","wings":"X","pattern":"D","legs":"M"},"bonus":1.320000000000001},{"rt":2030.6999998092651,"stimulus":"bees-with-color/bee-A1SM.svg","response":0,"trial_type":"image-button-response","trial_index":156,"time_elapsed":826806,"internal_node_id":"0.0-6.0-0.20","subject_id":"6130b27b15fbd6ac2aa9f340","study_id":"60edd13110225f80f9f3709b","session_id":"6196c4a44f0a5ef7e9eeef65","condition":"full-information","relevant_dimensions":["pattern","legs"],"bee_group":{"antennae":"X","wings":"X","pattern":"D","legs":"M"},"bonus":1.320000000000001},{"rt":807.0999999046326,"stimulus":"bees-with-color/bee-A1SF.svg","response":0,"trial_type":"image-button-response","trial_index":157,"time_elapsed":827614,"internal_node_id":"0.0-6.0-0.21","subject_id":"6130b27b15fbd6ac2aa9f340","study_id":"60edd13110225f80f9f3709b","session_id":"6196c4a44f0a5ef7e9eeef65","condition":"full-information","relevant_dimensions":["pattern","legs"],"bee_group":{"antennae":"X","wings":"X","pattern":"D","legs":"M"},"bonus":1.320000000000001},{"rt":671.1000001430511,"stimulus":"bees-with-color/bee-B1SF.svg","response":