[{"success":true,"trial_type":"fullscreen","trial_index":0,"time_elapsed":33156,"internal_node_id":"0.0-0.0","subject_id":"5c74f0d525c76b0010706736","study_id":"6197b3f67c2b5cd3b6d9596a","session_id":"6197b9e8cd151cfc2b7bbd2a","condition":"full-information","relevant_dimensions":["antennae","pattern"],"bee_group":{"antennae":"A","wings":"X","pattern":"D","legs":"X"},"bonus":1.4400000000000013},{"success":true,"timeout":false,"failed_images":[],"failed_audio":[],"failed_video":[],"trial_type":"preload","trial_index":1,"time_elapsed":35373,"internal_node_id":"0.0-1.0","subject_id":"5c74f0d525c76b0010706736","study_id":"6197b3f67c2b5cd3b6d9596a","session_id":"6197b9e8cd151cfc2b7bbd2a","condition":"full-information","relevant_dimensions":["antennae","pattern"],"bee_group":{"antennae":"A","wings":"X","pattern":"D","legs":"X"},"bonus":1.4400000000000013},{"rt":2598.0999999940395,"stimulus":"Welcome! Press any key to begin.","response":" ","trial_type":"html-keyboard-response","trial_index":2,"time_elapsed":37972,"internal_node_id":"0.0-2.0","subject_id":"5c74f0d525c76b0010706736","study_id":"6197b3f67c2b5cd3b6d9596a","session_id":"6197b9e8cd151cfc2b7bbd2a","condition":"full-information","relevant_dimensions":["antennae","pattern"],"bee_group":{"antennae":"A","wings":"X","pattern":"D","legs":"X"},"bonus":1.4400000000000013},{"view_history":[{"page_index":0,"viewing_time":3477.7000000029802},{"page_index":1,"viewing_time":10510.89999999106},{"page_index":2,"viewing_time":7336.100000008941},{"page_index":3,"viewing_time":10034.79999999702},{"page_index":4,"viewing_time":6404.0999999940395},{"page_index":5,"viewing_time":3451},{"page_index":6,"viewing_time":7851},{"page_index":7,"viewing_time":5231},{"page_index":8,"viewing_time":3626},{"page_index":9,"viewing_time":2512.1000000089407},{"page_index":10,"viewing_time":2846.8999999910593},{"page_index":11,"viewing_time":7181.9000000059605},{"page_index":12,"viewing_time":8146},{"page_index":13,"viewing_time":1222},{"page_index":14,"viewing_time":1080}],"rt":80911.79999999702,"trial_type":"instructions","trial_index":3,"time_elapsed":118884,"internal_node_id":"0.0-3.0-0.0","subject_id":"5c74f0d525c76b0010706736","study_id":"6197b3f67c2b5cd3b6d9596a","session_id":"6197b9e8cd151cfc2b7bbd2a","condition":"full-information","relevant_dimensions":["antennae","pattern"],"bee_group":{"antennae":"A","wings":"X","pattern":"D","legs":"X"},"bonus":1.4400000000000013},{"rt":9098.40000000596,"response":{"Q0":["Two or six legs","Stripes or spots on body","Single or double wings","Antennae or no antennae"]},"question_order":[0],"trial_type":"survey-multi-select","trial_index":4,"time_elapsed":127986,"internal_node_id":"0.0-3.0-1.0","subject_id":"5c74f0d525c76b0010706736","study_id":"6197b3f67c2b5cd3b6d9596a","session_id":"6197b9e8cd151cfc2b7bbd2a","condition":"full-information","relevant_dimensions":["antennae","pattern"],"bee_group":{"antennae":"A","wings":"X","pattern":"D","legs":"X"},"correct":true,"bonus":1.4400000000000013},{"rt":23381,"response":{"Q1":"No.","Q2":"Based on the four features of the bee.","Q3":"You learn if it was friendly or dangerous, but do not alter your bonus."},"question_order":[0,1,2],"trial_type":"survey-multi-choice","trial_index":5,"time_elapsed":151374,"internal_node_id":"0.0-3.0-2.0","subject_id":"5c74f0d525c76b0010706736","study_id":"6197b3f67c2b5cd3b6d9596a","session_id":"6197b9e8cd151cfc2b7bbd2a","condition":"full-information","relevant_dimensions":["antennae","pattern"],"bee_group":{"antennae":"A","wings":"X","pattern":"D","legs":"X"},"correct":true,"bonus":1.4400000000000013},{"rt":2835.4000000059605,"stimulus":"<p>Congrats, you got everything right<br>When you're ready, click the button below to continue to the experiment.</p>","response":0,"trial_type":"html-button-response","trial_index":6,"time_elapsed":154216,"internal_node_id":"0.0-3.0-3.0","subject_id":"5c74f0d525c76b0010706736","study_id":"6197b3f67c2b5cd3b6d9596a","session_id":"6197b9e8cd151cfc2b7bbd2a","condition":"full-information","relevant_dimensions":["antennae","pattern"],"bee_group":{"antennae":"A","wings":"X","pattern":"D","legs":"X"},"bonus":1.4400000000000013},{"rt":6144.5,"stimulus":"bees-with-color/bee-A1SM.svg","response":0,"trial_type":"image-button-response","trial_index":7,"time_elapsed":160363,"internal_node_id":"0.0-4.0-0.0","subject_id":"5c74f0d525c76b0010706736","study_id":"6197b3f67c2b5cd3b6d9596a","session_id":"6197b9e8cd151cfc2b7bbd2a","condition":"full-information","relevant_dimensions":["antennae","pattern"],"bee_group":{"antennae":"A","wings":"X","pattern":"D","legs":"X"},"action":"harvest","summary":"good-harvest","bonus":1.4400000000000013},{"rt":7232.5999999940395,"stimulus":"\n                    <p><b>Action: <em>harvest</em></b></p>\n                    <p>This is the bee that you just saw.</p>\n                    <img src=\"bees-with-color/bee-A1SM.svg\" width=\"200\">\n                    <p><span class=\"greenText\"><b>Successful harvest!</b></span><br>Your pay has increased by $0.02. Your bonus pay is now $0.56.</p>\n            ","response":0,"trial_type":"html-button-response","trial_index":8,"time_elapsed":167597,"internal_node_id":"0.0-4.0-1.0","subject_id":"5c74f0d525c76b0010706736","study_id":"6197b3f67c2b5cd3b6d9596a","session_id":"6197b9e8cd151cfc2b7bbd2a","condition":"full-information","relevant_dimensions":["antennae","pattern"],"bee_group":{"antennae":"A","wings":"X","pattern":"D","legs":"X"},"bonus":1.4400000000000013},{"rt":1311,"stimulus":"bees-with-color/bee-B2DM.svg","response":1,"trial_type":"image-button-response","trial_index":9,"time_elapsed":168910,"internal_node_id":"0.0-4.0-0.1","subject_id":"5c74f0d525c76b0010706736","study_id":"6197b3f67c2b5cd3b6d9596a","session_id":"6197b9e8cd151cfc2b7bbd2a","condition":"full-information","relevant_dimensions":["antennae","pattern"],"bee_group":{"antennae":"A","wings":"X","pattern":"D","legs":"X"},"action":"avoid","summary":"bad-avoid","bonus":1.4400000000000013},{"rt":8733.20000000298,"stimulus":"\n                    <p><b>Action: <em>avoid</em></b></p>\n                    <p>This is the bee that you just saw.</p>\n                    <img src=\"bees-with-color/bee-B2DM.svg\" width=\"200\">\n                    <p><span class=\"redText\">Bad choice,</span> the bee was friendly.<br>Your bonus pay is unchanged, and remains at $0.56.</p>\n            ","response":0,"trial_type":"html-button-response","trial_index":10,"time_elapsed":177646,"internal_node_id":"0.0-4.0-1.1","subject_id":"5c74f0d525c76b0010706736","study_id":"6197b3f67c2b5cd3b6d9596a","session_id":"6197b9e8cd151cfc2b7bbd2a","condition":"full-information","relevant_dimensions":["antennae","pattern"],"bee_group":{"antennae":"A","wings":"X","pattern":"D","legs":"X"},"bonus":1.4400000000000013},{"rt":2162.9000000059605,"stimulus":"bees-with-color/bee-B2DF.svg","response":1,"trial_type":"image-button-response","trial_index":11,"time_elapsed":179810,"internal_node_id":"0.0-4.0-0.2","subject_id":"5c74f0d525c76b0010706736","study_id":"6197b3f67c2b5cd3b6d9596a","session_id":"6197b9e8cd151cfc2b7bbd2a","condition":"full-information","relevant_dimensions":["antennae","pattern"],"bee_group":{"antennae":"A","wings":"X","pattern":"D","legs":"X"},"action":"avoid","summary":"bad-avoid","bonus":1.4400000000000013},{"rt":2989.5,"stimulus":"\n                    <p><b>Action: <em>avoid</em></b></p>\n                    <p>This is the bee that you just saw.</p>\n                    <img src=\"bees-with-color/bee-B2DF.svg\" width=\"200\">\n                    <p><span class=\"redText\">Bad choice,</span> the bee was friendly.<br>Your bonus pay is unchanged, and remains at $0.56.</p>\n            ","response":0,"trial_type":"html-button-response","trial_index":12,"time_elapsed":182801,"internal_node_id":"0.0-4.0-1.2","subject_id":"5c74f0d525c76b0010706736","study_id":"6197b3f67c2b5cd3b6d9596a","session_id":"6197b9e8cd151cfc2b7bbd2a","condition":"full-information","relevant_dimensions":["antennae","pattern"],"bee_group":{"antennae":"A","wings":"X","pattern":"D","legs":"X"},"bonus":1.4400000000000013},{"rt":2503.5,"stimulus":"bees-with-color/bee-A1DM.svg","response":0,"trial_type":"image-button-response","trial_index":13,"time_elapsed":185306,"internal_node_id":"0.0-4.0-0.3","subject_id":"5c74f0d525c76b0010706736","study_id":"6197b3f67c2b5cd3b6d9596a","session_id":"6197b9e8cd151cfc2b7bbd2a","condition":"full-information","relevant_dimensions":["antennae","pattern"],"bee_group":{"antennae":"A","wings":"X","pattern":"D","legs":"X"},"action":"harvest","summary":"bad-harvest","bonus":1.4400000000000013},{"rt":5198.70000000298,"stimulus":"\n                    <p><b>Action: <em>harvest</em></b></p>\n                    <p>This is the bee that you just saw.</p>\n                    <img src=\"bees-with-color/bee-A1DM.svg\" width=\"200\">\n                    <p><span class=\"redText\">Bad choice, the bee was angry.</span><br><b>You have been stung!</b><br>Your pay has been decreased by $0.10. Your bonus pay is now $0.46.</p>\n            ","response":0,"trial_type":"html-button-response","trial_index":14,"time_elapsed":190507,"internal_node_id":"0.0-4.0-1.3","subject_id":"5c74f0d525c76b0010706736","study_id":"6197b3f67c2b5cd3b6d9596a","session_id":"6197b9e8cd151cfc2b7bbd2a","condition":"full-information","relevant_dimensions":["antennae","pattern"],"bee_group":{"antennae":"A","wings":"X","pattern":"D","legs":"X"},"bonus":1.4400000000000013},{"rt":3218.2000000029802,"stimulus":"bees-with-color/bee-A2DM.svg","response":1,"trial_type":"image-button-response","trial_index":15,"time_elapsed":193726,"internal_node_id":"0.0-4.0-0.4","subject_id":"5c74f0d525c76b0010706736","study_id":"6197b3f67c2b5cd3b6d9596a","session_id":"6197b9e8cd151cfc2b7bbd2a","condition":"full-information","relevant_dimensions":["antennae","pattern"],"bee_group":{"antennae":"A","wings":"X","pattern":"D","legs":"X"},"action":"avoid","summary":"good-avoid","bonus":1.4400000000000013},{"rt":4138.5999999940395,"stimulus":"\n                    <p><b>Action: <em>avoid</em></b></p>\n                    <p>This is the bee that you just saw.</p>\n                    <img src=\"bees-with-color/bee-A2DM.svg\" width=\"200\">\n                    <p><span class=\"greenText\">Good choice!</span>  This bee would have stung you.<br>Your bonus pay is unchanged, and remains at $0.46.</p>\n            ","response":0,"trial_type":"html-button-response","trial_index":16,"time_elapsed":197866,"internal_node_id":"0.0-4.0-1.4","subject_id":"5c74f0d525c76b0010706736","study_id":"6197b3f67c2b5cd3b6d9596a","session_id":"6197b9e8cd151cfc2b7bbd2a","condition":"full-information","relevant_dimensions":["antennae","pattern"],"bee_group":{"antennae":"A","wings":"X","pattern":"D","legs":"X"},"bonus":1.4400000000000013},{"rt":1741.2999999970198,"stimulus":"bees-with-color/bee-A2SF.svg","response":0,"trial_type":"image-button-response","trial_index":17,"time_elapsed":199609,"internal_node_id":"0.0-4.0-0.5","subject_id":"5c74f0d525c76b0010706736","study_id":"6197b3f67c2b5cd3b6d9596a","session_id":"6197b9e8cd151cfc2b7bbd2a","condition":"full-information","relevant_dimensions":["antennae","pattern"],"bee_group":{"antennae":"A","wings":"X","pattern":"D","legs":"X"},"action":"harvest","summary":"good-harvest","bonus":1.4400000000000013},{"rt":2683.2000000029802,"stimulus":"\n                    <p><b>Action: <em>harvest</em></b></p>\n                    <p>This is the bee that you just saw.</p>\n                    <img src=\"bees-with-color/bee-A2SF.svg\" width=\"200\">\n                    <p><span class=\"greenText\"><b>Successful harvest!</b></span><br>Your pay has increased by $0.02. Your bonus pay is now $0.48.</p>\n            ","response":0,"trial_type":"html-button-response","trial_index":18,"time_elapsed":202294,"internal_node_id":"0.0-4.0-1.5","subject_id":"5c74f0d525c76b0010706736","study_id":"6197b3f67c2b5cd3b6d9596a","session_id":"6197b9e8cd151cfc2b7bbd2a","condition":"full-information","relevant_dimensions":["antennae","pattern"],"bee_group":{"antennae":"A","wings":"X","pattern":"D","legs":"X"},"bonus":1.4400000000000013},{"rt":2148.2000000029802,"stimulus":"bees-with-color/bee-B2SF.svg","response":0,"trial_type":"image-button-response","trial_index":19,"time_elapsed":204444,"internal_node_id":"0.0-4.0-0.6","subject_id":"5c74f0d525c76b0010706736","study_id":"6197b3f67c2b5cd3b6d9596a","session_id":"6197b9e8cd151cfc2b7bbd2a","condition":"full-information","relevant_dimensions":["antennae","pattern"],"bee_group":{"antennae":"A","wings":"X","pattern":"D","legs":"X"},"action":"harvest","summary":"good-harvest","bonus":1.4400000000000013},{"rt":1819.7000000029802,"stimulus":"\n                    <p><b>Action: <em>harvest</em></b></p>\n                    <p>This is the bee that you just saw.</p>\n                    <img src=\"bees-with-color/bee-B2SF.svg\" width=\"200\">\n                    <p><span class=\"greenText\"><b>Successful harvest!</b></span><br>Your pay has increased by $0.02. Your bonus pay is now $0.50.</p>\n            ","response":0,"trial_type":"html-button-response","trial_index":20,"time_elapsed":206266,"internal_node_id":"0.0-4.0-1.6","subject_id":"5c74f0d525c76b0010706736","study_id":"6197b3f67c2b5cd3b6d9596a","session_id":"6197b9e8cd151cfc2b7bbd2a","condition":"full-information","relevant_dimensions":["antennae","pattern"],"bee_group":{"antennae":"A","wings":"X","pattern":"D","legs":"X"},"bonus":1.4400000000000013},{"rt":1636.2999999970198,"stimulus":"bees-with-color/bee-A1SF.svg","response":1,"trial_type":"image-button-response","trial_index":21,"time_elapsed":207903,"internal_node_id":"0.0-4.0-0.7","subject_id":"5c74f0d525c76b0010706736","study_id":"6197b3f67c2b5cd3b6d9596a","session_id":"6197b9e8cd151cfc2b7bbd2a","condition":"full-information","relevant_dimensions":["antennae","pattern"],"bee_group":{"antennae":"A","wings":"X","pattern":"D","legs":"X"},"action":"avoid","summary":"bad-avoid","bonus":1.4400000000000013},{"rt":1284.5999999940395,"stimulus":"\n                    <p><b>Action: <em>avoid</em></b></p>\n                    <p>This is the bee that you just saw.</p>\n                    <img src=\"bees-with-color/bee-A1SF.svg\" width=\"200\">\n                    <p><span class=\"redText\">Bad choice,</span> the bee was friendly.<br>Your bonus pay is unchanged, and remains at $0.50.</p>\n            ","response":0,"trial_type":"html-button-response","trial_index":22,"time_elapsed":209190,"internal_node_id":"0.0-4.0-1.7","subject_id":"5c74f0d525c76b0010706736","study_id":"6197b3f67c2b5cd3b6d9596a","session_id":"6197b9e8cd151cfc2b7bbd2a","condition":"full-information","relevant_dimensions":["antennae","pattern"],"bee_group":{"antennae":"A","wings":"X","pattern":"D","legs":"X"},"bonus":1.4400000000000013},{"rt":1631.2000000029802,"stimulus":"bees-with-color/bee-B1SF.svg","response":0,"trial_type":"image-button-response","trial_index":23,"time_elapsed":210822,"internal_node_id":"0.0-4.0-0.8","subject_id":"5c74f0d525c76b0010706736","study_id":"6197b3f67c2b5cd3b6d9596a","session_id":"6197b9e8cd151cfc2b7bbd2a","condition":"full-information","relevant_dimensions":["antennae","pattern"],"bee_group":{"antennae":"A","wings":"X","pattern":"D","legs":"X"},"action":"harvest","summary":"good-harvest","bonus":1.4400000000000013},{"rt":1772.5999999940395,"stimulus":"\n                    <p><b>Action: <em>harvest</em></b></p>\n                    <p>This is the bee that you just saw.</p>\n                    <img src=\"bees-with-color/bee-B1SF.svg\" width=\"200\">\n                    <p><span class=\"greenText\"><b>Successful harvest!</b></span><br>Your pay has increased by $0.02. Your bonus pay is now $0.52.</p>\n            ","response":0,"trial_type":"html-button-response","trial_index":24,"time_elapsed":212597,"internal_node_id":"0.0-4.0-1.8","subject_id":"5c74f0d525c76b0010706736","study_id":"6197b3f67c2b5cd3b6d9596a","session_id":"6197b9e8cd151cfc2b7bbd2a","condition":"full-information","relevant_dimensions":["antennae","pattern"],"bee_group":{"antennae":"A","wings":"X","pattern":"D","legs":"X"},"bonus":1.4400000000000013},{"rt":2130.2999999970198,"stimulus":"bees-with-color/bee-A2SM.svg","response":0,"trial_type":"image-button-response","trial_index":25,"time_elapsed":214728,"internal_node_id":"0.0-4.0-0.9","subject_id":"5c74f0d525c76b0010706736","study_id":"6197b3f67c2b5cd3b6d9596a","session_id":"6197b9e8cd151cfc2b7bbd2a","condition":"full-information","relevant_dimensions":["antennae","pattern"],"bee_group":{"antennae":"A","wings":"X","pattern":"D","legs":"X"},"action":"harvest","summary":"good-harvest","bonus":1.4400000000000013},{"rt":2569.5,"stimulus":"\n                    <p><b>Action: <em>harvest</em></b></p>\n                    <p>This is the bee that you just saw.</p>\n                    <img src=\"bees-with-color/bee-A2SM.svg\" width=\"200\">\n                    <p><span class=\"greenText\"><b>Successful harvest!</b></span><br>Your pay has increased by $0.02. Your bonus pay is now $0.54.</p>\n            ","response":0,"trial_type":"html-button-response","trial_index":26,"time_elapsed":217300,"internal_node_id":"0.0-4.0-1.9","subject_id":"5c74f0d525c76b0010706736","study_id":"6197b3f67c2b5cd3b6d9596a","session_id":"6197b9e8cd151cfc2b7bbd2a","condition":"full-information","relevant_dimensions":["antennae","pattern"],"bee_group":{"antennae":"A","wings":"X","pattern":"D","legs":"X"},"bonus":1.4400000000000013},{"rt":1628.2999999970198,"stimulus":"bees-with-color/bee-B1DF.svg","response":1,"trial_type":"image-button-response","trial_index":27,"time_elapsed":218929,"internal_node_id":"0.0-4.0-0.10","subject_id":"5c74f0d525c76b0010706736","study_id":"6197b3f67c2b5cd3b6d9596a","session_id":"6197b9e8cd151cfc2b7bbd2a","condition":"full-information","relevant_dimensions":["antennae","pattern"],"bee_group":{"antennae":"A","wings":"X","pattern":"D","legs":"X"},"action":"avoid","summary":"bad-avoid","bonus":1.4400000000000013},{"rt":2100.5,"stimulus":"\n                    <p><b>Action: <em>avoid</em></b></p>\n                    <p>This is the bee that you just saw.</p>\n                    <img src=\"bees-with-color/bee-B1DF.svg\" width=\"200\">\n                    <p><span class=\"redText\">Bad choice,</span> the bee was friendly.<br>Your bonus pay is unchanged, and remains at $0.54.</p>\n            ","response":0,"trial_type":"html-button-response","trial_index":28,"time_elapsed":221031,"internal_node_id":"0.0-4.0-1.10","subject_id":"5c74f0d525c76b0010706736","study_id":"6197b3f67c2b5cd3b6d9596a","session_id":"6197b9e8cd151cfc2b7bbd2a","condition":"full-information","relevant_dimensions":["antennae","pattern"],"bee_group":{"antennae":"A","wings":"X","pattern":"D","legs":"X"},"bonus":1.4400000000000013},{"rt":1889.3999999910593,"stimulus":"bees-with-color/bee-A2DF.svg","response":0,"trial_type":"image-button-response","trial_index":29,"time_elapsed":222922,"internal_node_id":"0.0-4.0-0.11","subject_id":"5c74f0d525c76b0010706736","study_id":"6197b3f67c2b5cd3b6d9596a","session_id":"6197b9e8cd151cfc2b7bbd2a","condition":"full-information","relevant_dimensions":["antennae","pattern"],"bee_group":{"antennae":"A","wings":"X","pattern":"D","legs":"X"},"action":"harvest","summary":"bad-harvest","bonus":1.4400000000000013},{"rt":2454.5,"stimulus":"\n                    <p><b>Action: <em>harvest</em></b></p>\n                    <p>This is the bee that you just saw.</p>\n                    <img src=\"bees-with-color/bee-A2DF.svg\" width=\"200\">\n                    <p><span class=\"redText\">Bad choice, the bee was angry.</span><br><b>You have been stung!</b><br>Your pay has been decreased by $0.10. Your bonus pay is now $0.44.</p>\n            ","response":0,"trial_type":"html-button-response","trial_index":30,"time_elapsed":225378,"internal_node_id":"0.0-4.0-1.11","subject_id":"5c74f0d525c76b0010706736","study_id":"6197b3f67c2b5cd3b6d9596a","session_id":"6197b9e8cd151cfc2b7bbd2a","condition":"full-information","relevant_dimensions":["antennae","pattern"],"bee_group":{"antennae":"A","wings":"X","pattern":"D","legs":"X"},"bonus":1.4400000000000013},{"rt":1120.2999999970198,"stimulus":"bees-with-color/bee-A1DF.svg","response":0,"trial_type":"image-button-response","trial_index":31,"time_elapsed":226500,"internal_node_id":"0.0-4.0-0.12","subject_id":"5c74f0d525c76b0010706736","study_id":"6197b3f67c2b5cd3b6d9596a","session_id":"6197b9e8cd151cfc2b7bbd2a","condition":"full-information","relevant_dimensions":["antennae","pattern"],"bee_group":{"antennae":"A","wings":"X","pattern":"D","legs":"X"},"action":"harvest","summary":"bad-harvest","bonus":1.4400000000000013},{"rt":1558.5,"stimulus":"\n                    <p><b>Action: <em>harvest</em></b></p>\n                    <p>This is the bee that you just saw.</p>\n                    <img src=\"bees-with-color/bee-A1DF.svg\" width=\"200\">\n                    <p><span class=\"redText\">Bad choice, the bee was angry.</span><br><b>You have been stung!</b><br>Your pay has been decreased by $0.10. Your bonus pay is now $0.34.</p>\n            ","response":0,"trial_type":"html-button-response","trial_index":32,"time_elapsed":228060,"internal_node_id":"0.0-4.0-1.12","subject_id":"5c74f0d525c76b0010706736","study_id":"6197b3f67c2b5cd3b6d9596a","session_id":"6197b9e8cd151cfc2b7bbd2a","condition":"full-information","relevant_dimensions":["antennae","pattern"],"bee_group":{"antennae":"A","wings":"X","pattern":"D","legs":"X"},"bonus":1.4400000000000013},{"rt":2662.5,"stimulus":"bees-with-color/bee-B1SM.svg","response":0,"trial_type":"image-button-response","trial_index":33,"time_elapsed":230724,"internal_node_id":"0.0-4.0-0.13","subject_id":"5c74f0d525c76b0010706736","study_id":"6197b3f67c2b5cd3b6d9596a","session_id":"6197b9e8cd151cfc2b7bbd2a","condition":"full-information","relevant_dimensions":["antennae","pattern"],"bee_group":{"antennae":"A","wings":"X","pattern":"D","legs":"X"},"action":"harvest","summary":"good-harvest","bonus":1.4400000000000013},{"rt":1160.7000000029802,"stimulus":"\n                    <p><b>Action: <em>harvest</em></b></p>\n                    <p>This is the bee that you just saw.</p>\n                    <img src=\"bees-with-color/bee-B1SM.svg\" width=\"200\">\n                    <p><span class=\"greenText\"><b>Successful harvest!</b></span><br>Your pay has increased by $0.02. Your bonus pay is now $0.36.</p>\n            ","response":0,"trial_type":"html-button-response","trial_index":34,"time_elapsed":231886,"internal_node_id":"0.0-4.0-1.13","subject_id":"5c74f0d525c76b0010706736","study_id":"6197b3f67c2b5cd3b6d9596a","session_id":"6197b9e8cd151cfc2b7bbd2a","condition":"full-information","relevant_dimensions":["antennae","pattern"],"bee_group":{"antennae":"A","wings":"X","pattern":"D","legs":"X"},"bonus":1.4400000000000013},{"rt":1480.6000000089407,"stimulus":"bees-with-color/bee-B2SM.svg","response":0,"trial_type":"image-button-response","trial_index":35,"time_elapsed":233368,"internal_node_id":"0.0-4.0-0.14","subject_id":"5c74f0d525c76b0010706736","study_id":"6197b3f67c2b5cd3b6d9596a","session_id":"6197b9e8cd151cfc2b7bbd2a","condition":"full-information","relevant_dimensions":["antennae","pattern"],"bee_group":{"antennae":"A","wings":"X","pattern":"D","legs":"X"},"action":"harvest","summary":"good-harvest","bonus":1.4400000000000013},{"rt":1026.7000000029802,"stimulus":"\n                    <p><b>Action: <em>harvest</em></b></p>\n                    <p>This is the bee that you just saw.</p>\n                    <img src=\"bees-with-color/bee-B2SM.svg\" width=\"200\">\n                    <p><span class=\"greenText\"><b>Successful harvest!</b></span><br>Your pay has increased by $0.02. Your bonus pay is now $0.38.</p>\n            ","response":0,"trial_type":"html-button-response","trial_index":36,"time_elapsed":234396,"internal_node_id":"0.0-4.0-1.14","subject_id":"5c74f0d525c76b0010706736","study_id":"6197b3f67c2b5cd3b6d9596a","session_id":"6197b9e8cd151cfc2b7bbd2a","condition":"full-information","relevant_dimensions":["antennae","pattern"],"bee_group":{"antennae":"A","wings":"X","pattern":"D","legs":"X"},"bonus":1.4400000000000013},{"rt":1166.7999999970198,"stimulus":"bees-with-color/bee-B1DM.svg","response":1,"trial_type":"image-button-response","trial_index":37,"time_elapsed":235564,"internal_node_id":"0.0-4.0-0.15","subject_id":"5c74f0d525c76b0010706736","study_id":"6197b3f67c2b5cd3b6d9596a","session_id":"6197b9e8cd151cfc2b7bbd2a","condition":"full-information","relevant_dimensions":["antennae","pattern"],"bee_group":{"antennae":"A","wings":"X","pattern":"D","legs":"X"},"action":"avoid","summary":"bad-avoid","bonus":1.4400000000000013},{"rt":901.7000000029802,"stimulus":"\n                    <p><b>Action: <em>avoid</em></b></p>\n                    <p>This is the bee that you just saw.</p>\n                    <img src=\"bees-with-color/bee-B1DM.svg\" width=\"200\">\n                    <p><span class=\"redText\">Bad choice,</span> the bee was friendly.<br>Your bonus pay is unchanged, and remains at $0.38.</p>\n            ","response":0,"trial_type":"html-button-response","trial_index":38,"time_elapsed":236467,"internal_node_id":"0.0-4.0-1.15","subject_id":"5c74f0d525c76b0010706736","study_id":"6197b3f67c2b5cd3b6d9596a","session_id":"6197b9e8cd151cfc2b7bbd2a","condition":"full-information","relevant_dimensions":["antennae","pattern"],"bee_group":{"antennae":"A","wings":"X","pattern":"D","legs":"X"},"bonus":1.4400000000000013},{"rt":1322.7999999970198,"stimulus":"bees-with-color/bee-B1SM.svg","response":0,"trial_type":"image-button-response","trial_index":39,"time_elapsed":237791,"internal_node_id":"0.0-4.0-0.16","subject_id":"5c74f0d525c76b0010706736","study_id":"6197b3f67c2b5cd3b6d9596a","session_id":"6197b9e8cd151cfc2b7bbd2a","condition":"full-information","relevant_dimensions":["antennae","pattern"],"bee_group":{"antennae":"A","wings":"X","pattern":"D","legs":"X"},"action":"harvest","summary":"good-harvest","bonus":1.4400000000000013},{"rt":893.7000000029802,"stimulus":"\n                    <p><b>Action: <em>harvest</em></b></p>\n                    <p>This is the bee that you just saw.</p>\n                    <img src=\"bees-with-color/bee-B1SM.svg\" width=\"200\">\n                    <p><span class=\"greenText\"><b>Successful harvest!</b></span><br>Your pay has increased by $0.02. Your bonus pay is now $0.40.</p>\n            ","response":0,"trial_type":"html-button-response","trial_index":40,"time_elapsed":238686,"internal_node_id":"0.0-4.0-1.16","subject_id":"5c74f0d525c76b0010706736","study_id":"6197b3f67c2b5cd3b6d9596a","session_id":"6197b9e8cd151cfc2b7bbd2a","condition":"full-information","relevant_dimensions":["antennae","pattern"],"bee_group":{"antennae":"A","wings":"X","pattern":"D","legs":"X"},"bonus":1.4400000000000013},{"rt":1707.7999999970198,"stimulus":"bees-with-color/bee-B2DM.svg","response":0,"trial_type":"image-button-response","trial_index":41,"time_elapsed":240395,"internal_node_id":"0.0-4.0-0.17","subject_id":"5c74f0d525c76b0010706736","study_id":"6197b3f67c2b5cd3b6d9596a","session_id":"6197b9e8cd151cfc2b7bbd2a","condition":"full-information","relevant_dimensions":["antennae","pattern"],"bee_group":{"antennae":"A","wings":"X","pattern":"D","legs":"X"},"action":"harvest","summary":"good-harvest","bonus":1.4400000000000013},{"rt":1009.7999999970198,"stimulus":"\n                    <p><b>Action: <em>harvest</em></b></p>\n                    <p>This is the bee that you just saw.</p>\n                    <img src=\"bees-with-color/bee-B2DM.svg\" width=\"200\">\n                    <p><span class=\"greenText\"><b>Successful harvest!</b></span><br>Your pay has increased by $0.02. Your bonus pay is now $0.42.</p>\n            ","response":0,"trial_type":"html-button-response","trial_index":42,"time_elapsed":241406,"internal_node_id":"0.0-4.0-1.17","subject_id":"5c74f0d525c76b0010706736","study_id":"6197b3f67c2b5cd3b6d9596a","session_id":"6197b9e8cd151cfc2b7bbd2a","condition":"full-information","relevant_dimensions":["antennae","pattern"],"bee_group":{"antennae":"A","wings":"X","pattern":"D","legs":"X"},"bonus":1.4400000000000013},{"rt":1431.7000000029802,"stimulus":"bees-with-color/bee-A2DF.svg","response":1,"trial_type":"image-button-response","trial_index":43,"time_elapsed":242839,"internal_node_id":"0.0-4.0-0.18","subject_id":"5c74f0d525c76b0010706736","study_id":"6197b3f67c2b5cd3b6d9596a","session_id":"6197b9e8cd151cfc2b7bbd2a","condition":"full-information","relevant_dimensions":["antennae","pattern"],"bee_group":{"antennae":"A","wings":"X","pattern":"D","legs":"X"},"action":"avoid","summary":"good-avoid","bonus":1.4400000000000013},{"rt":1467.6000000089407,"stimulus":"\n                    <p><b>Action: <em>avoid</em></b></p>\n                    <p>This is the bee that you just saw.</p>\n                    <img src=\"bees-with-color/bee-A2DF.svg\" width=\"200\">\n                    <p><span class=\"greenText\">Good choice!</span>  This bee would have stung you.<br>Your bonus pay is unchanged, and remains at $0.42.</p>\n            ","response":0,"trial_type":"html-button-response","trial_index":44,"time_elapsed":244308,"internal_node_id":"0.0-4.0-1.18","subject_id":"5c74f0d525c76b0010706736","study_id":"6197b3f67c2b5cd3b6d9596a","session_id":"6197b9e8cd151cfc2b7bbd2a","condition":"full-information","relevant_dimensions":["antennae","pattern"],"bee_group":{"antennae":"A","wings":"X","pattern":"D","legs":"X"},"bonus":1.4400000000000013},{"rt":1082.2999999970198,"stimulus":"bees-with-color/bee-B2SM.svg","response":0,"trial_type":"image-button-response","trial_index":45,"time_elapsed":245392,"internal_node_id":"0.0-4.0-0.19","subject_id":"5c74f0d525c76b0010706736","study_id":"6197b3f67c2b5cd3b6d9596a","session_id":"6197b9e8cd151cfc2b7bbd2a","condition":"full-information","relevant_dimensions":["antennae","pattern"],"bee_group":{"antennae":"A","wings":"X","pattern":"D","legs":"X"},"action":"harvest","summary":"good-harvest","bonus":1.4400000000000013},{"rt":1200.6000000089407,"stimulus":"\n                    <p><b>Action: <em>harvest</em></b></p>\n                    <p>This is the bee that you just saw.</p>\n                    <img src=\"bees-with-color/bee-B2SM.svg\" width=\"200\">\n                    <p><span class=\"greenText\"><b>Successful harvest!</b></span><br>Your pay has increased by $0.02. Your bonus pay is now $0.44.</p>\n            ","response":0,"trial_type":"html-button-response","trial_index":46,"time_elapsed":246594,"internal_node_id":"0.0-4.0-1.19","subject_id":"5c74f0d525c76b0010706736","study_id":"6197b3f67c2b5cd3b6d9596a","session_id":"6197b9e8cd151cfc2b7bbd2a","condition":"full-information","relevant_dimensions":["antennae","pattern"],"bee_group":{"antennae":"A","wings":"X","pattern":"D","legs":"X"},"bonus":1.4400000000000013},{"rt":1187.7999999970198,"stimulus":"bees-with-color/bee-B1SF.svg","response":0,"trial_type":"image-button-response","trial_index":47,"time_elapsed":247783,"internal_node_id":"0.0-4.0-0.20","subject_id":"5c74f0d525c76b0010706736","study_id":"6197b3f67c2b5cd3b6d9596a","session_id":"6197b9e8cd151cfc2b7bbd2a","condition":"full-information","relevant_dimensions":["antennae","pattern"],"bee_group":{"antennae":"A","wings":"X","pattern":"D","legs":"X"},"action":"harvest","summary":"good-harvest","bonus":1.4400000000000013},{"rt":965.3999999910593,"stimulus":"\n                    <p><b>Action: <em>harvest</em></b></p>\n                    <p>This is the bee that you just saw.</p>\n                    <img src=\"bees-with-color/bee-B1SF.svg\" width=\"200\">\n                    <p><span class=\"greenText\"><b>Successful harvest!</b></span><br>Your pay has increased by $0.02. Your bonus pay is now $0.46.</p>\n            ","response":0,"trial_type":"html-button-response","trial_index":48,"time_elapsed":248750,"internal_node_id":"0.0-4.0-1.20","subject_id":"5c74f0d525c76b0010706736","study_id":"6197b3f67c2b5cd3b6d9596a","session_id":"6197b9e8cd151cfc2b7bbd2a","condition":"full-information","relevant_dimensions":["antennae","pattern"],"bee_group":{"antennae":"A","wings":"X","pattern":"D","legs":"X"},"bonus":1.4400000000000013},{"rt":1250.7000000029802,"stimulus":"bees-with-color/bee-A1DM.svg","response":1,"trial_type":"image-button-response","trial_index":49,"time_elapsed":250002,"internal_node_id":"0.0-4.0-0.21","subject_id":"5c74f0d525c76b0010706736","study_id":"6197b3f67c2b5cd3b6d9596a","session_id":"6197b9e8cd151cfc2b7bbd2a","condition":"full-information","relevant_dimensions":["antennae","pattern"],"bee_group":{"antennae":"A","wings":"X","pattern":"D","legs":"X"},"action":"avoid","summary":"good-avoid","bonus":1.4400000000000013},{"rt":1102.3999999910593,"stimulus":"\n                    <p><b>Action: <em>avoid</em></b></p>\n                    <p>This is the bee that you just saw.</p>\n                    <img src=\"bees-with-color/bee-A1DM.svg\" width=\"200\">\n                    <p><span class=\"greenText\">Good choice!</span>  This bee would have stung you.<br>Your bonus pay is unchanged, and remains at $0.46.</p>\n            ","response":0,"trial_type":"html-button-response","trial_index":50,"time_elapsed":251106,"internal_node_id":"0.0-4.0-1.21","subject_id":"5c74f0d525c76b0010706736","study_id":"6197b3f67c2b5cd3b6d9596a","session_id":"6197b9e8cd151cfc2b7bbd2a","condition":"full-information","relevant_dimensions":["antennae","pattern"],"bee_group":{"antennae":"A","wings":"X","pattern":"D","legs":"X"},"bonus":1.4400000000000013},{"rt":976,"stimulus":"bees-with-color/bee-B2DF.svg","response":0,"trial_type":"image-button-response","trial_index":51,"time_elapsed":252083,"internal_node_id":"0.0-4.0-0.22","subject_id":"5c74f0d525c76b0010706736","study_id":"6197b3f67c2b5cd3b6d9596a","session_id":"6197b9e8cd151cfc2b7bbd2a","condition":"full-information","relevant_dimensions":["antennae","pattern"],"bee_group":{"antennae":"A","wings":"X","pattern":"D","legs":"X"},"action":"harvest","summary":"good-harvest","bonus":1.4400000000000013},{"rt":856.7999999970198,"stimulus":"\n                    <p><b>Action: <em>harvest</em></b></p>\n                    <p>This is the bee that you just saw.</p>\n                    <img src=\"bees-with-color/bee-B2DF.svg\" width=\"200\">\n                    <p><span class=\"greenText\"><b>Successful harvest!</b></span><br>Your pay has increased by $0.02. Your bonus pay is now $0.48.</p>\n            ","response":0,"trial_type":"html-button-response","trial_index":52,"time_elapsed":252941,"internal_node_id":"0.0-4.0-1.22","subject_id":"5c74f0d525c76b0010706736","study_id":"6197b3f67c2b5cd3b6d9596a","session_id":"6197b9e8cd151cfc2b7bbd2a","condition":"full-information","relevant_dimensions":["antennae","pattern"],"bee_group":{"antennae":"A","wings":"X","pattern":"D","legs":"X"},"bonus":1.4400000000000013},{"rt":1498.9000000059605,"stimulus":"bees-with-color/bee-B1DM.svg","response":0,"trial_type":"image-button-response","trial_index":53,"time_elapsed":254441,"internal_node_id":"0.0-4.0-0.23","subject_id":"5c74f0d525c76b0010706736","study_id":"6197b3f67c2b5cd3b6d9596a","session_id":"6197b9e8cd151cfc2b7bbd2a","condition":"full-information","relevant_dimensions":["antennae","pattern"],"bee_group":{"antennae":"A","wings":"X","pattern":"D","legs":"X"},"action":"harvest","summary":"good-harvest","bonus":1.4400000000000013},{"rt":1210.7999999970198,"stimulus":"\n                    <p><b>Action: <em>harvest</em></b></p>\n                    <p>This is the bee that you just saw.</p>\n                    <img src=\"bees-with-color/bee-B1DM.svg\" width=\"200\">\n                    <p><span class=\"greenText\"><b>Successful harvest!</b></span><br>Your pay has increased by $0.02. Your bonus pay is now $0.50.</p>\n            ","response":0,"trial_type":"html-button-response","trial_index":54,"time_elapsed":255653,"internal_node_id":"0.0-4.0-1.23","subject_id":"5c74f0d525c76b0010706736","study_id":"6197b3f67c2b5cd3b6d9596a","session_id":"6197b9e8cd151cfc2b7bbd2a","condition":"full-information","relevant_dimensions":["antennae","pattern"],"bee_group":{"antennae":"A","wings":"X","pattern":"D","legs":"X"},"bonus":1.4400000000000013},{"rt":1434.9000000059605,"stimulus":"bees-with-color/bee-A1SF.svg","response":0,"trial_type":"image-button-response","trial_index":55,"time_elapsed":257089,"internal_node_id":"0.0-4.0-0.24","subject_id":"5c74f0d525c76b0010706736","study_id":"6197b3f67c2b5cd3b6d9596a","session_id":"6197b9e8cd151cfc2b7bbd2a","condition":"full-information","relevant_dimensions":["antennae","pattern"],"bee_group":{"antennae":"A","wings":"X","pattern":"D","legs":"X"},"action":"harvest","summary":"good-harvest","bonus":1.4400000000000013},{"rt":864.7000000029802,"stimulus":"\n                    <p><b>Action: <em>harvest</em></b></p>\n                    <p>This is the bee that you just saw.</p>\n                    <img src=\"bees-with-color/bee-A1SF.svg\" width=\"200\">\n                    <p><span class=\"greenText\"><b>Successful harvest!</b></span><br>Your pay has increased by $0.02. Your bonus pay is now $0.52.</p>\n            ","response":0,"trial_type":"html-button-response","trial_index":56,"time_elapsed":257955,"internal_node_id":"0.0-4.0-1.24","subject_id":"5c74f0d525c76b0010706736","study_id":"6197b3f67c2b5cd3b6d9596a","session_id":"6197b9e8cd151cfc2b7bbd2a","condition":"full-information","relevant_dimensions":["antennae","pattern"],"bee_group":{"antennae":"A","wings":"X","pattern":"D","legs":"X"},"bonus":1.4400000000000013},{"rt":1179.3999999910593,"stimulus":"bees-with-color/bee-B2SF.svg","response":0,"trial_type":"image-button-response","trial_index":57,"time_elapsed":259136,"internal_node_id":"0.0-4.0-0.25","subject_id":"5c74f0d525c76b0010706736","study_id":"6197b3f67c2b5cd3b6d9596a","session_id":"6197b9e8cd151cfc2b7bbd2a","condition":"full-information","relevant_dimensions":["antennae","pattern"],"bee_group":{"antennae":"A","wings":"X","pattern":"D","legs":"X"},"action":"harvest","summary":"good-harvest","bonus":1.4400000000000013},{"rt":773.7999999970198,"stimulus":"\n                    <p><b>Action: <em>harvest</em></b></p>\n                    <p>This is the bee that you just saw.</p>\n                    <img src=\"bees-with-color/bee-B2SF.svg\" width=\"200\">\n                    <p><span class=\"greenText\"><b>Successful harvest!</b></span><br>Your pay has increased by $0.02. Your bonus pay is now $0.54.</p>\n            ","response":0,"trial_type":"html-button-response","trial_index":58,"time_elapsed":259912,"internal_node_id":"0.0-4.0-1.25","subject_id":"5c74f0d525c76b0010706736","study_id":"6197b3f67c2b5cd3b6d9596a","session_id":"6197b9e8cd151cfc2b7bbd2a","condition":"full-information","relevant_dimensions":["antennae","pattern"],"bee_group":{"antennae":"A","wings":"X","pattern":"D","legs":"X"},"bonus":1.4400000000000013},{"rt":1453.6000000089407,"stimulus":"bees-with-color/bee-A2DM.svg","response":1,"trial_type":"image-button-response","trial_index":59,"time_elapsed":261366,"internal_node_id":"0.0-4.0-0.26","subject_id":"5c74f0d525c76b0010706736","study_id":"6197b3f67c2b5cd3b6d9596a","session_id":"6197b9e8cd151cfc2b7bbd2a","condition":"full-information","relevant_dimensions":["antennae","pattern"],"bee_group":{"antennae":"A","wings":"X","pattern":"D","legs":"X"},"action":"avoid","summary":"good-avoid","bonus":1.4400000000000013},{"rt":1482.5,"stimulus":"\n                    <p><b>Action: <em>avoid</em></b></p>\n                    <p>This is the bee that you just saw.</p>\n                    <img src=\"bees-with-color/bee-A2DM.svg\" width=\"200\">\n                    <p><span class=\"greenText\">Good choice!</span>  This bee would have stung you.<br>Your bonus pay is unchanged, and remains at $0.54.</p>\n            ","response":0,"trial_type":"html-button-response","trial_index":60,"time_elapsed":262850,"internal_node_id":"0.0-4.0-1.26","subject_id":"5c74f0d525c76b0010706736","study_id":"6197b3f67c2b5cd3b6d9596a","session_id":"6197b9e8cd151cfc2b7bbd2a","condition":"full-information","relevant_dimensions":["antennae","pattern"],"bee_group":{"antennae":"A","wings":"X","pattern":"D","legs":"X"},"bonus":1.4400000000000013},{"rt":1872.7999999970198,"stimulus":"bees-with-color/bee-B1DF.svg","response":0,"trial_type":"image-button-response","trial_index":61,"time_elapsed":264724,"internal_node_id":"0.0-4.0-0.27","subject_id":"5c74f0d525c76b0010706736","study_id":"6197b3f67c2b5cd3b6d9596a","session_id":"6197b9e8cd151cfc2b7bbd2a","condition":"full-information","relevant_dimensions":["antennae","pattern"],"bee_group":{"antennae":"A","wings":"X","pattern":"D","legs":"X"},"action":"harvest","summary":"good-harvest","bonus":1.4400000000000013},{"rt":989.7000000029802,"stimulus":"\n                    <p><b>Action: <em>harvest</em></b></p>\n                    <p>This is the bee that you just saw.</p>\n                    <img src=\"bees-with-color/bee-B1DF.svg\" width=\"200\">\n                    <p><span class=\"greenText\"><b>Successful harvest!</b></span><br>Your pay has increased by $0.02. Your bonus pay is now $0.56.</p>\n            ","response":0,"trial_type":"html-button-response","trial_index":62,"time_elapsed":265715,"internal_node_id":"0.0-4.0-1.27","subject_id":"5c74f0d525c76b0010706736","study_id":"6197b3f67c2b5cd3b6d9596a","session_id":"6197b9e8cd151cfc2b7bbd2a","condition":"full-information","relevant_dimensions":["antennae","pattern"],"bee_group":{"antennae":"A","wings":"X","pattern":"D","legs":"X"},"bonus":1.4400000000000013},{"rt":1188.8999999910593,"stimulus":"bees-with-color/bee-A2SM.svg","response":0,"trial_type":"image-button-response","trial_index":63,"time_elapsed":266905,"internal_node_id":"0.0-4.0-0.28","subject_id":"5c74f0d525c76b0010706736","study_id":"6197b3f67c2b5cd3b6d9596a","session_id":"6197b9e8cd151cfc2b7bbd2a","condition":"full-information","relevant_dimensions":["antennae","pattern"],"bee_group":{"antennae":"A","wings":"X","pattern":"D","legs":"X"},"action":"harvest","summary":"good-harvest","bonus":1.4400000000000013},{"rt":731.6000000089407,"stimulus":"\n                    <p><b>Action: <em>harvest</em></b></p>\n                    <p>This is the bee that you just saw.</p>\n                    <img src=\"bees-with-color/bee-A2SM.svg\" width=\"200\">\n                    <p><span class=\"greenText\"><b>Successful harvest!</b></span><br>Your pay has increased by $0.02. Your bonus pay is now $0.58.</p>\n            ","response":0,"trial_type":"html-button-response","trial_index":64,"time_elapsed":267638,"internal_node_id":"0.0-4.0-1.28","subject_id":"5c74f0d525c76b0010706736","study_id":"6197b3f67c2b5cd3b6d9596a","session_id":"6197b9e8cd151cfc2b7bbd2a","condition":"full-information","relevant_dimensions":["antennae","pattern"],"bee_group":{"antennae":"A","wings":"X","pattern":"D","legs":"X"},"bonus":1.4400000000000013},{"rt":1100.7000000029802,"stimulus":"bees-with-color/bee-A1DF.svg","response":0,"trial_type":"image-button-response","trial_index":65,"time_elapsed":268740,"internal_node_id":"0.0-4.0-0.29","subject_id":"5c74f0d525c76b0010706736","study_id":"6197b3f67c2b5cd3b6d9596a","session_id":"6197b9e8cd151cfc2b7bbd2a","condition":"full-information","relevant_dimensions":["antennae","pattern"],"bee_group":{"antennae":"A","wings":"X","pattern":"D","legs":"X"},"action":"harvest","summary":"bad-harvest","bonus":1.4400000000000013},{"rt":5373.70000000298,"stimulus":"\n                    <p><b>Action: <em>harvest</em></b></p>\n                    <p>This is the bee that you just saw.</p>\n                    <img src=\"bees-with-color/bee-A1DF.svg\" width=\"200\">\n                    <p><span class=\"redText\">Bad choice, the bee was angry.</span><br><b>You have been stung!</b><br>Your pay has been decreased by $0.10. Your bonus pay is now $0.48.</p>\n            ","response":0,"trial_type":"html-button-response","trial_index":66,"time_elapsed":274115,"internal_node_id":"0.0-4.0-1.29","subject_id":"5c74f0d525c76b0010706736","study_id":"6197b3f67c2b5cd3b6d9596a","session_id":"6197b9e8cd151cfc2b7bbd2a","condition":"full-information","relevant_dimensions":["antennae","pattern"],"bee_group":{"antennae":"A","wings":"X","pattern":"D","legs":"X"},"bonus":1.4400000000000013},{"rt":1248.2999999970198,"stimulus":"bees-with-color/bee-A1SM.svg","response":0,"trial_type":"image-button-response","trial_index":67,"time_elapsed":275365,"internal_node_id":"0.0-4.0-0.30","subject_id":"5c74f0d525c76b0010706736","study_id":"6197b3f67c2b5cd3b6d9596a","session_id":"6197b9e8cd151cfc2b7bbd2a","condition":"full-information","relevant_dimensions":["antennae","pattern"],"bee_group":{"antennae":"A","wings":"X","pattern":"D","legs":"X"},"action":"harvest","summary":"good-harvest","bonus":1.4400000000000013},{"rt":788.6000000089407,"stimulus":"\n                    <p><b>Action: <em>harvest</em></b></p>\n                    <p>This is the bee that you just saw.</p>\n                    <img src=\"bees-with-color/bee-A1SM.svg\" width=\"200\">\n                    <p><span class=\"greenText\"><b>Successful harvest!</b></span><br>Your pay has increased by $0.02. Your bonus pay is now $0.50.</p>\n            ","response":0,"trial_type":"html-button-response","trial_index":68,"time_elapsed":276155,"internal_node_id":"0.0-4.0-1.30","subject_id":"5c74f0d525c76b0010706736","study_id":"6197b3f67c2b5cd3b6d9596a","session_id":"6197b9e8cd151cfc2b7bbd2a","condition":"full-information","relevant_dimensions":["antennae","pattern"],"bee_group":{"antennae":"A","wings":"X","pattern":"D","legs":"X"},"bonus":1.4400000000000013},{"rt":878.6000000089407,"stimulus":"bees-with-color/bee-A2SF.svg","response":0,"trial_type":"image-button-response","trial_index":69,"time_elapsed":277035,"internal_node_id":"0.0-4.0-0.31","subject_id":"5c74f0d525c76b0010706736","study_id":"6197b3f67c2b5cd3b6d9596a","session_id":"6197b9e8cd151cfc2b7bbd2a","condition":"full-information","relevant_dimensions":["antennae","pattern"],"bee_group":{"antennae":"A","wings":"X","pattern":"D","legs":"X"},"action":"harvest","summary":"good-harvest","bonus":1.4400000000000013},{"rt":833.6000000089407,"stimulus":"\n                    <p><b>Action: <em>harvest</em></b></p>\n                    <p>This is the bee that you just saw.</p>\n                    <img src=\"bees-with-color/bee-A2SF.svg\" width=\"200\">\n                    <p><span class=\"greenText\"><b>Successful harvest!</b></span><br>Your pay has increased by $0.02. Your bonus pay is now $0.52.</p>\n            ","response":0,"trial_type":"html-button-response","trial_index":70,"time_elapsed":277870,"internal_node_id":"0.0-4.0-1.31","subject_id":"5c74f0d525c76b0010706736","study_id":"6197b3f67c2b5cd3b6d9596a","session_id":"6197b9e8cd151cfc2b7bbd2a","condition":"full-information","relevant_dimensions":["antennae","pattern"],"bee_group":{"antennae":"A","wings":"X","pattern":"D","legs":"X"},"bonus":1.4400000000000013},{"rt":1105.7000000029802,"stimulus":"bees-with-color/bee-B2DF.svg","response":0,"trial_type":"image-button-response","trial_index":71,"time_elapsed":278977,"internal_node_id":"0.0-4.0-0.32","subject_id":"5c74f0d525c76b0010706736","study_id":"6197b3f67c2b5cd3b6d9596a","session_id":"6197b9e8cd151cfc2b7bbd2a","condition":"full-information","relevant_dimensions":["antennae","pattern"],"bee_group":{"antennae":"A","wings":"X","pattern":"D","legs":"X"},"action":"harvest","summary":"good-harvest","bonus":1.4400000000000013},{"rt":769.7999999970198,"stimulus":"\n                    <p><b>Action: <em>harvest</em></b></p>\n                    <p>This is the bee that you just saw.</p>\n                    <img src=\"bees-with-color/bee-B2DF.svg\" width=\"200\">\n                    <p><span class=\"greenText\"><b>Successful harvest!</b></span><br>Your pay has increased by $0.02. Your bonus pay is now $0.54.</p>\n            ","response":0,"trial_type":"html-button-response","trial_index":72,"time_elapsed":279748,"internal_node_id":"0.0-4.0-1.32","subject_id":"5c74f0d525c76b0010706736","study_id":"6197b3f67c2b5cd3b6d9596a","session_id":"6197b9e8cd151cfc2b7bbd2a","condition":"full-information","relevant_dimensions":["antennae","pattern"],"bee_group":{"antennae":"A","wings":"X","pattern":"D","legs":"X"},"bonus":1.4400000000000013},{"rt":895.7999999970198,"stimulus":"bees-with-color/bee-B2SF.svg","response":0,"trial_type":"image-button-response","trial_index":73,"time_elapsed":280645,"internal_node_id":"0.0-4.0-0.33","subject_id":"5c74f0d525c76b0010706736","study_id":"6197b3f67c2b5cd3b6d9596a","session_id":"6197b9e8cd151cfc2b7bbd2a","condition":"full-information","relevant_dimensions":["antennae","pattern"],"bee_group":{"antennae":"A","wings":"X","pattern":"D","legs":"X"},"action":"harvest","summary":"good-harvest","bonus":1.4400000000000013},{"rt":799.7999999970198,"stimulus":"\n                    <p><b>Action: <em>harvest</em></b></p>\n                    <p>This is the bee that you just saw.</p>\n                    <img src=\"bees-with-color/bee-B2SF.svg\" width=\"200\">\n                    <p><span class=\"greenText\"><b>Successful harvest!</b></span><br>Your pay has increased by $0.02. Your bonus pay is now $0.56.</p>\n            ","response":0,"trial_type":"html-button-response","trial_index":74,"time_elapsed":281446,"internal_node_id":"0.0-4.0-1.33","subject_id":"5c74f0d525c76b0010706736","study_id":"6197b3f67c2b5cd3b6d9596a","session_id":"6197b9e8cd151cfc2b7bbd2a","condition":"full-information","relevant_dimensions":["antennae","pattern"],"bee_group":{"antennae":"A","wings":"X","pattern":"D","legs":"X"},"bonus":1.4400000000000013},{"rt":1112.7999999970198,"stimulus":"bees-with-color/bee-B1DM.svg","response":1,"trial_type":"image-button-response","trial_index":75,"time_elapsed":282560,"internal_node_id":"0.0-4.0-0.34","subject_id":"5c74f0d525c76b0010706736","study_id":"6197b3f67c2b5cd3b6d9596a","session_id":"6197b9e8cd151cfc2b7bbd2a","condition":"full-information","relevant_dimensions":["antennae","pattern"],"bee_group":{"antennae":"A","wings":"X","pattern":"D","legs":"X"},"action":"avoid","summary":"bad-avoid","bonus":1.4400000000000013},{"rt":991.7999999970198,"stimulus":"\n                    <p><b>Action: <em>avoid</em></b></p>\n                    <p>This is the bee that you just saw.</p>\n                    <img src=\"bees-with-color/bee-B1DM.svg\" width=\"200\">\n                    <p><span class=\"redText\">Bad choice,</span> the bee was friendly.<br>Your bonus pay is unchanged, and remains at $0.56.</p>\n            ","response":0,"trial_type":"html-button-response","trial_index":76,"time_elapsed":283553,"internal_node_id":"0.0-4.0-1.34","subject_id":"5c74f0d525c76b0010706736","study_id":"6197b3f67c2b5cd3b6d9596a","session_id":"6197b9e8cd151cfc2b7bbd2a","condition":"full-information","relevant_dimensions":["antennae","pattern"],"bee_group":{"antennae":"A","wings":"X","pattern":"D","legs":"X"},"bonus":1.4400000000000013},{"rt":841.7999999970198,"stimulus":"bees-with-color/bee-B1SF.svg","response":0,"trial_type":"image-button-response","trial_index":77,"time_elapsed":284396,"internal_node_id":"0.0-4.0-0.35","subject_id":"5c74f0d525c76b0010706736","study_id":"6197b3f67c2b5cd3b6d9596a","session_id":"6197b9e8cd151cfc2b7bbd2a","condition":"full-information","relevant_dimensions":["antennae","pattern"],"bee_group":{"antennae":"A","wings":"X","pattern":"D","legs":"X"},"action":"harvest","summary":"good-harvest","bonus":1.4400000000000013},{"rt":736.7000000029802,"stimulus":"\n                    <p><b>Action: <em>harvest</em></b></p>\n                    <p>This is the bee that you just saw.</p>\n                    <img src=\"bees-with-color/bee-B1SF.svg\" width=\"200\">\n                    <p><span class=\"greenText\"><b>Successful harvest!</b></span><br>Your pay has increased by $0.02. Your bonus pay is now $0.58.</p>\n            ","response":0,"trial_type":"html-button-response","trial_index":78,"time_elapsed":285134,"internal_node_id":"0.0-4.0-1.35","subject_id":"5c74f0d525c76b0010706736","study_id":"6197b3f67c2b5cd3b6d9596a","session_id":"6197b9e8cd151cfc2b7bbd2a","condition":"full-information","relevant_dimensions":["antennae","pattern"],"bee_group":{"antennae":"A","wings":"X","pattern":"D","legs":"X"},"bonus":1.4400000000000013},{"rt":1347.7999999970198,"stimulus":"bees-with-color/bee-B2SM.svg","response":0,"trial_type":"image-button-response","trial_index":79,"time_elapsed":286483,"internal_node_id":"0.0-4.0-0.36","subject_id":"5c74f0d525c76b0010706736","study_id":"6197b3f67c2b5cd3b6d9596a","session_id":"6197b9e8cd151cfc2b7bbd2a","condition":"full-information","relevant_dimensions":["antennae","pattern"],"bee_group":{"antennae":"A","wings":"X","pattern":"D","legs":"X"},"action":"harvest","summary":"good-harvest","bonus":1.4400000000000013},{"rt":763.7000000029802,"stimulus":"\n                    <p><b>Action: <em>harvest</em></b></p>\n                    <p>This is the bee that you just saw.</p>\n                    <img src=\"bees-with-color/bee-B2SM.svg\" width=\"200\">\n                    <p><span class=\"greenText\"><b>Successful harvest!</b></span><br>Your pay has increased by $0.02. Your bonus pay is now $0.60.</p>\n            ","response":0,"trial_type":"html-button-response","trial_index":80,"time_elapsed":287248,"internal_node_id":"0.0-4.0-1.36","subject_id":"5c74f0d525c76b0010706736","study_id":"6197b3f67c2b5cd3b6d9596a","session_id":"6197b9e8cd151cfc2b7bbd2a","condition":"full-information","relevant_dimensions":["antennae","pattern"],"bee_group":{"antennae":"A","wings":"X","pattern":"D","legs":"X"},"bonus":1.4400000000000013},{"rt":1099.699999988079,"stimulus":"bees-with-color/bee-A1DM.svg","response":1,"trial_type":"image-button-response","trial_index":81,"time_elapsed":288349,"internal_node_id":"0.0-4.0-0.37","subject_id":"5c74f0d525c76b0010706736","study_id":"6197b3f67c2b5cd3b6d9596a","session_id":"6197b9e8cd151cfc2b7bbd2a","condition":"full-information","relevant_dimensions":["antennae","pattern"],"bee_group":{"antennae":"A","wings":"X","pattern":"D","legs":"X"},"action":"avoid","summary":"good-avoid","bonus":1.4400000000000013},{"rt":741.7000000029802,"stimulus":"\n                    <p><b>Action: <em>avoid</em></b></p>\n                    <p>This is the bee that you just saw.</p>\n                    <img src=\"bees-with-color/bee-A1DM.svg\" width=\"200\">\n                    <p><span class=\"greenText\">Good choice!</span>  This bee would have stung you.<br>Your bonus pay is unchanged, and remains at $0.60.</p>\n            ","response":0,"trial_type":"html-button-response","trial_index":82,"time_elapsed":289092,"internal_node_id":"0.0-4.0-1.37","subject_id":"5c74f0d525c76b0010706736","study_id":"6197b3f67c2b5cd3b6d9596a","session_id":"6197b9e8cd151cfc2b7bbd2a","condition":"full-information","relevant_dimensions":["antennae","pattern"],"bee_group":{"antennae":"A","wings":"X","pattern":"D","legs":"X"},"bonus":1.4400000000000013},{"rt":1635.9000000059605,"stimulus":"bees-with-color/bee-A2DM.svg","response":1,"trial_type":"image-button-response","trial_index":83,"time_elapsed":290729,"internal_node_id":"0.0-4.0-0.38","subject_id":"5c74f0d525c76b0010706736","study_id":"6197b3f67c2b5cd3b6d9596a","session_id":"6197b9e8cd151cfc2b7bbd2a","condition":"full-information","relevant_dimensions":["antennae","pattern"],"bee_group":{"antennae":"A","wings":"X","pattern":"D","legs":"X"},"action":"avoid","summary":"good-avoid","bonus":1.4400000000000013},{"rt":1176.7000000029802,"stimulus":"\n                    <p><b>Action: <em>avoid</em></b></p>\n                    <p>This is the bee that you just saw.</p>\n                    <img src=\"bees-with-color/bee-A2DM.svg\" width=\"200\">\n                    <p><span class=\"greenText\">Good choice!</span>  This bee would have stung you.<br>Your bonus pay is unchanged, and remains at $0.60.</p>\n            ","response":0,"trial_type":"html-button-response","trial_index":84,"time_elapsed":291907,"internal_node_id":"0.0-4.0-1.38","subject_id":"5c74f0d525c76b0010706736","study_id":"6197b3f67c2b5cd3b6d9596a","session_id":"6197b9e8cd151cfc2b7bbd2a","condition":"full-information","relevant_dimensions":["antennae","pattern"],"bee_group":{"antennae":"A","wings":"X","pattern":"D","legs":"X"},"bonus":1.4400000000000013},{"rt":925.6000000089407,"stimulus":"bees-with-color/bee-A2SF.svg","response":0,"trial_type":"image-button-response","trial_index":85,"time_elapsed":292834,"internal_node_id":"0.0-4.0-0.39","subject_id":"5c74f0d525c76b0010706736","study_id":"6197b3f67c2b5cd3b6d9596a","session_id":"6197b9e8cd151cfc2b7bbd2a","condition":"full-information","relevant_dimensions":["antennae","pattern"],"bee_group":{"antennae":"A","wings":"X","pattern":"D","legs":"X"},"action":"harvest","summary":"good-harvest","bonus":1.4400000000000013},{"rt":628.7000000029802,"stimulus":"\n                    <p><b>Action: <em>harvest</em></b></p>\n                    <p>This is the bee that you just saw.</p>\n                    <img src=\"bees-with-color/bee-A2SF.svg\" width=\"200\">\n                    <p><span class=\"greenText\"><b>Successful harvest!</b></span><br>Your pay has increased by $0.02. Your bonus pay is now $0.62.</p>\n            ","response":0,"trial_type":"html-button-response","trial_index":86,"time_elapsed":293464,"internal_node_id":"0.0-4.0-1.39","subject_id":"5c74f0d525c76b0010706736","study_id":"6197b3f67c2b5cd3b6d9596a","session_id":"6197b9e8cd151cfc2b7bbd2a","condition":"full-information","relevant_dimensions":["antennae","pattern"],"bee_group":{"antennae":"A","wings":"X","pattern":"D","legs":"X"},"bonus":1.4400000000000013},{"rt":726.7999999970198,"stimulus":"bees-with-color/bee-A1SF.svg","response":0,"trial_type":"image-button-response","trial_index":87,"time_elapsed":294192,"internal_node_id":"0.0-4.0-0.40","subject_id":"5c74f0d525c76b0010706736","study_id":"6197b3f67c2b5cd3b6d9596a","session_id":"6197b9e8cd151cfc2b7bbd2a","condition":"full-information","relevant_dimensions":["antennae","pattern"],"bee_group":{"antennae":"A","wings":"X","pattern":"D","legs":"X"},"action":"harvest","summary":"good-harvest","bonus":1.4400000000000013},{"rt":657.7000000029802,"stimulus":"\n                    <p><b>Action: <em>harvest</em></b></p>\n                    <p>This is the bee that you just saw.</p>\n                    <img src=\"bees-with-color/bee-A1SF.svg\" width=\"200\">\n                    <p><span class=\"greenText\"><b>Successful harvest!</b></span><br>Your pay has increased by $0.02. Your bonus pay is now $0.64.</p>\n            ","response":0,"trial_type":"html-button-response","trial_index":88,"time_elapsed":294851,"internal_node_id":"0.0-4.0-1.40","subject_id":"5c74f0d525c76b0010706736","study_id":"6197b3f67c2b5cd3b6d9596a","session_id":"6197b9e8cd151cfc2b7bbd2a","condition":"full-information","relevant_dimensions":["antennae","pattern"],"bee_group":{"antennae":"A","wings":"X","pattern":"D","legs":"X"},"bonus":1.4400000000000013},{"rt":1126.7999999970198,"stimulus":"bees-with-color/bee-B2DM.svg","response":1,"trial_type":"image-button-response","trial_index":89,"time_elapsed":295979,"internal_node_id":"0.0-4.0-0.41","subject_id":"5c74f0d525c76b0010706736","study_id":"6197b3f67c2b5cd3b6d9596a","session_id":"6197b9e8cd151cfc2b7bbd2a","condition":"full-information","relevant_dimensions":["antennae","pattern"],"bee_group":{"antennae":"A","wings":"X","pattern":"D","legs":"X"},"action":"avoid","summary":"bad-avoid","bonus":1.4400000000000013},{"rt":2200.6000000089407,"stimulus":"\n                    <p><b>Action: <em>avoid</em></b></p>\n                    <p>This is the bee that you just saw.</p>\n                    <img src=\"bees-with-color/bee-B2DM.svg\" width=\"200\">\n                    <p><span class=\"redText\">Bad choice,</span> the bee was friendly.<br>Your bonus pay is unchanged, and remains at $0.64.</p>\n            ","response":0,"trial_type":"html-button-response","trial_index":90,"time_elapsed":298181,"internal_node_id":"0.0-4.0-1.41","subject_id":"5c74f0d525c76b0010706736","study_id":"6197b3f67c2b5cd3b6d9596a","session_id":"6197b9e8cd151cfc2b7bbd2a","condition":"full-information","relevant_dimensions":["antennae","pattern"],"bee_group":{"antennae":"A","wings":"X","pattern":"D","legs":"X"},"bonus":1.4400000000000013},{"rt":1137.4000000059605,"stimulus":"bees-with-color/bee-A2DF.svg","response":1,"trial_type":"image-button-response","trial_index":91,"time_elapsed":299320,"internal_node_id":"0.0-4.0-0.42","subject_id":"5c74f0d525c76b0010706736","study_id":"6197b3f67c2b5cd3b6d9596a","session_id":"6197b9e8cd151cfc2b7bbd2a","condition":"full-information","relevant_dimensions":["antennae","pattern"],"bee_group":{"antennae":"A","wings":"X","pattern":"D","legs":"X"},"action":"avoid","summary":"good-avoid","bonus":1.4400000000000013},{"rt":1618.5,"stimulus":"\n                    <p><b>Action: <em>avoid</em></b></p>\n                    <p>This is the bee that you just saw.</p>\n                    <img src=\"bees-with-color/bee-A2DF.svg\" width=\"200\">\n                    <p><span class=\"greenText\">Good choice!</span>  This bee would have stung you.<br>Your bonus pay is unchanged, and remains at $0.64.</p>\n            ","response":0,"trial_type":"html-button-response","trial_index":92,"time_elapsed":300940,"internal_node_id":"0.0-4.0-1.42","subject_id":"5c74f0d525c76b0010706736","study_id":"6197b3f67c2b5cd3b6d9596a","session_id":"6197b9e8cd151cfc2b7bbd2a","condition":"full-information","relevant_dimensions":["antennae","pattern"],"bee_group":{"antennae":"A","wings":"X","pattern":"D","legs":"X"},"bonus":1.4400000000000013},{"rt":854.7999999970198,"stimulus":"bees-with-color/bee-B1SM.svg","response":0,"trial_type":"image-button-response","trial_index":93,"time_elapsed":301796,"internal_node_id":"0.0-4.0-0.43","subject_id":"5c74f0d525c76b0010706736","study_id":"6197b3f67c2b5cd3b6d9596a","session_id":"6197b9e8cd151cfc2b7bbd2a","condition":"full-information","relevant_dimensions":["antennae","pattern"],"bee_group":{"antennae":"A","wings":"X","pattern":"D","legs":"X"},"action":"harvest","summary":"good-harvest","bonus":1.4400000000000013},{"rt":620.6000000089407,"stimulus":"\n                    <p><b>Action: <em>harvest</em></b></p>\n                    <p>This is the bee that you just saw.</p>\n                    <img src=\"bees-with-color/bee-B1SM.svg\" width=\"200\">\n                    <p><span class=\"greenText\"><b>Successful harvest!</b></span><br>Your pay has increased by $0.02. Your bonus pay is now $0.66.</p>\n            ","response":0,"trial_type":"html-button-response","trial_index":94,"time_elapsed":302418,"internal_node_id":"0.0-4.0-1.43","subject_id":"5c74f0d525c76b0010706736","study_id":"6197b3f67c2b5cd3b6d9596a","session_id":"6197b9e8cd151cfc2b7bbd2a","condition":"full-information","relevant_dimensions":["antennae","pattern"],"bee_group":{"antennae":"A","wings":"X","pattern":"D","legs":"X"},"bonus":1.4400000000000013},{"rt":811.7000000029802,"stimulus":"bees-with-color/bee-A2SM.svg","response":0,"trial_type":"image-button-response","trial_index":95,"time_elapsed":303231,"internal_node_id":"0.0-4.0-0.44","subject_id":"5c74f0d525c76b0010706736","study_id":"6197b3f67c2b5cd3b6d9596a","session_id":"6197b9e8cd151cfc2b7bbd2a","condition":"full-information","relevant_dimensions":["antennae","pattern"],"bee_group":{"antennae":"A","wings":"X","pattern":"D","legs":"X"},"action":"harvest","summary":"good-harvest","bonus":1.4400000000000013},{"rt":643.3999999910593,"stimulus":"\n                    <p><b>Action: <em>harvest</em></b></p>\n                    <p>This is the bee that you just saw.</p>\n                    <img src=\"bees-with-color/bee-A2SM.svg\" width=\"200\">\n                    <p><span class=\"greenText\"><b>Successful harvest!</b></span><br>Your pay has increased by $0.02. Your bonus pay is now $0.68.</p>\n            ","response":0,"trial_type":"html-button-response","trial_index":96,"time_elapsed":303876,"internal_node_id":"0.0-4.0-1.44","subject_id":"5c74f0d525c76b0010706736","study_id":"6197b3f67c2b5cd3b6d9596a","session_id":"6197b9e8cd151cfc2b7bbd2a","condition":"full-information","relevant_dimensions":["antennae","pattern"],"bee_group":{"antennae":"A","wings":"X","pattern":"D","legs":"X"},"bonus":1.4400000000000013},{"rt":1063.7999999970198,"stimulus":"bees-with-color/bee-B1DF.svg","response":0,"trial_type":"image-button-response","trial_index":97,"time_elapsed":304941,"internal_node_id":"0.0-4.0-0.45","subject_id":"5c74f0d525c76b0010706736","study_id":"6197b3f67c2b5cd3b6d9596a","session_id":"6197b9e8cd151cfc2b7bbd2a","condition":"full-information","relevant_dimensions":["antennae","pattern"],"bee_group":{"antennae":"A","wings":"X","pattern":"D","legs":"X"},"action":"harvest","summary":"good-harvest","bonus":1.4400000000000013},{"rt":627.5,"stimulus":"\n                    <p><b>Action: <em>harvest</em></b></p>\n                    <p>This is the bee that you just saw.</p>\n                    <img src=\"bees-with-color/bee-B1DF.svg\" width=\"200\">\n                    <p><span class=\"greenText\"><b>Successful harvest!</b></span><br>Your pay has increased by $0.02. Your bonus pay is now $0.70.</p>\n            ","response":0,"trial_type":"html-button-response","trial_index":98,"time_elapsed":305570,"internal_node_id":"0.0-4.0-1.45","subject_id":"5c74f0d525c76b0010706736","study_id":"6197b3f67c2b5cd3b6d9596a","session_id":"6197b9e8cd151cfc2b7bbd2a","condition":"full-information","relevant_dimensions":["antennae","pattern"],"bee_group":{"antennae":"A","wings":"X","pattern":"D","legs":"X"},"bonus":1.4400000000000013},{"rt":924.6000000089407,"stimulus":"bees-with-color/bee-A1SM.svg","response":0,"trial_type":"image-button-response","trial_index":99,"time_elapsed":306496,"internal_node_id":"0.0-4.0-0.46","subject_id":"5c74f0d525c76b0010706736","study_id":"6197b3f67c2b5cd3b6d9596a","session_id":"6197b9e8cd151cfc2b7bbd2a","condition":"full-information","relevant_dimensions":["antennae","pattern"],"bee_group":{"antennae":"A","wings":"X","pattern":"D","legs":"X"},"action":"harvest","summary":"good-harvest","bonus":1.4400000000000013},{"rt":818.6000000089407,"stimulus":"\n                    <p><b>Action: <em>harvest</em></b></p>\n                    <p>This is the bee that you just saw.</p>\n                    <img src=\"bees-with-color/bee-A1SM.svg\" width=\"200\">\n                    <p><span class=\"greenText\"><b>Successful harvest!</b></span><br>Your pay has increased by $0.02. Your bonus pay is now $0.72.</p>\n            ","response":0,"trial_type":"html-button-response","trial_index":100,"time_elapsed":307316,"internal_node_id":"0.0-4.0-1.46","subject_id":"5c74f0d525c76b0010706736","study_id":"6197b3f67c2b5cd3b6d9596a","session_id":"6197b9e8cd151cfc2b7bbd2a","condition":"full-information","relevant_dimensions":["antennae","pattern"],"bee_group":{"antennae":"A","wings":"X","pattern":"D","legs":"X"},"bonus":1.4400000000000013},{"rt":1489.7000000029802,"stimulus":"bees-with-color/bee-A1DF.svg","response":1,"trial_type":"image-button-response","trial_index":101,"time_elapsed":308807,"internal_node_id":"0.0-4.0-0.47","subject_id":"5c74f0d525c76b0010706736","study_id":"6197b3f67c2b5cd3b6d9596a","session_id":"6197b9e8cd151cfc2b7bbd2a","condition":"full-information","relevant_dimensions":["antennae","pattern"],"bee_group":{"antennae":"A","wings":"X","pattern":"D","legs":"X"},"action":"avoid","summary":"good-avoid","bonus":1.4400000000000013},{"rt":880.5,"stimulus":"\n                    <p><b>Action: <em>avoid</em></b></p>\n                    <p>This is the bee that you just saw.</p>\n                    <img src=\"bees-with-color/bee-A1DF.svg\" width=\"200\">\n                    <p><span class=\"greenText\">Good choice!</span>  This bee would have stung you.<br>Your bonus pay is unchanged, and remains at $0.72.</p>\n            ","response":0,"trial_type":"html-button-response","trial_index":102,"time_elapsed":309689,"internal_node_id":"0.0-4.0-1.47","subject_id":"5c74f0d525c76b0010706736","study_id":"6197b3f67c2b5cd3b6d9596a","session_id":"6197b9e8cd151cfc2b7bbd2a","condition":"full-information","relevant_dimensions":["antennae","pattern"],"bee_group":{"antennae":"A","wings":"X","pattern":"D","legs":"X"},"bonus":1.4400000000000013},{"rt":1442,"stimulus":"bees-with-color/bee-A2DF.svg","response":1,"trial_type":"image-button-response","trial_index":103,"time_elapsed":311132,"internal_node_id":"0.0-4.0-0.48","subject_id":"5c74f0d525c76b0010706736","study_id":"6197b3f67c2b5cd3b6d9596a","session_id":"6197b9e8cd151cfc2b7bbd2a","condition":"full-information","relevant_dimensions":["antennae","pattern"],"bee_group":{"antennae":"A","wings":"X","pattern":"D","legs":"X"},"action":"avoid","summary":"good-avoid","bonus":1.4400000000000013},{"rt":1124.7000000029802,"stimulus":"\n                    <p><b>Action: <em>avoid</em></b></p>\n                    <p>This is the bee that you just saw.</p>\n                    <img src=\"bees-with-color/bee-A2DF.svg\" width=\"200\">\n                    <p><span class=\"greenText\">Good choice!</span>  This bee would have stung you.<br>Your bonus pay is unchanged, and remains at $0.72.</p>\n            ","response":0,"trial_type":"html-button-response","trial_index":104,"time_elapsed":312258,"internal_node_id":"0.0-4.0-1.48","subject_id":"5c74f0d525c76b0010706736","study_id":"6197b3f67c2b5cd3b6d9596a","session_id":"6197b9e8cd151cfc2b7bbd2a","condition":"full-information","relevant_dimensions":["antennae","pattern"],"bee_group":{"antennae":"A","wings":"X","pattern":"D","legs":"X"},"bonus":1.4400000000000013},{"rt":1084.6000000089407,"stimulus":"bees-with-color/bee-A1SM.svg","response":0,"trial_type":"image-button-response","trial_index":105,"time_elapsed":313344,"internal_node_id":"0.0-4.0-0.49","subject_id":"5c74f0d525c76b0010706736","study_id":"6197b3f67c2b5cd3b6d9596a","session_id":"6197b9e8cd151cfc2b7bbd2a","condition":"full-information","relevant_dimensions":["antennae","pattern"],"bee_group":{"antennae":"A","wings":"X","pattern":"D","legs":"X"},"action":"harvest","summary":"good-harvest","bonus":1.4400000000000013},{"rt":871.9000000059605,"stimulus":"\n                    <p><b>Action: <em>harvest</em></b></p>\n                    <p>This is the bee that you just saw.</p>\n                    <img src=\"bees-with-color/bee-A1SM.svg\" width=\"200\">\n                    <p><span class=\"greenText\"><b>Successful harvest!</b></span><br>Your pay has increased by $0.02. Your bonus pay is now $0.74.</p>\n            ","response":0,"trial_type":"html-button-response","trial_index":106,"time_elapsed":314217,"internal_node_id":"0.0-4.0-1.49","subject_id":"5c74f0d525c76b0010706736","study_id":"6197b3f67c2b5cd3b6d9596a","session_id":"6197b9e8cd151cfc2b7bbd2a","condition":"full-information","relevant_dimensions":["antennae","pattern"],"bee_group":{"antennae":"A","wings":"X","pattern":"D","legs":"X"},"bonus":1.4400000000000013},{"rt":922.7999999970198,"stimulus":"bees-with-color/bee-A1SF.svg","response":0,"trial_type":"image-button-response","trial_index":107,"time_elapsed":315141,"internal_node_id":"0.0-4.0-0.50","subject_id":"5c74f0d525c76b0010706736","study_id":"6197b3f67c2b5cd3b6d9596a","session_id":"6197b9e8cd151cfc2b7bbd2a","condition":"full-information","relevant_dimensions":["antennae","pattern"],"bee_group":{"antennae":"A","wings":"X","pattern":"D","legs":"X"},"action":"harvest","summary":"good-harvest","bonus":1.4400000000000013},{"rt":861.6999999880791,"stimulus":"\n                    <p><b>Action: <em>harvest</em></b></p>\n                    <p>This is the bee that you just saw.</p>\n                    <img src=\"bees-with-color/bee-A1SF.svg\" width=\"200\">\n                    <p><span class=\"greenText\"><b>Successful harvest!</b></span><br>Your pay has increased by $0.02. Your bonus pay is now $0.76.</p>\n            ","response":0,"trial_type":"html-button-response","trial_index":108,"time_elapsed":316004,"internal_node_id":"0.0-4.0-1.50","subject_id":"5c74f0d525c76b0010706736","study_id":"6197b3f67c2b5cd3b6d9596a","session_id":"6197b9e8cd151cfc2b7bbd2a","condition":"full-information","relevant_dimensions":["antennae","pattern"],"bee_group":{"antennae":"A","wings":"X","pattern":"D","legs":"X"},"bonus":1.4400000000000013},{"rt":1050.9000000059605,"stimulus":"bees-with-color/bee-A2SF.svg","response":0,"trial_type":"image-button-response","trial_index":109,"time_elapsed":317056,"internal_node_id":"0.0-4.0-0.51","subject_id":"5c74f0d525c76b0010706736","study_id":"6197b3f67c2b5cd3b6d9596a","session_id":"6197b9e8cd151cfc2b7bbd2a","condition":"full-information","relevant_dimensions":["antennae","pattern"],"bee_group":{"antennae":"A","wings":"X","pattern":"D","legs":"X"},"action":"harvest","summary":"good-harvest","bonus":1.4400000000000013},{"rt":843.7000000029802,"stimulus":"\n                    <p><b>Action: <em>harvest</em></b></p>\n                    <p>This is the bee that you just saw.</p>\n                    <img src=\"bees-with-color/bee-A2SF.svg\" width=\"200\">\n                    <p><span class=\"greenText\"><b>Successful harvest!</b></span><br>Your pay has increased by $0.02. Your bonus pay is now $0.78.</p>\n            ","response":0,"trial_type":"html-button-response","trial_index":110,"time_elapsed":317901,"internal_node_id":"0.0-4.0-1.51","subject_id":"5c74f0d525c76b0010706736","study_id":"6197b3f67c2b5cd3b6d9596a","session_id":"6197b9e8cd151cfc2b7bbd2a","condition":"full-information","relevant_dimensions":["antennae","pattern"],"bee_group":{"antennae":"A","wings":"X","pattern":"D","legs":"X"},"bonus":1.4400000000000013},{"rt":1425.9000000059605,"stimulus":"bees-with-color/bee-B1DF.svg","response":0,"trial_type":"image-button-response","trial_index":111,"time_elapsed":319328,"internal_node_id":"0.0-4.0-0.52","subject_id":"5c74f0d525c76b0010706736","study_id":"6197b3f67c2b5cd3b6d9596a","session_id":"6197b9e8cd151cfc2b7bbd2a","condition":"full-information","relevant_dimensions":["antennae","pattern"],"bee_group":{"antennae":"A","wings":"X","pattern":"D","legs":"X"},"action":"harvest","summary":"good-harvest","bonus":1.4400000000000013},{"rt":773.7000000029802,"stimulus":"\n                    <p><b>Action: <em>harvest</em></b></p>\n                    <p>This is the bee that you just saw.</p>\n                    <img src=\"bees-with-color/bee-B1DF.svg\" width=\"200\">\n                    <p><span class=\"greenText\"><b>Successful harvest!</b></span><br>Your pay has increased by $0.02. Your bonus pay is now $0.80.</p>\n            ","response":0,"trial_type":"html-button-response","trial_index":112,"time_elapsed":320103,"internal_node_id":"0.0-4.0-1.52","subject_id":"5c74f0d525c76b0010706736","study_id":"6197b3f67c2b5cd3b6d9596a","session_id":"6197b9e8cd151cfc2b7bbd2a","condition":"full-information","relevant_dimensions":["antennae","pattern"],"bee_group":{"antennae":"A","wings":"X","pattern":"D","legs":"X"},"bonus":1.4400000000000013},{"rt":1365.6000000089407,"stimulus":"bees-with-color/bee-B1SM.svg","response":0,"trial_type":"image-button-response","trial_index":113,"time_elapsed":321470,"internal_node_id":"0.0-4.0-0.53","subject_id":"5c74f0d525c76b0010706736","study_id":"6197b3f67c2b5cd3b6d9596a","session_id":"6197b9e8cd151cfc2b7bbd2a","condition":"full-information","relevant_dimensions":["antennae","pattern"],"bee_group":{"antennae":"A","wings":"X","pattern":"D","legs":"X"},"action":"harvest","summary":"good-harvest","bonus":1.4400000000000013},{"rt":988.7000000029802,"stimulus":"\n                    <p><b>Action: <em>harvest</em></b></p>\n                    <p>This is the bee that you just saw.</p>\n                    <img src=\"bees-with-color/bee-B1SM.svg\" width=\"200\">\n                    <p><span class=\"greenText\"><b>Successful harvest!</b></span><br>Your pay has increased by $0.02. Your bonus pay is now $0.82.</p>\n            ","response":0,"trial_type":"html-button-response","trial_index":114,"time_elapsed":322460,"internal_node_id":"0.0-4.0-1.53","subject_id":"5c74f0d525c76b0010706736","study_id":"6197b3f67c2b5cd3b6d9596a","session_id":"6197b9e8cd151cfc2b7bbd2a","condition":"full-information","relevant_dimensions":["antennae","pattern"],"bee_group":{"antennae":"A","wings":"X","pattern":"D","legs":"X"},"bonus":1.4400000000000013},{"rt":999.7999999970198,"stimulus":"bees-with-color/bee-A2DM.svg","response":1,"trial_type":"image-button-response","trial_index":115,"time_elapsed":323461,"internal_node_id":"0.0-4.0-0.54","subject_id":"5c74f0d525c76b0010706736","study_id":"6197b3f67c2b5cd3b6d9596a","session_id":"6197b9e8cd151cfc2b7bbd2a","condition":"full-information","relevant_dimensions":["antennae","pattern"],"bee_group":{"antennae":"A","wings":"X","pattern":"D","legs":"X"},"action":"avoid","summary":"good-avoid","bonus":1.4400000000000013},{"rt":1293.5,"stimulus":"\n                    <p><b>Action: <em>avoid</em></b></p>\n                    <p>This is the bee that you just saw.</p>\n                    <img src=\"bees-with-color/bee-A2DM.svg\" width=\"200\">\n                    <p><span class=\"greenText\">Good choice!</span>  This bee would have stung you.<br>Your bonus pay is unchanged, and remains at $0.82.</p>\n            ","response":0,"trial_type":"html-button-response","trial_index":116,"time_elapsed":324756,"internal_node_id":"0.0-4.0-1.54","subject_id":"5c74f0d525c76b0010706736","study_id":"6197b3f67c2b5cd3b6d9596a","session_id":"6197b9e8cd151cfc2b7bbd2a","condition":"full-information","relevant_dimensions":["antennae","pattern"],"bee_group":{"antennae":"A","wings":"X","pattern":"D","legs":"X"},"bonus":1.4400000000000013},{"rt":712.7999999970198,"stimulus":"bees-with-color/bee-A2SM.svg","response":0,"trial_type":"image-button-response","trial_index":117,"time_elapsed":325470,"internal_node_id":"0.0-4.0-0.55","subject_id":"5c74f0d525c76b0010706736","study_id":"6197b3f67c2b5cd3b6d9596a","session_id":"6197b9e8cd151cfc2b7bbd2a","condition":"full-information","relevant_dimensions":["antennae","pattern"],"bee_group":{"antennae":"A","wings":"X","pattern":"D","legs":"X"},"action":"harvest","summary":"good-harvest","bonus":1.4400000000000013},{"rt":656.5,"stimulus":"\n                    <p><b>Action: <em>harvest</em></b></p>\n                    <p>This is the bee that you just saw.</p>\n                    <img src=\"bees-with-color/bee-A2SM.svg\" width=\"200\">\n                    <p><span class=\"greenText\"><b>Successful harvest!</b></span><br>Your pay has increased by $0.02. Your bonus pay is now $0.84.</p>\n            ","response":0,"trial_type":"html-button-response","trial_index":118,"time_elapsed":326128,"internal_node_id":"0.0-4.0-1.55","subject_id":"5c74f0d525c76b0010706736","study_id":"6197b3f67c2b5cd3b6d9596a","session_id":"6197b9e8cd151cfc2b7bbd2a","condition":"full-information","relevant_dimensions":["antennae","pattern"],"bee_group":{"antennae":"A","wings":"X","pattern":"D","legs":"X"},"bonus":1.4400000000000013},{"rt":1100.699999988079,"stimulus":"bees-with-color/bee-A1DF.svg","response":1,"trial_type":"image-button-response","trial_index":119,"time_elapsed":327230,"internal_node_id":"0.0-4.0-0.56","subject_id":"5c74f0d525c76b0010706736","study_id":"6197b3f67c2b5cd3b6d9596a","session_id":"6197b9e8cd151cfc2b7bbd2a","condition":"full-information","relevant_dimensions":["antennae","pattern"],"bee_group":{"antennae":"A","wings":"X","pattern":"D","legs":"X"},"action":"avoid","summary":"good-avoid","bonus":1.4400000000000013},{"rt":674.7000000029802,"stimulus":"\n                    <p><b>Action: <em>avoid</em></b></p>\n                    <p>This is the bee that you just saw.</p>\n                    <img src=\"bees-with-color/bee-A1DF.svg\" width=\"200\">\n                    <p><span class=\"greenText\">Good choice!</span>  This bee would have stung you.<br>Your bonus pay is unchanged, and remains at $0.84.</p>\n            ","response":0,"trial_type":"html-button-response","trial_index":120,"time_elapsed":327906,"internal_node_id":"0.0-4.0-1.56","subject_id":"5c74f0d525c76b0010706736","study_id":"6197b3f67c2b5cd3b6d9596a","session_id":"6197b9e8cd151cfc2b7bbd2a","condition":"full-information","relevant_dimensions":["antennae","pattern"],"bee_group":{"antennae":"A","wings":"X","pattern":"D","legs":"X"},"bonus":1.4400000000000013},{"rt":1341.699999988079,"stimulus":"bees-with-color/bee-A1DM.svg","response":1,"trial_type":"image-button-response","trial_index":121,"time_elapsed":329249,"internal_node_id":"0.0-4.0-0.57","subject_id":"5c74f0d525c76b0010706736","study_id":"6197b3f67c2b5cd3b6d9596a","session_id":"6197b9e8cd151cfc2b7bbd2a","condition":"full-information","relevant_dimensions":["antennae","pattern"],"bee_group":{"antennae":"A","wings":"X","pattern":"D","legs":"X"},"action":"avoid","summary":"good-avoid","bonus":1.4400000000000013},{"rt":811.5999999940395,"stimulus":"\n                    <p><b>Action: <em>avoid</em></b></p>\n                    <p>This is the bee that you just saw.</p>\n                    <img src=\"bees-with-color/bee-A1DM.svg\" width=\"200\">\n                    <p><span class=\"greenText\">Good choice!</span>  This bee would have stung you.<br>Your bonus pay is unchanged, and remains at $0.84.</p>\n            ","response":0,"trial_type":"html-button-response","trial_index":122,"time_elapsed":330062,"internal_node_id":"0.0-4.0-1.57","subject_id":"5c74f0d525c76b0010706736","study_id":"6197b3f67c2b5cd3b6d9596a","session_id":"6197b9e8cd151cfc2b7bbd2a","condition":"full-information","relevant_dimensions":["antennae","pattern"],"bee_group":{"antennae":"A","wings":"X","pattern":"D","legs":"X"},"bonus":1.4400000000000013},{"rt":732.5,"stimulus":"bees-with-color/bee-B2SM.svg","response":0,"trial_type":"image-button-response","trial_index":123,"time_elapsed":330796,"internal_node_id":"0.0-4.0-0.58","subject_id":"5c74f0d525c76b0010706736","study_id":"6197b3f67c2b5cd3b6d9596a","session_id":"6197b9e8cd151cfc2b7bbd2a","condition":"full-information","relevant_dimensions":["antennae","pattern"],"bee_group":{"antennae":"A","wings":"X","pattern":"D","legs":"X"},"action":"harvest","summary":"good-harvest","bonus":1.4400000000000013},{"rt":814.6000000089407,"stimulus":"\n                    <p><b>Action: <em>harvest</em></b></p>\n                    <p>This is the bee that you just saw.</p>\n                    <img src=\"bees-with-color/bee-B2SM.svg\" width=\"200\">\n                    <p><span class=\"greenText\"><b>Successful harvest!</b></span><br>Your pay has increased by $0.02. Your bonus pay is now $0.86.</p>\n            ","response":0,"trial_type":"html-button-response","trial_index":124,"time_elapsed":331612,"internal_node_id":"0.0-4.0-1.58","subject_id":"5c74f0d525c76b0010706736","study_id":"6197b3f67c2b5cd3b6d9596a","session_id":"6197b9e8cd151cfc2b7bbd2a","condition":"full-information","relevant_dimensions":["antennae","pattern"],"bee_group":{"antennae":"A","wings":"X","pattern":"D","legs":"X"},"bonus":1.4400000000000013},{"rt":1092.7000000029802,"stimulus":"bees-with-color/bee-B2DF.svg","response":0,"trial_type":"image-button-response","trial_index":125,"time_elapsed":332706,"internal_node_id":"0.0-4.0-0.59","subject_id":"5c74f0d525c76b0010706736","study_id":"6197b3f67c2b5cd3b6d9596a","session_id":"6197b9e8cd151cfc2b7bbd2a","condition":"full-information","relevant_dimensions":["antennae","pattern"],"bee_group":{"antennae":"A","wings":"X","pattern":"D","legs":"X"},"action":"harvest","summary":"good-harvest","bonus":1.4400000000000013},{"rt":566.6000000089407,"stimulus":"\n                    <p><b>Action: <em>harvest</em></b></p>\n                    <p>This is the bee that you just saw.</p>\n                    <img src=\"bees-with-color/bee-B2DF.svg\" width=\"200\">\n                    <p><span class=\"greenText\"><b>Successful harvest!</b></span><br>Your pay has increased by $0.02. Your bonus pay is now $0.88.</p>\n            ","response":0,"trial_type":"html-button-response","trial_index":126,"time_elapsed":333274,"internal_node_id":"0.0-4.0-1.59","subject_id":"5c74f0d525c76b0010706736","study_id":"6197b3f67c2b5cd3b6d9596a","session_id":"6197b9e8cd151cfc2b7bbd2a","condition":"full-information","relevant_dimensions":["antennae","pattern"],"bee_group":{"antennae":"A","wings":"X","pattern":"D","legs":"X"},"bonus":1.4400000000000013},{"rt":845.7999999970198,"stimulus":"bees-with-color/bee-B2DM.svg","response":0,"trial_type":"image-button-response","trial_index":127,"time_elapsed":334121,"internal_node_id":"0.0-4.0-0.60","subject_id":"5c74f0d525c76b0010706736","study_id":"6197b3f67c2b5cd3b6d9596a","session_id":"6197b9e8cd151cfc2b7bbd2a","condition":"full-information","relevant_dimensions":["antennae","pattern"],"bee_group":{"antennae":"A","wings":"X","pattern":"D","legs":"X"},"action":"harvest","summary":"good-harvest","bonus":1.4400000000000013},{"rt":537.3999999910593,"stimulus":"\n                    <p><b>Action: <em>harvest</em></b></p>\n                    <p>This is the bee that you just saw.</p>\n                    <img src=\"bees-with-color/bee-B2DM.svg\" width=\"200\">\n                    <p><span class=\"greenText\"><b>Successful harvest!</b></span><br>Your pay has increased by $0.02. Your bonus pay is now $0.90.</p>\n            ","response":0,"trial_type":"html-button-response","trial_index":128,"time_elapsed":334660,"internal_node_id":"0.0-4.0-1.60","subject_id":"5c74f0d525c76b0010706736","study_id":"6197b3f67c2b5cd3b6d9596a","session_id":"6197b9e8cd151cfc2b7bbd2a","condition":"full-information","relevant_dimensions":["antennae","pattern"],"bee_group":{"antennae":"A","wings":"X","pattern":"D","legs":"X"},"bonus":1.4400000000000013},{"rt":806.7999999970198,"stimulus":"bees-with-color/bee-B1SF.svg","response":0,"trial_type":"image-button-response","trial_index":129,"time_elapsed":335468,"internal_node_id":"0.0-4.0-0.61","subject_id":"5c74f0d525c76b0010706736","study_id":"6197b3f67c2b5cd3b6d9596a","session_id":"6197b9e8cd151cfc2b7bbd2a","condition":"full-information","relevant_dimensions":["antennae","pattern"],"bee_group":{"antennae":"A","wings":"X","pattern":"D","legs":"X"},"action":"harvest","summary":"good-harvest","bonus":1.4400000000000013},{"rt":522.5,"stimulus":"\n                    <p><b>Action: <em>harvest</em></b></p>\n                    <p>This is the bee that you just saw.</p>\n                    <img src=\"bees-with-color/bee-B1SF.svg\" width=\"200\">\n                    <p><span class=\"greenText\"><b>Successful harvest!</b></span><br>Your pay has increased by $0.02. Your bonus pay is now $0.92.</p>\n            ","response":0,"trial_type":"html-button-response","trial_index":130,"time_elapsed":335992,"internal_node_id":"0.0-4.0-1.61","subject_id":"5c74f0d525c76b0010706736","study_id":"6197b3f67c2b5cd3b6d9596a","session_id":"6197b9e8cd151cfc2b7bbd2a","condition":"full-information","relevant_dimensions":["antennae","pattern"],"bee_group":{"antennae":"A","wings":"X","pattern":"D","legs":"X"},"bonus":1.4400000000000013},{"rt":821.7000000029802,"stimulus":"bees-with-color/bee-B1DM.svg","response":0,"trial_type":"image-button-response","trial_index":131,"time_elapsed":336815,"internal_node_id":"0.0-4.0-0.62","subject_id":"5c74f0d525c76b0010706736","study_id":"6197b3f67c2b5cd3b6d9596a","session_id":"6197b9e8cd151cfc2b7bbd2a","condition":"full-information","relevant_dimensions":["antennae","pattern"],"bee_group":{"antennae":"A","wings":"X","pattern":"D","legs":"X"},"action":"harvest","summary":"good-harvest","bonus":1.4400000000000013},{"rt":515.3999999910593,"stimulus":"\n                    <p><b>Action: <em>harvest</em></b></p>\n                    <p>This is the bee that you just saw.</p>\n                    <img src=\"bees-with-color/bee-B1DM.svg\" width=\"200\">\n                    <p><span class=\"greenText\"><b>Successful harvest!</b></span><br>Your pay has increased by $0.02. Your bonus pay is now $0.94.</p>\n            ","response":0,"trial_type":"html-button-response","trial_index":132,"time_elapsed":337332,"internal_node_id":"0.0-4.0-1.62","subject_id":"5c74f0d525c76b0010706736","study_id":"6197b3f67c2b5cd3b6d9596a","session_id":"6197b9e8cd151cfc2b7bbd2a","condition":"full-information","relevant_dimensions":["antennae","pattern"],"bee_group":{"antennae":"A","wings":"X","pattern":"D","legs":"X"},"bonus":1.4400000000000013},{"rt":762.9000000059605,"stimulus":"bees-with-color/bee-B2SF.svg","response":0,"trial_type":"image-button-response","trial_index":133,"time_elapsed":338096,"internal_node_id":"0.0-4.0-0.63","subject_id":"5c74f0d525c76b0010706736","study_id":"6197b3f67c2b5cd3b6d9596a","session_id":"6197b9e8cd151cfc2b7bbd2a","condition":"full-information","relevant_dimensions":["antennae","pattern"],"bee_group":{"antennae":"A","wings":"X","pattern":"D","legs":"X"},"action":"harvest","summary":"good-harvest","bonus":1.4400000000000013},{"rt":631.8999999910593,"stimulus":"\n                    <p><b>Action: <em>harvest</em></b></p>\n                    <p>This is the bee that you just saw.</p>\n                    <img src=\"bees-with-color/bee-B2SF.svg\" width=\"200\">\n                    <p><span class=\"greenText\"><b>Successful harvest!</b></span><br>Your pay has increased by $0.02. Your bonus pay is now $0.96.</p>\n            ","response":0,"trial_type":"html-button-response","trial_index":134,"time_elapsed":338729,"internal_node_id":"0.0-4.0-1.63","subject_id":"5c74f0d525c76b0010706736","study_id":"6197b3f67c2b5cd3b6d9596a","session_id":"6197b9e8cd151cfc2b7bbd2a","condition":"full-information","relevant_dimensions":["antennae","pattern"],"bee_group":{"antennae":"A","wings":"X","pattern":"D","legs":"X"},"bonus":1.4400000000000013},{"rt":6523.70000000298,"stimulus":"You have completed the first part of this experiment.<br><br>You will now begin a shorter second part, in which you will receive no feedback.<br>The same rules regarding bonus pay apply.<br><br>Press any key to begin.","response":" ","trial_type":"html-keyboard-response","trial_index":135,"time_elapsed":345254,"internal_node_id":"0.0-5.0","subject_id":"5c74f0d525c76b0010706736","study_id":"6197b3f67c2b5cd3b6d9596a","session_id":"6197b9e8cd151cfc2b7bbd2a","condition":"full-information","relevant_dimensions":["antennae","pattern"],"bee_group":{"antennae":"A","wings":"X","pattern":"D","legs":"X"},"bonus":1.4400000000000013},{"rt":1482.699999988079,"stimulus":"bees-with-color/bee-A2DF.svg","response":1,"trial_type":"image-button-response","trial_index":136,"time_elapsed":346741,"internal_node_id":"0.0-6.0-0.0","subject_id":"5c74f0d525c76b0010706736","study_id":"6197b3f67c2b5cd3b6d9596a","session_id":"6197b9e8cd151cfc2b7bbd2a","condition":"full-information","relevant_dimensions":["antennae","pattern"],"bee_group":{"antennae":"A","wings":"X","pattern":"D","legs":"X"},"bonus":1.4400000000000013},{"rt":2078.2000000029802,"stimulus":"bees-with-color/bee-B2DF.svg","response":0,"trial_type":"image-button-response","trial_index":137,"time_elapsed":348823,"internal_node_id":"0.0-6.0-0.1","subject_id":"5c74f0d525c76b0010706736","study_id":"6197b3f67c2b5cd3b6d9596a","session_id":"6197b9e8cd151cfc2b7bbd2a","condition":"full-information","relevant_dimensions":["antennae","pattern"],"bee_group":{"antennae":"A","wings":"X","pattern":"D","legs":"X"},"bonus":1.4400000000000013},{"rt":691.3999999910593,"stimulus":"bees-with-color/bee-B2SF.svg","response":0,"trial_type":"image-button-response","trial_index":138,"time_elapsed":349518,"internal_node_id":"0.0-6.0-0.2","subject_id":"5c74f0d525c76b0010706736","study_id":"6197b3f67c2b5cd3b6d9596a","session_id":"6197b9e8cd151cfc2b7bbd2a","condition":"full-information","relevant_dimensions":["antennae","pattern"],"bee_group":{"antennae":"A","wings":"X","pattern":"D","legs":"X"},"bonus":1.4400000000000013},{"rt":2984.699999988079,"stimulus":"bees-with-color/bee-A2SF.svg","response":0,"trial_type":"image-button-response","trial_index":139,"time_elapsed":352506,"internal_node_id":"0.0-6.0-0.3","subject_id":"5c74f0d525c76b0010706736","study_id":"6197b3f67c2b5cd3b6d9596a","session_id":"6197b9e8cd151cfc2b7bbd2a","condition":"full-information","relevant_dimensions":["antennae","pattern"],"bee_group":{"antennae":"A","wings":"X","pattern":"D","legs":"X"},"bonus":1.4400000000000013},{"rt":764.2999999970198,"stimulus":"bees-with-color/bee-B2DM.svg","response":0,"trial_type":"image-button-response","trial_index":140,"time_elapsed":353274,"internal_node_id":"0.0-6.0-0.4","subject_id":"5c74f0d525c76b0010706736","study_id":"6197b3f67c2b5cd3b6d9596a","session_id":"6197b9e8cd151cfc2b7bbd2a","condition":"full-information","relevant_dimensions":["antennae","pattern"],"bee_group":{"antennae":"A","wings":"X","pattern":"D","legs":"X"},"bonus":1.4400000000000013},{"rt":808.5,"stimulus":"bees-with-color/bee-A1DM.svg","response":1,"trial_type":"image-button-response","trial_index":141,"time_elapsed":354086,"internal_node_id":"0.0-6.0-0.5","subject_id":"5c74f0d525c76b0010706736","study_id":"6197b3f67c2b5cd3b6d9596a","session_id":"6197b9e8cd151cfc2b7bbd2a","condition":"full-information","relevant_dimensions":["antennae","pattern"],"bee_group":{"antennae":"A","wings":"X","pattern":"D","legs":"X"},"bonus":1.4400000000000013},{"rt":568.5,"stimulus":"bees-with-color/bee-B1SF.svg","response":0,"trial_type":"image-button-response","trial_index":142,"time_elapsed":354658,"internal_node_id":"0.0-6.0-0.6","subject_id":"5c74f0d525c76b0010706736","study_id":"6197b3f67c2b5cd3b6d9596a","session_id":"6197b9e8cd151cfc2b7bbd2a","condition":"full-information","relevant_dimensions":["antennae","pattern"],"bee_group":{"antennae":"A","wings":"X","pattern":"D","legs":"X"},"bonus":1.4400000000000013},{"rt":404.29999999701977,"stimulus":"bees-with-color/bee-A1SF.svg","response":0,"trial_type":"image-button-response","trial_index":143,"time_elapsed":355066,"internal_node_id":"0.0-6.0-0.7","subject_id":"5c74f0d525c76b0010706736","study_id":"6197b3f67c2b5cd3b6d9596a","session_id":"6197b9e8cd151cfc2b7bbd2a","condition":"full-information","relevant_dimensions":["antennae","pattern"],"bee_group":{"antennae":"A","wings":"X","pattern":"D","legs":"X"},"bonus":1.4400000000000013},{"rt":529.3999999910593,"stimulus":"bees-with-color/bee-A2SM.svg","response":0,"trial_type":"image-button-response","trial_index":144,"time_elapsed":355599,"internal_node_id":"0.0-6.0-0.8","subject_id":"5c74f0d525c76b0010706736","study_id":"6197b3f67c2b5cd3b6d9596a","session_id":"6197b9e8cd151cfc2b7bbd2a","condition":"full-information","relevant_dimensions":["antennae","pattern"],"bee_group":{"antennae":"A","wings":"X","pattern":"D","legs":"X"},"bonus":1.4400000000000013},{"rt":836.1999999880791,"stimulus":"bees-with-color/bee-A2DM.svg","response":1,"trial_type":"image-button-response","trial_index":145,"time_elapsed":356439,"internal_node_id":"0.0-6.0-0.9","subject_id":"5c74f0d525c76b0010706736","study_id":"6197b3f67c2b5cd3b6d9596a","session_id":"6197b9e8cd151cfc2b7bbd2a","condition":"full-information","relevant_dimensions":["antennae","pattern"],"bee_group":{"antennae":"A","wings":"X","pattern":"D","legs":"X"},"bonus":1.4400000000000013},{"rt":570.8999999910593,"stimulus":"bees-with-color/bee-A1SM.svg","response":0,"trial_type":"image-button-response","trial_index":146,"time_elapsed":357014,"internal_node_id":"0.0-6.0-0.10","subject_id":"5c74f0d525c76b0010706736","study_id":"6197b3f67c2b5cd3b6d9596a","session_id":"6197b9e8cd151cfc2b7bbd2a","condition":"full-information","relevant_dimensions":["antennae","pattern"],"bee_group":{"antennae":"A","wings":"X","pattern":"D","legs":"X"},"bonus":1.4400000000000013},{"rt":878.2999999970198,"stimulus":"bees-with-color/bee-A1DF.svg","response":1,"trial_type":"image-button-response","trial_index":147,"time_elapsed":357896,"internal_node_id":"0.0-6.0-0.11","subject_id":"5c74f0d525c76b0010706736","study_id":"6197b3f67c2b5cd3b6d9596a","session_id":"6197b9e8cd151cfc2b7bbd2a","condition":"full-information","relevant_dimensions":["antennae","pattern"],"bee_group":{"antennae":"A","wings":"X","pattern":"D","legs":"X"},"bonus":1.4400000000000013},{"rt":559.5,"stimulus":"bees-with-color/bee-B2SM.svg","response":0,"trial_type":"image-button-response","trial_index":148,"time_elapsed":358459,"internal_node_id":"0.0-6.0-0.12","subject_id":"5c74f0d525c76b0010706736","study_id":"6197b3f67c2b5cd3b6d9596a","session_id":"6197b9e8cd151cfc2b7bbd2a","condition":"full-information","relevant_dimensions":["antennae","pattern"],"bee_group":{"antennae":"A","wings":"X","pattern":"D","legs":"X"},"bonus":1.4400000000000013},{"rt":395.09999999403954,"stimulus":"bees-with-color/bee-B1SM.svg","response":0,"trial_type":"image-button-response","trial_index":149,"time_elapsed":358858,"internal_node_id":"0.0-6.0-0.13","subject_id":"5c74f0d525c76b0010706736","study_id":"6197b3f67c2b5cd3b6d9596a","session_id":"6197b9e8cd151cfc2b7bbd2a","condition":"full-information","relevant_dimensions":["antennae","pattern"],"bee_group":{"antennae":"A","wings":"X","pattern":"D","legs":"X"},"bonus":1.4400000000000013},{"rt":838.0999999940395,"stimulus":"bees-with-color/bee-B1DF.svg","response":0,"trial_type":"image-button-response","trial_index":150,"time_elapsed":359700,"internal_node_id":"0.0-6.0-0.14","subject_id":"5c74f0d525c76b0010706736","study_id":"6197b3f67c2b5cd3b6d9596a","session_id":"6197b9e8cd151cfc2b7bbd2a","condition":"full-information","relevant_dimensions":["antennae","pattern"],"bee_group":{"antennae":"A","wings":"X","pattern":"D","legs":"X"},"bonus":1.4400000000000013},{"rt":601.5999999940395,"stimulus":"bees-with-color/bee-B1DM.svg","response":0,"trial_type":"image-button-response","trial_index":151,"time_elapsed":360305,"internal_node_id":"0.0-6.0-0.15","subject_id":"5c74f0d525c76b0010706736","study_id":"6197b3f67c2b5cd3b6d9596a","session_id":"6197b9e8cd151cfc2b7bbd2a","condition":"full-information","relevant_dimensions":["antennae","pattern"],"bee_group":{"antennae":"A","wings":"X","pattern":"D","legs":"X"},"bonus":1.4400000000000013},{"rt":596.5999999940395,"stimulus":"bees-with-color/bee-B2DM.svg","response":0,"trial_type":"image-button-response","trial_index":152,"time_elapsed":360905,"internal_node_id":"0.0-6.0-0.16","subject_id":"5c74f0d525c76b0010706736","study_id":"6197b3f67c2b5cd3b6d9596a","session_id":"6197b9e8cd151cfc2b7bbd2a","condition":"full-information","relevant_dimensions":["antennae","pattern"],"bee_group":{"antennae":"A","wings":"X","pattern":"D","legs":"X"},"bonus":1.4400000000000013},{"rt":738.7999999970198,"stimulus":"bees-with-color/bee-A1DM.svg","response":1,"trial_type":"image-button-response","trial_index":153,"time_elapsed":361647,"internal_node_id":"0.0-6.0-0.17","subject_id":"5c74f0d525c76b0010706736","study_id":"6197b3f67c2b5cd3b6d9596a","session_id":"6197b9e8cd151cfc2b7bbd2a","condition":"full-information","relevant_dimensions":["antennae","pattern"],"bee_group":{"antennae":"A","wings":"X","pattern":"D","legs":"X"},"bonus":1.4400000000000013},{"rt":619.7000000029802,"stimulus":"bees-with-color/bee-A1SM.svg","response":0,"trial_type":"image-button-response","trial_index":154,"time_elapsed":362270,"internal_node_id":"0.0-6.0-0.18","subject_id":"5c74f0d525c76b0010706736","study_id":"6197b3f67c2b5cd3b6d9596a","session_id":"6197b9e8cd151cfc2b7bbd2a","condition":"full-information","relevant_dimensions":["antennae","pattern"],"bee_group":{"antennae":"A","wings":"X","pattern":"D","legs":"X"},"bonus":1.4400000000000013},{"rt":777.8999999910593,"stimulus":"bees-with-color/bee-A2DM.svg","response":1,"trial_type":"image-button-response","trial_index":155,"time_elapsed":363051,"internal_node_id":"0.0-6.0-0.19","subject_id":"5c74f0d525c76b0010706736","study_id":"6197b3f67c2b5cd3b6d9596a","session_id":"6197b9e8cd151cfc2b7bbd2a","condition":"full-information","relevant_dimensions":["antennae","pattern"],"bee_group":{"antennae":"A","wings":"X","pattern":"D","legs":"X"},"bonus":1.4400000000000013},{"rt":791.6999999880791,"stimulus":"bees-with-color/bee-B1DF.svg","response":0,"trial_type":"image-button-response","trial_index":156,"time_elapsed":363846,"internal_node_id":