[{"success":true,"trial_type":"fullscreen","trial_index":0,"time_elapsed":4666,"internal_node_id":"0.0-0.0","subject_id":"5f77754ba932fb2c4ba181d8","study_id":"60edd13110225f80f9f3709b","session_id":"6196c704ac5958609aceda3b","condition":"contingent","relevant_dimensions":["wings","legs"],"bee_group":{"antennae":"X","wings":"1","pattern":"X","legs":"F"},"bonus":0.8600000000000012},{"success":true,"timeout":false,"failed_images":[],"failed_audio":[],"failed_video":[],"trial_type":"preload","trial_index":1,"time_elapsed":6287,"internal_node_id":"0.0-1.0","subject_id":"5f77754ba932fb2c4ba181d8","study_id":"60edd13110225f80f9f3709b","session_id":"6196c704ac5958609aceda3b","condition":"contingent","relevant_dimensions":["wings","legs"],"bee_group":{"antennae":"X","wings":"1","pattern":"X","legs":"F"},"bonus":0.8600000000000012},{"rt":1347,"stimulus":"Welcome! Press any key to begin.","response":"arrowright","trial_type":"html-keyboard-response","trial_index":2,"time_elapsed":7634,"internal_node_id":"0.0-2.0","subject_id":"5f77754ba932fb2c4ba181d8","study_id":"60edd13110225f80f9f3709b","session_id":"6196c704ac5958609aceda3b","condition":"contingent","relevant_dimensions":["wings","legs"],"bee_group":{"antennae":"X","wings":"1","pattern":"X","legs":"F"},"bonus":0.8600000000000012},{"view_history":[{"page_index":0,"viewing_time":3708},{"page_index":1,"viewing_time":16981},{"page_index":2,"viewing_time":7328},{"page_index":3,"viewing_time":990},{"page_index":2,"viewing_time":2257},{"page_index":3,"viewing_time":12963},{"page_index":4,"viewing_time":4882},{"page_index":5,"viewing_time":14114},{"page_index":6,"viewing_time":12668},{"page_index":7,"viewing_time":4587},{"page_index":8,"viewing_time":3316},{"page_index":9,"viewing_time":1431},{"page_index":10,"viewing_time":4951},{"page_index":11,"viewing_time":22122},{"page_index":10,"viewing_time":2122},{"page_index":9,"viewing_time":553},{"page_index":8,"viewing_time":438},{"page_index":7,"viewing_time":13544},{"page_index":8,"viewing_time":12040},{"page_index":9,"viewing_time":14827},{"page_index":10,"viewing_time":8122},{"page_index":11,"viewing_time":2355},{"page_index":12,"viewing_time":5834},{"page_index":13,"viewing_time":925},{"page_index":14,"viewing_time":1580}],"rt":174638,"trial_type":"instructions","trial_index":3,"time_elapsed":182273,"internal_node_id":"0.0-3.0-0.0","subject_id":"5f77754ba932fb2c4ba181d8","study_id":"60edd13110225f80f9f3709b","session_id":"6196c704ac5958609aceda3b","condition":"contingent","relevant_dimensions":["wings","legs"],"bee_group":{"antennae":"X","wings":"1","pattern":"X","legs":"F"},"bonus":0.8600000000000012},{"rt":10228,"response":{"Q0":["Two or six legs","Stripes or spots on body","Single or double wings","Antennae or no antennae"]},"question_order":[0],"trial_type":"survey-multi-select","trial_index":4,"time_elapsed":192505,"internal_node_id":"0.0-3.0-1.0","subject_id":"5f77754ba932fb2c4ba181d8","study_id":"60edd13110225f80f9f3709b","session_id":"6196c704ac5958609aceda3b","condition":"contingent","relevant_dimensions":["wings","legs"],"bee_group":{"antennae":"X","wings":"1","pattern":"X","legs":"F"},"correct":true,"bonus":0.8600000000000012},{"rt":14614,"response":{"Q1":"No.","Q2":"Based on the four features of the bee.","Q3":"You do not learn if it was friendly or dangerous, and do not alter your bonus."},"question_order":[0,1,2],"trial_type":"survey-multi-choice","trial_index":5,"time_elapsed":207119,"internal_node_id":"0.0-3.0-2.0","subject_id":"5f77754ba932fb2c4ba181d8","study_id":"60edd13110225f80f9f3709b","session_id":"6196c704ac5958609aceda3b","condition":"contingent","relevant_dimensions":["wings","legs"],"bee_group":{"antennae":"X","wings":"1","pattern":"X","legs":"F"},"correct":true,"bonus":0.8600000000000012},{"rt":1967,"stimulus":"<p>Congrats, you got everything right<br>When you're ready, click the button below to continue to the experiment.</p>","response":0,"trial_type":"html-button-response","trial_index":6,"time_elapsed":209088,"internal_node_id":"0.0-3.0-3.0","subject_id":"5f77754ba932fb2c4ba181d8","study_id":"60edd13110225f80f9f3709b","session_id":"6196c704ac5958609aceda3b","condition":"contingent","relevant_dimensions":["wings","legs"],"bee_group":{"antennae":"X","wings":"1","pattern":"X","legs":"F"},"bonus":0.8600000000000012},{"rt":36100,"stimulus":"bees-with-color/bee-A1DM.svg","response":0,"trial_type":"image-button-response","trial_index":7,"time_elapsed":245190,"internal_node_id":"0.0-4.0-0.0","subject_id":"5f77754ba932fb2c4ba181d8","study_id":"60edd13110225f80f9f3709b","session_id":"6196c704ac5958609aceda3b","condition":"contingent","relevant_dimensions":["wings","legs"],"bee_group":{"antennae":"X","wings":"1","pattern":"X","legs":"F"},"action":"harvest","summary":"good-harvest","bonus":0.8600000000000012},{"rt":6263,"stimulus":"\n                    <p><b>Action: <em>harvest</em></b></p>\n                    <p>This is the bee that you just saw.</p>\n                    <img src=\"bees-with-color/bee-A1DM.svg\" width=\"200\">\n                    <p><span class=\"greenText\"><b>Successful harvest!</b></span><br>Your pay has increased by $0.02. Your bonus pay is now $0.56.</p>\n            ","response":0,"trial_type":"html-button-response","trial_index":8,"time_elapsed":251467,"internal_node_id":"0.0-4.0-1.0","subject_id":"5f77754ba932fb2c4ba181d8","study_id":"60edd13110225f80f9f3709b","session_id":"6196c704ac5958609aceda3b","condition":"contingent","relevant_dimensions":["wings","legs"],"bee_group":{"antennae":"X","wings":"1","pattern":"X","legs":"F"},"bonus":0.8600000000000012},{"rt":18936,"stimulus":"bees-with-color/bee-A1SF.svg","response":0,"trial_type":"image-button-response","trial_index":9,"time_elapsed":270403,"internal_node_id":"0.0-4.0-0.1","subject_id":"5f77754ba932fb2c4ba181d8","study_id":"60edd13110225f80f9f3709b","session_id":"6196c704ac5958609aceda3b","condition":"contingent","relevant_dimensions":["wings","legs"],"bee_group":{"antennae":"X","wings":"1","pattern":"X","legs":"F"},"action":"harvest","summary":"bad-harvest","bonus":0.8600000000000012},{"rt":5598,"stimulus":"\n                    <p><b>Action: <em>harvest</em></b></p>\n                    <p>This is the bee that you just saw.</p>\n                    <img src=\"bees-with-color/bee-A1SF.svg\" width=\"200\">\n                    <p><span class=\"redText\">Bad choice, the bee was angry.</span><br><b>You have been stung!</b><br>Your pay has been decreased by $0.10. Your bonus pay is now $0.46.</p>\n            ","response":0,"trial_type":"html-button-response","trial_index":10,"time_elapsed":276004,"internal_node_id":"0.0-4.0-1.1","subject_id":"5f77754ba932fb2c4ba181d8","study_id":"60edd13110225f80f9f3709b","session_id":"6196c704ac5958609aceda3b","condition":"contingent","relevant_dimensions":["wings","legs"],"bee_group":{"antennae":"X","wings":"1","pattern":"X","legs":"F"},"bonus":0.8600000000000012},{"rt":27237,"stimulus":"bees-with-color/bee-B1DM.svg","response":0,"trial_type":"image-button-response","trial_index":11,"time_elapsed":303242,"internal_node_id":"0.0-4.0-0.2","subject_id":"5f77754ba932fb2c4ba181d8","study_id":"60edd13110225f80f9f3709b","session_id":"6196c704ac5958609aceda3b","condition":"contingent","relevant_dimensions":["wings","legs"],"bee_group":{"antennae":"X","wings":"1","pattern":"X","legs":"F"},"action":"harvest","summary":"good-harvest","bonus":0.8600000000000012},{"rt":3892,"stimulus":"\n                    <p><b>Action: <em>harvest</em></b></p>\n                    <p>This is the bee that you just saw.</p>\n                    <img src=\"bees-with-color/bee-B1DM.svg\" width=\"200\">\n                    <p><span class=\"greenText\"><b>Successful harvest!</b></span><br>Your pay has increased by $0.02. Your bonus pay is now $0.48.</p>\n            ","response":0,"trial_type":"html-button-response","trial_index":12,"time_elapsed":307137,"internal_node_id":"0.0-4.0-1.2","subject_id":"5f77754ba932fb2c4ba181d8","study_id":"60edd13110225f80f9f3709b","session_id":"6196c704ac5958609aceda3b","condition":"contingent","relevant_dimensions":["wings","legs"],"bee_group":{"antennae":"X","wings":"1","pattern":"X","legs":"F"},"bonus":0.8600000000000012},{"rt":12647,"stimulus":"bees-with-color/bee-A2DF.svg","response":0,"trial_type":"image-button-response","trial_index":13,"time_elapsed":319785,"internal_node_id":"0.0-4.0-0.3","subject_id":"5f77754ba932fb2c4ba181d8","study_id":"60edd13110225f80f9f3709b","session_id":"6196c704ac5958609aceda3b","condition":"contingent","relevant_dimensions":["wings","legs"],"bee_group":{"antennae":"X","wings":"1","pattern":"X","legs":"F"},"action":"harvest","summary":"good-harvest","bonus":0.8600000000000012},{"rt":4980,"stimulus":"\n                    <p><b>Action: <em>harvest</em></b></p>\n                    <p>This is the bee that you just saw.</p>\n                    <img src=\"bees-with-color/bee-A2DF.svg\" width=\"200\">\n                    <p><span class=\"greenText\"><b>Successful harvest!</b></span><br>Your pay has increased by $0.02. Your bonus pay is now $0.50.</p>\n            ","response":0,"trial_type":"html-button-response","trial_index":14,"time_elapsed":324766,"internal_node_id":"0.0-4.0-1.3","subject_id":"5f77754ba932fb2c4ba181d8","study_id":"60edd13110225f80f9f3709b","session_id":"6196c704ac5958609aceda3b","condition":"contingent","relevant_dimensions":["wings","legs"],"bee_group":{"antennae":"X","wings":"1","pattern":"X","legs":"F"},"bonus":0.8600000000000012},{"rt":17134,"stimulus":"bees-with-color/bee-B2SM.svg","response":0,"trial_type":"image-button-response","trial_index":15,"time_elapsed":341902,"internal_node_id":"0.0-4.0-0.4","subject_id":"5f77754ba932fb2c4ba181d8","study_id":"60edd13110225f80f9f3709b","session_id":"6196c704ac5958609aceda3b","condition":"contingent","relevant_dimensions":["wings","legs"],"bee_group":{"antennae":"X","wings":"1","pattern":"X","legs":"F"},"action":"harvest","summary":"good-harvest","bonus":0.8600000000000012},{"rt":3239,"stimulus":"\n                    <p><b>Action: <em>harvest</em></b></p>\n                    <p>This is the bee that you just saw.</p>\n                    <img src=\"bees-with-color/bee-B2SM.svg\" width=\"200\">\n                    <p><span class=\"greenText\"><b>Successful harvest!</b></span><br>Your pay has increased by $0.02. Your bonus pay is now $0.52.</p>\n            ","response":0,"trial_type":"html-button-response","trial_index":16,"time_elapsed":345141,"internal_node_id":"0.0-4.0-1.4","subject_id":"5f77754ba932fb2c4ba181d8","study_id":"60edd13110225f80f9f3709b","session_id":"6196c704ac5958609aceda3b","condition":"contingent","relevant_dimensions":["wings","legs"],"bee_group":{"antennae":"X","wings":"1","pattern":"X","legs":"F"},"bonus":0.8600000000000012},{"rt":19575,"stimulus":"bees-with-color/bee-B2SF.svg","response":0,"trial_type":"image-button-response","trial_index":17,"time_elapsed":364719,"internal_node_id":"0.0-4.0-0.5","subject_id":"5f77754ba932fb2c4ba181d8","study_id":"60edd13110225f80f9f3709b","session_id":"6196c704ac5958609aceda3b","condition":"contingent","relevant_dimensions":["wings","legs"],"bee_group":{"antennae":"X","wings":"1","pattern":"X","legs":"F"},"action":"harvest","summary":"good-harvest","bonus":0.8600000000000012},{"rt":4847,"stimulus":"\n                    <p><b>Action: <em>harvest</em></b></p>\n                    <p>This is the bee that you just saw.</p>\n                    <img src=\"bees-with-color/bee-B2SF.svg\" width=\"200\">\n                    <p><span class=\"greenText\"><b>Successful harvest!</b></span><br>Your pay has increased by $0.02. Your bonus pay is now $0.54.</p>\n            ","response":0,"trial_type":"html-button-response","trial_index":18,"time_elapsed":369567,"internal_node_id":"0.0-4.0-1.5","subject_id":"5f77754ba932fb2c4ba181d8","study_id":"60edd13110225f80f9f3709b","session_id":"6196c704ac5958609aceda3b","condition":"contingent","relevant_dimensions":["wings","legs"],"bee_group":{"antennae":"X","wings":"1","pattern":"X","legs":"F"},"bonus":0.8600000000000012},{"rt":12461,"stimulus":"bees-with-color/bee-B1DF.svg","response":0,"trial_type":"image-button-response","trial_index":19,"time_elapsed":382030,"internal_node_id":"0.0-4.0-0.6","subject_id":"5f77754ba932fb2c4ba181d8","study_id":"60edd13110225f80f9f3709b","session_id":"6196c704ac5958609aceda3b","condition":"contingent","relevant_dimensions":["wings","legs"],"bee_group":{"antennae":"X","wings":"1","pattern":"X","legs":"F"},"action":"harvest","summary":"bad-harvest","bonus":0.8600000000000012},{"rt":2930,"stimulus":"\n                    <p><b>Action: <em>harvest</em></b></p>\n                    <p>This is the bee that you just saw.</p>\n                    <img src=\"bees-with-color/bee-B1DF.svg\" width=\"200\">\n                    <p><span class=\"redText\">Bad choice, the bee was angry.</span><br><b>You have been stung!</b><br>Your pay has been decreased by $0.10. Your bonus pay is now $0.44.</p>\n            ","response":0,"trial_type":"html-button-response","trial_index":20,"time_elapsed":384962,"internal_node_id":"0.0-4.0-1.6","subject_id":"5f77754ba932fb2c4ba181d8","study_id":"60edd13110225f80f9f3709b","session_id":"6196c704ac5958609aceda3b","condition":"contingent","relevant_dimensions":["wings","legs"],"bee_group":{"antennae":"X","wings":"1","pattern":"X","legs":"F"},"bonus":0.8600000000000012},{"rt":23260,"stimulus":"bees-with-color/bee-A2SF.svg","response":0,"trial_type":"image-button-response","trial_index":21,"time_elapsed":408222,"internal_node_id":"0.0-4.0-0.7","subject_id":"5f77754ba932fb2c4ba181d8","study_id":"60edd13110225f80f9f3709b","session_id":"6196c704ac5958609aceda3b","condition":"contingent","relevant_dimensions":["wings","legs"],"bee_group":{"antennae":"X","wings":"1","pattern":"X","legs":"F"},"action":"harvest","summary":"good-harvest","bonus":0.8600000000000012},{"rt":5025,"stimulus":"\n                    <p><b>Action: <em>harvest</em></b></p>\n                    <p>This is the bee that you just saw.</p>\n                    <img src=\"bees-with-color/bee-A2SF.svg\" width=\"200\">\n                    <p><span class=\"greenText\"><b>Successful harvest!</b></span><br>Your pay has increased by $0.02. Your bonus pay is now $0.46.</p>\n            ","response":0,"trial_type":"html-button-response","trial_index":22,"time_elapsed":413249,"internal_node_id":"0.0-4.0-1.7","subject_id":"5f77754ba932fb2c4ba181d8","study_id":"60edd13110225f80f9f3709b","session_id":"6196c704ac5958609aceda3b","condition":"contingent","relevant_dimensions":["wings","legs"],"bee_group":{"antennae":"X","wings":"1","pattern":"X","legs":"F"},"bonus":0.8600000000000012},{"rt":29103,"stimulus":"bees-with-color/bee-B1SM.svg","response":0,"trial_type":"image-button-response","trial_index":23,"time_elapsed":442354,"internal_node_id":"0.0-4.0-0.8","subject_id":"5f77754ba932fb2c4ba181d8","study_id":"60edd13110225f80f9f3709b","session_id":"6196c704ac5958609aceda3b","condition":"contingent","relevant_dimensions":["wings","legs"],"bee_group":{"antennae":"X","wings":"1","pattern":"X","legs":"F"},"action":"harvest","summary":"good-harvest","bonus":0.8600000000000012},{"rt":2333,"stimulus":"\n                    <p><b>Action: <em>harvest</em></b></p>\n                    <p>This is the bee that you just saw.</p>\n                    <img src=\"bees-with-color/bee-B1SM.svg\" width=\"200\">\n                    <p><span class=\"greenText\"><b>Successful harvest!</b></span><br>Your pay has increased by $0.02. Your bonus pay is now $0.48.</p>\n            ","response":0,"trial_type":"html-button-response","trial_index":24,"time_elapsed":444688,"internal_node_id":"0.0-4.0-1.8","subject_id":"5f77754ba932fb2c4ba181d8","study_id":"60edd13110225f80f9f3709b","session_id":"6196c704ac5958609aceda3b","condition":"contingent","relevant_dimensions":["wings","legs"],"bee_group":{"antennae":"X","wings":"1","pattern":"X","legs":"F"},"bonus":0.8600000000000012},{"rt":35707,"stimulus":"bees-with-color/bee-B1SF.svg","response":0,"trial_type":"image-button-response","trial_index":25,"time_elapsed":480397,"internal_node_id":"0.0-4.0-0.9","subject_id":"5f77754ba932fb2c4ba181d8","study_id":"60edd13110225f80f9f3709b","session_id":"6196c704ac5958609aceda3b","condition":"contingent","relevant_dimensions":["wings","legs"],"bee_group":{"antennae":"X","wings":"1","pattern":"X","legs":"F"},"action":"harvest","summary":"bad-harvest","bonus":0.8600000000000012},{"rt":2713,"stimulus":"\n                    <p><b>Action: <em>harvest</em></b></p>\n                    <p>This is the bee that you just saw.</p>\n                    <img src=\"bees-with-color/bee-B1SF.svg\" width=\"200\">\n                    <p><span class=\"redText\">Bad choice, the bee was angry.</span><br><b>You have been stung!</b><br>Your pay has been decreased by $0.10. Your bonus pay is now $0.38.</p>\n            ","response":0,"trial_type":"html-button-response","trial_index":26,"time_elapsed":483112,"internal_node_id":"0.0-4.0-1.9","subject_id":"5f77754ba932fb2c4ba181d8","study_id":"60edd13110225f80f9f3709b","session_id":"6196c704ac5958609aceda3b","condition":"contingent","relevant_dimensions":["wings","legs"],"bee_group":{"antennae":"X","wings":"1","pattern":"X","legs":"F"},"bonus":0.8600000000000012},{"rt":33268,"stimulus":"bees-with-color/bee-A1SM.svg","response":0,"trial_type":"image-button-response","trial_index":27,"time_elapsed":516381,"internal_node_id":"0.0-4.0-0.10","subject_id":"5f77754ba932fb2c4ba181d8","study_id":"60edd13110225f80f9f3709b","session_id":"6196c704ac5958609aceda3b","condition":"contingent","relevant_dimensions":["wings","legs"],"bee_group":{"antennae":"X","wings":"1","pattern":"X","legs":"F"},"action":"harvest","summary":"good-harvest","bonus":0.8600000000000012},{"rt":2832,"stimulus":"\n                    <p><b>Action: <em>harvest</em></b></p>\n                    <p>This is the bee that you just saw.</p>\n                    <img src=\"bees-with-color/bee-A1SM.svg\" width=\"200\">\n                    <p><span class=\"greenText\"><b>Successful harvest!</b></span><br>Your pay has increased by $0.02. Your bonus pay is now $0.40.</p>\n            ","response":0,"trial_type":"html-button-response","trial_index":28,"time_elapsed":519215,"internal_node_id":"0.0-4.0-1.10","subject_id":"5f77754ba932fb2c4ba181d8","study_id":"60edd13110225f80f9f3709b","session_id":"6196c704ac5958609aceda3b","condition":"contingent","relevant_dimensions":["wings","legs"],"bee_group":{"antennae":"X","wings":"1","pattern":"X","legs":"F"},"bonus":0.8600000000000012},{"rt":46929,"stimulus":"bees-with-color/bee-A2SM.svg","response":0,"trial_type":"image-button-response","trial_index":29,"time_elapsed":566145,"internal_node_id":"0.0-4.0-0.11","subject_id":"5f77754ba932fb2c4ba181d8","study_id":"60edd13110225f80f9f3709b","session_id":"6196c704ac5958609aceda3b","condition":"contingent","relevant_dimensions":["wings","legs"],"bee_group":{"antennae":"X","wings":"1","pattern":"X","legs":"F"},"action":"harvest","summary":"good-harvest","bonus":0.8600000000000012},{"rt":2192,"stimulus":"\n                    <p><b>Action: <em>harvest</em></b></p>\n                    <p>This is the bee that you just saw.</p>\n                    <img src=\"bees-with-color/bee-A2SM.svg\" width=\"200\">\n                    <p><span class=\"greenText\"><b>Successful harvest!</b></span><br>Your pay has increased by $0.02. Your bonus pay is now $0.42.</p>\n            ","response":0,"trial_type":"html-button-response","trial_index":30,"time_elapsed":568338,"internal_node_id":"0.0-4.0-1.11","subject_id":"5f77754ba932fb2c4ba181d8","study_id":"60edd13110225f80f9f3709b","session_id":"6196c704ac5958609aceda3b","condition":"contingent","relevant_dimensions":["wings","legs"],"bee_group":{"antennae":"X","wings":"1","pattern":"X","legs":"F"},"bonus":0.8600000000000012},{"rt":26252,"stimulus":"bees-with-color/bee-A2DM.svg","response":0,"trial_type":"image-button-response","trial_index":31,"time_elapsed":594591,"internal_node_id":"0.0-4.0-0.12","subject_id":"5f77754ba932fb2c4ba181d8","study_id":"60edd13110225f80f9f3709b","session_id":"6196c704ac5958609aceda3b","condition":"contingent","relevant_dimensions":["wings","legs"],"bee_group":{"antennae":"X","wings":"1","pattern":"X","legs":"F"},"action":"harvest","summary":"good-harvest","bonus":0.8600000000000012},{"rt":2412,"stimulus":"\n                    <p><b>Action: <em>harvest</em></b></p>\n                    <p>This is the bee that you just saw.</p>\n                    <img src=\"bees-with-color/bee-A2DM.svg\" width=\"200\">\n                    <p><span class=\"greenText\"><b>Successful harvest!</b></span><br>Your pay has increased by $0.02. Your bonus pay is now $0.44.</p>\n            ","response":0,"trial_type":"html-button-response","trial_index":32,"time_elapsed":597005,"internal_node_id":"0.0-4.0-1.12","subject_id":"5f77754ba932fb2c4ba181d8","study_id":"60edd13110225f80f9f3709b","session_id":"6196c704ac5958609aceda3b","condition":"contingent","relevant_dimensions":["wings","legs"],"bee_group":{"antennae":"X","wings":"1","pattern":"X","legs":"F"},"bonus":0.8600000000000012},{"rt":29684,"stimulus":"bees-with-color/bee-B2DF.svg","response":0,"trial_type":"image-button-response","trial_index":33,"time_elapsed":626689,"internal_node_id":"0.0-4.0-0.13","subject_id":"5f77754ba932fb2c4ba181d8","study_id":"60edd13110225f80f9f3709b","session_id":"6196c704ac5958609aceda3b","condition":"contingent","relevant_dimensions":["wings","legs"],"bee_group":{"antennae":"X","wings":"1","pattern":"X","legs":"F"},"action":"harvest","summary":"good-harvest","bonus":0.8600000000000012},{"rt":2436,"stimulus":"\n                    <p><b>Action: <em>harvest</em></b></p>\n                    <p>This is the bee that you just saw.</p>\n                    <img src=\"bees-with-color/bee-B2DF.svg\" width=\"200\">\n                    <p><span class=\"greenText\"><b>Successful harvest!</b></span><br>Your pay has increased by $0.02. Your bonus pay is now $0.46.</p>\n            ","response":0,"trial_type":"html-button-response","trial_index":34,"time_elapsed":629126,"internal_node_id":"0.0-4.0-1.13","subject_id":"5f77754ba932fb2c4ba181d8","study_id":"60edd13110225f80f9f3709b","session_id":"6196c704ac5958609aceda3b","condition":"contingent","relevant_dimensions":["wings","legs"],"bee_group":{"antennae":"X","wings":"1","pattern":"X","legs":"F"},"bonus":0.8600000000000012},{"rt":43834,"stimulus":"bees-with-color/bee-A1DF.svg","response":0,"trial_type":"image-button-response","trial_index":35,"time_elapsed":672962,"internal_node_id":"0.0-4.0-0.14","subject_id":"5f77754ba932fb2c4ba181d8","study_id":"60edd13110225f80f9f3709b","session_id":"6196c704ac5958609aceda3b","condition":"contingent","relevant_dimensions":["wings","legs"],"bee_group":{"antennae":"X","wings":"1","pattern":"X","legs":"F"},"action":"harvest","summary":"bad-harvest","bonus":0.8600000000000012},{"rt":2391,"stimulus":"\n                    <p><b>Action: <em>harvest</em></b></p>\n                    <p>This is the bee that you just saw.</p>\n                    <img src=\"bees-with-color/bee-A1DF.svg\" width=\"200\">\n                    <p><span class=\"redText\">Bad choice, the bee was angry.</span><br><b>You have been stung!</b><br>Your pay has been decreased by $0.10. Your bonus pay is now $0.36.</p>\n            ","response":0,"trial_type":"html-button-response","trial_index":36,"time_elapsed":675355,"internal_node_id":"0.0-4.0-1.14","subject_id":"5f77754ba932fb2c4ba181d8","study_id":"60edd13110225f80f9f3709b","session_id":"6196c704ac5958609aceda3b","condition":"contingent","relevant_dimensions":["wings","legs"],"bee_group":{"antennae":"X","wings":"1","pattern":"X","legs":"F"},"bonus":0.8600000000000012},{"rt":34744,"stimulus":"bees-with-color/bee-B2DM.svg","response":0,"trial_type":"image-button-response","trial_index":37,"time_elapsed":710099,"internal_node_id":"0.0-4.0-0.15","subject_id":"5f77754ba932fb2c4ba181d8","study_id":"60edd13110225f80f9f3709b","session_id":"6196c704ac5958609aceda3b","condition":"contingent","relevant_dimensions":["wings","legs"],"bee_group":{"antennae":"X","wings":"1","pattern":"X","legs":"F"},"action":"harvest","summary":"good-harvest","bonus":0.8600000000000012},{"rt":5411,"stimulus":"\n                    <p><b>Action: <em>harvest</em></b></p>\n                    <p>This is the bee that you just saw.</p>\n                    <img src=\"bees-with-color/bee-B2DM.svg\" width=\"200\">\n                    <p><span class=\"greenText\"><b>Successful harvest!</b></span><br>Your pay has increased by $0.02. Your bonus pay is now $0.38.</p>\n            ","response":0,"trial_type":"html-button-response","trial_index":38,"time_elapsed":715512,"internal_node_id":"0.0-4.0-1.15","subject_id":"5f77754ba932fb2c4ba181d8","study_id":"60edd13110225f80f9f3709b","session_id":"6196c704ac5958609aceda3b","condition":"contingent","relevant_dimensions":["wings","legs"],"bee_group":{"antennae":"X","wings":"1","pattern":"X","legs":"F"},"bonus":0.8600000000000012},{"rt":9643,"stimulus":"bees-with-color/bee-A1SF.svg","response":0,"trial_type":"image-button-response","trial_index":39,"time_elapsed":725157,"internal_node_id":"0.0-4.0-0.16","subject_id":"5f77754ba932fb2c4ba181d8","study_id":"60edd13110225f80f9f3709b","session_id":"6196c704ac5958609aceda3b","condition":"contingent","relevant_dimensions":["wings","legs"],"bee_group":{"antennae":"X","wings":"1","pattern":"X","legs":"F"},"action":"harvest","summary":"bad-harvest","bonus":0.8600000000000012},{"rt":1951,"stimulus":"\n                    <p><b>Action: <em>harvest</em></b></p>\n                    <p>This is the bee that you just saw.</p>\n                    <img src=\"bees-with-color/bee-A1SF.svg\" width=\"200\">\n                    <p><span class=\"redText\">Bad choice, the bee was angry.</span><br><b>You have been stung!</b><br>Your pay has been decreased by $0.10. Your bonus pay is now $0.28.</p>\n            ","response":0,"trial_type":"html-button-response","trial_index":40,"time_elapsed":727110,"internal_node_id":"0.0-4.0-1.16","subject_id":"5f77754ba932fb2c4ba181d8","study_id":"60edd13110225f80f9f3709b","session_id":"6196c704ac5958609aceda3b","condition":"contingent","relevant_dimensions":["wings","legs"],"bee_group":{"antennae":"X","wings":"1","pattern":"X","legs":"F"},"bonus":0.8600000000000012},{"rt":26868,"stimulus":"bees-with-color/bee-A1SM.svg","response":0,"trial_type":"image-button-response","trial_index":41,"time_elapsed":753981,"internal_node_id":"0.0-4.0-0.17","subject_id":"5f77754ba932fb2c4ba181d8","study_id":"60edd13110225f80f9f3709b","session_id":"6196c704ac5958609aceda3b","condition":"contingent","relevant_dimensions":["wings","legs"],"bee_group":{"antennae":"X","wings":"1","pattern":"X","legs":"F"},"action":"harvest","summary":"good-harvest","bonus":0.8600000000000012},{"rt":823,"stimulus":"\n                    <p><b>Action: <em>harvest</em></b></p>\n                    <p>This is the bee that you just saw.</p>\n                    <img src=\"bees-with-color/bee-A1SM.svg\" width=\"200\">\n                    <p><span class=\"greenText\"><b>Successful harvest!</b></span><br>Your pay has increased by $0.02. Your bonus pay is now $0.30.</p>\n            ","response":0,"trial_type":"html-button-response","trial_index":42,"time_elapsed":754805,"internal_node_id":"0.0-4.0-1.17","subject_id":"5f77754ba932fb2c4ba181d8","study_id":"60edd13110225f80f9f3709b","session_id":"6196c704ac5958609aceda3b","condition":"contingent","relevant_dimensions":["wings","legs"],"bee_group":{"antennae":"X","wings":"1","pattern":"X","legs":"F"},"bonus":0.8600000000000012},{"rt":49312,"stimulus":"bees-with-color/bee-A1DM.svg","response":0,"trial_type":"image-button-response","trial_index":43,"time_elapsed":804118,"internal_node_id":"0.0-4.0-0.18","subject_id":"5f77754ba932fb2c4ba181d8","study_id":"60edd13110225f80f9f3709b","session_id":"6196c704ac5958609aceda3b","condition":"contingent","relevant_dimensions":["wings","legs"],"bee_group":{"antennae":"X","wings":"1","pattern":"X","legs":"F"},"action":"harvest","summary":"good-harvest","bonus":0.8600000000000012},{"rt":1054,"stimulus":"\n                    <p><b>Action: <em>harvest</em></b></p>\n                    <p>This is the bee that you just saw.</p>\n                    <img src=\"bees-with-color/bee-A1DM.svg\" width=\"200\">\n                    <p><span class=\"greenText\"><b>Successful harvest!</b></span><br>Your pay has increased by $0.02. Your bonus pay is now $0.32.</p>\n            ","response":0,"trial_type":"html-button-response","trial_index":44,"time_elapsed":805173,"internal_node_id":"0.0-4.0-1.18","subject_id":"5f77754ba932fb2c4ba181d8","study_id":"60edd13110225f80f9f3709b","session_id":"6196c704ac5958609aceda3b","condition":"contingent","relevant_dimensions":["wings","legs"],"bee_group":{"antennae":"X","wings":"1","pattern":"X","legs":"F"},"bonus":0.8600000000000012},{"rt":30632,"stimulus":"bees-with-color/bee-B1SM.svg","response":0,"trial_type":"image-button-response","trial_index":45,"time_elapsed":835807,"internal_node_id":"0.0-4.0-0.19","subject_id":"5f77754ba932fb2c4ba181d8","study_id":"60edd13110225f80f9f3709b","session_id":"6196c704ac5958609aceda3b","condition":"contingent","relevant_dimensions":["wings","legs"],"bee_group":{"antennae":"X","wings":"1","pattern":"X","legs":"F"},"action":"harvest","summary":"good-harvest","bonus":0.8600000000000012},{"rt":635,"stimulus":"\n                    <p><b>Action: <em>harvest</em></b></p>\n                    <p>This is the bee that you just saw.</p>\n                    <img src=\"bees-with-color/bee-B1SM.svg\" width=\"200\">\n                    <p><span class=\"greenText\"><b>Successful harvest!</b></span><br>Your pay has increased by $0.02. Your bonus pay is now $0.34.</p>\n            ","response":0,"trial_type":"html-button-response","trial_index":46,"time_elapsed":836442,"internal_node_id":"0.0-4.0-1.19","subject_id":"5f77754ba932fb2c4ba181d8","study_id":"60edd13110225f80f9f3709b","session_id":"6196c704ac5958609aceda3b","condition":"contingent","relevant_dimensions":["wings","legs"],"bee_group":{"antennae":"X","wings":"1","pattern":"X","legs":"F"},"bonus":0.8600000000000012},{"rt":12474,"stimulus":"bees-with-color/bee-B1DM.svg","response":0,"trial_type":"image-button-response","trial_index":47,"time_elapsed":848917,"internal_node_id":"0.0-4.0-0.20","subject_id":"5f77754ba932fb2c4ba181d8","study_id":"60edd13110225f80f9f3709b","session_id":"6196c704ac5958609aceda3b","condition":"contingent","relevant_dimensions":["wings","legs"],"bee_group":{"antennae":"X","wings":"1","pattern":"X","legs":"F"},"action":"harvest","summary":"good-harvest","bonus":0.8600000000000012},{"rt":803,"stimulus":"\n                    <p><b>Action: <em>harvest</em></b></p>\n                    <p>This is the bee that you just saw.</p>\n                    <img src=\"bees-with-color/bee-B1DM.svg\" width=\"200\">\n                    <p><span class=\"greenText\"><b>Successful harvest!</b></span><br>Your pay has increased by $0.02. Your bonus pay is now $0.36.</p>\n            ","response":0,"trial_type":"html-button-response","trial_index":48,"time_elapsed":849723,"internal_node_id":"0.0-4.0-1.20","subject_id":"5f77754ba932fb2c4ba181d8","study_id":"60edd13110225f80f9f3709b","session_id":"6196c704ac5958609aceda3b","condition":"contingent","relevant_dimensions":["wings","legs"],"bee_group":{"antennae":"X","wings":"1","pattern":"X","legs":"F"},"bonus":0.8600000000000012},{"rt":14236,"stimulus":"bees-with-color/bee-A2DM.svg","response":0,"trial_type":"image-button-response","trial_index":49,"time_elapsed":863961,"internal_node_id":"0.0-4.0-0.21","subject_id":"5f77754ba932fb2c4ba181d8","study_id":"60edd13110225f80f9f3709b","session_id":"6196c704ac5958609aceda3b","condition":"contingent","relevant_dimensions":["wings","legs"],"bee_group":{"antennae":"X","wings":"1","pattern":"X","legs":"F"},"action":"harvest","summary":"good-harvest","bonus":0.8600000000000012},{"rt":857,"stimulus":"\n                    <p><b>Action: <em>harvest</em></b></p>\n                    <p>This is the bee that you just saw.</p>\n                    <img src=\"bees-with-color/bee-A2DM.svg\" width=\"200\">\n                    <p><span class=\"greenText\"><b>Successful harvest!</b></span><br>Your pay has increased by $0.02. Your bonus pay is now $0.38.</p>\n            ","response":0,"trial_type":"html-button-response","trial_index":50,"time_elapsed":864820,"internal_node_id":"0.0-4.0-1.21","subject_id":"5f77754ba932fb2c4ba181d8","study_id":"60edd13110225f80f9f3709b","session_id":"6196c704ac5958609aceda3b","condition":"contingent","relevant_dimensions":["wings","legs"],"bee_group":{"antennae":"X","wings":"1","pattern":"X","legs":"F"},"bonus":0.8600000000000012},{"rt":9980,"stimulus":"bees-with-color/bee-A2SM.svg","response":0,"trial_type":"image-button-response","trial_index":51,"time_elapsed":874802,"internal_node_id":"0.0-4.0-0.22","subject_id":"5f77754ba932fb2c4ba181d8","study_id":"60edd13110225f80f9f3709b","session_id":"6196c704ac5958609aceda3b","condition":"contingent","relevant_dimensions":["wings","legs"],"bee_group":{"antennae":"X","wings":"1","pattern":"X","legs":"F"},"action":"harvest","summary":"good-harvest","bonus":0.8600000000000012},{"rt":725,"stimulus":"\n                    <p><b>Action: <em>harvest</em></b></p>\n                    <p>This is the bee that you just saw.</p>\n                    <img src=\"bees-with-color/bee-A2SM.svg\" width=\"200\">\n                    <p><span class=\"greenText\"><b>Successful harvest!</b></span><br>Your pay has increased by $0.02. Your bonus pay is now $0.40.</p>\n            ","response":0,"trial_type":"html-button-response","trial_index":52,"time_elapsed":875528,"internal_node_id":"0.0-4.0-1.22","subject_id":"5f77754ba932fb2c4ba181d8","study_id":"60edd13110225f80f9f3709b","session_id":"6196c704ac5958609aceda3b","condition":"contingent","relevant_dimensions":["wings","legs"],"bee_group":{"antennae":"X","wings":"1","pattern":"X","legs":"F"},"bonus":0.8600000000000012},{"rt":26254,"stimulus":"bees-with-color/bee-B1SF.svg","response":1,"trial_type":"image-button-response","trial_index":53,"time_elapsed":901782,"internal_node_id":"0.0-4.0-0.23","subject_id":"5f77754ba932fb2c4ba181d8","study_id":"60edd13110225f80f9f3709b","session_id":"6196c704ac5958609aceda3b","condition":"contingent","relevant_dimensions":["wings","legs"],"bee_group":{"antennae":"X","wings":"1","pattern":"X","legs":"F"},"action":"avoid","summary":"good-avoid","bonus":0.8600000000000012},{"rt":1247,"stimulus":"\n                    <p><b>Action: <em>avoid</em></b></p>\n                    <p>This is the bee that you just saw.</p>\n                    <img src=\"bees-with-color/bee-B1SF.svg\" width=\"200\">\n                    <p><br>Your bonus pay is unchanged, and remains at $0.40.</p>\n            ","response":0,"trial_type":"html-button-response","trial_index":54,"time_elapsed":903030,"internal_node_id":"0.0-4.0-1.23","subject_id":"5f77754ba932fb2c4ba181d8","study_id":"60edd13110225f80f9f3709b","session_id":"6196c704ac5958609aceda3b","condition":"contingent","relevant_dimensions":["wings","legs"],"bee_group":{"antennae":"X","wings":"1","pattern":"X","legs":"F"},"bonus":0.8600000000000012},{"rt":33096,"stimulus":"bees-with-color/bee-A2DF.svg","response":0,"trial_type":"image-button-response","trial_index":55,"time_elapsed":936128,"internal_node_id":"0.0-4.0-0.24","subject_id":"5f77754ba932fb2c4ba181d8","study_id":"60edd13110225f80f9f3709b","session_id":"6196c704ac5958609aceda3b","condition":"contingent","relevant_dimensions":["wings","legs"],"bee_group":{"antennae":"X","wings":"1","pattern":"X","legs":"F"},"action":"harvest","summary":"good-harvest","bonus":0.8600000000000012},{"rt":979,"stimulus":"\n                    <p><b>Action: <em>harvest</em></b></p>\n                    <p>This is the bee that you just saw.</p>\n                    <img src=\"bees-with-color/bee-A2DF.svg\" width=\"200\">\n                    <p><span class=\"greenText\"><b>Successful harvest!</b></span><br>Your pay has increased by $0.02. Your bonus pay is now $0.42.</p>\n            ","response":0,"trial_type":"html-button-response","trial_index":56,"time_elapsed":937108,"internal_node_id":"0.0-4.0-1.24","subject_id":"5f77754ba932fb2c4ba181d8","study_id":"60edd13110225f80f9f3709b","session_id":"6196c704ac5958609aceda3b","condition":"contingent","relevant_dimensions":["wings","legs"],"bee_group":{"antennae":"X","wings":"1","pattern":"X","legs":"F"},"bonus":0.8600000000000012},{"rt":18258,"stimulus":"bees-with-color/bee-B2SF.svg","response":0,"trial_type":"image-button-response","trial_index":57,"time_elapsed":955366,"internal_node_id":"0.0-4.0-0.25","subject_id":"5f77754ba932fb2c4ba181d8","study_id":"60edd13110225f80f9f3709b","session_id":"6196c704ac5958609aceda3b","condition":"contingent","relevant_dimensions":["wings","legs"],"bee_group":{"antennae":"X","wings":"1","pattern":"X","legs":"F"},"action":"harvest","summary":"good-harvest","bonus":0.8600000000000012},{"rt":723,"stimulus":"\n                    <p><b>Action: <em>harvest</em></b></p>\n                    <p>This is the bee that you just saw.</p>\n                    <img src=\"bees-with-color/bee-B2SF.svg\" width=\"200\">\n                    <p><span class=\"greenText\"><b>Successful harvest!</b></span><br>Your pay has increased by $0.02. Your bonus pay is now $0.44.</p>\n            ","response":0,"trial_type":"html-button-response","trial_index":58,"time_elapsed":956092,"internal_node_id":"0.0-4.0-1.25","subject_id":"5f77754ba932fb2c4ba181d8","study_id":"60edd13110225f80f9f3709b","session_id":"6196c704ac5958609aceda3b","condition":"contingent","relevant_dimensions":["wings","legs"],"bee_group":{"antennae":"X","wings":"1","pattern":"X","legs":"F"},"bonus":0.8600000000000012},{"rt":14600,"stimulus":"bees-with-color/bee-B2DF.svg","response":0,"trial_type":"image-button-response","trial_index":59,"time_elapsed":970692,"internal_node_id":"0.0-4.0-0.26","subject_id":"5f77754ba932fb2c4ba181d8","study_id":"60edd13110225f80f9f3709b","session_id":"6196c704ac5958609aceda3b","condition":"contingent","relevant_dimensions":["wings","legs"],"bee_group":{"antennae":"X","wings":"1","pattern":"X","legs":"F"},"action":"harvest","summary":"good-harvest","bonus":0.8600000000000012},{"rt":924,"stimulus":"\n                    <p><b>Action: <em>harvest</em></b></p>\n                    <p>This is the bee that you just saw.</p>\n                    <img src=\"bees-with-color/bee-B2DF.svg\" width=\"200\">\n                    <p><span class=\"greenText\"><b>Successful harvest!</b></span><br>Your pay has increased by $0.02. Your bonus pay is now $0.46.</p>\n            ","response":0,"trial_type":"html-button-response","trial_index":60,"time_elapsed":971617,"internal_node_id":"0.0-4.0-1.26","subject_id":"5f77754ba932fb2c4ba181d8","study_id":"60edd13110225f80f9f3709b","session_id":"6196c704ac5958609aceda3b","condition":"contingent","relevant_dimensions":["wings","legs"],"bee_group":{"antennae":"X","wings":"1","pattern":"X","legs":"F"},"bonus":0.8600000000000012},{"rt":16676,"stimulus":"bees-with-color/bee-B1DF.svg","response":1,"trial_type":"image-button-response","trial_index":61,"time_elapsed":988294,"internal_node_id":"0.0-4.0-0.27","subject_id":"5f77754ba932fb2c4ba181d8","study_id":"60edd13110225f80f9f3709b","session_id":"6196c704ac5958609aceda3b","condition":"contingent","relevant_dimensions":["wings","legs"],"bee_group":{"antennae":"X","wings":"1","pattern":"X","legs":"F"},"action":"avoid","summary":"good-avoid","bonus":0.8600000000000012},{"rt":976,"stimulus":"\n                    <p><b>Action: <em>avoid</em></b></p>\n                    <p>This is the bee that you just saw.</p>\n                    <img src=\"bees-with-color/bee-B1DF.svg\" width=\"200\">\n                    <p><br>Your bonus pay is unchanged, and remains at $0.46.</p>\n            ","response":0,"trial_type":"html-button-response","trial_index":62,"time_elapsed":989273,"internal_node_id":"0.0-4.0-1.27","subject_id":"5f77754ba932fb2c4ba181d8","study_id":"60edd13110225f80f9f3709b","session_id":"6196c704ac5958609aceda3b","condition":"contingent","relevant_dimensions":["wings","legs"],"bee_group":{"antennae":"X","wings":"1","pattern":"X","legs":"F"},"bonus":0.8600000000000012},{"rt":13476,"stimulus":"bees-with-color/bee-A1DF.svg","response":1,"trial_type":"image-button-response","trial_index":63,"time_elapsed":1002750,"internal_node_id":"0.0-4.0-0.28","subject_id":"5f77754ba932fb2c4ba181d8","study_id":"60edd13110225f80f9f3709b","session_id":"6196c704ac5958609aceda3b","condition":"contingent","relevant_dimensions":["wings","legs"],"bee_group":{"antennae":"X","wings":"1","pattern":"X","legs":"F"},"action":"avoid","summary":"good-avoid","bonus":0.8600000000000012},{"rt":965,"stimulus":"\n                    <p><b>Action: <em>avoid</em></b></p>\n                    <p>This is the bee that you just saw.</p>\n                    <img src=\"bees-with-color/bee-A1DF.svg\" width=\"200\">\n                    <p><br>Your bonus pay is unchanged, and remains at $0.46.</p>\n            ","response":0,"trial_type":"html-button-response","trial_index":64,"time_elapsed":1003716,"internal_node_id":"0.0-4.0-1.28","subject_id":"5f77754ba932fb2c4ba181d8","study_id":"60edd13110225f80f9f3709b","session_id":"6196c704ac5958609aceda3b","condition":"contingent","relevant_dimensions":["wings","legs"],"bee_group":{"antennae":"X","wings":"1","pattern":"X","legs":"F"},"bonus":0.8600000000000012},{"rt":1366,"stimulus":"bees-with-color/bee-B2DM.svg","response":0,"trial_type":"image-button-response","trial_index":65,"time_elapsed":1005083,"internal_node_id":"0.0-4.0-0.29","subject_id":"5f77754ba932fb2c4ba181d8","study_id":"60edd13110225f80f9f3709b","session_id":"6196c704ac5958609aceda3b","condition":"contingent","relevant_dimensions":["wings","legs"],"bee_group":{"antennae":"X","wings":"1","pattern":"X","legs":"F"},"action":"harvest","summary":"good-harvest","bonus":0.8600000000000012},{"rt":557,"stimulus":"\n                    <p><b>Action: <em>harvest</em></b></p>\n                    <p>This is the bee that you just saw.</p>\n                    <img src=\"bees-with-color/bee-B2DM.svg\" width=\"200\">\n                    <p><span class=\"greenText\"><b>Successful harvest!</b></span><br>Your pay has increased by $0.02. Your bonus pay is now $0.48.</p>\n            ","response":0,"trial_type":"html-button-response","trial_index":66,"time_elapsed":1005641,"internal_node_id":"0.0-4.0-1.29","subject_id":"5f77754ba932fb2c4ba181d8","study_id":"60edd13110225f80f9f3709b","session_id":"6196c704ac5958609aceda3b","condition":"contingent","relevant_dimensions":["wings","legs"],"bee_group":{"antennae":"X","wings":"1","pattern":"X","legs":"F"},"bonus":0.8600000000000012},{"rt":787,"stimulus":"bees-with-color/bee-A2SF.svg","response":0,"trial_type":"image-button-response","trial_index":67,"time_elapsed":1006428,"internal_node_id":"0.0-4.0-0.30","subject_id":"5f77754ba932fb2c4ba181d8","study_id":"60edd13110225f80f9f3709b","session_id":"6196c704ac5958609aceda3b","condition":"contingent","relevant_dimensions":["wings","legs"],"bee_group":{"antennae":"X","wings":"1","pattern":"X","legs":"F"},"action":"harvest","summary":"good-harvest","bonus":0.8600000000000012},{"rt":440,"stimulus":"\n                    <p><b>Action: <em>harvest</em></b></p>\n                    <p>This is the bee that you just saw.</p>\n                    <img src=\"bees-with-color/bee-A2SF.svg\" width=\"200\">\n                    <p><span class=\"greenText\"><b>Successful harvest!</b></span><br>Your pay has increased by $0.02. Your bonus pay is now $0.50.</p>\n            ","response":0,"trial_type":"html-button-response","trial_index":68,"time_elapsed":1006869,"internal_node_id":"0.0-4.0-1.30","subject_id":"5f77754ba932fb2c4ba181d8","study_id":"60edd13110225f80f9f3709b","session_id":"6196c704ac5958609aceda3b","condition":"contingent","relevant_dimensions":["wings","legs"],"bee_group":{"antennae":"X","wings":"1","pattern":"X","legs":"F"},"bonus":0.8600000000000012},{"rt":686,"stimulus":"bees-with-color/bee-B2SM.svg","response":0,"trial_type":"image-button-response","trial_index":69,"time_elapsed":1007556,"internal_node_id":"0.0-4.0-0.31","subject_id":"5f77754ba932fb2c4ba181d8","study_id":"60edd13110225f80f9f3709b","session_id":"6196c704ac5958609aceda3b","condition":"contingent","relevant_dimensions":["wings","legs"],"bee_group":{"antennae":"X","wings":"1","pattern":"X","legs":"F"},"action":"harvest","summary":"good-harvest","bonus":0.8600000000000012},{"rt":437,"stimulus":"\n                    <p><b>Action: <em>harvest</em></b></p>\n                    <p>This is the bee that you just saw.</p>\n                    <img src=\"bees-with-color/bee-B2SM.svg\" width=\"200\">\n                    <p><span class=\"greenText\"><b>Successful harvest!</b></span><br>Your pay has increased by $0.02. Your bonus pay is now $0.52.</p>\n            ","response":0,"trial_type":"html-button-response","trial_index":70,"time_elapsed":1007995,"internal_node_id":"0.0-4.0-1.31","subject_id":"5f77754ba932fb2c4ba181d8","study_id":"60edd13110225f80f9f3709b","session_id":"6196c704ac5958609aceda3b","condition":"contingent","relevant_dimensions":["wings","legs"],"bee_group":{"antennae":"X","wings":"1","pattern":"X","legs":"F"},"bonus":0.8600000000000012},{"rt":619,"stimulus":"bees-with-color/bee-A2DF.svg","response":0,"trial_type":"image-button-response","trial_index":71,"time_elapsed":1008614,"internal_node_id":"0.0-4.0-0.32","subject_id":"5f77754ba932fb2c4ba181d8","study_id":"60edd13110225f80f9f3709b","session_id":"6196c704ac5958609aceda3b","condition":"contingent","relevant_dimensions":["wings","legs"],"bee_group":{"antennae":"X","wings":"1","pattern":"X","legs":"F"},"action":"harvest","summary":"good-harvest","bonus":0.8600000000000012},{"rt":439,"stimulus":"\n                    <p><b>Action: <em>harvest</em></b></p>\n                    <p>This is the bee that you just saw.</p>\n                    <img src=\"bees-with-color/bee-A2DF.svg\" width=\"200\">\n                    <p><span class=\"greenText\"><b>Successful harvest!</b></span><br>Your pay has increased by $0.02. Your bonus pay is now $0.54.</p>\n            ","response":0,"trial_type":"html-button-response","trial_index":72,"time_elapsed":1009054,"internal_node_id":"0.0-4.0-1.32","subject_id":"5f77754ba932fb2c4ba181d8","study_id":"60edd13110225f80f9f3709b","session_id":"6196c704ac5958609aceda3b","condition":"contingent","relevant_dimensions":["wings","legs"],"bee_group":{"antennae":"X","wings":"1","pattern":"X","legs":"F"},"bonus":0.8600000000000012},{"rt":6681,"stimulus":"bees-with-color/bee-B1SM.svg","response":0,"trial_type":"image-button-response","trial_index":73,"time_elapsed":1015736,"internal_node_id":"0.0-4.0-0.33","subject_id":"5f77754ba932fb2c4ba181d8","study_id":"60edd13110225f80f9f3709b","session_id":"6196c704ac5958609aceda3b","condition":"contingent","relevant_dimensions":["wings","legs"],"bee_group":{"antennae":"X","wings":"1","pattern":"X","legs":"F"},"action":"harvest","summary":"good-harvest","bonus":0.8600000000000012},{"rt":1047,"stimulus":"\n                    <p><b>Action: <em>harvest</em></b></p>\n                    <p>This is the bee that you just saw.</p>\n                    <img src=\"bees-with-color/bee-B1SM.svg\" width=\"200\">\n                    <p><span class=\"greenText\"><b>Successful harvest!</b></span><br>Your pay has increased by $0.02. Your bonus pay is now $0.56.</p>\n            ","response":0,"trial_type":"html-button-response","trial_index":74,"time_elapsed":1016784,"internal_node_id":"0.0-4.0-1.33","subject_id":"5f77754ba932fb2c4ba181d8","study_id":"60edd13110225f80f9f3709b","session_id":"6196c704ac5958609aceda3b","condition":"contingent","relevant_dimensions":["wings","legs"],"bee_group":{"antennae":"X","wings":"1","pattern":"X","legs":"F"},"bonus":0.8600000000000012},{"rt":1026,"stimulus":"bees-with-color/bee-B2DF.svg","response":0,"trial_type":"image-button-response","trial_index":75,"time_elapsed":1017810,"internal_node_id":"0.0-4.0-0.34","subject_id":"5f77754ba932fb2c4ba181d8","study_id":"60edd13110225f80f9f3709b","session_id":"6196c704ac5958609aceda3b","condition":"contingent","relevant_dimensions":["wings","legs"],"bee_group":{"antennae":"X","wings":"1","pattern":"X","legs":"F"},"action":"harvest","summary":"good-harvest","bonus":0.8600000000000012},{"rt":490,"stimulus":"\n                    <p><b>Action: <em>harvest</em></b></p>\n                    <p>This is the bee that you just saw.</p>\n                    <img src=\"bees-with-color/bee-B2DF.svg\" width=\"200\">\n                    <p><span class=\"greenText\"><b>Successful harvest!</b></span><br>Your pay has increased by $0.02. Your bonus pay is now $0.58.</p>\n            ","response":0,"trial_type":"html-button-response","trial_index":76,"time_elapsed":1018301,"internal_node_id":"0.0-4.0-1.34","subject_id":"5f77754ba932fb2c4ba181d8","study_id":"60edd13110225f80f9f3709b","session_id":"6196c704ac5958609aceda3b","condition":"contingent","relevant_dimensions":["wings","legs"],"bee_group":{"antennae":"X","wings":"1","pattern":"X","legs":"F"},"bonus":0.8600000000000012},{"rt":19073,"stimulus":"bees-with-color/bee-B1DF.svg","response":1,"trial_type":"image-button-response","trial_index":77,"time_elapsed":1037376,"internal_node_id":"0.0-4.0-0.35","subject_id":"5f77754ba932fb2c4ba181d8","study_id":"60edd13110225f80f9f3709b","session_id":"6196c704ac5958609aceda3b","condition":"contingent","relevant_dimensions":["wings","legs"],"bee_group":{"antennae":"X","wings":"1","pattern":"X","legs":"F"},"action":"avoid","summary":"good-avoid","bonus":0.8600000000000012},{"rt":969,"stimulus":"\n                    <p><b>Action: <em>avoid</em></b></p>\n                    <p>This is the bee that you just saw.</p>\n                    <img src=\"bees-with-color/bee-B1DF.svg\" width=\"200\">\n                    <p><br>Your bonus pay is unchanged, and remains at $0.58.</p>\n            ","response":0,"trial_type":"html-button-response","trial_index":78,"time_elapsed":1038346,"internal_node_id":"0.0-4.0-1.35","subject_id":"5f77754ba932fb2c4ba181d8","study_id":"60edd13110225f80f9f3709b","session_id":"6196c704ac5958609aceda3b","condition":"contingent","relevant_dimensions":["wings","legs"],"bee_group":{"antennae":"X","wings":"1","pattern":"X","legs":"F"},"bonus":0.8600000000000012},{"rt":753,"stimulus":"bees-with-color/bee-A2DM.svg","response":0,"trial_type":"image-button-response","trial_index":79,"time_elapsed":1039101,"internal_node_id":"0.0-4.0-0.36","subject_id":"5f77754ba932fb2c4ba181d8","study_id":"60edd13110225f80f9f3709b","session_id":"6196c704ac5958609aceda3b","condition":"contingent","relevant_dimensions":["wings","legs"],"bee_group":{"antennae":"X","wings":"1","pattern":"X","legs":"F"},"action":"harvest","summary":"good-harvest","bonus":0.8600000000000012},{"rt":596,"stimulus":"\n                    <p><b>Action: <em>harvest</em></b></p>\n                    <p>This is the bee that you just saw.</p>\n                    <img src=\"bees-with-color/bee-A2DM.svg\" width=\"200\">\n                    <p><span class=\"greenText\"><b>Successful harvest!</b></span><br>Your pay has increased by $0.02. Your bonus pay is now $0.60.</p>\n            ","response":0,"trial_type":"html-button-response","trial_index":80,"time_elapsed":1039699,"internal_node_id":"0.0-4.0-1.36","subject_id":"5f77754ba932fb2c4ba181d8","study_id":"60edd13110225f80f9f3709b","session_id":"6196c704ac5958609aceda3b","condition":"contingent","relevant_dimensions":["wings","legs"],"bee_group":{"antennae":"X","wings":"1","pattern":"X","legs":"F"},"bonus":0.8600000000000012},{"rt":679,"stimulus":"bees-with-color/bee-B1DM.svg","response":0,"trial_type":"image-button-response","trial_index":81,"time_elapsed":1040379,"internal_node_id":"0.0-4.0-0.37","subject_id":"5f77754ba932fb2c4ba181d8","study_id":"60edd13110225f80f9f3709b","session_id":"6196c704ac5958609aceda3b","condition":"contingent","relevant_dimensions":["wings","legs"],"bee_group":{"antennae":"X","wings":"1","pattern":"X","legs":"F"},"action":"harvest","summary":"good-harvest","bonus":0.8600000000000012},{"rt":487,"stimulus":"\n                    <p><b>Action: <em>harvest</em></b></p>\n                    <p>This is the bee that you just saw.</p>\n                    <img src=\"bees-with-color/bee-B1DM.svg\" width=\"200\">\n                    <p><span class=\"greenText\"><b>Successful harvest!</b></span><br>Your pay has increased by $0.02. Your bonus pay is now $0.62.</p>\n            ","response":0,"trial_type":"html-button-response","trial_index":82,"time_elapsed":1040867,"internal_node_id":"0.0-4.0-1.37","subject_id":"5f77754ba932fb2c4ba181d8","study_id":"60edd13110225f80f9f3709b","session_id":"6196c704ac5958609aceda3b","condition":"contingent","relevant_dimensions":["wings","legs"],"bee_group":{"antennae":"X","wings":"1","pattern":"X","legs":"F"},"bonus":0.8600000000000012},{"rt":656,"stimulus":"bees-with-color/bee-A1DM.svg","response":0,"trial_type":"image-button-response","trial_index":83,"time_elapsed":1041524,"internal_node_id":"0.0-4.0-0.38","subject_id":"5f77754ba932fb2c4ba181d8","study_id":"60edd13110225f80f9f3709b","session_id":"6196c704ac5958609aceda3b","condition":"contingent","relevant_dimensions":["wings","legs"],"bee_group":{"antennae":"X","wings":"1","pattern":"X","legs":"F"},"action":"harvest","summary":"good-harvest","bonus":0.8600000000000012},{"rt":475,"stimulus":"\n                    <p><b>Action: <em>harvest</em></b></p>\n                    <p>This is the bee that you just saw.</p>\n                    <img src=\"bees-with-color/bee-A1DM.svg\" width=\"200\">\n                    <p><span class=\"greenText\"><b>Successful harvest!</b></span><br>Your pay has increased by $0.02. Your bonus pay is now $0.64.</p>\n            ","response":0,"trial_type":"html-button-response","trial_index":84,"time_elapsed":1042000,"internal_node_id":"0.0-4.0-1.38","subject_id":"5f77754ba932fb2c4ba181d8","study_id":"60edd13110225f80f9f3709b","session_id":"6196c704ac5958609aceda3b","condition":"contingent","relevant_dimensions":["wings","legs"],"bee_group":{"antennae":"X","wings":"1","pattern":"X","legs":"F"},"bonus":0.8600000000000012},{"rt":7073,"stimulus":"bees-with-color/bee-B1SF.svg","response":1,"trial_type":"image-button-response","trial_index":85,"time_elapsed":1049075,"internal_node_id":"0.0-4.0-0.39","subject_id":"5f77754ba932fb2c4ba181d8","study_id":"60edd13110225f80f9f3709b","session_id":"6196c704ac5958609aceda3b","condition":"contingent","relevant_dimensions":["wings","legs"],"bee_group":{"antennae":"X","wings":"1","pattern":"X","legs":"F"},"action":"avoid","summary":"good-avoid","bonus":0.8600000000000012},{"rt":489,"stimulus":"\n                    <p><b>Action: <em>avoid</em></b></p>\n                    <p>This is the bee that you just saw.</p>\n                    <img src=\"bees-with-color/bee-B1SF.svg\" width=\"200\">\n                    <p><br>Your bonus pay is unchanged, and remains at $0.64.</p>\n            ","response":0,"trial_type":"html-button-response","trial_index":86,"time_elapsed":1049565,"internal_node_id":"0.0-4.0-1.39","subject_id":"5f77754ba932fb2c4ba181d8","study_id":"60edd13110225f80f9f3709b","session_id":"6196c704ac5958609aceda3b","condition":"contingent","relevant_dimensions":["wings","legs"],"bee_group":{"antennae":"X","wings":"1","pattern":"X","legs":"F"},"bonus":0.8600000000000012},{"rt":653,"stimulus":"bees-with-color/bee-B2SM.svg","response":0,"trial_type":"image-button-response","trial_index":87,"time_elapsed":1050220,"internal_node_id":"0.0-4.0-0.40","subject_id":"5f77754ba932fb2c4ba181d8","study_id":"60edd13110225f80f9f3709b","session_id":"6196c704ac5958609aceda3b","condition":"contingent","relevant_dimensions":["wings","legs"],"bee_group":{"antennae":"X","wings":"1","pattern":"X","legs":"F"},"action":"harvest","summary":"good-harvest","bonus":0.8600000000000012},{"rt":504,"stimulus":"\n                    <p><b>Action: <em>harvest</em></b></p>\n                    <p>This is the bee that you just saw.</p>\n                    <img src=\"bees-with-color/bee-B2SM.svg\" width=\"200\">\n                    <p><span class=\"greenText\"><b>Successful harvest!</b></span><br>Your pay has increased by $0.02. Your bonus pay is now $0.66.</p>\n            ","response":0,"trial_type":"html-button-response","trial_index":88,"time_elapsed":1050724,"internal_node_id":"0.0-4.0-1.40","subject_id":"5f77754ba932fb2c4ba181d8","study_id":"60edd13110225f80f9f3709b","session_id":"6196c704ac5958609aceda3b","condition":"contingent","relevant_dimensions":["wings","legs"],"bee_group":{"antennae":"X","wings":"1","pattern":"X","legs":"F"},"bonus":0.8600000000000012},{"rt":566,"stimulus":"bees-with-color/bee-A2SF.svg","response":0,"trial_type":"image-button-response","trial_index":89,"time_elapsed":1051291,"internal_node_id":"0.0-4.0-0.41","subject_id":"5f77754ba932fb2c4ba181d8","study_id":"60edd13110225f80f9f3709b","session_id":"6196c704ac5958609aceda3b","condition":"contingent","relevant_dimensions":["wings","legs"],"bee_group":{"antennae":"X","wings":"1","pattern":"X","legs":"F"},"action":"harvest","summary":"good-harvest","bonus":0.8600000000000012},{"rt":430,"stimulus":"\n                    <p><b>Action: <em>harvest</em></b></p>\n                    <p>This is the bee that you just saw.</p>\n                    <img src=\"bees-with-color/bee-A2SF.svg\" width=\"200\">\n                    <p><span class=\"greenText\"><b>Successful harvest!</b></span><br>Your pay has increased by $0.02. Your bonus pay is now $0.68.</p>\n            ","response":0,"trial_type":"html-button-response","trial_index":90,"time_elapsed":1051721,"internal_node_id":"0.0-4.0-1.41","subject_id":"5f77754ba932fb2c4ba181d8","study_id":"60edd13110225f80f9f3709b","session_id":"6196c704ac5958609aceda3b","condition":"contingent","relevant_dimensions":["wings","legs"],"bee_group":{"antennae":"X","wings":"1","pattern":"X","legs":"F"},"bonus":0.8600000000000012},{"rt":568,"stimulus":"bees-with-color/bee-A2SM.svg","response":0,"trial_type":"image-button-response","trial_index":91,"time_elapsed":1052289,"internal_node_id":"0.0-4.0-0.42","subject_id":"5f77754ba932fb2c4ba181d8","study_id":"60edd13110225f80f9f3709b","session_id":"6196c704ac5958609aceda3b","condition":"contingent","relevant_dimensions":["wings","legs"],"bee_group":{"antennae":"X","wings":"1","pattern":"X","legs":"F"},"action":"harvest","summary":"good-harvest","bonus":0.8600000000000012},{"rt":410,"stimulus":"\n                    <p><b>Action: <em>harvest</em></b></p>\n                    <p>This is the bee that you just saw.</p>\n                    <img src=\"bees-with-color/bee-A2SM.svg\" width=\"200\">\n                    <p><span class=\"greenText\"><b>Successful harvest!</b></span><br>Your pay has increased by $0.02. Your bonus pay is now $0.70.</p>\n            ","response":0,"trial_type":"html-button-response","trial_index":92,"time_elapsed":1052700,"internal_node_id":"0.0-4.0-1.42","subject_id":"5f77754ba932fb2c4ba181d8","study_id":"60edd13110225f80f9f3709b","session_id":"6196c704ac5958609aceda3b","condition":"contingent","relevant_dimensions":["wings","legs"],"bee_group":{"antennae":"X","wings":"1","pattern":"X","legs":"F"},"bonus":0.8600000000000012},{"rt":6648,"stimulus":"bees-with-color/bee-A1DF.svg","response":1,"trial_type":"image-button-response","trial_index":93,"time_elapsed":1059350,"internal_node_id":"0.0-4.0-0.43","subject_id":"5f77754ba932fb2c4ba181d8","study_id":"60edd13110225f80f9f3709b","session_id":"6196c704ac5958609aceda3b","condition":"contingent","relevant_dimensions":["wings","legs"],"bee_group":{"antennae":"X","wings":"1","pattern":"X","legs":"F"},"action":"avoid","summary":"good-avoid","bonus":0.8600000000000012},{"rt":457,"stimulus":"\n                    <p><b>Action: <em>avoid</em></b></p>\n                    <p>This is the bee that you just saw.</p>\n                    <img src=\"bees-with-color/bee-A1DF.svg\" width=\"200\">\n                    <p><br>Your bonus pay is unchanged, and remains at $0.70.</p>\n            ","response":0,"trial_type":"html-button-response","trial_index":94,"time_elapsed":1059808,"internal_node_id":"0.0-4.0-1.43","subject_id":"5f77754ba932fb2c4ba181d8","study_id":"60edd13110225f80f9f3709b","session_id":"6196c704ac5958609aceda3b","condition":"contingent","relevant_dimensions":["wings","legs"],"bee_group":{"antennae":"X","wings":"1","pattern":"X","legs":"F"},"bonus":0.8600000000000012},{"rt":812,"stimulus":"bees-with-color/bee-B2DM.svg","response":0,"trial_type":"image-button-response","trial_index":95,"time_elapsed":1060623,"internal_node_id":"0.0-4.0-0.44","subject_id":"5f77754ba932fb2c4ba181d8","study_id":"60edd13110225f80f9f3709b","session_id":"6196c704ac5958609aceda3b","condition":"contingent","relevant_dimensions":["wings","legs"],"bee_group":{"antennae":"X","wings":"1","pattern":"X","legs":"F"},"action":"harvest","summary":"good-harvest","bonus":0.8600000000000012},{"rt":458,"stimulus":"\n                    <p><b>Action: <em>harvest</em></b></p>\n                    <p>This is the bee that you just saw.</p>\n                    <img src=\"bees-with-color/bee-B2DM.svg\" width=\"200\">\n                    <p><span class=\"greenText\"><b>Successful harvest!</b></span><br>Your pay has increased by $0.02. Your bonus pay is now $0.72.</p>\n            ","response":0,"trial_type":"html-button-response","trial_index":96,"time_elapsed":1061080,"internal_node_id":"0.0-4.0-1.44","subject_id":"5f77754ba932fb2c4ba181d8","study_id":"60edd13110225f80f9f3709b","session_id":"6196c704ac5958609aceda3b","condition":"contingent","relevant_dimensions":["wings","legs"],"bee_group":{"antennae":"X","wings":"1","pattern":"X","legs":"F"},"bonus":0.8600000000000012},{"rt":1422,"stimulus":"bees-with-color/bee-A1SM.svg","response":0,"trial_type":"image-button-response","trial_index":97,"time_elapsed":1062504,"internal_node_id":"0.0-4.0-0.45","subject_id":"5f77754ba932fb2c4ba181d8","study_id":"60edd13110225f80f9f3709b","session_id":"6196c704ac5958609aceda3b","condition":"contingent","relevant_dimensions":["wings","legs"],"bee_group":{"antennae":"X","wings":"1","pattern":"X","legs":"F"},"action":"harvest","summary":"good-harvest","bonus":0.8600000000000012},{"rt":572,"stimulus":"\n                    <p><b>Action: <em>harvest</em></b></p>\n                    <p>This is the bee that you just saw.</p>\n                    <img src=\"bees-with-color/bee-A1SM.svg\" width=\"200\">\n                    <p><span class=\"greenText\"><b>Successful harvest!</b></span><br>Your pay has increased by $0.02. Your bonus pay is now $0.74.</p>\n            ","response":0,"trial_type":"html-button-response","trial_index":98,"time_elapsed":1063079,"internal_node_id":"0.0-4.0-1.45","subject_id":"5f77754ba932fb2c4ba181d8","study_id":"60edd13110225f80f9f3709b","session_id":"6196c704ac5958609aceda3b","condition":"contingent","relevant_dimensions":["wings","legs"],"bee_group":{"antennae":"X","wings":"1","pattern":"X","legs":"F"},"bonus":0.8600000000000012},{"rt":898,"stimulus":"bees-with-color/bee-B2SF.svg","response":0,"trial_type":"image-button-response","trial_index":99,"time_elapsed":1063978,"internal_node_id":"0.0-4.0-0.46","subject_id":"5f77754ba932fb2c4ba181d8","study_id":"60edd13110225f80f9f3709b","session_id":"6196c704ac5958609aceda3b","condition":"contingent","relevant_dimensions":["wings","legs"],"bee_group":{"antennae":"X","wings":"1","pattern":"X","legs":"F"},"action":"harvest","summary":"good-harvest","bonus":0.8600000000000012},{"rt":422,"stimulus":"\n                    <p><b>Action: <em>harvest</em></b></p>\n                    <p>This is the bee that you just saw.</p>\n                    <img src=\"bees-with-color/bee-B2SF.svg\" width=\"200\">\n                    <p><span class=\"greenText\"><b>Successful harvest!</b></span><br>Your pay has increased by $0.02. Your bonus pay is now $0.76.</p>\n            ","response":0,"trial_type":"html-button-response","trial_index":100,"time_elapsed":1064401,"internal_node_id":"0.0-4.0-1.46","subject_id":"5f77754ba932fb2c4ba181d8","study_id":"60edd13110225f80f9f3709b","session_id":"6196c704ac5958609aceda3b","condition":"contingent","relevant_dimensions":["wings","legs"],"bee_group":{"antennae":"X","wings":"1","pattern":"X","legs":"F"},"bonus":0.8600000000000012},{"rt":19426,"stimulus":"bees-with-color/bee-A1SF.svg","response":1,"trial_type":"image-button-response","trial_index":101,"time_elapsed":1083828,"internal_node_id":"0.0-4.0-0.47","subject_id":"5f77754ba932fb2c4ba181d8","study_id":"60edd13110225f80f9f3709b","session_id":"6196c704ac5958609aceda3b","condition":"contingent","relevant_dimensions":["wings","legs"],"bee_group":{"antennae":"X","wings":"1","pattern":"X","legs":"F"},"action":"avoid","summary":"good-avoid","bonus":0.8600000000000012},{"rt":549,"stimulus":"\n                    <p><b>Action: <em>avoid</em></b></p>\n                    <p>This is the bee that you just saw.</p>\n                    <img src=\"bees-with-color/bee-A1SF.svg\" width=\"200\">\n                    <p><br>Your bonus pay is unchanged, and remains at $0.76.</p>\n            ","response":0,"trial_type":"html-button-response","trial_index":102,"time_elapsed":1084378,"internal_node_id":"0.0-4.0-1.47","subject_id":"5f77754ba932fb2c4ba181d8","study_id":"60edd13110225f80f9f3709b","session_id":"6196c704ac5958609aceda3b","condition":"contingent","relevant_dimensions":["wings","legs"],"bee_group":{"antennae":"X","wings":"1","pattern":"X","legs":"F"},"bonus":0.8600000000000012},{"rt":8035,"stimulus":"bees-with-color/bee-B1DF.svg","response":1,"trial_type":"image-button-response","trial_index":103,"time_elapsed":1092413,"internal_node_id":"0.0-4.0-0.48","subject_id":"5f77754ba932fb2c4ba181d8","study_id":"60edd13110225f80f9f3709b","session_id":"6196c704ac5958609aceda3b","condition":"contingent","relevant_dimensions":["wings","legs"],"bee_group":{"antennae":"X","wings":"1","pattern":"X","legs":"F"},"action":"avoid","summary":"good-avoid","bonus":0.8600000000000012},{"rt":2977,"stimulus":"\n                    <p><b>Action: <em>avoid</em></b></p>\n                    <p>This is the bee that you just saw.</p>\n                    <img src=\"bees-with-color/bee-B1DF.svg\" width=\"200\">\n                    <p><br>Your bonus pay is unchanged, and remains at $0.76.</p>\n            ","response":0,"trial_type":"html-button-response","trial_index":104,"time_elapsed":1095392,"internal_node_id":"0.0-4.0-1.48","subject_id":"5f77754ba932fb2c4ba181d8","study_id":"60edd13110225f80f9f3709b","session_id":"6196c704ac5958609aceda3b","condition":"contingent","relevant_dimensions":["wings","legs"],"bee_group":{"antennae":"X","wings":"1","pattern":"X","legs":"F"},"bonus":0.8600000000000012},{"rt":795,"stimulus":"bees-with-color/bee-A2SM.svg","response":0,"trial_type":"image-button-response","trial_index":105,"time_elapsed":1096187,"internal_node_id":"0.0-4.0-0.49","subject_id":"5f77754ba932fb2c4ba181d8","study_id":"60edd13110225f80f9f3709b","session_id":"6196c704ac5958609aceda3b","condition":"contingent","relevant_dimensions":["wings","legs"],"bee_group":{"antennae":"X","wings":"1","pattern":"X","legs":"F"},"action":"harvest","summary":"good-harvest","bonus":0.8600000000000012},{"rt":431,"stimulus":"\n                    <p><b>Action: <em>harvest</em></b></p>\n                    <p>This is the bee that you just saw.</p>\n                    <img src=\"bees-with-color/bee-A2SM.svg\" width=\"200\">\n                    <p><span class=\"greenText\"><b>Successful harvest!</b></span><br>Your pay has increased by $0.02. Your bonus pay is now $0.78.</p>\n            ","response":0,"trial_type":"html-button-response","trial_index":106,"time_elapsed":1096620,"internal_node_id":"0.0-4.0-1.49","subject_id":"5f77754ba932fb2c4ba181d8","study_id":"60edd13110225f80f9f3709b","session_id":"6196c704ac5958609aceda3b","condition":"contingent","relevant_dimensions":["wings","legs"],"bee_group":{"antennae":"X","wings":"1","pattern":"X","legs":"F"},"bonus":0.8600000000000012},{"rt":651,"stimulus":"bees-with-color/bee-B1DM.svg","response":0,"trial_type":"image-button-response","trial_index":107,"time_elapsed":1097272,"internal_node_id":"0.0-4.0-0.50","subject_id":"5f77754ba932fb2c4ba181d8","study_id":"60edd13110225f80f9f3709b","session_id":"6196c704ac5958609aceda3b","condition":"contingent","relevant_dimensions":["wings","legs"],"bee_group":{"antennae":"X","wings":"1","pattern":"X","legs":"F"},"action":"harvest","summary":"good-harvest","bonus":0.8600000000000012},{"rt":346,"stimulus":"\n                    <p><b>Action: <em>harvest</em></b></p>\n                    <p>This is the bee that you just saw.</p>\n                    <img src=\"bees-with-color/bee-B1DM.svg\" width=\"200\">\n                    <p><span class=\"greenText\"><b>Successful harvest!</b></span><br>Your pay has increased by $0.02. Your bonus pay is now $0.80.</p>\n            ","response":0,"trial_type":"html-button-response","trial_index":108,"time_elapsed":1097617,"internal_node_id":"0.0-4.0-1.50","subject_id":"5f77754ba932fb2c4ba181d8","study_id":"60edd13110225f80f9f3709b","session_id":"6196c704ac5958609aceda3b","condition":"contingent","relevant_dimensions":["wings","legs"],"bee_group":{"antennae":"X","wings":"1","pattern":"X","legs":"F"},"bonus":0.8600000000000012},{"rt":8528,"stimulus":"bees-with-color/bee-A1DF.svg","response":1,"trial_type":"image-button-response","trial_index":109,"time_elapsed":1106147,"internal_node_id":"0.0-4.0-0.51","subject_id":"5f77754ba932fb2c4ba181d8","study_id":"60edd13110225f80f9f3709b","session_id":"6196c704ac5958609aceda3b","condition":"contingent","relevant_dimensions":["wings","legs"],"bee_group":{"antennae":"X","wings":"1","pattern":"X","legs":"F"},"action":"avoid","summary":"good-avoid","bonus":0.8600000000000012},{"rt":665,"stimulus":"\n                    <p><b>Action: <em>avoid</em></b></p>\n                    <p>This is the bee that you just saw.</p>\n                    <img src=\"bees-with-color/bee-A1DF.svg\" width=\"200\">\n                    <p><br>Your bonus pay is unchanged, and remains at $0.80.</p>\n            ","response":0,"trial_type":"html-button-response","trial_index":110,"time_elapsed":1106812,"internal_node_id":"0.0-4.0-1.51","subject_id":"5f77754ba932fb2c4ba181d8","study_id":"60edd13110225f80f9f3709b","session_id":"6196c704ac5958609aceda3b","condition":"contingent","relevant_dimensions":["wings","legs"],"bee_group":{"antennae":"X","wings":"1","pattern":"X","legs":"F"},"bonus":0.8600000000000012},{"rt":813,"stimulus":"bees-with-color/bee-A1DM.svg","response":0,"trial_type":"image-button-response","trial_index":111,"time_elapsed":1107625,"internal_node_id":"0.0-4.0-0.52","subject_id":"5f77754ba932fb2c4ba181d8","study_id":"60edd13110225f80f9f3709b","session_id":"6196c704ac5958609aceda3b","condition":"contingent","relevant_dimensions":["wings","legs"],"bee_group":{"antennae":"X","wings":"1","pattern":"X","legs":"F"},"action":"harvest","summary":"good-harvest","bonus":0.8600000000000012},{"rt":460,"stimulus":"\n                    <p><b>Action: <em>harvest</em></b></p>\n                    <p>This is the bee that you just saw.</p>\n                    <img src=\"bees-with-color/bee-A1DM.svg\" width=\"200\">\n                    <p><span class=\"greenText\"><b>Successful harvest!</b></span><br>Your pay has increased by $0.02. Your bonus pay is now $0.82.</p>\n            ","response":0,"trial_type":"html-button-response","trial_index":112,"time_elapsed":1108087,"internal_node_id":"0.0-4.0-1.52","subject_id":"5f77754ba932fb2c4ba181d8","study_id":"60edd13110225f80f9f3709b","session_id":"6196c704ac5958609aceda3b","condition":"contingent","relevant_dimensions":["wings","legs"],"bee_group":{"antennae":"X","wings":"1","pattern":"X","legs":"F"},"bonus":0.8600000000000012},{"rt":537,"stimulus":"bees-with-color/bee-A2DM.svg","response":0,"trial_type":"image-button-response","trial_index":113,"time_elapsed":1108624,"internal_node_id":"0.0-4.0-0.53","subject_id":"5f77754ba932fb2c4ba181d8","study_id":"60edd13110225f80f9f3709b","session_id":"6196c704ac5958609aceda3b","condition":"contingent","relevant_dimensions":["wings","legs"],"bee_group":{"antennae":"X","wings":"1","pattern":"X","legs":"F"},"action":"harvest","summary":"good-harvest","bonus":0.8600000000000012},{"rt":383,"stimulus":"\n                    <p><b>Action: <em>harvest</em></b></p>\n                    <p>This is the bee that you just saw.</p>\n                    <img src=\"bees-with-color/bee-A2DM.svg\" width=\"200\">\n                    <p><span class=\"greenText\"><b>Successful harvest!</b></span><br>Your pay has increased by $0.02. Your bonus pay is now $0.84.</p>\n            ","response":0,"trial_type":"html-button-response","trial_index":114,"time_elapsed":1109008,"internal_node_id":"0.0-4.0-1.53","subject_id":"5f77754ba932fb2c4ba181d8","study_id":"60edd13110225f80f9f3709b","session_id":"6196c704ac5958609aceda3b","condition":"contingent","relevant_dimensions":["wings","legs"],"bee_group":{"antennae":"X","wings":"1","pattern":"X","legs":"F"},"bonus":0.8600000000000012},{"rt":545,"stimulus":"bees-with-color/bee-A1SM.svg","response":0,"trial_type":"image-button-response","trial_index":115,"time_elapsed":1109553,"internal_node_id":"0.0-4.0-0.54","subject_id":"5f77754ba932fb2c4ba181d8","study_id":"60edd13110225f80f9f3709b","session_id":"6196c704ac5958609aceda3b","condition":"contingent","relevant_dimensions":["wings","legs"],"bee_group":{"antennae":"X","wings":"1","pattern":"X","legs":"F"},"action":"harvest","summary":"good-harvest","bonus":0.8600000000000012},{"rt":384,"stimulus":"\n                    <p><b>Action: <em>harvest</em></b></p>\n                    <p>This is the bee that you just saw.</p>\n                    <img src=\"bees-with-color/bee-A1SM.svg\" width=\"200\">\n                    <p><span class=\"greenText\"><b>Successful harvest!</b></span><br>Your pay has increased by $0.02. Your bonus pay is now $0.86.</p>\n            ","response":0,"trial_type":"html-button-response","trial_index":116,"time_elapsed":1109938,"internal_node_id":"0.0-4.0-1.54","subject_id":"5f77754ba932fb2c4ba181d8","study_id":"60edd13110225f80f9f3709b","session_id":"6196c704ac5958609aceda3b","condition":"contingent","relevant_dimensions":["wings","legs"],"bee_group":{"antennae":"X","wings":"1","pattern":"X","legs":"F"},"bonus":0.8600000000000012},{"rt":990,"stimulus":"bees-with-color/bee-B2SF.svg","response":0,"trial_type":"image-button-response","trial_index":117,"time_elapsed":1110929,"internal_node_id":"0.0-4.0-0.55","subject_id":"5f77754ba932fb2c4ba181d8","study_id":"60edd13110225f80f9f3709b","session_id":"6196c704ac5958609aceda3b","condition":"contingent","relevant_dimensions":["wings","legs"],"bee_group":{"antennae":"X","wings":"1","pattern":"X","legs":"F"},"action":"harvest","summary":"good-harvest","bonus":0.8600000000000012},{"rt":374,"stimulus":"\n                    <p><b>Action: <em>harvest</em></b></p>\n                    <p>This is the bee that you just saw.</p>\n                    <img src=\"bees-with-color/bee-B2SF.svg\" width=\"200\">\n                    <p><span class=\"greenText\"><b>Successful harvest!</b></span><br>Your pay has increased by $0.02. Your bonus pay is now $0.88.</p>\n            ","response":0,"trial_type":"html-button-response","trial_index":118,"time_elapsed":1111305,"internal_node_id":"0.0-4.0-1.55","subject_id":"5f77754ba932fb2c4ba181d8","study_id":"60edd13110225f80f9f3709b","session_id":"6196c704ac5958609aceda3b","condition":"contingent","relevant_dimensions":["wings","legs"],"bee_group":{"antennae":"X","wings":"1","pattern":"X","legs":"F"},"bonus":0.8600000000000012},{"rt":563,"stimulus":"bees-with-color/bee-B2SM.svg","response":0,"trial_type":"image-button-response","trial_index":119,"time_elapsed":1111868,"internal_node_id":"0.0-4.0-0.56","subject_id":"5f77754ba932fb2c4ba181d8","study_id":"60edd13110225f80f9f3709b","session_id":"6196c704ac5958609aceda3b","condition":"contingent","relevant_dimensions":["wings","legs"],"bee_group":{"antennae":"X","wings":"1","pattern":"X","legs":"F"},"action":"harvest","summary":"good-harvest","bonus":0.8600000000000012},{"rt":412,"stimulus":"\n                    <p><b>Action: <em>harvest</em></b></p>\n                    <p>This is the bee that you just saw.</p>\n                    <img src=\"bees-with-color/bee-B2SM.svg\" width=\"200\">\n                    <p><span class=\"greenText\"><b>Successful harvest!</b></span><br>Your pay has increased by $0.02. Your bonus pay is now $0.90.</p>\n            ","response":0,"trial_type":"html-button-response","trial_index":120,"time_elapsed":1112281,"internal_node_id":"0.0-4.0-1.56","subject_id":"5f77754ba932fb2c4ba181d8","study_id":"60edd13110225f80f9f3709b","session_id":"6196c704ac5958609aceda3b","condition":"contingent","relevant_dimensions":["wings","legs"],"bee_group":{"antennae":"X","wings":"1","pattern":"X","legs":"F"},"bonus":0.8600000000000012},{"rt":511,"stimulus":"bees-with-color/bee-B2DM.svg","response":0,"trial_type":"image-button-response","trial_index":121,"time_elapsed":1112794,"internal_node_id":"0.0-4.0-0.57","subject_id":"5f77754ba932fb2c4ba181d8","study_id":"60edd13110225f80f9f3709b","session_id":"6196c704ac5958609aceda3b","condition":"contingent","relevant_dimensions":["wings","legs"],"bee_group":{"antennae":"X","wings":"1","pattern":"X","legs":"F"},"action":"harvest","summary":"good-harvest","bonus":0.8600000000000012},{"rt":408,"stimulus":"\n                    <p><b>Action: <em>harvest</em></b></p>\n                    <p>This is the bee that you just saw.</p>\n                    <img src=\"bees-with-color/bee-B2DM.svg\" width=\"200\">\n                    <p><span class=\"greenText\"><b>Successful harvest!</b></span><br>Your pay has increased by $0.02. Your bonus pay is now $0.92.</p>\n            ","response":0,"trial_type":"html-button-response","trial_index":122,"time_elapsed":1113203,"internal_node_id":"0.0-4.0-1.57","subject_id":"5f77754ba932fb2c4ba181d8","study_id":"60edd13110225f80f9f3709b","session_id":"6196c704ac5958609aceda3b","condition":"contingent","relevant_dimensions":["wings","legs"],"bee_group":{"antennae":"X","wings":"1","pattern":"X","legs":"F"},"bonus":0.8600000000000012},{"rt":3408,"stimulus":"bees-with-color/bee-B1SM.svg","response":0,"trial_type":"image-button-response","trial_index":123,"time_elapsed":1116611,"internal_node_id":"0.0-4.0-0.58","subject_id":"5f77754ba932fb2c4ba181d8","study_id":"60edd13110225f80f9f3709b","session_id":"6196c704ac5958609aceda3b","condition":"contingent","relevant_dimensions":["wings","legs"],"bee_group":{"antennae":"X","wings":"1","pattern":"X","legs":"F"},"action":"harvest","summary":"good-harvest","bonus":0.8600000000000012},{"rt":345,"stimulus":"\n                    <p><b>Action: <em>harvest</em></b></p>\n                    <p>This is the bee that you just saw.</p>\n                    <img src=\"bees-with-color/bee-B1SM.svg\" width=\"200\">\n                    <p><span class=\"greenText\"><b>Successful harvest!</b></span><br>Your pay has increased by $0.02. Your bonus pay is now $0.94.</p>\n            ","response":0,"trial_type":"html-button-response","trial_index":124,"time_elapsed":1116958,"internal_node_id":"0.0-4.0-1.58","subject_id":"5f77754ba932fb2c4ba181d8","study_id":"60edd13110225f80f9f3709b","session_id":"6196c704ac5958609aceda3b","condition":"contingent","relevant_dimensions":["wings","legs"],"bee_group":{"antennae":"X","wings":"1","pattern":"X","legs":"F"},"bonus":0.8600000000000012},{"rt":1120,"stimulus":"bees-with-color/bee-A2SF.svg","response":0,"trial_type":"image-button-response","trial_index":125,"time_elapsed":1118079,"internal_node_id":"0.0-4.0-0.59","subject_id":"5f77754ba932fb2c4ba181d8","study_id":"60edd13110225f80f9f3709b","session_id":"6196c704ac5958609aceda3b","condition":"contingent","relevant_dimensions":["wings","legs"],"bee_group":{"antennae":"X","wings":"1","pattern":"X","legs":"F"},"action":"harvest","summary":"good-harvest","bonus":0.8600000000000012},{"rt":783,"stimulus":"\n                    <p><b>Action: <em>harvest</em></b></p>\n                    <p>This is the bee that you just saw.</p>\n                    <img src=\"bees-with-color/bee-A2SF.svg\" width=\"200\">\n                    <p><span class=\"greenText\"><b>Successful harvest!</b></span><br>Your pay has increased by $0.02. Your bonus pay is now $0.96.</p>\n            ","response":0,"trial_type":"html-button-response","trial_index":126,"time_elapsed":1118863,"internal_node_id":"0.0-4.0-1.59","subject_id":"5f77754ba932fb2c4ba181d8","study_id":"60edd13110225f80f9f3709b","session_id":"6196c704ac5958609aceda3b","condition":"contingent","relevant_dimensions":["wings","legs"],"bee_group":{"antennae":"X","wings":"1","pattern":"X","legs":"F"},"bonus":0.8600000000000012},{"rt":546,"stimulus":"bees-with-color/bee-A2DF.svg","response":0,"trial_type":"image-button-response","trial_index":127,"time_elapsed":1119409,"internal_node_id":"0.0-4.0-0.60","subject_id":"5f77754ba932fb2c4ba181d8","study_id":"60edd13110225f80f9f3709b","session_id":"6196c704ac5958609aceda3b","condition":"contingent","relevant_dimensions":["wings","legs"],"bee_group":{"antennae":"X","wings":"1","pattern":"X","legs":"F"},"action":"harvest","summary":"good-harvest","bonus":0.8600000000000012},{"rt":400,"stimulus":"\n                    <p><b>Action: <em>harvest</em></b></p>\n                    <p>This is the bee that you just saw.</p>\n                    <img src=\"bees-with-color/bee-A2DF.svg\" width=\"200\">\n                    <p><span class=\"greenText\"><b>Successful harvest!</b></span><br>Your pay has increased by $0.02. Your bonus pay is now $0.98.</p>\n            ","response":0,"trial_type":"html-button-response","trial_index":128,"time_elapsed":1119810,"internal_node_id":"0.0-4.0-1.60","subject_id":"5f77754ba932fb2c4ba181d8","study_id":"60edd13110225f80f9f3709b","session_id":"6196c704ac5958609aceda3b","condition":"contingent","relevant_dimensions":["wings","legs"],"bee_group":{"antennae":"X","wings":"1","pattern":"X","legs":"F"},"bonus":0.8600000000000012},{"rt":536,"stimulus":"bees-with-color/bee-B2DF.svg","response":0,"trial_type":"image-button-response","trial_index":129,"time_elapsed":1120348,"internal_node_id":"0.0-4.0-0.61","subject_id":"5f77754ba932fb2c4ba181d8","study_id":"60edd13110225f80f9f3709b","session_id":"6196c704ac5958609aceda3b","condition":"contingent","relevant_dimensions":["wings","legs"],"bee_group":{"antennae":"X","wings":"1","pattern":"X","legs":"F"},"action":"harvest","summary":"good-harvest","bonus":0.8600000000000012},{"rt":396,"stimulus":"\n                    <p><b>Action: <em>harvest</em></b></p>\n                    <p>This is the bee that you just saw.</p>\n                    <img src=\"bees-with-color/bee-B2DF.svg\" width=\"200\">\n                    <p><span class=\"greenText\"><b>Successful harvest!</b></span><br>Your pay has increased by $0.02. Your bonus pay is now $1.00.</p>\n            ","response":0,"trial_type":"html-button-response","trial_index":130,"time_elapsed":1120746,"internal_node_id":"0.0-4.0-1.61","subject_id":"5f77754ba932fb2c4ba181d8","study_id":"60edd13110225f80f9f3709b","session_id":"6196c704ac5958609aceda3b","condition":"contingent","relevant_dimensions":["wings","legs"],"bee_group":{"antennae":"X","wings":"1","pattern":"X","legs":"F"},"bonus":0.8600000000000012},{"rt":10041,"stimulus":"bees-with-color/bee-B1SF.svg","response":1,"trial_type":"image-button-response","trial_index":131,"time_elapsed":1130789,"internal_node_id":"0.0-4.0-0.62","subject_id":"5f77754ba932fb2c4ba181d8","study_id":"60edd13110225f80f9f3709b","session_id":"6196c704ac5958609aceda3b","condition":"contingent","relevant_dimensions":["wings","legs"],"bee_group":{"antennae":"X","wings":"1","pattern":"X","legs":"F"},"action":"avoid","summary":"good-avoid","bonus":0.8600000000000012},{"rt":393,"stimulus":"\n                    <p><b>Action: <em>avoid</em></b></p>\n                    <p>This is the bee that you just saw.</p>\n                    <img src=\"bees-with-color/bee-B1SF.svg\" width=\"200\">\n                    <p><br>Your bonus pay is unchanged, and remains at $1.00.</p>\n            ","response":0,"trial_type":"html-button-response","trial_index":132,"time_elapsed":1131184,"internal_node_id":"0.0-4.0-1.62","subject_id":"5f77754ba932fb2c4ba181d8","study_id":"60edd13110225f80f9f3709b","session_id":"6196c704ac5958609aceda3b","condition":"contingent","relevant_dimensions":["wings","legs"],"bee_group":{"antennae":"X","wings":"1","pattern":"X","legs":"F"},"bonus":0.8600000000000012},{"rt":8616,"stimulus":"bees-with-color/bee-A1SF.svg","response":1,"trial_type":"image-button-response","trial_index":133,"time_elapsed":1139799,"internal_node_id":"0.0-4.0-0.63","subject_id":"5f77754ba932fb2c4ba181d8","study_id":"60edd13110225f80f9f3709b","session_id":"6196c704ac5958609aceda3b","condition":"contingent","relevant_dimensions":["wings","legs"],"bee_group":{"antennae":"X","wings":"1","pattern":"X","legs":"F"},"action":"avoid","summary":"good-avoid","bonus":0.8600000000000012},{"rt":491,"stimulus":"\n                    <p><b>Action: <em>avoid</em></b></p>\n                    <p>This is the bee that you just saw.</p>\n                    <img src=\"bees-with-color/bee-A1SF.svg\" width=\"200\">\n                    <p><br>Your bonus pay is unchanged, and remains at $1.00.</p>\n            ","response":0,"trial_type":"html-button-response","trial_index":134,"time_elapsed":1140291,"internal_node_id":"0.0-4.0-1.63","subject_id":"5f77754ba932fb2c4ba181d8","study_id":"60edd13110225f80f9f3709b","session_id":"6196c704ac5958609aceda3b","condition":"contingent","relevant_dimensions":["wings","legs"],"bee_group":{"antennae":"X","wings":"1","pattern":"X","legs":"F"},"bonus":0.8600000000000012},{"rt":5122,"stimulus":"You have completed the first part of this experiment.<br><br>You will now begin a shorter second part, in which you will receive no feedback.<br>The same rules regarding bonus pay apply.<br><br>Press any key to begin.","response":"arrowright","trial_type":"html-keyboard-response","trial_index":135,"time_elapsed":1145415,"internal_node_id":"0.0-5.0","subject_id":"5f77754ba932fb2c4ba181d8","study_id":"60edd13110225f80f9f3709b","session_id":"6196c704ac5958609aceda3b","condition":"contingent","relevant_dimensions":["wings","legs"],"bee_group":{"antennae":"X","wings":"1","pattern":"X","legs":"F"},"bonus":0.8600000000000012},{"rt":3282,"stimulus":"bees-with-color/bee-A2DM.svg","response":0,"trial_type":"image-button-response","trial_index":136,"time_elapsed":1148698,"internal_node_id":"0.0-6.0-0.0","subject_id":"5f77754ba932fb2c4ba181d8","study_id":"60edd13110225f80f9f3709b","session_id":"6196c704ac5958609aceda3b","condition":"contingent","relevant_dimensions":["wings","legs"],"bee_group":{"antennae":"X","wings":"1","pattern":"X","legs":"F"},"bonus":0.8600000000000012},{"rt":2016,"stimulus":"bees-with-color/bee-A2SM.svg","response":0,"trial_type":"image-button-response","trial_index":137,"time_elapsed":1150716,"internal_node_id":"0.0-6.0-0.1","subject_id":"5f77754ba932fb2c4ba181d8","study_id":"60edd13110225f80f9f3709b","session_id":"6196c704ac5958609aceda3b","condition":"contingent","relevant_dimensions":["wings","legs"],"bee_group":{"antennae":"X","wings":"1","pattern":"X","legs":"F"},"bonus":0.8600000000000012},{"rt":3446,"stimulus":"bees-with-color/bee-A1SM.svg","response":1,"trial_type":"image-button-response","trial_index":138,"time_elapsed":1154164,"internal_node_id":"0.0-6.0-0.2","subject_id":"5f77754ba932fb2c4ba181d8","study_id":"60edd13110225f80f9f3709b","session_id":"6196c704ac5958609aceda3b","condition":"contingent","relevant_dimensions":["wings","legs"],"bee_group":{"antennae":"X","wings":"1","pattern":"X","legs":"F"},"bonus":0.8600000000000012},{"rt":4330,"stimulus":"bees-with-color/bee-B1DF.svg","response":0,"trial_type":"image-button-response","trial_index":139,"time_elapsed":1158494,"internal_node_id":"0.0-6.0-0.3","subject_id":"5f77754ba932fb2c4ba181d8","study_id":"60edd13110225f80f9f3709b","session_id":"6196c704ac5958609aceda3b","condition":"contingent","relevant_dimensions":["wings","legs"],"bee_group":{"antennae":"X","wings":"1","pattern":"X","legs":"F"},"bonus":0.8600000000000012},{"rt":912,"stimulus":"bees-with-color/bee-B2DM.svg","response":0,"trial_type":"image-button-response","trial_index":140,"time_elapsed":1159407,"internal_node_id":"0.0-6.0-0.4","subject_id":"5f77754ba932fb2c4ba181d8","study_id":"60edd13110225f80f9f3709b","session_id":"6196c704ac5958609aceda3b","condition":"contingent","relevant_dimensions":["wings","legs"],"bee_group":{"antennae":"X","wings":"1","pattern":"X","legs":"F"},"bonus":0.8600000000000012},{"rt":1216,"stimulus":"bees-with-color/bee-B2SF.svg","response":1,"trial_type":"image-button-response","trial_index":141,"time_elapsed":1160624,"internal_node_id":"0.0-6.0-0.5","subject_id":"5f77754ba932fb2c4ba181d8","study_id":"60edd13110225f80f9f3709b","session_id":"6196c704ac5958609aceda3b","condition":"contingent","relevant_dimensions":["wings","legs"],"bee_group":{"antennae":"X","wings":"1","pattern":"X","legs":"F"},"bonus":0.8600000000000012},{"rt":2178,"stimulus":"bees-with-color/bee-B1SF.svg","response":0,"trial_type":"image-button-response","trial_index":142,"time_elapsed":1162804,"internal_node_id":"0.0-6.0-0.6","subject_id":"5f77754ba932fb2c4ba181d8","study_id":"60edd13110225f80f9f3709b","session_id":"6196c704ac5958609aceda3b","condition":"contingent","relevant_dimensions":["wings","legs"],"bee_group":{"antennae":"X","wings":"1","pattern":"X","legs":"F"},"bonus":0.8600000000000012},{"rt":1147,"stimulus":"bees-with-color/bee-B1DM.svg","response":0,"trial_type":"image-button-response","trial_index":143,"time_elapsed":1163950,"internal_node_id":"0.0-6.0-0.7","subject_id":"5f77754ba932fb2c4ba181d8","study_id":"60edd13110225f80f9f3709b","session_id":"6196c704ac5958609aceda3b","condition":"contingent","relevant_dimensions":["wings","legs"],"bee_group":{"antennae":"X","wings":"1","pattern":"X","legs":"F"},"bonus":0.8600000000000012},{"rt":451,"stimulus":"bees-with-color/bee-B2DF.svg","response":0,"trial_type":"image-button-response","trial_index":144,"time_elapsed":1164403,"internal_node_id":"0.0-6.0-0.8","subject_id":"5f77754ba932fb2c4ba181d8","study_id":"60edd13110225f80f9f3709b","session_id":"6196c704ac5958609aceda3b","condition":"contingent","relevant_dimensions":["wings","legs"],"bee_group":{"antennae":"X","wings":"1","pattern":"X","legs":"F"},"bonus":0.8600000000000012},{"rt":346,"stimulus":"bees-with-color/bee-A1DF.svg","response":0,"trial_type":"image-button-response","trial_index":145,"time_elapsed":1164750,"internal_node_id":"0.0-6.0-0.9","subject_id":"5f77754ba932fb2c4ba181d8","study_id":"60edd13110225f80f9f3709b","session_id":"6196c704ac5958609aceda3b","condition":"contingent","relevant_dimensions":["wings","legs"],"bee_group":{"antennae":"X","wings":"1","pattern":"X","legs":"F"},"bonus":0.8600000000000012},{"rt":397,"stimulus":"bees-with-color/bee-A1SF.svg","response":1,"trial_type":"image-button-response","trial_index":146,"time_elapsed":1165149,"internal_node_id":"0.0-6.0-0.10","subject_id":"5f77754ba932fb2c4ba181d8","study_id":"60edd13110225f80f9f3709b","session_id":"6196c704ac5958609aceda3b","condition":"contingent","relevant_dimensions":["wings","legs"],"bee_group":{"antennae":"X","wings":"1","pattern":"X","legs":"F"},"bonus":0.8600000000000012},{"rt":485,"stimulus":"bees-with-color/bee-A2SF.svg","response":1,"trial_type":"image-button-response","trial_index":147,"time_elapsed":1165634,"internal_node_id":"0.0-6.0-0.11","subject_id":"5f77754ba932fb2c4ba181d8","study_id":"60edd13110225f80f9f3709b","session_id":"6196c704ac5958609aceda3b","condition":"contingent","relevant_dimensions":["wings","legs"],"bee_group":{"antennae":"X","wings":"1","pattern":"X","legs":"F"},"bonus":0.8600000000000012},{"rt":803,"stimulus":"bees-with-color/bee-B1SM.svg","response":0,"trial_type":"image-button-response","trial_index":148,"time_elapsed":1166438,"internal_node_id":"0.0-6.0-0.12","subject_id":"5f77754ba932fb2c4ba181d8","study_id":"60edd13110225f80f9f3709b","session_id":"6196c704ac5958609aceda3b","condition":"contingent","relevant_dimensions":["wings","legs"],"bee_group":{"antennae":"X","wings":"1","pattern":"X","legs":"F"},"bonus":0.8600000000000012},{"rt":171,"stimulus":"bees-with-color/bee-A1DM.svg","response":0,"trial_type":"image-button-response","trial_index":149,"time_elapsed":1166611,"internal_node_id":"0.0-6.0-0.13","subject_id":"5f77754ba932fb2c4ba181d8","study_id":"60edd13110225f80f9f3709b","session_id":"6196c704ac5958609aceda3b","condition":"contingent","relevant_dimensions":["wings","legs"],"bee_group":{"antennae":"X","wings":"1","pattern":"X","legs":"F"},"bonus":0.8600000000000012},{"rt":300,"stimulus":"bees-with-color/bee-A2DF.svg","response":0,"trial_type":"image-button-response","trial_index":150,"time_elapsed":1166912,"internal_node_id":"0.0-6.0-0.14","subject_id":"5f77754ba932fb2c4ba181d8","study_id":"60edd13110225f80f9f3709b","session_id":"6196c704ac5958609aceda3b","condition":"contingent","relevant_dimensions":["wings","legs"],"bee_group":{"antennae":"X","wings":"1","pattern":"X","legs":"F"},"bonus":0.8600000000000012},{"rt":370,"stimulus":"bees-with-color/bee-B2SM.svg","response":1,"trial_type":"image-button-response","trial_index":151,"time_elapsed":1167285,"internal_node_id":"0.0-6.0-0.15","subject_id":"5f77754ba932fb2c4ba181d8","study_id":"60edd13110225f80f9f3709b","session_id":"6196c704ac5958609aceda3b","condition":"contingent","relevant_dimensions":["wings","legs"],"bee_group":{"antennae":"X","wings":"1","pattern":"X","legs":"F"},"bonus":0.8600000000000012},{"rt":459,"stimulus":"bees-with-color/bee-A2SM.svg","response":0,"trial_type":"image-button-response","trial_index":152,"time_elapsed":1167744,"internal_node_id":"0.0-6.0-0.16","subject_id":"5f77754ba932fb2c4ba181d8","study_id":"60edd13110225f80f9f3709b","session_id":"6196c704ac5958609aceda3b","condition":"contingent","relevant_dimensions":["wings","legs"],"bee_group":{"antennae":"X","wings":"1","pattern":"X","legs":"F"},"bonus":0.8600000000000012},{"rt":168,"stimulus":"bees-with-color/bee-B2SM.svg","response":0,"trial_type":"image-button-response","trial_index":153,"time_elapsed":1167914,"internal_node_id":"0.0-6.0-0.17","subject_id":"5f77754ba932fb2c4ba181d8","study_id":"60edd13110225f80f9f3709b","session_id":"6196c704ac5958609aceda3b","condition":"contingent","relevant_dimensions":["wings","legs"],"bee_group":{"antennae":"X","wings":"1","pattern":"X","legs":"F"},"bonus":0.8600000000000012},{"rt":148,"stimulus":"bees-with-color/bee-A2DF.svg","response":0,"trial_type":"image-button-response","trial_index":154,"time_elapsed":1168063,"internal_node_id":"0.0-6.0-0.18","subject_id":"5f77754ba932fb2c4ba181d8","study_id":"60edd13110225f80f9f3709b","session_id":"6196c704ac5958609aceda3b","condition":"contingent","relevant_dimensions":["wings","legs"],"bee_group":{"antennae":"X","wings":"1","pattern":"X","legs":"F"},"bonus":0.8600000000000012},{"rt":343,"stimulus":"bees-with-color/bee-B1DM.svg","response":1,"trial_type":"image-button-response","trial_index":155,"time_elapsed":1168407,"internal_node_id":"0.0-6.0-0.19","subject_id":"5f77754ba932fb2c4ba181d8","study_id":"60edd13110225f80f9f3709b","session_id":"6196c704ac5958609aceda3b","condition":"contingent","relevant_dimensions":["wings","legs"],"bee_group":{"antennae":"X","wings":"1","pattern":"X","legs":"F"},"bonus":0.8600000000000012},{"rt":648,"stimulus":"bees-with-color/bee-A1DF.svg","response":1,"trial_type":"image-button-response","trial_index":156,"time_elapsed":1169057,"internal_node_id":"0.0-6.0-0.20","subject_id":"5f77754ba932fb2c4ba181d8","study_id":"60edd13110225f80f9f3709b","session_id":"6196c704ac5958609aceda3b","condition":"contingent","relevant_dimensions":["wings","legs"],"bee_group":{"antennae":"X","wings":"1","pattern":"X","legs":"F"},"bonus":0.8600000000000012},{"rt":289,"stimulus":"bees-with-color/bee-B1DF.svg","response":0,"trial_type":"image-button-response","trial_index":157,"time_elapsed":1169348,"internal_node_id":"0.0-6.0-0.21","subject_id":"5f77754ba932fb2c4ba181d8","study_id":"60edd13110225f80f9f3709b","session_id":"6196c704ac5958609aceda3b","condition":"contingent","relevant_dimensions":["wings","legs"],"bee_group":{"antennae":"X","wings":"1","pattern":"X","legs":"F"},"bonus":0.8600000000000012},{"rt":375,"stimulus":"bees-with-color/bee-B2SF.svg","response":1,"trial_type":"image-button-response","trial_index":158,"time_elapsed":1169725,"internal_node_id":"0.0-6.0-0.22","subject_id":"5f77754ba932fb2c4ba181d8","study_id":"60edd13110225f80f9f3709b","session_id":"6196c704ac5958609aceda3b","condition":"contingent","relevant_dimensions":["wings","legs"],"bee_group":{"antennae":"X","wings":"1","pattern":"X","legs":"F"},"bonus":0.8600000000000012},{"rt":296,"stimulus":"bees-with-color/bee-A1SM.svg","response":1,"trial_type":"image-button-response","trial_index":159,"time_elapsed":1170021,"internal_node_id":"0.0-6.0-0.23","subject_id":"5f77754ba932fb2c4ba181d8","study_id":"60edd13110225f80f9f3709b","session_id":"6196c704ac5958609aceda3b","condition":"contingent","relevant_dimensions":["wings","legs"],"bee_group":{"antennae":"X","wings":"1","pattern":"X","legs":"F"},"bonus":0.8600000000000012},{"rt":281,"stimulus":"bees-with-color/bee-A2SF.svg","response":1,"trial_type":"image-button-response","trial_index":160,"time_elapsed":1170304,"internal_node_id":"0.0-6.0-0.24","subject_id":"5f77754ba932fb2c4ba181d8","study_id":"60edd13110225f80f9f3709b","session_id":"6196c704ac5958609aceda3b","condition":"contingent","relevant_dimensions":["wings","legs"],"bee_group":{"antennae":"X","wings":"1","pattern":"X","legs":"F"},"bonus":0.8600000000000012},{"rt":291,"stimulus":"bees-with-color/bee-A1DM.svg","response":1,"trial_type":"image-button-response","trial_index":161,"time_elapsed":1170595,"internal_node_id":"0.0-6.0-0.25","subject_id":"5f77754ba932fb2c4ba181d8","study_id":"60edd13110225f80f9f3709b","session_id":"6196c704ac5958609aceda3b","condition":"contingent","relevant_dimensions":["wings","legs"],"bee_group":{"antennae":"X","wings":"1","pattern":"X","legs":"F"},"bonus":0.8600000000000012},{"rt":335,"stimulus":"bees-with-color/bee-B2DF.svg","response":0,"trial_type":"image-button-response","trial_index":162,"time_elapsed":1170931,"internal_node_id":"0.0-6.0-0.26","subject_id":"5f77754ba932fb2c4ba181d8","study_id":"60edd13110225f80f9f3709b","session_id":"6196c704ac5958609aceda3b","condition":"contingent","relevant_dimensions":["wings","legs"],"bee_group":{"antennae":"X","wings":"1","pattern":"X","legs":"F"},"bonus":0.8600000000000012},{"rt":395,"stimulus":"bees-with-color/bee-B1SF.svg","response":1,"trial_type":"image-button-response","trial_index":163,"time_elapsed":1171327,"internal_node_id":"0.0-6.0-0.27","subject_id":"5f77754ba932fb2c4ba181d8","study_id":"60edd13110225f80f9f3709b","session_id":"6196c704ac5958609aceda3b","condition":"contingent","relevant_dimensions":["wings","legs"],"bee_group":{"antennae":"X","wings":"1","pattern":"X","legs":"F"},"bonus":0.8600000000000012},{"rt":210,"stimulus":"bees-with-color/bee-A2DM.svg","response":1,"trial_type":"image-button-response","trial_index":164,"time_elapsed":1171538,"internal_node_id":"0.0-6.0-0.28","subject_id":"5f77754ba932fb2c4ba181d8","study_id":"60edd13110225f80f9f3709b","session_id":"6196c704ac5958609aceda3b","condition":"contingent","relevant_dimensions":["wings","legs"],"bee_group":{"antennae":"X","wings":"1","pattern":"X","legs":"F"},"bonus":0.8600000000000012},{"rt":329,"stimulus":"bees-with-color/bee-B1SM.svg","response":0,"trial_type":"image-button-response","trial_index":165,"time_elapsed":117