[{"success":true,"trial_type":"fullscreen","trial_index":0,"time_elapsed":4109,"internal_node_id":"0.0-0.0","subject_id":"6075cf9b059725b365f85e34","study_id":"60edd13110225f80f9f3709b","session_id":"6196c4a6aa85b596f57e1a14","condition":"full-information","relevant_dimensions":["antennae","wings"],"bee_group":{"antennae":"B","wings":"1","pattern":"X","legs":"X"},"bonus":1.740000000000001},{"success":true,"timeout":false,"failed_images":[],"failed_audio":[],"failed_video":[],"trial_type":"preload","trial_index":1,"time_elapsed":6076,"internal_node_id":"0.0-1.0","subject_id":"6075cf9b059725b365f85e34","study_id":"60edd13110225f80f9f3709b","session_id":"6196c4a6aa85b596f57e1a14","condition":"full-information","relevant_dimensions":["antennae","wings"],"bee_group":{"antennae":"B","wings":"1","pattern":"X","legs":"X"},"bonus":1.740000000000001},{"rt":2561.099999964237,"stimulus":"Welcome! Press any key to begin.","response":" ","trial_type":"html-keyboard-response","trial_index":2,"time_elapsed":8638,"internal_node_id":"0.0-2.0","subject_id":"6075cf9b059725b365f85e34","study_id":"60edd13110225f80f9f3709b","session_id":"6196c4a6aa85b596f57e1a14","condition":"full-information","relevant_dimensions":["antennae","wings"],"bee_group":{"antennae":"B","wings":"1","pattern":"X","legs":"X"},"bonus":1.740000000000001},{"view_history":[{"page_index":0,"viewing_time":3927.199999988079},{"page_index":1,"viewing_time":14087.900000035763},{"page_index":2,"viewing_time":14496.199999988079},{"page_index":3,"viewing_time":17719.899999976158},{"page_index":4,"viewing_time":5648},{"page_index":5,"viewing_time":5447.800000011921},{"page_index":6,"viewing_time":9344.600000023842},{"page_index":7,"viewing_time":5543.099999964237},{"page_index":8,"viewing_time":4232.400000035763},{"page_index":9,"viewing_time":3215.800000011921},{"page_index":10,"viewing_time":8472.199999988079},{"page_index":11,"viewing_time":18791.599999964237},{"page_index":12,"viewing_time":5744.400000035763},{"page_index":13,"viewing_time":1144},{"page_index":14,"viewing_time":2816.099999964237}],"rt":120631.80000001192,"trial_type":"instructions","trial_index":3,"time_elapsed":129270,"internal_node_id":"0.0-3.0-0.0","subject_id":"6075cf9b059725b365f85e34","study_id":"60edd13110225f80f9f3709b","session_id":"6196c4a6aa85b596f57e1a14","condition":"full-information","relevant_dimensions":["antennae","wings"],"bee_group":{"antennae":"B","wings":"1","pattern":"X","legs":"X"},"bonus":1.740000000000001},{"rt":11973.400000035763,"response":{"Q0":["Two or six legs","Stripes or spots on body","Single or double wings","Antennae or no antennae"]},"question_order":[0],"trial_type":"survey-multi-select","trial_index":4,"time_elapsed":141246,"internal_node_id":"0.0-3.0-1.0","subject_id":"6075cf9b059725b365f85e34","study_id":"60edd13110225f80f9f3709b","session_id":"6196c4a6aa85b596f57e1a14","condition":"full-information","relevant_dimensions":["antennae","wings"],"bee_group":{"antennae":"B","wings":"1","pattern":"X","legs":"X"},"correct":true,"bonus":1.740000000000001},{"rt":18307.599999964237,"response":{"Q1":"No.","Q2":"Based on the four features of the bee.","Q3":"You learn if it was friendly or dangerous, but do not alter your bonus."},"question_order":[0,1,2],"trial_type":"survey-multi-choice","trial_index":5,"time_elapsed":159558,"internal_node_id":"0.0-3.0-2.0","subject_id":"6075cf9b059725b365f85e34","study_id":"60edd13110225f80f9f3709b","session_id":"6196c4a6aa85b596f57e1a14","condition":"full-information","relevant_dimensions":["antennae","wings"],"bee_group":{"antennae":"B","wings":"1","pattern":"X","legs":"X"},"correct":true,"bonus":1.740000000000001},{"rt":3836.300000011921,"stimulus":"<p>Congrats, you got everything right<br>When you're ready, click the button below to continue to the experiment.</p>","response":0,"trial_type":"html-button-response","trial_index":6,"time_elapsed":163398,"internal_node_id":"0.0-3.0-3.0","subject_id":"6075cf9b059725b365f85e34","study_id":"60edd13110225f80f9f3709b","session_id":"6196c4a6aa85b596f57e1a14","condition":"full-information","relevant_dimensions":["antennae","wings"],"bee_group":{"antennae":"B","wings":"1","pattern":"X","legs":"X"},"bonus":1.740000000000001},{"rt":9150,"stimulus":"bees-with-color/bee-A2DM.svg","response":1,"trial_type":"image-button-response","trial_index":7,"time_elapsed":172550,"internal_node_id":"0.0-4.0-0.0","subject_id":"6075cf9b059725b365f85e34","study_id":"60edd13110225f80f9f3709b","session_id":"6196c4a6aa85b596f57e1a14","condition":"full-information","relevant_dimensions":["antennae","wings"],"bee_group":{"antennae":"B","wings":"1","pattern":"X","legs":"X"},"action":"avoid","summary":"bad-avoid","bonus":1.740000000000001},{"rt":15668.399999976158,"stimulus":"\n                    <p><b>Action: <em>avoid</em></b></p>\n                    <p>This is the bee that you just saw.</p>\n                    <img src=\"bees-with-color/bee-A2DM.svg\" width=\"200\">\n                    <p><span class=\"redText\">Bad choice,</span> the bee was friendly.<br>Your bonus pay is unchanged, and remains at $0.54.</p>\n            ","response":0,"trial_type":"html-button-response","trial_index":8,"time_elapsed":188221,"internal_node_id":"0.0-4.0-1.0","subject_id":"6075cf9b059725b365f85e34","study_id":"60edd13110225f80f9f3709b","session_id":"6196c4a6aa85b596f57e1a14","condition":"full-information","relevant_dimensions":["antennae","wings"],"bee_group":{"antennae":"B","wings":"1","pattern":"X","legs":"X"},"bonus":1.740000000000001},{"rt":6398.5,"stimulus":"bees-with-color/bee-A1DF.svg","response":1,"trial_type":"image-button-response","trial_index":9,"time_elapsed":194622,"internal_node_id":"0.0-4.0-0.1","subject_id":"6075cf9b059725b365f85e34","study_id":"60edd13110225f80f9f3709b","session_id":"6196c4a6aa85b596f57e1a14","condition":"full-information","relevant_dimensions":["antennae","wings"],"bee_group":{"antennae":"B","wings":"1","pattern":"X","legs":"X"},"action":"avoid","summary":"bad-avoid","bonus":1.740000000000001},{"rt":4358,"stimulus":"\n                    <p><b>Action: <em>avoid</em></b></p>\n                    <p>This is the bee that you just saw.</p>\n                    <img src=\"bees-with-color/bee-A1DF.svg\" width=\"200\">\n                    <p><span class=\"redText\">Bad choice,</span> the bee was friendly.<br>Your bonus pay is unchanged, and remains at $0.54.</p>\n            ","response":0,"trial_type":"html-button-response","trial_index":10,"time_elapsed":198981,"internal_node_id":"0.0-4.0-1.1","subject_id":"6075cf9b059725b365f85e34","study_id":"60edd13110225f80f9f3709b","session_id":"6196c4a6aa85b596f57e1a14","condition":"full-information","relevant_dimensions":["antennae","wings"],"bee_group":{"antennae":"B","wings":"1","pattern":"X","legs":"X"},"bonus":1.740000000000001},{"rt":2662.5,"stimulus":"bees-with-color/bee-B1DF.svg","response":1,"trial_type":"image-button-response","trial_index":11,"time_elapsed":201646,"internal_node_id":"0.0-4.0-0.2","subject_id":"6075cf9b059725b365f85e34","study_id":"60edd13110225f80f9f3709b","session_id":"6196c4a6aa85b596f57e1a14","condition":"full-information","relevant_dimensions":["antennae","wings"],"bee_group":{"antennae":"B","wings":"1","pattern":"X","legs":"X"},"action":"avoid","summary":"good-avoid","bonus":1.740000000000001},{"rt":5374.300000011921,"stimulus":"\n                    <p><b>Action: <em>avoid</em></b></p>\n                    <p>This is the bee that you just saw.</p>\n                    <img src=\"bees-with-color/bee-B1DF.svg\" width=\"200\">\n                    <p><span class=\"greenText\">Good choice!</span>  This bee would have stung you.<br>Your bonus pay is unchanged, and remains at $0.54.</p>\n            ","response":0,"trial_type":"html-button-response","trial_index":12,"time_elapsed":207022,"internal_node_id":"0.0-4.0-1.2","subject_id":"6075cf9b059725b365f85e34","study_id":"60edd13110225f80f9f3709b","session_id":"6196c4a6aa85b596f57e1a14","condition":"full-information","relevant_dimensions":["antennae","wings"],"bee_group":{"antennae":"B","wings":"1","pattern":"X","legs":"X"},"bonus":1.740000000000001},{"rt":10518.199999988079,"stimulus":"bees-with-color/bee-B2DM.svg","response":1,"trial_type":"image-button-response","trial_index":13,"time_elapsed":217541,"internal_node_id":"0.0-4.0-0.3","subject_id":"6075cf9b059725b365f85e34","study_id":"60edd13110225f80f9f3709b","session_id":"6196c4a6aa85b596f57e1a14","condition":"full-information","relevant_dimensions":["antennae","wings"],"bee_group":{"antennae":"B","wings":"1","pattern":"X","legs":"X"},"action":"avoid","summary":"bad-avoid","bonus":1.740000000000001},{"rt":8767.200000047684,"stimulus":"\n                    <p><b>Action: <em>avoid</em></b></p>\n                    <p>This is the bee that you just saw.</p>\n                    <img src=\"bees-with-color/bee-B2DM.svg\" width=\"200\">\n                    <p><span class=\"redText\">Bad choice,</span> the bee was friendly.<br>Your bonus pay is unchanged, and remains at $0.54.</p>\n            ","response":0,"trial_type":"html-button-response","trial_index":14,"time_elapsed":226310,"internal_node_id":"0.0-4.0-1.3","subject_id":"6075cf9b059725b365f85e34","study_id":"60edd13110225f80f9f3709b","session_id":"6196c4a6aa85b596f57e1a14","condition":"full-information","relevant_dimensions":["antennae","wings"],"bee_group":{"antennae":"B","wings":"1","pattern":"X","legs":"X"},"bonus":1.740000000000001},{"rt":11437.199999988079,"stimulus":"bees-with-color/bee-B2DF.svg","response":1,"trial_type":"image-button-response","trial_index":15,"time_elapsed":237749,"internal_node_id":"0.0-4.0-0.4","subject_id":"6075cf9b059725b365f85e34","study_id":"60edd13110225f80f9f3709b","session_id":"6196c4a6aa85b596f57e1a14","condition":"full-information","relevant_dimensions":["antennae","wings"],"bee_group":{"antennae":"B","wings":"1","pattern":"X","legs":"X"},"action":"avoid","summary":"bad-avoid","bonus":1.740000000000001},{"rt":4030.600000023842,"stimulus":"\n                    <p><b>Action: <em>avoid</em></b></p>\n                    <p>This is the bee that you just saw.</p>\n                    <img src=\"bees-with-color/bee-B2DF.svg\" width=\"200\">\n                    <p><span class=\"redText\">Bad choice,</span> the bee was friendly.<br>Your bonus pay is unchanged, and remains at $0.54.</p>\n            ","response":0,"trial_type":"html-button-response","trial_index":16,"time_elapsed":241781,"internal_node_id":"0.0-4.0-1.4","subject_id":"6075cf9b059725b365f85e34","study_id":"60edd13110225f80f9f3709b","session_id":"6196c4a6aa85b596f57e1a14","condition":"full-information","relevant_dimensions":["antennae","wings"],"bee_group":{"antennae":"B","wings":"1","pattern":"X","legs":"X"},"bonus":1.740000000000001},{"rt":4390.599999964237,"stimulus":"bees-with-color/bee-B1SM.svg","response":1,"trial_type":"image-button-response","trial_index":17,"time_elapsed":246174,"internal_node_id":"0.0-4.0-0.5","subject_id":"6075cf9b059725b365f85e34","study_id":"60edd13110225f80f9f3709b","session_id":"6196c4a6aa85b596f57e1a14","condition":"full-information","relevant_dimensions":["antennae","wings"],"bee_group":{"antennae":"B","wings":"1","pattern":"X","legs":"X"},"action":"avoid","summary":"good-avoid","bonus":1.740000000000001},{"rt":4294.800000011921,"stimulus":"\n                    <p><b>Action: <em>avoid</em></b></p>\n                    <p>This is the bee that you just saw.</p>\n                    <img src=\"bees-with-color/bee-B1SM.svg\" width=\"200\">\n                    <p><span class=\"greenText\">Good choice!</span>  This bee would have stung you.<br>Your bonus pay is unchanged, and remains at $0.54.</p>\n            ","response":0,"trial_type":"html-button-response","trial_index":18,"time_elapsed":250469,"internal_node_id":"0.0-4.0-1.5","subject_id":"6075cf9b059725b365f85e34","study_id":"60edd13110225f80f9f3709b","session_id":"6196c4a6aa85b596f57e1a14","condition":"full-information","relevant_dimensions":["antennae","wings"],"bee_group":{"antennae":"B","wings":"1","pattern":"X","legs":"X"},"bonus":1.740000000000001},{"rt":12566.399999976158,"stimulus":"bees-with-color/bee-A1DM.svg","response":1,"trial_type":"image-button-response","trial_index":19,"time_elapsed":263038,"internal_node_id":"0.0-4.0-0.6","subject_id":"6075cf9b059725b365f85e34","study_id":"60edd13110225f80f9f3709b","session_id":"6196c4a6aa85b596f57e1a14","condition":"full-information","relevant_dimensions":["antennae","wings"],"bee_group":{"antennae":"B","wings":"1","pattern":"X","legs":"X"},"action":"avoid","summary":"bad-avoid","bonus":1.740000000000001},{"rt":4262.400000035763,"stimulus":"\n                    <p><b>Action: <em>avoid</em></b></p>\n                    <p>This is the bee that you just saw.</p>\n                    <img src=\"bees-with-color/bee-A1DM.svg\" width=\"200\">\n                    <p><span class=\"redText\">Bad choice,</span> the bee was friendly.<br>Your bonus pay is unchanged, and remains at $0.54.</p>\n            ","response":0,"trial_type":"html-button-response","trial_index":20,"time_elapsed":267301,"internal_node_id":"0.0-4.0-1.6","subject_id":"6075cf9b059725b365f85e34","study_id":"60edd13110225f80f9f3709b","session_id":"6196c4a6aa85b596f57e1a14","condition":"full-information","relevant_dimensions":["antennae","wings"],"bee_group":{"antennae":"B","wings":"1","pattern":"X","legs":"X"},"bonus":1.740000000000001},{"rt":17077.69999998808,"stimulus":"bees-with-color/bee-A2DF.svg","response":1,"trial_type":"image-button-response","trial_index":21,"time_elapsed":284381,"internal_node_id":"0.0-4.0-0.7","subject_id":"6075cf9b059725b365f85e34","study_id":"60edd13110225f80f9f3709b","session_id":"6196c4a6aa85b596f57e1a14","condition":"full-information","relevant_dimensions":["antennae","wings"],"bee_group":{"antennae":"B","wings":"1","pattern":"X","legs":"X"},"action":"avoid","summary":"bad-avoid","bonus":1.740000000000001},{"rt":3494.5,"stimulus":"\n                    <p><b>Action: <em>avoid</em></b></p>\n                    <p>This is the bee that you just saw.</p>\n                    <img src=\"bees-with-color/bee-A2DF.svg\" width=\"200\">\n                    <p><span class=\"redText\">Bad choice,</span> the bee was friendly.<br>Your bonus pay is unchanged, and remains at $0.54.</p>\n            ","response":0,"trial_type":"html-button-response","trial_index":22,"time_elapsed":287877,"internal_node_id":"0.0-4.0-1.7","subject_id":"6075cf9b059725b365f85e34","study_id":"60edd13110225f80f9f3709b","session_id":"6196c4a6aa85b596f57e1a14","condition":"full-information","relevant_dimensions":["antennae","wings"],"bee_group":{"antennae":"B","wings":"1","pattern":"X","legs":"X"},"bonus":1.740000000000001},{"rt":11878.100000023842,"stimulus":"bees-with-color/bee-A1SF.svg","response":1,"trial_type":"image-button-response","trial_index":23,"time_elapsed":299757,"internal_node_id":"0.0-4.0-0.8","subject_id":"6075cf9b059725b365f85e34","study_id":"60edd13110225f80f9f3709b","session_id":"6196c4a6aa85b596f57e1a14","condition":"full-information","relevant_dimensions":["antennae","wings"],"bee_group":{"antennae":"B","wings":"1","pattern":"X","legs":"X"},"action":"avoid","summary":"bad-avoid","bonus":1.740000000000001},{"rt":7230.599999964237,"stimulus":"\n                    <p><b>Action: <em>avoid</em></b></p>\n                    <p>This is the bee that you just saw.</p>\n                    <img src=\"bees-with-color/bee-A1SF.svg\" width=\"200\">\n                    <p><span class=\"redText\">Bad choice,</span> the bee was friendly.<br>Your bonus pay is unchanged, and remains at $0.54.</p>\n            ","response":0,"trial_type":"html-button-response","trial_index":24,"time_elapsed":306989,"internal_node_id":"0.0-4.0-1.8","subject_id":"6075cf9b059725b365f85e34","study_id":"60edd13110225f80f9f3709b","session_id":"6196c4a6aa85b596f57e1a14","condition":"full-information","relevant_dimensions":["antennae","wings"],"bee_group":{"antennae":"B","wings":"1","pattern":"X","legs":"X"},"bonus":1.740000000000001},{"rt":17189.80000001192,"stimulus":"bees-with-color/bee-B1DM.svg","response":1,"trial_type":"image-button-response","trial_index":25,"time_elapsed":324182,"internal_node_id":"0.0-4.0-0.9","subject_id":"6075cf9b059725b365f85e34","study_id":"60edd13110225f80f9f3709b","session_id":"6196c4a6aa85b596f57e1a14","condition":"full-information","relevant_dimensions":["antennae","wings"],"bee_group":{"antennae":"B","wings":"1","pattern":"X","legs":"X"},"action":"avoid","summary":"good-avoid","bonus":1.740000000000001},{"rt":4398.800000011921,"stimulus":"\n                    <p><b>Action: <em>avoid</em></b></p>\n                    <p>This is the bee that you just saw.</p>\n                    <img src=\"bees-with-color/bee-B1DM.svg\" width=\"200\">\n                    <p><span class=\"greenText\">Good choice!</span>  This bee would have stung you.<br>Your bonus pay is unchanged, and remains at $0.54.</p>\n            ","response":0,"trial_type":"html-button-response","trial_index":26,"time_elapsed":328582,"internal_node_id":"0.0-4.0-1.9","subject_id":"6075cf9b059725b365f85e34","study_id":"60edd13110225f80f9f3709b","session_id":"6196c4a6aa85b596f57e1a14","condition":"full-information","relevant_dimensions":["antennae","wings"],"bee_group":{"antennae":"B","wings":"1","pattern":"X","legs":"X"},"bonus":1.740000000000001},{"rt":20878.69999998808,"stimulus":"bees-with-color/bee-A2SM.svg","response":1,"trial_type":"image-button-response","trial_index":27,"time_elapsed":349462,"internal_node_id":"0.0-4.0-0.10","subject_id":"6075cf9b059725b365f85e34","study_id":"60edd13110225f80f9f3709b","session_id":"6196c4a6aa85b596f57e1a14","condition":"full-information","relevant_dimensions":["antennae","wings"],"bee_group":{"antennae":"B","wings":"1","pattern":"X","legs":"X"},"action":"avoid","summary":"bad-avoid","bonus":1.740000000000001},{"rt":6566.399999976158,"stimulus":"\n                    <p><b>Action: <em>avoid</em></b></p>\n                    <p>This is the bee that you just saw.</p>\n                    <img src=\"bees-with-color/bee-A2SM.svg\" width=\"200\">\n                    <p><span class=\"redText\">Bad choice,</span> the bee was friendly.<br>Your bonus pay is unchanged, and remains at $0.54.</p>\n            ","response":0,"trial_type":"html-button-response","trial_index":28,"time_elapsed":356030,"internal_node_id":"0.0-4.0-1.10","subject_id":"6075cf9b059725b365f85e34","study_id":"60edd13110225f80f9f3709b","session_id":"6196c4a6aa85b596f57e1a14","condition":"full-information","relevant_dimensions":["antennae","wings"],"bee_group":{"antennae":"B","wings":"1","pattern":"X","legs":"X"},"bonus":1.740000000000001},{"rt":15102.400000035763,"stimulus":"bees-with-color/bee-B1SF.svg","response":1,"trial_type":"image-button-response","trial_index":29,"time_elapsed":371134,"internal_node_id":"0.0-4.0-0.11","subject_id":"6075cf9b059725b365f85e34","study_id":"60edd13110225f80f9f3709b","session_id":"6196c4a6aa85b596f57e1a14","condition":"full-information","relevant_dimensions":["antennae","wings"],"bee_group":{"antennae":"B","wings":"1","pattern":"X","legs":"X"},"action":"avoid","summary":"good-avoid","bonus":1.740000000000001},{"rt":15911.5,"stimulus":"\n                    <p><b>Action: <em>avoid</em></b></p>\n                    <p>This is the bee that you just saw.</p>\n                    <img src=\"bees-with-color/bee-B1SF.svg\" width=\"200\">\n                    <p><span class=\"greenText\">Good choice!</span>  This bee would have stung you.<br>Your bonus pay is unchanged, and remains at $0.54.</p>\n            ","response":0,"trial_type":"html-button-response","trial_index":30,"time_elapsed":387046,"internal_node_id":"0.0-4.0-1.11","subject_id":"6075cf9b059725b365f85e34","study_id":"60edd13110225f80f9f3709b","session_id":"6196c4a6aa85b596f57e1a14","condition":"full-information","relevant_dimensions":["antennae","wings"],"bee_group":{"antennae":"B","wings":"1","pattern":"X","legs":"X"},"bonus":1.740000000000001},{"rt":21005.80000001192,"stimulus":"bees-with-color/bee-A1SM.svg","response":1,"trial_type":"image-button-response","trial_index":31,"time_elapsed":408053,"internal_node_id":"0.0-4.0-0.12","subject_id":"6075cf9b059725b365f85e34","study_id":"60edd13110225f80f9f3709b","session_id":"6196c4a6aa85b596f57e1a14","condition":"full-information","relevant_dimensions":["antennae","wings"],"bee_group":{"antennae":"B","wings":"1","pattern":"X","legs":"X"},"action":"avoid","summary":"bad-avoid","bonus":1.740000000000001},{"rt":2991.600000023842,"stimulus":"\n                    <p><b>Action: <em>avoid</em></b></p>\n                    <p>This is the bee that you just saw.</p>\n                    <img src=\"bees-with-color/bee-A1SM.svg\" width=\"200\">\n                    <p><span class=\"redText\">Bad choice,</span> the bee was friendly.<br>Your bonus pay is unchanged, and remains at $0.54.</p>\n            ","response":0,"trial_type":"html-button-response","trial_index":32,"time_elapsed":411046,"internal_node_id":"0.0-4.0-1.12","subject_id":"6075cf9b059725b365f85e34","study_id":"60edd13110225f80f9f3709b","session_id":"6196c4a6aa85b596f57e1a14","condition":"full-information","relevant_dimensions":["antennae","wings"],"bee_group":{"antennae":"B","wings":"1","pattern":"X","legs":"X"},"bonus":1.740000000000001},{"rt":20838.69999998808,"stimulus":"bees-with-color/bee-A2SF.svg","response":1,"trial_type":"image-button-response","trial_index":33,"time_elapsed":431886,"internal_node_id":"0.0-4.0-0.13","subject_id":"6075cf9b059725b365f85e34","study_id":"60edd13110225f80f9f3709b","session_id":"6196c4a6aa85b596f57e1a14","condition":"full-information","relevant_dimensions":["antennae","wings"],"bee_group":{"antennae":"B","wings":"1","pattern":"X","legs":"X"},"action":"avoid","summary":"bad-avoid","bonus":1.740000000000001},{"rt":3318.199999988079,"stimulus":"\n                    <p><b>Action: <em>avoid</em></b></p>\n                    <p>This is the bee that you just saw.</p>\n                    <img src=\"bees-with-color/bee-A2SF.svg\" width=\"200\">\n                    <p><span class=\"redText\">Bad choice,</span> the bee was friendly.<br>Your bonus pay is unchanged, and remains at $0.54.</p>\n            ","response":0,"trial_type":"html-button-response","trial_index":34,"time_elapsed":435205,"internal_node_id":"0.0-4.0-1.13","subject_id":"6075cf9b059725b365f85e34","study_id":"60edd13110225f80f9f3709b","session_id":"6196c4a6aa85b596f57e1a14","condition":"full-information","relevant_dimensions":["antennae","wings"],"bee_group":{"antennae":"B","wings":"1","pattern":"X","legs":"X"},"bonus":1.740000000000001},{"rt":21175.100000023842,"stimulus":"bees-with-color/bee-B2SM.svg","response":0,"trial_type":"image-button-response","trial_index":35,"time_elapsed":456382,"internal_node_id":"0.0-4.0-0.14","subject_id":"6075cf9b059725b365f85e34","study_id":"60edd13110225f80f9f3709b","session_id":"6196c4a6aa85b596f57e1a14","condition":"full-information","relevant_dimensions":["antennae","wings"],"bee_group":{"antennae":"B","wings":"1","pattern":"X","legs":"X"},"action":"harvest","summary":"good-harvest","bonus":1.740000000000001},{"rt":6150.699999988079,"stimulus":"\n                    <p><b>Action: <em>harvest</em></b></p>\n                    <p>This is the bee that you just saw.</p>\n                    <img src=\"bees-with-color/bee-B2SM.svg\" width=\"200\">\n                    <p><span class=\"greenText\"><b>Successful harvest!</b></span><br>Your pay has increased by $0.02. Your bonus pay is now $0.56.</p>\n            ","response":0,"trial_type":"html-button-response","trial_index":36,"time_elapsed":462534,"internal_node_id":"0.0-4.0-1.14","subject_id":"6075cf9b059725b365f85e34","study_id":"60edd13110225f80f9f3709b","session_id":"6196c4a6aa85b596f57e1a14","condition":"full-information","relevant_dimensions":["antennae","wings"],"bee_group":{"antennae":"B","wings":"1","pattern":"X","legs":"X"},"bonus":1.740000000000001},{"rt":25286.600000023842,"stimulus":"bees-with-color/bee-B2SF.svg","response":1,"trial_type":"image-button-response","trial_index":37,"time_elapsed":487822,"internal_node_id":"0.0-4.0-0.15","subject_id":"6075cf9b059725b365f85e34","study_id":"60edd13110225f80f9f3709b","session_id":"6196c4a6aa85b596f57e1a14","condition":"full-information","relevant_dimensions":["antennae","wings"],"bee_group":{"antennae":"B","wings":"1","pattern":"X","legs":"X"},"action":"avoid","summary":"bad-avoid","bonus":1.740000000000001},{"rt":5766.399999976158,"stimulus":"\n                    <p><b>Action: <em>avoid</em></b></p>\n                    <p>This is the bee that you just saw.</p>\n                    <img src=\"bees-with-color/bee-B2SF.svg\" width=\"200\">\n                    <p><span class=\"redText\">Bad choice,</span> the bee was friendly.<br>Your bonus pay is unchanged, and remains at $0.56.</p>\n            ","response":0,"trial_type":"html-button-response","trial_index":38,"time_elapsed":493589,"internal_node_id":"0.0-4.0-1.15","subject_id":"6075cf9b059725b365f85e34","study_id":"60edd13110225f80f9f3709b","session_id":"6196c4a6aa85b596f57e1a14","condition":"full-information","relevant_dimensions":["antennae","wings"],"bee_group":{"antennae":"B","wings":"1","pattern":"X","legs":"X"},"bonus":1.740000000000001},{"rt":12071.800000011921,"stimulus":"bees-with-color/bee-B1SF.svg","response":1,"trial_type":"image-button-response","trial_index":39,"time_elapsed":505663,"internal_node_id":"0.0-4.0-0.16","subject_id":"6075cf9b059725b365f85e34","study_id":"60edd13110225f80f9f3709b","session_id":"6196c4a6aa85b596f57e1a14","condition":"full-information","relevant_dimensions":["antennae","wings"],"bee_group":{"antennae":"B","wings":"1","pattern":"X","legs":"X"},"action":"avoid","summary":"good-avoid","bonus":1.740000000000001},{"rt":1437.699999988079,"stimulus":"\n                    <p><b>Action: <em>avoid</em></b></p>\n                    <p>This is the bee that you just saw.</p>\n                    <img src=\"bees-with-color/bee-B1SF.svg\" width=\"200\">\n                    <p><span class=\"greenText\">Good choice!</span>  This bee would have stung you.<br>Your bonus pay is unchanged, and remains at $0.56.</p>\n            ","response":0,"trial_type":"html-button-response","trial_index":40,"time_elapsed":507101,"internal_node_id":"0.0-4.0-1.16","subject_id":"6075cf9b059725b365f85e34","study_id":"60edd13110225f80f9f3709b","session_id":"6196c4a6aa85b596f57e1a14","condition":"full-information","relevant_dimensions":["antennae","wings"],"bee_group":{"antennae":"B","wings":"1","pattern":"X","legs":"X"},"bonus":1.740000000000001},{"rt":17686.5,"stimulus":"bees-with-color/bee-B1SM.svg","response":1,"trial_type":"image-button-response","trial_index":41,"time_elapsed":524789,"internal_node_id":"0.0-4.0-0.17","subject_id":"6075cf9b059725b365f85e34","study_id":"60edd13110225f80f9f3709b","session_id":"6196c4a6aa85b596f57e1a14","condition":"full-information","relevant_dimensions":["antennae","wings"],"bee_group":{"antennae":"B","wings":"1","pattern":"X","legs":"X"},"action":"avoid","summary":"good-avoid","bonus":1.740000000000001},{"rt":1470.8999999761581,"stimulus":"\n                    <p><b>Action: <em>avoid</em></b></p>\n                    <p>This is the bee that you just saw.</p>\n                    <img src=\"bees-with-color/bee-B1SM.svg\" width=\"200\">\n                    <p><span class=\"greenText\">Good choice!</span>  This bee would have stung you.<br>Your bonus pay is unchanged, and remains at $0.56.</p>\n            ","response":0,"trial_type":"html-button-response","trial_index":42,"time_elapsed":526261,"internal_node_id":"0.0-4.0-1.17","subject_id":"6075cf9b059725b365f85e34","study_id":"60edd13110225f80f9f3709b","session_id":"6196c4a6aa85b596f57e1a14","condition":"full-information","relevant_dimensions":["antennae","wings"],"bee_group":{"antennae":"B","wings":"1","pattern":"X","legs":"X"},"bonus":1.740000000000001},{"rt":4422.399999976158,"stimulus":"bees-with-color/bee-B2DF.svg","response":0,"trial_type":"image-button-response","trial_index":43,"time_elapsed":530685,"internal_node_id":"0.0-4.0-0.18","subject_id":"6075cf9b059725b365f85e34","study_id":"60edd13110225f80f9f3709b","session_id":"6196c4a6aa85b596f57e1a14","condition":"full-information","relevant_dimensions":["antennae","wings"],"bee_group":{"antennae":"B","wings":"1","pattern":"X","legs":"X"},"action":"harvest","summary":"good-harvest","bonus":1.740000000000001},{"rt":1422.7000000476837,"stimulus":"\n                    <p><b>Action: <em>harvest</em></b></p>\n                    <p>This is the bee that you just saw.</p>\n                    <img src=\"bees-with-color/bee-B2DF.svg\" width=\"200\">\n                    <p><span class=\"greenText\"><b>Successful harvest!</b></span><br>Your pay has increased by $0.02. Your bonus pay is now $0.58.</p>\n            ","response":0,"trial_type":"html-button-response","trial_index":44,"time_elapsed":532109,"internal_node_id":"0.0-4.0-1.18","subject_id":"6075cf9b059725b365f85e34","study_id":"60edd13110225f80f9f3709b","session_id":"6196c4a6aa85b596f57e1a14","condition":"full-information","relevant_dimensions":["antennae","wings"],"bee_group":{"antennae":"B","wings":"1","pattern":"X","legs":"X"},"bonus":1.740000000000001},{"rt":6711,"stimulus":"bees-with-color/bee-A1DF.svg","response":0,"trial_type":"image-button-response","trial_index":45,"time_elapsed":538821,"internal_node_id":"0.0-4.0-0.19","subject_id":"6075cf9b059725b365f85e34","study_id":"60edd13110225f80f9f3709b","session_id":"6196c4a6aa85b596f57e1a14","condition":"full-information","relevant_dimensions":["antennae","wings"],"bee_group":{"antennae":"B","wings":"1","pattern":"X","legs":"X"},"action":"harvest","summary":"good-harvest","bonus":1.740000000000001},{"rt":1094.4000000357628,"stimulus":"\n                    <p><b>Action: <em>harvest</em></b></p>\n                    <p>This is the bee that you just saw.</p>\n                    <img src=\"bees-with-color/bee-A1DF.svg\" width=\"200\">\n                    <p><span class=\"greenText\"><b>Successful harvest!</b></span><br>Your pay has increased by $0.02. Your bonus pay is now $0.60.</p>\n            ","response":0,"trial_type":"html-button-response","trial_index":46,"time_elapsed":539917,"internal_node_id":"0.0-4.0-1.19","subject_id":"6075cf9b059725b365f85e34","study_id":"60edd13110225f80f9f3709b","session_id":"6196c4a6aa85b596f57e1a14","condition":"full-information","relevant_dimensions":["antennae","wings"],"bee_group":{"antennae":"B","wings":"1","pattern":"X","legs":"X"},"bonus":1.740000000000001},{"rt":13286.299999952316,"stimulus":"bees-with-color/bee-A1SM.svg","response":0,"trial_type":"image-button-response","trial_index":47,"time_elapsed":553205,"internal_node_id":"0.0-4.0-0.20","subject_id":"6075cf9b059725b365f85e34","study_id":"60edd13110225f80f9f3709b","session_id":"6196c4a6aa85b596f57e1a14","condition":"full-information","relevant_dimensions":["antennae","wings"],"bee_group":{"antennae":"B","wings":"1","pattern":"X","legs":"X"},"action":"harvest","summary":"good-harvest","bonus":1.740000000000001},{"rt":1006.8000000119209,"stimulus":"\n                    <p><b>Action: <em>harvest</em></b></p>\n                    <p>This is the bee that you just saw.</p>\n                    <img src=\"bees-with-color/bee-A1SM.svg\" width=\"200\">\n                    <p><span class=\"greenText\"><b>Successful harvest!</b></span><br>Your pay has increased by $0.02. Your bonus pay is now $0.62.</p>\n            ","response":0,"trial_type":"html-button-response","trial_index":48,"time_elapsed":554213,"internal_node_id":"0.0-4.0-1.20","subject_id":"6075cf9b059725b365f85e34","study_id":"60edd13110225f80f9f3709b","session_id":"6196c4a6aa85b596f57e1a14","condition":"full-information","relevant_dimensions":["antennae","wings"],"bee_group":{"antennae":"B","wings":"1","pattern":"X","legs":"X"},"bonus":1.740000000000001},{"rt":9253.899999976158,"stimulus":"bees-with-color/bee-A1SF.svg","response":0,"trial_type":"image-button-response","trial_index":49,"time_elapsed":563468,"internal_node_id":"0.0-4.0-0.21","subject_id":"6075cf9b059725b365f85e34","study_id":"60edd13110225f80f9f3709b","session_id":"6196c4a6aa85b596f57e1a14","condition":"full-information","relevant_dimensions":["antennae","wings"],"bee_group":{"antennae":"B","wings":"1","pattern":"X","legs":"X"},"action":"harvest","summary":"good-harvest","bonus":1.740000000000001},{"rt":783,"stimulus":"\n                    <p><b>Action: <em>harvest</em></b></p>\n                    <p>This is the bee that you just saw.</p>\n                    <img src=\"bees-with-color/bee-A1SF.svg\" width=\"200\">\n                    <p><span class=\"greenText\"><b>Successful harvest!</b></span><br>Your pay has increased by $0.02. Your bonus pay is now $0.64.</p>\n            ","response":0,"trial_type":"html-button-response","trial_index":50,"time_elapsed":564253,"internal_node_id":"0.0-4.0-1.21","subject_id":"6075cf9b059725b365f85e34","study_id":"60edd13110225f80f9f3709b","session_id":"6196c4a6aa85b596f57e1a14","condition":"full-information","relevant_dimensions":["antennae","wings"],"bee_group":{"antennae":"B","wings":"1","pattern":"X","legs":"X"},"bonus":1.740000000000001},{"rt":16774.900000035763,"stimulus":"bees-with-color/bee-B2DM.svg","response":0,"trial_type":"image-button-response","trial_index":51,"time_elapsed":581029,"internal_node_id":"0.0-4.0-0.22","subject_id":"6075cf9b059725b365f85e34","study_id":"60edd13110225f80f9f3709b","session_id":"6196c4a6aa85b596f57e1a14","condition":"full-information","relevant_dimensions":["antennae","wings"],"bee_group":{"antennae":"B","wings":"1","pattern":"X","legs":"X"},"action":"harvest","summary":"good-harvest","bonus":1.740000000000001},{"rt":894.0999999642372,"stimulus":"\n                    <p><b>Action: <em>harvest</em></b></p>\n                    <p>This is the bee that you just saw.</p>\n                    <img src=\"bees-with-color/bee-B2DM.svg\" width=\"200\">\n                    <p><span class=\"greenText\"><b>Successful harvest!</b></span><br>Your pay has increased by $0.02. Your bonus pay is now $0.66.</p>\n            ","response":0,"trial_type":"html-button-response","trial_index":52,"time_elapsed":581924,"internal_node_id":"0.0-4.0-1.22","subject_id":"6075cf9b059725b365f85e34","study_id":"60edd13110225f80f9f3709b","session_id":"6196c4a6aa85b596f57e1a14","condition":"full-information","relevant_dimensions":["antennae","wings"],"bee_group":{"antennae":"B","wings":"1","pattern":"X","legs":"X"},"bonus":1.740000000000001},{"rt":20767,"stimulus":"bees-with-color/bee-B2SF.svg","response":0,"trial_type":"image-button-response","trial_index":53,"time_elapsed":602693,"internal_node_id":"0.0-4.0-0.23","subject_id":"6075cf9b059725b365f85e34","study_id":"60edd13110225f80f9f3709b","session_id":"6196c4a6aa85b596f57e1a14","condition":"full-information","relevant_dimensions":["antennae","wings"],"bee_group":{"antennae":"B","wings":"1","pattern":"X","legs":"X"},"action":"harvest","summary":"good-harvest","bonus":1.740000000000001},{"rt":582.6999999880791,"stimulus":"\n                    <p><b>Action: <em>harvest</em></b></p>\n                    <p>This is the bee that you just saw.</p>\n                    <img src=\"bees-with-color/bee-B2SF.svg\" width=\"200\">\n                    <p><span class=\"greenText\"><b>Successful harvest!</b></span><br>Your pay has increased by $0.02. Your bonus pay is now $0.68.</p>\n            ","response":0,"trial_type":"html-button-response","trial_index":54,"time_elapsed":603277,"internal_node_id":"0.0-4.0-1.23","subject_id":"6075cf9b059725b365f85e34","study_id":"60edd13110225f80f9f3709b","session_id":"6196c4a6aa85b596f57e1a14","condition":"full-information","relevant_dimensions":["antennae","wings"],"bee_group":{"antennae":"B","wings":"1","pattern":"X","legs":"X"},"bonus":1.740000000000001},{"rt":11190.100000023842,"stimulus":"bees-with-color/bee-A2DF.svg","response":0,"trial_type":"image-button-response","trial_index":55,"time_elapsed":614469,"internal_node_id":"0.0-4.0-0.24","subject_id":"6075cf9b059725b365f85e34","study_id":"60edd13110225f80f9f3709b","session_id":"6196c4a6aa85b596f57e1a14","condition":"full-information","relevant_dimensions":["antennae","wings"],"bee_group":{"antennae":"B","wings":"1","pattern":"X","legs":"X"},"action":"harvest","summary":"good-harvest","bonus":1.740000000000001},{"rt":791,"stimulus":"\n                    <p><b>Action: <em>harvest</em></b></p>\n                    <p>This is the bee that you just saw.</p>\n                    <img src=\"bees-with-color/bee-A2DF.svg\" width=\"200\">\n                    <p><span class=\"greenText\"><b>Successful harvest!</b></span><br>Your pay has increased by $0.02. Your bonus pay is now $0.70.</p>\n            ","response":0,"trial_type":"html-button-response","trial_index":56,"time_elapsed":615261,"internal_node_id":"0.0-4.0-1.24","subject_id":"6075cf9b059725b365f85e34","study_id":"60edd13110225f80f9f3709b","session_id":"6196c4a6aa85b596f57e1a14","condition":"full-information","relevant_dimensions":["antennae","wings"],"bee_group":{"antennae":"B","wings":"1","pattern":"X","legs":"X"},"bonus":1.740000000000001},{"rt":6046.400000035763,"stimulus":"bees-with-color/bee-A2SM.svg","response":0,"trial_type":"image-button-response","trial_index":57,"time_elapsed":621309,"internal_node_id":"0.0-4.0-0.25","subject_id":"6075cf9b059725b365f85e34","study_id":"60edd13110225f80f9f3709b","session_id":"6196c4a6aa85b596f57e1a14","condition":"full-information","relevant_dimensions":["antennae","wings"],"bee_group":{"antennae":"B","wings":"1","pattern":"X","legs":"X"},"action":"harvest","summary":"good-harvest","bonus":1.740000000000001},{"rt":630.3999999761581,"stimulus":"\n                    <p><b>Action: <em>harvest</em></b></p>\n                    <p>This is the bee that you just saw.</p>\n                    <img src=\"bees-with-color/bee-A2SM.svg\" width=\"200\">\n                    <p><span class=\"greenText\"><b>Successful harvest!</b></span><br>Your pay has increased by $0.02. Your bonus pay is now $0.72.</p>\n            ","response":0,"trial_type":"html-button-response","trial_index":58,"time_elapsed":621941,"internal_node_id":"0.0-4.0-1.25","subject_id":"6075cf9b059725b365f85e34","study_id":"60edd13110225f80f9f3709b","session_id":"6196c4a6aa85b596f57e1a14","condition":"full-information","relevant_dimensions":["antennae","wings"],"bee_group":{"antennae":"B","wings":"1","pattern":"X","legs":"X"},"bonus":1.740000000000001},{"rt":10048.099999964237,"stimulus":"bees-with-color/bee-B2SM.svg","response":0,"trial_type":"image-button-response","trial_index":59,"time_elapsed":631991,"internal_node_id":"0.0-4.0-0.26","subject_id":"6075cf9b059725b365f85e34","study_id":"60edd13110225f80f9f3709b","session_id":"6196c4a6aa85b596f57e1a14","condition":"full-information","relevant_dimensions":["antennae","wings"],"bee_group":{"antennae":"B","wings":"1","pattern":"X","legs":"X"},"action":"harvest","summary":"good-harvest","bonus":1.740000000000001},{"rt":613.3000000119209,"stimulus":"\n                    <p><b>Action: <em>harvest</em></b></p>\n                    <p>This is the bee that you just saw.</p>\n                    <img src=\"bees-with-color/bee-B2SM.svg\" width=\"200\">\n                    <p><span class=\"greenText\"><b>Successful harvest!</b></span><br>Your pay has increased by $0.02. Your bonus pay is now $0.74.</p>\n            ","response":0,"trial_type":"html-button-response","trial_index":60,"time_elapsed":632605,"internal_node_id":"0.0-4.0-1.26","subject_id":"6075cf9b059725b365f85e34","study_id":"60edd13110225f80f9f3709b","session_id":"6196c4a6aa85b596f57e1a14","condition":"full-information","relevant_dimensions":["antennae","wings"],"bee_group":{"antennae":"B","wings":"1","pattern":"X","legs":"X"},"bonus":1.740000000000001},{"rt":6974.600000023842,"stimulus":"bees-with-color/bee-A2SF.svg","response":0,"trial_type":"image-button-response","trial_index":61,"time_elapsed":639581,"internal_node_id":"0.0-4.0-0.27","subject_id":"6075cf9b059725b365f85e34","study_id":"60edd13110225f80f9f3709b","session_id":"6196c4a6aa85b596f57e1a14","condition":"full-information","relevant_dimensions":["antennae","wings"],"bee_group":{"antennae":"B","wings":"1","pattern":"X","legs":"X"},"action":"harvest","summary":"good-harvest","bonus":1.740000000000001},{"rt":806.6999999880791,"stimulus":"\n                    <p><b>Action: <em>harvest</em></b></p>\n                    <p>This is the bee that you just saw.</p>\n                    <img src=\"bees-with-color/bee-A2SF.svg\" width=\"200\">\n                    <p><span class=\"greenText\"><b>Successful harvest!</b></span><br>Your pay has increased by $0.02. Your bonus pay is now $0.76.</p>\n            ","response":0,"trial_type":"html-button-response","trial_index":62,"time_elapsed":640389,"internal_node_id":"0.0-4.0-1.27","subject_id":"6075cf9b059725b365f85e34","study_id":"60edd13110225f80f9f3709b","session_id":"6196c4a6aa85b596f57e1a14","condition":"full-information","relevant_dimensions":["antennae","wings"],"bee_group":{"antennae":"B","wings":"1","pattern":"X","legs":"X"},"bonus":1.740000000000001},{"rt":22062.19999998808,"stimulus":"bees-with-color/bee-B1DF.svg","response":1,"trial_type":"image-button-response","trial_index":63,"time_elapsed":662453,"internal_node_id":"0.0-4.0-0.28","subject_id":"6075cf9b059725b365f85e34","study_id":"60edd13110225f80f9f3709b","session_id":"6196c4a6aa85b596f57e1a14","condition":"full-information","relevant_dimensions":["antennae","wings"],"bee_group":{"antennae":"B","wings":"1","pattern":"X","legs":"X"},"action":"avoid","summary":"good-avoid","bonus":1.740000000000001},{"rt":4743.300000011921,"stimulus":"\n                    <p><b>Action: <em>avoid</em></b></p>\n                    <p>This is the bee that you just saw.</p>\n                    <img src=\"bees-with-color/bee-B1DF.svg\" width=\"200\">\n                    <p><span class=\"greenText\">Good choice!</span>  This bee would have stung you.<br>Your bonus pay is unchanged, and remains at $0.76.</p>\n            ","response":0,"trial_type":"html-button-response","trial_index":64,"time_elapsed":667198,"internal_node_id":"0.0-4.0-1.28","subject_id":"6075cf9b059725b365f85e34","study_id":"60edd13110225f80f9f3709b","session_id":"6196c4a6aa85b596f57e1a14","condition":"full-information","relevant_dimensions":["antennae","wings"],"bee_group":{"antennae":"B","wings":"1","pattern":"X","legs":"X"},"bonus":1.740000000000001},{"rt":21469.69999998808,"stimulus":"bees-with-color/bee-A2DM.svg","response":0,"trial_type":"image-button-response","trial_index":65,"time_elapsed":688670,"internal_node_id":"0.0-4.0-0.29","subject_id":"6075cf9b059725b365f85e34","study_id":"60edd13110225f80f9f3709b","session_id":"6196c4a6aa85b596f57e1a14","condition":"full-information","relevant_dimensions":["antennae","wings"],"bee_group":{"antennae":"B","wings":"1","pattern":"X","legs":"X"},"action":"harvest","summary":"good-harvest","bonus":1.740000000000001},{"rt":1046.5,"stimulus":"\n                    <p><b>Action: <em>harvest</em></b></p>\n                    <p>This is the bee that you just saw.</p>\n                    <img src=\"bees-with-color/bee-A2DM.svg\" width=\"200\">\n                    <p><span class=\"greenText\"><b>Successful harvest!</b></span><br>Your pay has increased by $0.02. Your bonus pay is now $0.78.</p>\n            ","response":0,"trial_type":"html-button-response","trial_index":66,"time_elapsed":689718,"internal_node_id":"0.0-4.0-1.29","subject_id":"6075cf9b059725b365f85e34","study_id":"60edd13110225f80f9f3709b","session_id":"6196c4a6aa85b596f57e1a14","condition":"full-information","relevant_dimensions":["antennae","wings"],"bee_group":{"antennae":"B","wings":"1","pattern":"X","legs":"X"},"bonus":1.740000000000001},{"rt":9678.5,"stimulus":"bees-with-color/bee-A1DM.svg","response":0,"trial_type":"image-button-response","trial_index":67,"time_elapsed":699398,"internal_node_id":"0.0-4.0-0.30","subject_id":"6075cf9b059725b365f85e34","study_id":"60edd13110225f80f9f3709b","session_id":"6196c4a6aa85b596f57e1a14","condition":"full-information","relevant_dimensions":["antennae","wings"],"bee_group":{"antennae":"B","wings":"1","pattern":"X","legs":"X"},"action":"harvest","summary":"good-harvest","bonus":1.740000000000001},{"rt":806.8000000119209,"stimulus":"\n                    <p><b>Action: <em>harvest</em></b></p>\n                    <p>This is the bee that you just saw.</p>\n                    <img src=\"bees-with-color/bee-A1DM.svg\" width=\"200\">\n                    <p><span class=\"greenText\"><b>Successful harvest!</b></span><br>Your pay has increased by $0.02. Your bonus pay is now $0.80.</p>\n            ","response":0,"trial_type":"html-button-response","trial_index":68,"time_elapsed":700206,"internal_node_id":"0.0-4.0-1.30","subject_id":"6075cf9b059725b365f85e34","study_id":"60edd13110225f80f9f3709b","session_id":"6196c4a6aa85b596f57e1a14","condition":"full-information","relevant_dimensions":["antennae","wings"],"bee_group":{"antennae":"B","wings":"1","pattern":"X","legs":"X"},"bonus":1.740000000000001},{"rt":17366.600000023842,"stimulus":"bees-with-color/bee-B1DM.svg","response":1,"trial_type":"image-button-response","trial_index":69,"time_elapsed":717574,"internal_node_id":"0.0-4.0-0.31","subject_id":"6075cf9b059725b365f85e34","study_id":"60edd13110225f80f9f3709b","session_id":"6196c4a6aa85b596f57e1a14","condition":"full-information","relevant_dimensions":["antennae","wings"],"bee_group":{"antennae":"B","wings":"1","pattern":"X","legs":"X"},"action":"avoid","summary":"good-avoid","bonus":1.740000000000001},{"rt":1533.800000011921,"stimulus":"\n                    <p><b>Action: <em>avoid</em></b></p>\n                    <p>This is the bee that you just saw.</p>\n                    <img src=\"bees-with-color/bee-B1DM.svg\" width=\"200\">\n                    <p><span class=\"greenText\">Good choice!</span>  This bee would have stung you.<br>Your bonus pay is unchanged, and remains at $0.80.</p>\n            ","response":0,"trial_type":"html-button-response","trial_index":70,"time_elapsed":719109,"internal_node_id":"0.0-4.0-1.31","subject_id":"6075cf9b059725b365f85e34","study_id":"60edd13110225f80f9f3709b","session_id":"6196c4a6aa85b596f57e1a14","condition":"full-information","relevant_dimensions":["antennae","wings"],"bee_group":{"antennae":"B","wings":"1","pattern":"X","legs":"X"},"bonus":1.740000000000001},{"rt":24550.80000001192,"stimulus":"bees-with-color/bee-B1DF.svg","response":1,"trial_type":"image-button-response","trial_index":71,"time_elapsed":743661,"internal_node_id":"0.0-4.0-0.32","subject_id":"6075cf9b059725b365f85e34","study_id":"60edd13110225f80f9f3709b","session_id":"6196c4a6aa85b596f57e1a14","condition":"full-information","relevant_dimensions":["antennae","wings"],"bee_group":{"antennae":"B","wings":"1","pattern":"X","legs":"X"},"action":"avoid","summary":"good-avoid","bonus":1.740000000000001},{"rt":934.5,"stimulus":"\n                    <p><b>Action: <em>avoid</em></b></p>\n                    <p>This is the bee that you just saw.</p>\n                    <img src=\"bees-with-color/bee-B1DF.svg\" width=\"200\">\n                    <p><span class=\"greenText\">Good choice!</span>  This bee would have stung you.<br>Your bonus pay is unchanged, and remains at $0.80.</p>\n            ","response":0,"trial_type":"html-button-response","trial_index":72,"time_elapsed":744597,"internal_node_id":"0.0-4.0-1.32","subject_id":"6075cf9b059725b365f85e34","study_id":"60edd13110225f80f9f3709b","session_id":"6196c4a6aa85b596f57e1a14","condition":"full-information","relevant_dimensions":["antennae","wings"],"bee_group":{"antennae":"B","wings":"1","pattern":"X","legs":"X"},"bonus":1.740000000000001},{"rt":7542.200000047684,"stimulus":"bees-with-color/bee-A2SF.svg","response":0,"trial_type":"image-button-response","trial_index":73,"time_elapsed":752141,"internal_node_id":"0.0-4.0-0.33","subject_id":"6075cf9b059725b365f85e34","study_id":"60edd13110225f80f9f3709b","session_id":"6196c4a6aa85b596f57e1a14","condition":"full-information","relevant_dimensions":["antennae","wings"],"bee_group":{"antennae":"B","wings":"1","pattern":"X","legs":"X"},"action":"harvest","summary":"good-harvest","bonus":1.740000000000001},{"rt":606.5999999642372,"stimulus":"\n                    <p><b>Action: <em>harvest</em></b></p>\n                    <p>This is the bee that you just saw.</p>\n                    <img src=\"bees-with-color/bee-A2SF.svg\" width=\"200\">\n                    <p><span class=\"greenText\"><b>Successful harvest!</b></span><br>Your pay has increased by $0.02. Your bonus pay is now $0.82.</p>\n            ","response":0,"trial_type":"html-button-response","trial_index":74,"time_elapsed":752749,"internal_node_id":"0.0-4.0-1.33","subject_id":"6075cf9b059725b365f85e34","study_id":"60edd13110225f80f9f3709b","session_id":"6196c4a6aa85b596f57e1a14","condition":"full-information","relevant_dimensions":["antennae","wings"],"bee_group":{"antennae":"B","wings":"1","pattern":"X","legs":"X"},"bonus":1.740000000000001},{"rt":17942.400000035763,"stimulus":"bees-with-color/bee-B1SM.svg","response":1,"trial_type":"image-button-response","trial_index":75,"time_elapsed":770693,"internal_node_id":"0.0-4.0-0.34","subject_id":"6075cf9b059725b365f85e34","study_id":"60edd13110225f80f9f3709b","session_id":"6196c4a6aa85b596f57e1a14","condition":"full-information","relevant_dimensions":["antennae","wings"],"bee_group":{"antennae":"B","wings":"1","pattern":"X","legs":"X"},"action":"avoid","summary":"good-avoid","bonus":1.740000000000001},{"rt":1246.300000011921,"stimulus":"\n                    <p><b>Action: <em>avoid</em></b></p>\n                    <p>This is the bee that you just saw.</p>\n                    <img src=\"bees-with-color/bee-B1SM.svg\" width=\"200\">\n                    <p><span class=\"greenText\">Good choice!</span>  This bee would have stung you.<br>Your bonus pay is unchanged, and remains at $0.82.</p>\n            ","response":0,"trial_type":"html-button-response","trial_index":76,"time_elapsed":771941,"internal_node_id":"0.0-4.0-1.34","subject_id":"6075cf9b059725b365f85e34","study_id":"60edd13110225f80f9f3709b","session_id":"6196c4a6aa85b596f57e1a14","condition":"full-information","relevant_dimensions":["antennae","wings"],"bee_group":{"antennae":"B","wings":"1","pattern":"X","legs":"X"},"bonus":1.740000000000001},{"rt":6718.5,"stimulus":"bees-with-color/bee-B2DM.svg","response":0,"trial_type":"image-button-response","trial_index":77,"time_elapsed":778661,"internal_node_id":"0.0-4.0-0.35","subject_id":"6075cf9b059725b365f85e34","study_id":"60edd13110225f80f9f3709b","session_id":"6196c4a6aa85b596f57e1a14","condition":"full-information","relevant_dimensions":["antennae","wings"],"bee_group":{"antennae":"B","wings":"1","pattern":"X","legs":"X"},"action":"harvest","summary":"good-harvest","bonus":1.740000000000001},{"rt":622.6999999880791,"stimulus":"\n                    <p><b>Action: <em>harvest</em></b></p>\n                    <p>This is the bee that you just saw.</p>\n                    <img src=\"bees-with-color/bee-B2DM.svg\" width=\"200\">\n                    <p><span class=\"greenText\"><b>Successful harvest!</b></span><br>Your pay has increased by $0.02. Your bonus pay is now $0.84.</p>\n            ","response":0,"trial_type":"html-button-response","trial_index":78,"time_elapsed":779285,"internal_node_id":"0.0-4.0-1.35","subject_id":"6075cf9b059725b365f85e34","study_id":"60edd13110225f80f9f3709b","session_id":"6196c4a6aa85b596f57e1a14","condition":"full-information","relevant_dimensions":["antennae","wings"],"bee_group":{"antennae":"B","wings":"1","pattern":"X","legs":"X"},"bonus":1.740000000000001},{"rt":4805.900000035763,"stimulus":"bees-with-color/bee-A1DF.svg","response":0,"trial_type":"image-button-response","trial_index":79,"time_elapsed":784093,"internal_node_id":"0.0-4.0-0.36","subject_id":"6075cf9b059725b365f85e34","study_id":"60edd13110225f80f9f3709b","session_id":"6196c4a6aa85b596f57e1a14","condition":"full-information","relevant_dimensions":["antennae","wings"],"bee_group":{"antennae":"B","wings":"1","pattern":"X","legs":"X"},"action":"harvest","summary":"good-harvest","bonus":1.740000000000001},{"rt":927,"stimulus":"\n                    <p><b>Action: <em>harvest</em></b></p>\n                    <p>This is the bee that you just saw.</p>\n                    <img src=\"bees-with-color/bee-A1DF.svg\" width=\"200\">\n                    <p><span class=\"greenText\"><b>Successful harvest!</b></span><br>Your pay has increased by $0.02. Your bonus pay is now $0.86.</p>\n            ","response":0,"trial_type":"html-button-response","trial_index":80,"time_elapsed":785021,"internal_node_id":"0.0-4.0-1.36","subject_id":"6075cf9b059725b365f85e34","study_id":"60edd13110225f80f9f3709b","session_id":"6196c4a6aa85b596f57e1a14","condition":"full-information","relevant_dimensions":["antennae","wings"],"bee_group":{"antennae":"B","wings":"1","pattern":"X","legs":"X"},"bonus":1.740000000000001},{"rt":13526,"stimulus":"bees-with-color/bee-A1SF.svg","response":0,"trial_type":"image-button-response","trial_index":81,"time_elapsed":798549,"internal_node_id":"0.0-4.0-0.37","subject_id":"6075cf9b059725b365f85e34","study_id":"60edd13110225f80f9f3709b","session_id":"6196c4a6aa85b596f57e1a14","condition":"full-information","relevant_dimensions":["antennae","wings"],"bee_group":{"antennae":"B","wings":"1","pattern":"X","legs":"X"},"action":"harvest","summary":"good-harvest","bonus":1.740000000000001},{"rt":735.1999999880791,"stimulus":"\n                    <p><b>Action: <em>harvest</em></b></p>\n                    <p>This is the bee that you just saw.</p>\n                    <img src=\"bees-with-color/bee-A1SF.svg\" width=\"200\">\n                    <p><span class=\"greenText\"><b>Successful harvest!</b></span><br>Your pay has increased by $0.02. Your bonus pay is now $0.88.</p>\n            ","response":0,"trial_type":"html-button-response","trial_index":82,"time_elapsed":799285,"internal_node_id":"0.0-4.0-1.37","subject_id":"6075cf9b059725b365f85e34","study_id":"60edd13110225f80f9f3709b","session_id":"6196c4a6aa85b596f57e1a14","condition":"full-information","relevant_dimensions":["antennae","wings"],"bee_group":{"antennae":"B","wings":"1","pattern":"X","legs":"X"},"bonus":1.740000000000001},{"rt":18325.80000001192,"stimulus":"bees-with-color/bee-B2DF.svg","response":0,"trial_type":"image-button-response","trial_index":83,"time_elapsed":817612,"internal_node_id":"0.0-4.0-0.38","subject_id":"6075cf9b059725b365f85e34","study_id":"60edd13110225f80f9f3709b","session_id":"6196c4a6aa85b596f57e1a14","condition":"full-information","relevant_dimensions":["antennae","wings"],"bee_group":{"antennae":"B","wings":"1","pattern":"X","legs":"X"},"action":"harvest","summary":"good-harvest","bonus":1.740000000000001},{"rt":1086,"stimulus":"\n                    <p><b>Action: <em>harvest</em></b></p>\n                    <p>This is the bee that you just saw.</p>\n                    <img src=\"bees-with-color/bee-B2DF.svg\" width=\"200\">\n                    <p><span class=\"greenText\"><b>Successful harvest!</b></span><br>Your pay has increased by $0.02. Your bonus pay is now $0.90.</p>\n            ","response":0,"trial_type":"html-button-response","trial_index":84,"time_elapsed":818701,"internal_node_id":"0.0-4.0-1.38","subject_id":"6075cf9b059725b365f85e34","study_id":"60edd13110225f80f9f3709b","session_id":"6196c4a6aa85b596f57e1a14","condition":"full-information","relevant_dimensions":["antennae","wings"],"bee_group":{"antennae":"B","wings":"1","pattern":"X","legs":"X"},"bonus":1.740000000000001},{"rt":5958.800000011921,"stimulus":"bees-with-color/bee-A1DM.svg","response":0,"trial_type":"image-button-response","trial_index":85,"time_elapsed":824661,"internal_node_id":"0.0-4.0-0.39","subject_id":"6075cf9b059725b365f85e34","study_id":"60edd13110225f80f9f3709b","session_id":"6196c4a6aa85b596f57e1a14","condition":"full-information","relevant_dimensions":["antennae","wings"],"bee_group":{"antennae":"B","wings":"1","pattern":"X","legs":"X"},"action":"harvest","summary":"good-harvest","bonus":1.740000000000001},{"rt":565.9000000357628,"stimulus":"\n                    <p><b>Action: <em>harvest</em></b></p>\n                    <p>This is the bee that you just saw.</p>\n                    <img src=\"bees-with-color/bee-A1DM.svg\" width=\"200\">\n                    <p><span class=\"greenText\"><b>Successful harvest!</b></span><br>Your pay has increased by $0.02. Your bonus pay is now $0.92.</p>\n            ","response":0,"trial_type":"html-button-response","trial_index":86,"time_elapsed":825228,"internal_node_id":"0.0-4.0-1.39","subject_id":"6075cf9b059725b365f85e34","study_id":"60edd13110225f80f9f3709b","session_id":"6196c4a6aa85b596f57e1a14","condition":"full-information","relevant_dimensions":["antennae","wings"],"bee_group":{"antennae":"B","wings":"1","pattern":"X","legs":"X"},"bonus":1.740000000000001},{"rt":1806.800000011921,"stimulus":"bees-with-color/bee-A2DM.svg","response":0,"trial_type":"image-button-response","trial_index":87,"time_elapsed":827036,"internal_node_id":"0.0-4.0-0.40","subject_id":"6075cf9b059725b365f85e34","study_id":"60edd13110225f80f9f3709b","session_id":"6196c4a6aa85b596f57e1a14","condition":"full-information","relevant_dimensions":["antennae","wings"],"bee_group":{"antennae":"B","wings":"1","pattern":"X","legs":"X"},"action":"harvest","summary":"good-harvest","bonus":1.740000000000001},{"rt":983.6000000238419,"stimulus":"\n                    <p><b>Action: <em>harvest</em></b></p>\n                    <p>This is the bee that you just saw.</p>\n                    <img src=\"bees-with-color/bee-A2DM.svg\" width=\"200\">\n                    <p><span class=\"greenText\"><b>Successful harvest!</b></span><br>Your pay has increased by $0.02. Your bonus pay is now $0.94.</p>\n            ","response":0,"trial_type":"html-button-response","trial_index":88,"time_elapsed":828021,"internal_node_id":"0.0-4.0-1.40","subject_id":"6075cf9b059725b365f85e34","study_id":"60edd13110225f80f9f3709b","session_id":"6196c4a6aa85b596f57e1a14","condition":"full-information","relevant_dimensions":["antennae","wings"],"bee_group":{"antennae":"B","wings":"1","pattern":"X","legs":"X"},"bonus":1.740000000000001},{"rt":13206.899999976158,"stimulus":"bees-with-color/bee-B1DM.svg","response":1,"trial_type":"image-button-response","trial_index":89,"time_elapsed":841229,"internal_node_id":"0.0-4.0-0.41","subject_id":"6075cf9b059725b365f85e34","study_id":"60edd13110225f80f9f3709b","session_id":"6196c4a6aa85b596f57e1a14","condition":"full-information","relevant_dimensions":["antennae","wings"],"bee_group":{"antennae":"B","wings":"1","pattern":"X","legs":"X"},"action":"avoid","summary":"good-avoid","bonus":1.740000000000001},{"rt":670.6999999880791,"stimulus":"\n                    <p><b>Action: <em>avoid</em></b></p>\n                    <p>This is the bee that you just saw.</p>\n                    <img src=\"bees-with-color/bee-B1DM.svg\" width=\"200\">\n                    <p><span class=\"greenText\">Good choice!</span>  This bee would have stung you.<br>Your bonus pay is unchanged, and remains at $0.94.</p>\n            ","response":0,"trial_type":"html-button-response","trial_index":90,"time_elapsed":841900,"internal_node_id":"0.0-4.0-1.41","subject_id":"6075cf9b059725b365f85e34","study_id":"60edd13110225f80f9f3709b","session_id":"6196c4a6aa85b596f57e1a14","condition":"full-information","relevant_dimensions":["antennae","wings"],"bee_group":{"antennae":"B","wings":"1","pattern":"X","legs":"X"},"bonus":1.740000000000001},{"rt":21270.69999998808,"stimulus":"bees-with-color/bee-B1SF.svg","response":1,"trial_type":"image-button-response","trial_index":91,"time_elapsed":863172,"internal_node_id":"0.0-4.0-0.42","subject_id":"6075cf9b059725b365f85e34","study_id":"60edd13110225f80f9f3709b","session_id":"6196c4a6aa85b596f57e1a14","condition":"full-information","relevant_dimensions":["antennae","wings"],"bee_group":{"antennae":"B","wings":"1","pattern":"X","legs":"X"},"action":"avoid","summary":"good-avoid","bonus":1.740000000000001},{"rt":927,"stimulus":"\n                    <p><b>Action: <em>avoid</em></b></p>\n                    <p>This is the bee that you just saw.</p>\n                    <img src=\"bees-with-color/bee-B1SF.svg\" width=\"200\">\n                    <p><span class=\"greenText\">Good choice!</span>  This bee would have stung you.<br>Your bonus pay is unchanged, and remains at $0.94.</p>\n            ","response":0,"trial_type":"html-button-response","trial_index":92,"time_elapsed":864101,"internal_node_id":"0.0-4.0-1.42","subject_id":"6075cf9b059725b365f85e34","study_id":"60edd13110225f80f9f3709b","session_id":"6196c4a6aa85b596f57e1a14","condition":"full-information","relevant_dimensions":["antennae","wings"],"bee_group":{"antennae":"B","wings":"1","pattern":"X","legs":"X"},"bonus":1.740000000000001},{"rt":14654.5,"stimulus":"bees-with-color/bee-A2SM.svg","response":0,"trial_type":"image-button-response","trial_index":93,"time_elapsed":878757,"internal_node_id":"0.0-4.0-0.43","subject_id":"6075cf9b059725b365f85e34","study_id":"60edd13110225f80f9f3709b","session_id":"6196c4a6aa85b596f57e1a14","condition":"full-information","relevant_dimensions":["antennae","wings"],"bee_group":{"antennae":"B","wings":"1","pattern":"X","legs":"X"},"action":"harvest","summary":"good-harvest","bonus":1.740000000000001},{"rt":1999,"stimulus":"\n                    <p><b>Action: <em>harvest</em></b></p>\n                    <p>This is the bee that you just saw.</p>\n                    <img src=\"bees-with-color/bee-A2SM.svg\" width=\"200\">\n                    <p><span class=\"greenText\"><b>Successful harvest!</b></span><br>Your pay has increased by $0.02. Your bonus pay is now $0.96.</p>\n            ","response":0,"trial_type":"html-button-response","trial_index":94,"time_elapsed":880757,"internal_node_id":"0.0-4.0-1.43","subject_id":"6075cf9b059725b365f85e34","study_id":"60edd13110225f80f9f3709b","session_id":"6196c4a6aa85b596f57e1a14","condition":"full-information","relevant_dimensions":["antennae","wings"],"bee_group":{"antennae":"B","wings":"1","pattern":"X","legs":"X"},"bonus":1.740000000000001},{"rt":6614.800000011921,"stimulus":"bees-with-color/bee-A2DF.svg","response":0,"trial_type":"image-button-response","trial_index":95,"time_elapsed":887373,"internal_node_id":"0.0-4.0-0.44","subject_id":"6075cf9b059725b365f85e34","study_id":"60edd13110225f80f9f3709b","session_id":"6196c4a6aa85b596f57e1a14","condition":"full-information","relevant_dimensions":["antennae","wings"],"bee_group":{"antennae":"B","wings":"1","pattern":"X","legs":"X"},"action":"harvest","summary":"good-harvest","bonus":1.740000000000001},{"rt":1070.800000011921,"stimulus":"\n                    <p><b>Action: <em>harvest</em></b></p>\n                    <p>This is the bee that you just saw.</p>\n                    <img src=\"bees-with-color/bee-A2DF.svg\" width=\"200\">\n                    <p><span class=\"greenText\"><b>Successful harvest!</b></span><br>Your pay has increased by $0.02. Your bonus pay is now $0.98.</p>\n            ","response":0,"trial_type":"html-button-response","trial_index":96,"time_elapsed":888445,"internal_node_id":"0.0-4.0-1.44","subject_id":"6075cf9b059725b365f85e34","study_id":"60edd13110225f80f9f3709b","session_id":"6196c4a6aa85b596f57e1a14","condition":"full-information","relevant_dimensions":["antennae","wings"],"bee_group":{"antennae":"B","wings":"1","pattern":"X","legs":"X"},"bonus":1.740000000000001},{"rt":29911,"stimulus":"bees-with-color/bee-B2SM.svg","response":0,"trial_type":"image-button-response","trial_index":97,"time_elapsed":918357,"internal_node_id":"0.0-4.0-0.45","subject_id":"6075cf9b059725b365f85e34","study_id":"60edd13110225f80f9f3709b","session_id":"6196c4a6aa85b596f57e1a14","condition":"full-information","relevant_dimensions":["antennae","wings"],"bee_group":{"antennae":"B","wings":"1","pattern":"X","legs":"X"},"action":"harvest","summary":"good-harvest","bonus":1.740000000000001},{"rt":558.9000000357628,"stimulus":"\n                    <p><b>Action: <em>harvest</em></b></p>\n                    <p>This is the bee that you just saw.</p>\n                    <img src=\"bees-with-color/bee-B2SM.svg\" width=\"200\">\n                    <p><span class=\"greenText\"><b>Successful harvest!</b></span><br>Your pay has increased by $0.02. Your bonus pay is now $1.00.</p>\n            ","response":0,"trial_type":"html-button-response","trial_index":98,"time_elapsed":918917,"internal_node_id":"0.0-4.0-1.45","subject_id":"6075cf9b059725b365f85e34","study_id":"60edd13110225f80f9f3709b","session_id":"6196c4a6aa85b596f57e1a14","condition":"full-information","relevant_dimensions":["antennae","wings"],"bee_group":{"antennae":"B","wings":"1","pattern":"X","legs":"X"},"bonus":1.740000000000001},{"rt":9806.300000011921,"stimulus":"bees-with-color/bee-A1SM.svg","response":0,"trial_type":"image-button-response","trial_index":99,"time_elapsed":928725,"internal_node_id":"0.0-4.0-0.46","subject_id":"6075cf9b059725b365f85e34","study_id":"60edd13110225f80f9f3709b","session_id":"6196c4a6aa85b596f57e1a14","condition":"full-information","relevant_dimensions":["antennae","wings"],"bee_group":{"antennae":"B","wings":"1","pattern":"X","legs":"X"},"action":"harvest","summary":"good-harvest","bonus":1.740000000000001},{"rt":630.8000000119209,"stimulus":"\n                    <p><b>Action: <em>harvest</em></b></p>\n                    <p>This is the bee that you just saw.</p>\n                    <img src=\"bees-with-color/bee-A1SM.svg\" width=\"200\">\n                    <p><span class=\"greenText\"><b>Successful harvest!</b></span><br>Your pay has increased by $0.02. Your bonus pay is now $1.02.</p>\n            ","response":0,"trial_type":"html-button-response","trial_index":100,"time_elapsed":929357,"internal_node_id":"0.0-4.0-1.46","subject_id":"6075cf9b059725b365f85e34","study_id":"60edd13110225f80f9f3709b","session_id":"6196c4a6aa85b596f57e1a14","condition":"full-information","relevant_dimensions":["antennae","wings"],"bee_group":{"antennae":"B","wings":"1","pattern":"X","legs":"X"},"bonus":1.740000000000001},{"rt":7286.5,"stimulus":"bees-with-color/bee-B2SF.svg","response":0,"trial_type":"image-button-response","trial_index":101,"time_elapsed":936645,"internal_node_id":"0.0-4.0-0.47","subject_id":"6075cf9b059725b365f85e34","study_id":"60edd13110225f80f9f3709b","session_id":"6196c4a6aa85b596f57e1a14","condition":"full-information","relevant_dimensions":["antennae","wings"],"bee_group":{"antennae":"B","wings":"1","pattern":"X","legs":"X"},"action":"harvest","summary":"good-harvest","bonus":1.740000000000001},{"rt":630.2000000476837,"stimulus":"\n                    <p><b>Action: <em>harvest</em></b></p>\n                    <p>This is the bee that you just saw.</p>\n                    <img src=\"bees-with-color/bee-B2SF.svg\" width=\"200\">\n                    <p><span class=\"greenText\"><b>Successful harvest!</b></span><br>Your pay has increased by $0.02. Your bonus pay is now $1.04.</p>\n            ","response":0,"trial_type":"html-button-response","trial_index":102,"time_elapsed":937277,"internal_node_id":"0.0-4.0-1.47","subject_id":"6075cf9b059725b365f85e34","study_id":"60edd13110225f80f9f3709b","session_id":"6196c4a6aa85b596f57e1a14","condition":"full-information","relevant_dimensions":["antennae","wings"],"bee_group":{"antennae":"B","wings":"1","pattern":"X","legs":"X"},"bonus":1.740000000000001},{"rt":16710.399999976158,"stimulus":"bees-with-color/bee-B1SM.svg","response":1,"trial_type":"image-button-response","trial_index":103,"time_elapsed":953988,"internal_node_id":"0.0-4.0-0.48","subject_id":"6075cf9b059725b365f85e34","study_id":"60edd13110225f80f9f3709b","session_id":"6196c4a6aa85b596f57e1a14","condition":"full-information","relevant_dimensions":["antennae","wings"],"bee_group":{"antennae":"B","wings":"1","pattern":"X","legs":"X"},"action":"avoid","summary":"good-avoid","bonus":1.740000000000001},{"rt":567.0999999642372,"stimulus":"\n                    <p><b>Action: <em>avoid</em></b></p>\n                    <p>This is the bee that you just saw.</p>\n                    <img src=\"bees-with-color/bee-B1SM.svg\" width=\"200\">\n                    <p><span class=\"greenText\">Good choice!</span>  This bee would have stung you.<br>Your bonus pay is unchanged, and remains at $1.04.</p>\n            ","response":0,"trial_type":"html-button-response","trial_index":104,"time_elapsed":954557,"internal_node_id":"0.0-4.0-1.48","subject_id":"6075cf9b059725b365f85e34","study_id":"60edd13110225f80f9f3709b","session_id":"6196c4a6aa85b596f57e1a14","condition":"full-information","relevant_dimensions":["antennae","wings"],"bee_group":{"antennae":"B","wings":"1","pattern":"X","legs":"X"},"bonus":1.740000000000001},{"rt":2030.6000000238419,"stimulus":"bees-with-color/bee-A1SM.svg","response":1,"trial_type":"image-button-response","trial_index":105,"time_elapsed":956589,"internal_node_id":"0.0-4.0-0.49","subject_id":"6075cf9b059725b365f85e34","study_id":"60edd13110225f80f9f3709b","session_id":"6196c4a6aa85b596f57e1a14","condition":"full-information","relevant_dimensions":["antennae","wings"],"bee_group":{"antennae":"B","wings":"1","pattern":"X","legs":"X"},"action":"avoid","summary":"bad-avoid","bonus":1.740000000000001},{"rt":2534.699999988079,"stimulus":"\n                    <p><b>Action: <em>avoid</em></b></p>\n                    <p>This is the bee that you just saw.</p>\n                    <img src=\"bees-with-color/bee-A1SM.svg\" width=\"200\">\n                    <p><span class=\"redText\">Bad choice,</span> the bee was friendly.<br>Your bonus pay is unchanged, and remains at $1.04.</p>\n            ","response":0,"trial_type":"html-button-response","trial_index":106,"time_elapsed":959124,"internal_node_id":"0.0-4.0-1.49","subject_id":"6075cf9b059725b365f85e34","study_id":"60edd13110225f80f9f3709b","session_id":"6196c4a6aa85b596f57e1a14","condition":"full-information","relevant_dimensions":["antennae","wings"],"bee_group":{"antennae":"B","wings":"1","pattern":"X","legs":"X"},"bonus":1.740000000000001},{"rt":11022.5,"stimulus":"bees-with-color/bee-A2DF.svg","response":0,"trial_type":"image-button-response","trial_index":107,"time_elapsed":970148,"internal_node_id":"0.0-4.0-0.50","subject_id":"6075cf9b059725b365f85e34","study_id":"60edd13110225f80f9f3709b","session_id":"6196c4a6aa85b596f57e1a14","condition":"full-information","relevant_dimensions":["antennae","wings"],"bee_group":{"antennae":"B","wings":"1","pattern":"X","legs":"X"},"action":"harvest","summary":"good-harvest","bonus":1.740000000000001},{"rt":1454.8999999761581,"stimulus":"\n                    <p><b>Action: <em>harvest</em></b></p>\n                    <p>This is the bee that you just saw.</p>\n                    <img src=\"bees-with-color/bee-A2DF.svg\" width=\"200\">\n                    <p><span class=\"greenText\"><b>Successful harvest!</b></span><br>Your pay has increased by $0.02. Your bonus pay is now $1.06.</p>\n            ","response":0,"trial_type":"html-button-response","trial_index":108,"time_elapsed":971605,"internal_node_id":"0.0-4.0-1.50","subject_id":"6075cf9b059725b365f85e34","study_id":"60edd13110225f80f9f3709b","session_id":"6196c4a6aa85b596f57e1a14","condition":"full-information","relevant_dimensions":["antennae","wings"],"bee_group":{"antennae":"B","wings":"1","pattern":"X","legs":"X"},"bonus":1.740000000000001},{"rt":24662.30000001192,"stimulus":"bees-with-color/bee-B1DF.svg","response":1,"trial_type":"image-button-response","trial_index":109,"time_elapsed":996268,"internal_node_id":"0.0-4.0-0.51","subject_id":"6075cf9b059725b365f85e34","study_id":"60edd13110225f80f9f3709b","session_id":"6196c4a6aa85b596f57e1a14","condition":"full-information","relevant_dimensions":["antennae","wings"],"bee_group":{"antennae":"B","wings":"1","pattern":"X","legs":"X"},"action":"avoid","summary":"good-avoid","bonus":1.740000000000001},{"rt":1886.7999999523163,"stimulus":"\n                    <p><b>Action: <em>avoid</em></b></p>\n                    <p>This is the bee that you just saw.</p>\n                    <img src=\"bees-with-color/bee-B1DF.svg\" width=\"200\">\n                    <p><span class=\"greenText\">Good choice!</span>  This bee would have stung you.<br>Your bonus pay is unchanged, and remains at $1.06.</p>\n            ","response":0,"trial_type":"html-button-response","trial_index":110,"time_elapsed":998156,"internal_node_id":"0.0-4.0-1.51","subject_id":"6075cf9b059725b365f85e34","study_id":"60edd13110225f80f9f3709b","session_id":"6196c4a6aa85b596f57e1a14","condition":"full-information","relevant_dimensions":["antennae","wings"],"bee_group":{"antennae":"B","wings":"1","pattern":"X","legs":"X"},"bonus":1.740000000000001},{"rt":11958.599999964237,"stimulus":"bees-with-color/bee-A1SF.svg","response":0,"trial_type":"image-button-response","trial_index":111,"time_elapsed":1010117,"internal_node_id":"0.0-4.0-0.52","subject_id":"6075cf9b059725b365f85e34","study_id":"60edd13110225f80f9f3709b","session_id":"6196c4a6aa85b596f57e1a14","condition":"full-information","relevant_dimensions":["antennae","wings"],"bee_group":{"antennae":"B","wings":"1","pattern":"X","legs":"X"},"action":"harvest","summary":"good-harvest","bonus":1.740000000000001},{"rt":734.4000000357628,"stimulus":"\n                    <p><b>Action: <em>harvest</em></b></p>\n                    <p>This is the bee that you just saw.</p>\n                    <img src=\"bees-with-color/bee-A1SF.svg\" width=\"200\">\n                    <p><span class=\"greenText\"><b>Successful harvest!</b></span><br>Your pay has increased by $0.02. Your bonus pay is now $1.08.</p>\n            ","response":0,"trial_type":"html-button-response","trial_index":112,"time_elapsed":1010852,"internal_node_id":"0.0-4.0-1.52","subject_id":"6075cf9b059725b365f85e34","study_id":"60edd13110225f80f9f3709b","session_id":"6196c4a6aa85b596f57e1a14","condition":"full-information","relevant_dimensions":["antennae","wings"],"bee_group":{"antennae":"B","wings":"1","pattern":"X","legs":"X"},"bonus":1.740000000000001},{"rt":4718.399999976158,"stimulus":"bees-with-color/bee-A1DM.svg","response":0,"trial_type":"image-button-response","trial_index":113,"time_elapsed":1015573,"internal_node_id":"0.0-4.0-0.53","subject_id":"6075cf9b059725b365f85e34","study_id":"60edd13110225f80f9f3709b","session_id":"6196c4a6aa85b596f57e1a14","condition":"full-information","relevant_dimensions":["antennae","wings"],"bee_group":{"antennae":"B","wings":"1","pattern":"X","legs":"X"},"action":"harvest","summary":"good-harvest","bonus":1.740000000000001},{"rt":1039.1000000238419,"stimulus":"\n                    <p><b>Action: <em>harvest</em></b></p>\n                    <p>This is the bee that you just saw.</p>\n                    <img src=\"bees-with-color/bee-A1DM.svg\" width=\"200\">\n                    <p><span class=\"greenText\"><b>Successful harvest!</b></span><br>Your pay has increased by $0.02. Your bonus pay is now $1.10.</p>\n            ","response":0,"trial_type":"html-button-response","trial_index":114,"time_elapsed":1016613,"internal_node_id":"0.0-4.0-1.53","subject_id":"6075cf9b059725b365f85e34","study_id":"60edd13110225f80f9f3709b","session_id":"6196c4a6aa85b596f57e1a14","condition":"full-information","relevant_dimensions":["antennae","wings"],"bee_group":{"antennae":"B","wings":"1","pattern":"X","legs":"X"},"bonus":1.740000000000001},{"rt":6838.399999976158,"stimulus":"bees-with-color/bee-A2SM.svg","response":0,"trial_type":"image-button-response","trial_index":115,"time_elapsed":1023453,"internal_node_id":"0.0-4.0-0.54","subject_id":"6075cf9b059725b365f85e34","study_id":"60edd13110225f80f9f3709b","session_id":"6196c4a6aa85b596f57e1a14","condition":"full-information","relevant_dimensions":["antennae","wings"],"bee_group":{"antennae":"B","wings":"1","pattern":"X","legs":"X"},"action":"harvest","summary":"good-harvest","bonus":1.740000000000001},{"rt":439,"stimulus":"\n                    <p><b>Action: <em>harvest</em></b></p>\n                    <p>This is the bee that you just saw.</p>\n                    <img src=\"bees-with-color/bee-A2SM.svg\" width=\"200\">\n                    <p><span class=\"greenText\"><b>Successful harvest!</b></span><br>Your pay has increased by $0.02. Your bonus pay is now $1.12.</p>\n            ","response":0,"trial_type":"html-button-response","trial_index":116,"time_elapsed":1023893,"internal_node_id":"0.0-4.0-1.54","subject_id":"6075cf9b059725b365f85e34","study_id":"60edd13110225f80f9f3709b","session_id":"6196c4a6aa85b596f57e1a14","condition":"full-information","relevant_dimensions":["antennae","wings"],"bee_group":{"antennae":"B","wings":"1","pattern":"X","legs":"X"},"bonus":1.740000000000001},{"rt":14462.400000035763,"stimulus":"bees-with-color/bee-A2SF.svg","response":0,"trial_type":"image-button-response","trial_index":117,"time_elapsed":1038357,"internal_node_id":"0.0-4.0-0.55","subject_id":"6075cf9b059725b365f85e34","study_id":"60edd13110225f80f9f3709b","session_id":"6196c4a6aa85b596f57e1a14","condition":"full-information","relevant_dimensions":["antennae","wings"],"bee_group":{"antennae":"B","wings":"1","pattern":"X","legs":"X"},"action":"harvest","summary":"good-harvest","bonus":1.740000000000001},{"rt":1070.800000011921,"stimulus":"\n                    <p><b>Action: <em>harvest</em></b></p>\n                    <p>This is the bee that you just saw.</p>\n                    <img src=\"bees-with-color/bee-A2SF.svg\" width=\"200\">\n                    <p><span class=\"greenText\"><b>Successful harvest!</b></span><br>Your pay has increased by $0.02. Your bonus pay is now $1.14.</p>\n            ","response":0,"trial_type":"html-button-response","trial_index":118,"time_elapsed":1039429,"internal_node_id":"0.0-4.0-1.55","subject_id":"6075cf9b059725b365f85e34","study_id":"60edd13110225f80f9f3709b","session_id":"6196c4a6aa85b596f57e1a14","condition":"full-information","relevant_dimensions":["antennae","wings"],"bee_group":{"antennae":"B","wings":"1","pattern":"X","legs":"X"},"bonus":1.740000000000001},{"rt":5542.300000011921,"stimulus":"bees-with-color/bee-B1SF.svg","response":1,"trial_type":"image-button-response","trial_index":119,"time_elapsed":1044973,"internal_node_id":"0.0-4.0-0.56","subject_id":"6075cf9b059725b365f85e34","study_id":"60edd13110225f80f9f3709b","session_id":"6196c4a6aa85b596f57e1a14","condition":"full-information","relevant_dimensions":["antennae","wings"],"bee_group":{"antennae":"B","wings":"1","pattern":"X","legs":"X"},"action":"avoid","summary":"good-avoid","bonus":1.740000000000001},{"rt":527.1000000238419,"stimulus":"\n                    <p><b>Action: <em>avoid</em></b></p>\n                    <p>This is the bee that you just saw.</p>\n                    <img src=\"bees-with-color/bee-B1SF.svg\" width=\"200\">\n                    <p><span class=\"greenText\">Good choice!</span>  This bee would have stung you.<br>Your bonus pay is unchanged, and remains at $1.14.</p>\n            ","response":0,"trial_type":"html-button-response","trial_index":120,"time_elapsed":1045501,"internal_node_id":"0.0-4.0-1.56","subject_id":"6075cf9b059725b365f85e34","study_id":"60edd13110225f80f9f3709b","session_id":"6196c4a6aa85b596f57e1a14","condition":"full-information","relevant_dimensions":["antennae","wings"],"bee_group":{"antennae":"B","wings":"1","pattern":"X","legs":"X"},"bonus":1.740000000000001},{"rt":25366.5,"stimulus":"bees-with-color/bee-B2SM.svg","response":0,"trial_type":"image-button-response","trial_index":121,"time_elapsed":1070869,"internal_node_id":"0.0-4.0-0.57","subject_id":"6075cf9b059725b365f85e34","study_id":"60edd13110225f80f9f3709b","session_id":"6196c4a6aa85b596f57e1a14","condition":"full-information","relevant_dimensions":["antennae","wings"],"bee_group":{"antennae":"B","wings":"1","pattern":"X","legs":"X"},"action":"harvest","summary":"good-harvest","bonus":1.740000000000001},{"rt":798.5,"stimulus":"\n                    <p><b>Action: <em>harvest</em></b></p>\n                    <p>This is the bee that you just saw.</p>\n                    <img src=\"bees-with-color/bee-B2SM.svg\" width=\"200\">\n                    <p><span class=\"greenText\"><b>Successful harvest!</b></span><br>Your pay has increased by $0.02. Your bonus pay is now $1.16.</p>\n            ","response":0,"trial_type":"html-button-response","trial_index":122,"time_elapsed":1071669,"internal_node_id":"0.0-4.0-1.57","subject_id":"6075cf9b059725b365f85e34","study_id":"60edd13110225f80f9f3709b","session_id":"6196c4a6aa85b596f57e1a14","condition":"full-information","relevant_dimensions":["antennae","wings"],"bee_group":{"antennae":"B","wings":"1","pattern":"X","legs":"X"},"bonus":1.740000000000001},{"rt":18662.100000023842,"stimulus":"bees-with-color/bee-A1DF.svg","response":0,"trial_type":"image-button-response","trial_index":123,"time_elapsed":1090333,"internal_node_id":"0.0-4.0-0.58","subject_id":"6075cf9b059725b365f85e34","study_id":"60edd13110225f80f9f3709b","session_id":"6196c4a6aa85b596f57e1a14","condition":"full-information","relevant_dimensions":["antennae","wings"],"bee_group":{"antennae":"B","wings":"1","pattern":"X","legs":"X"},"action":"harvest","summary":"good-harvest","bonus":1.740000000000001},{"rt":558.6999999880791,"stimulus":"\n                    <p><b>Action: <em>harvest</em></b></p>\n                    <p>This is the bee that you just saw.</p>\n                    <img src=\"bees-with-color/bee-A1DF.svg\" width=\"200\">\n                    <p><span class=\"greenText\"><b>Successful harvest!</b></span><br>Your pay has increased by $0.02. Your bonus pay is now $1.18.</p>\n            ","response":0,"trial_type":"html-button-response","trial_index":124,"time_elapsed":1090893,"internal_node_id":"0.0-4.0-1.58","subject_id":"6075cf9b059725b365f85e34","study_id":"60edd13110225f80f9f3709b","session_id":"6196c4a6aa85b596f57e1a14","condition":"full-information","relevant_dimensions":["antennae","wings"],"bee_group":{"antennae":"B","wings":"1","pattern":"X","legs":"X"},"bonus":1.740000000000001},{"rt":15406.399999976158,"stimulus":"bees-with-color/bee-B1DM.svg","response":1,"trial_type":"image-button-response","trial_index":125,"time_elapsed":1106301,"internal_node_id":"0.0-4.0-0.59","subject_id":"6075cf9b059725b365f85e34","study_id":"60edd13110225f80f9f3709b","session_id":"6196c4a6aa85b596f57e1a14","condition":"full-information","relevant_dimensions":["antennae","wings"],"bee_group":{"antennae":"B","wings":"1","pattern":"X","legs":"X"},"action":"avoid","summary":"good-avoid","bonus":1.740000000000001},{"rt":838.1999999880791,"stimulus":"\n                    <p><b>Action: <em>avoid</em></b></p>\n                    <p>This is the bee that you just saw.</p>\n                    <img src=\"bees-with-color/bee-B1DM.svg\" width=\"200\">\n                    <p><span class=\"greenText\">Good choice!</span>  This bee would have stung you.<br>Your bonus pay is unchanged, and remains at $1.18.</p>\n            ","response":0,"trial_type":"html-button-response","trial_index":126,"time_elapsed":1107141,"internal_node_id":"0.0-4.0-1.59","subject_id":"6075cf9b059725b365f85e34","study_id":"60edd13110225f80f9f3709b","session_id":"6196c4a6aa85b596f57e1a14","condition":"full-information","relevant_dimensions":["antennae","wings"],"bee_group":{"antennae":"B","wings":"1","pattern":"X","legs":"X"},"bonus":1.740000000000001},{"rt":2894,"stimulus":"bees-with-color/bee-B2SF.svg","response":0,"trial_type":"image-button-response","trial_index":127,"time_elapsed":1110037,"internal_node_id":"0.0-4.0-0.60","subject_id":"6075cf9b059725b365f85e34","study_id":"60edd13110225f80f9f3709b","session_id":"6196c4a6aa85b596f57e1a14","condition":"full-information","relevant_dimensions":["antennae","wings"],"bee_group":{"antennae":"B","wings":"1","pattern":"X","legs":"X"},"action":"harvest","summary":"good-harvest","bonus":1.740000000000001},{"rt":1014.6000000238419,"stimulus":"\n                    <p><b>Action: <em>harvest</em></b></p>\n                    <p>This is the bee that you just saw.</p>\n                    <img src=\"bees-with-color/bee-B2SF.svg\" width=\"200\">\n                    <p><span class=\"greenText\"><b>Successful harvest!</b></span><br>Your pay has increased by $0.02. Your bonus pay is now $1.20.</p>\n            ","response":0,"trial_type":"html-button-response","trial_index":128,"time_elapsed":1111053,"internal_node_id":"0.0-4.0-1.60","subject_id":"6075cf9b059725b365f85e34","study_id":"60edd13110225f80f9f3709b","session_id":"6196c4a6aa85b596f57e1a14","condition":"full-information","relevant_dimensions":["antennae","wings"],"bee_group":{"antennae":"B","wings":"1","pattern":"X","legs":"X"},"bonus":1.740000000000001},{"rt":1246.800000011921,"stimulus":"bees-with-color/bee-A2DM.svg","response":0,"trial_type":"image-button-response","trial_index":129,"time_elapsed":1112300,"internal_node_id":"0.0-4.0-0.61","subject_id":"6075cf9b059725b365f85e34","study_id":"60edd13110225f80f9f3709b","session_id":"6196c4a6aa85b596f57e1a14","condition":"full-information","relevant_dimensions":["antennae","wings"],"bee_group":{"antennae":"B","wings":"1","pattern":"X","legs":"X"},"action":"harvest","summary":"good-harvest","bonus":1.740000000000001},{"rt":582.6999999880791,"stimulus":"\n                    <p><b>Action: <em>harvest</em></b></p>\n                    <p>This is the bee that you just saw.</p>\n                    <img src=\"bees-with-color/bee-A2DM.svg\" width=\"200\">\n                    <p><span class=\"greenText\"><b>Successful harvest!</b></span><br>Your pay has increased by $0.02. Your bonus pay is now $1.22.</p>\n            ","response":0,"trial_type":"html-button-response","trial_index":130,"time_elapsed":1112884,"internal_node_id":"0.0-4.0-1.61","subject_id":"6075cf9b059725b365f85e34","study_id":"60edd13110225f80f9f3709b","session_id":"6196c4a6aa85b596f57e1a14","condition":"full-information","relevant_dimensions":["antennae","wings"],"bee_group":{"antennae":"B","wings":"1","pattern":"X","legs":"X"},"bonus":1.740000000000001},{"rt":1214.9000000357628,"stimulus":"bees-with-color/bee-B2DM.svg","response":0,"trial_type":"image-button-response","trial_index":131,"time_elapsed":1114100,"internal_node_id":"0.0-4.0-0.62","subject_id":"6075cf9b059725b365f85e34","study_id":"60edd13110225f80f9f3709b","session_id":"6196c4a6aa85b596f57e1a14","condition":"full-information","relevant_dimensions":["antennae","wings"],"bee_group":{"antennae":"B","wings":"1","pattern":"X","legs":"X"},"action":"harvest","summary":"good-harvest","bonus":1.740000000000001},{"rt":551.4000000357628,"stimulus":"\n                    <p><b>Action: <em>harvest</em></b></p>\n                    <p>This is the bee that you just saw.</p>\n                    <img src=\"bees-with-color/bee-B2DM.svg\" width=\"200\">\n                    <p><span class=\"greenText\"><b>Successful harvest!</b></span><br>Your pay has increased by $0.02. Your bonus pay is now $1.24.</p>\n            ","response":0,"trial_type":"html-button-response","trial_index":132,"time_elapsed":1114653,"internal_node_id":"0.0-4.0-1.62","subject_id":"6075cf9b059725b365f85e34","study_id":"60edd13110225f80f9f3709b","session_id":"6196c4a6aa85b596f57e1a14","condition":"full-information","relevant_dimensions":["antennae","wings"],"bee_group":{"antennae":"B","wings":"1","pattern":"X","legs":"X"},"bonus":1.740000000000001},{"rt":21862.80000001192,"stimulus":"bees-with-color/bee-B2DF.svg","response":0,"trial_type":"image-button-response","trial_index":133,"time_elapsed":1136517,"internal_node_id":"0.0-4.0-0.63","subject_id":"6075cf9b059725b365f85e34","study_id":"60edd13110225f80f9f3709b","session_id":"6196c4a6aa85b596f57e1a14","condition":"full-information","relevant_dimensions":["antennae","wings"],"bee_group":{"antennae":"B","wings":"1","pattern":"X","legs":"X"},"action":"harvest","summary":"good-harvest","bonus":1.740000000000001},{"rt":2014.800000011921,"stimulus":"\n                    <p><b>Action: <em>harvest</em></b></p>\n                    <p>This is the bee that you just saw.</p>\n                    <img src=\"bees-with-color/bee-B2DF.svg\" width=\"200\">\n                    <p><span class=\"greenText\"><b>Successful harvest!</b></span><br>Your pay has increased by $0.02. Your bonus pay is now $1.26.</p>\n            ","response":0,"trial_type":"html-button-response","trial_index":134,"time_elapsed":1138532,"internal_node_id":"0.0-4.0-1.63","subject_id":"6075cf9b059725b365f85e34","study_id":"60edd13110225f80f9f3709b","session_id":"6196c4a6aa85b596f57e1a14","condition":"full-information","relevant_dimensions":["antennae","wings"],"bee_group":{"antennae":"B","wings":"1","pattern":"X","legs":"X"},"bonus":1.740000000000001},{"rt":7734.900000035763,"stimulus":"You have completed the first part of this experiment.<br><br>You will now begin a shorter second part, in which you will receive no feedback.<br>The same rules regarding bonus pay apply.<br><br>Press any key to begin.","response":" ","trial_type":"html-keyboard-response","trial_index":135,"time_elapsed":1146269,"internal_node_id":"0.0-5.0","subject_id":"6075cf9b059725b365f85e34","study_id":"60edd13110225f80f9f3709b","session_id":"6196c4a6aa85b596f57e1a14","condition":"full-information","relevant_dimensions":["antennae","wings"],"bee_group":{"antennae":"B","wings":"1","pattern":"X","legs":"X"},"bonus":1.740000000000001},{"rt":10448.099999964237,"stimulus":"bees-with-color/bee-B2DF.svg","response":0,"trial_type":"image-button-response","trial_index":136,"time_elapsed":1156725,"internal_node_id":"0.0-6.0-0.0","subject_id":"6075cf9b059725b365f85e34","study_id":"60edd13110225f80f9f3709b","session_id":"6196c4a6aa85b596f57e1a14","condition":"full-information","relevant_dimensions":["antennae","wings"],"bee_group":{"antennae":"B","wings":"1","pattern":"X","legs":"X"},"bonus":1.740000000000001},{"rt":80534.5,"stimulus":"bees-with-color/bee-A2DF.svg","response":0,"trial_type":"image-button-response","trial_index":137,"time_elapsed":1237260,"internal_node_id":"0.0-6.0-0.1","subject_id":"6075cf9b059725b365f85e34","study_id":"60edd13110225f80f9f3709b","session_id":"6196c4a6aa85b596f57e1a14","condition":"full-information","relevant_dimensions":["antennae","wings"],"bee_group":{"antennae":"B","wings":"1","pattern":"X","legs":"X"},"bonus":1.740000000000001},{"rt":9861.199999988079,"stimulus":"bees-with-color/bee-A1DF.svg","response":0,"trial_type":"image-button-response","trial_index":138,"time_elapsed":1247124,"internal_node_id":"0.0-6.0-0.2","subject_id":"6075cf9b059725b365f85e34","study_id":"60edd13110225f80f9f3709b","session_id":"6196c4a6aa85b596f57e1a14","condition":"full-information","relevant_dimensions":["antennae","wings"],"bee_group":{"antennae":"B","wings":"1","pattern":"X","legs":"X"},"bonus":1.740000000000001},{"rt":1029.800000011921,"stimulus":"bees-with-color/bee-A2DM.svg","response":0,"trial_type":"image-button-response","trial_index":139,"time_elapsed":1248156,"internal_node_id":"0.0-6.0-0.3","subject_id":"6075cf9b059725b365f85e34","study_id":"60edd13110225f80f9f3709b","session_id":"6196c4a6aa85b596f57e1a14","condition":"full-information","relevant_dimensions":["antennae","wings"],"bee_group":{"antennae":"B","wings":"1","pattern":"X","legs":"X"},"bonus":1.740000000000001},{"rt":5022.900000035763,"stimulus":"bees-with-color/bee-B1SF.svg","response":1,"trial_type":"image-button-response","trial_index":140,"time_elapsed":1253181,"internal_node_id":"0.0-6.0-0.4","subject_id":"6075cf9b059725b365f85e34","study_id":"60edd13110225f80f9f3709b","session_id":"6196c4a6aa85b596f57e1a14","condition":"full-information","relevant_dimensions":["antennae","wings"],"bee_group":{"antennae":"B","wings":"1","pattern":"X","legs":"X"},"bonus":1.740000000000001},{"rt":1254,"stimulus":"bees-with-color/bee-A2SM.svg","response":0,"trial_type":"image-button-response","trial_index":141,"time_elapsed":1254437,"internal_node_id":"0.0-6.0-0.5","subject_id":"6075cf9b059725b365f85e34","study_id":"60edd13110225f80f9f3709b","session_id":"6196c4a6aa85b596f57e1a14","condition":"full-information","relevant_dimensions":["antennae","wings"],"bee_group":{"antennae":"B","wings":"1","pattern":"X","legs":"X"},"bonus":1.740000000000001},{"rt":7533.800000011921,"stimulus":"bees-with-color/bee-B1DM.svg","response":1,"trial_type":"image-button-response","trial_index":142,"time_elapsed":1261972,"internal_node_id":"0.0-6.0-0.6","subject_id":"6075cf9b059725b365f85e34","study_id":"60edd13110225f80f9f3709b","session_id":"6196c4a6aa85b596f57e1a14","condition":"full-information","relevant_dimensions":["antennae","wings"],"bee_group":{"antennae":"B","wings":"1","pattern":"X","legs":"X"},"bonus":1.740000000000001},{"rt":910.1999999880791,"stimulus":"bees-with-color/bee-A1SM.svg","response":0,"trial_type":"image-button-response","trial_index":143,"time_elapsed":1262884,"internal_node_id":"0.0-6.0-0.7","subject_id":"6075cf9b059725b365f85e34","study_id":"60edd13110225f80f9f3709b","session_id":"6196c4a6aa85b596f57e1a14","condition":"full-information","relevant_dimensions":["antennae","wings"],"bee_group":{"antennae":"B","wings":"1","pattern":"X","legs":"X"},"bonus":1.740000000000001},{"rt":822.6999999880791,"stimulus":"bees-with-color/bee-A1DM.svg","response":0,"trial_type":"image-button-response","trial_index":144,"time_elapsed":1263709,"internal_node_id":"0.0-6.0-0.8","subject_id":"6075cf9b059725b365f85e34","study_id":"60edd13110225f80f9f3709b","session_id":"6196c4a6aa85b596f57e1a14","condition":"full-information","relevant_dimensions":["antennae","wings"],"bee_group":{"antennae":"B","wings":"1","pattern":"X","legs":"X"},"bonus":1.740000000000001},{"rt":830.4000000357628,"stimulus":"bees-with-color/bee-A2SF.svg","response":0,"trial_type":"image-button-response","trial_index":145,"time_elapsed":1264541,"internal_node_id":"0.0-6.0-0.9","subject_id":"6075cf9b059725b365f85e34","study_id":"60edd13110225f80f9f3709b","session_id":"6196c4a6aa85b596f57e1a14","condition":"full-information","relevant_dimensions":["antennae","wings"],"bee_group":{"antennae":"B","wings":"1","pattern":"X","legs":"X"},"bonus":1.740000000000001},{"rt":5573.699999988079,"stimulus":"bees-with-color/bee-B1DF.svg","response":1,"trial_type":"image-button-response","trial_index":146,"time_elapsed":1270116,"internal_node_id":"0.0-6.0-0.10","subject_id":"6075cf9b059725b365f85e34","study_id":"60edd13110225f80f9f3709b","session_id":"6196c4a6aa85b596f57e1a14","condition":"full-information","relevant_dimensions":["antennae","wings"],"bee_group":{"antennae":"B","wings":"1","pattern":"X","legs":"X"},"bonus":1.740000000000001},{"rt":2070.800000011921,"stimulus":"bees-with-color/bee-A1SF.svg","response":0,"trial_type":"image-button-response","trial_index":147,"time_elapsed":1272188,"internal_node_id":"0.0-6.0-0.11","subject_id":"6075cf9b059725b365f85e34","study_id":"60edd13110225f80f9f3709b","session_id":"6196c4a6aa85b596f57e1a14","condition":"full-information","relevant_dimensions":["antennae","wings"],"bee_group":{"antennae":"B","wings":"1","pattern":"X","legs":"X"},"bonus":1.740000000000001},{"rt":1598.7999999523163,"stimulus":"bees-with-color/bee-B2DM.svg","response":0,"trial_type":"image-button-response","trial_index":148,"time_elapsed":1273789,"internal_node_id":"0.0-6.0-0.12","subject_id":"6075cf9b059725b365f85e34","study_id":"60edd13110225f80f9f3709b","session_id":"6196c4a6aa85b596f57e1a14","condition":"full-information","relevant_dimensions":["antennae","wings"],"bee_group":{"antennae":"B","wings":"1","pattern":"X","legs":"X"},"bonus":1.740000000000001},{"rt":1598.3999999761581,"stimulus":"bees-with-color/bee-B1SM.svg","response":1,"trial_type":"image-button-response","trial_index":149,"time_elapsed":1275388,"internal_node_id":"0.0-6.0-0.13","subject_id":"6075cf9b059725b365f85e34","study_id":"60edd13110225f80f9f3709b","session_id":"6196c4a6aa85b596f57e1a14","condition":"full-information","relevant_dimensions":["antennae","wings"],"bee_group":{"antennae":"B","wings":"1","pattern":"X","legs":"X"},"bonus":1.740000000000001},{"rt":878.3000000119209,"stimulus":"bees-with-color/bee-B2SM.svg","response":0,"trial_type":"image-button-response","trial_index":150,"time_elapsed":1276268,"internal_node_id":"0.0-6.0-0.14","subject_id":"6075cf9b059725b365f85e34","study_id":"60edd13110225f80f9f3709b","session_id":"6196c4a6aa85b596f57e1a14","condition":"full-information","relevant_dimensions":["antennae","wings"],"bee_group":{"antennae":"B","wings":"1","pattern":"X","legs":"X"},"bonus":1.740000000000001},{"rt":678.6999999880791,"stimulus":"bees-with-color/bee-B2SF.svg","response":0,"trial_type":"image-button-response","trial_index":151,"time_elapsed":1276948,"internal_node_id":"0.0-6.0-0.15","subject_id":"6075cf9b059725b365f85e34","study_id":"60edd13110225f80f9f3709b","session_id":"6196c4a6aa85b596f57e1a14","condition":"full-information","relevant_dimensions":["antennae","wings"],"bee_group":{"antennae":"B","wings":"1","pattern":"X","legs":"X"},"bonus":1.740000000000001},{"rt":1238.3999999761581,"stimulus":"bees-with-color/bee-B1DF.svg","response":1,"trial_type":"image-button-response","trial_index":152,"time_elapsed":1278188,"internal_node_id":"0.0-6.0-0.16","subject_id":"6075cf9b059725b365f85e34","study_id":"60edd13110225f80f9f3709b","session_id":"6196c4a6aa85b596f57e1a14","condition":"full-information","relevant_dimensions":["antennae","wings"],"bee_group":{"antennae":"B","wings":"1","pattern":"X","legs":"X"},"bonus":1.740000000000001},{"rt":727.1999999880791,"stimulus":"bees-with-color/bee-A2SM.svg","response":0,"trial_type":"image-button-response","trial_index":153,"time_elapsed":1278917,"internal_node_id":"0.0-6.0-0.17","subject_id":"6075cf9b059725b365f85e34","study_id":"60edd13110225f80f9f3709b","session_id":"6196c4a6aa85b596f57e1a14","condition":"full-information","relevant_dimensions":["antennae","wings"],"bee_group":{"antennae":"B","wings":"1","pattern":"X","legs":"X"},"bonus":1.740000000000001},{"rt":566,"stimulus":"bees-with-color/bee-A2DM.svg","response":0,"trial_type":"image-button-response","trial_index":154,"time_elapsed":1279484,"internal_node_id":"0.0-6.0-0.18","subject_id":"6075cf9b059725b365f85e34","study_id":"60edd13110225f80f9f3709b","session_id":"6196c4a6aa85b596f57e1a14","condition":"full-information","relevant_dimensions":["antennae","wings"],"bee_group":{"antennae":"B","wings":"1","pattern":"X","legs":"X"},"bonus":1.740000000000001},{"rt":2415,"stimulus":"bees-with-color/bee-B1DM.svg","response":1,"trial_type":"image-button-response","trial_index":155,"time_elapsed":1281900,"internal_node_id":"0.0-6.0-0.19","subject_id":"6075cf9b059725b365f85e34","study_id":"60edd13110225f80f9f3709b","session_id":"6196c4a6aa85b596f57e1a14","condition":"full-information","relevant_dimensions":["antennae","wings"],"bee_group":{"antennae":"B","wings":"1","pattern":"X","legs":"X"},"bonus":1.740000000000001},{"rt":2894.699999988079,"stimulus":"bees-with-color/bee-A1DF.svg","response":0,"trial_type":"image-button-response","trial_index":156,"time_elapsed":1284796,"internal_node_id":"0.0-6.0-0.20","subject_id":"6075cf9b059725b365f85e34","study_id":"60edd13110225f80f9f3709b","session_id":"6196c4a6aa85b596f57e1a14","condition":"full-information","relevant_dimensions":["antennae","wings"],"bee_group":{"antennae":"B","wings":"1","pattern":"X","legs":"X"},"bonus":1.740000000000001},{"rt":1326.3999999761581,"stimulus":"bees-with-color/bee-B2SF.svg","response":0,"trial_type":"image-button-response","trial_index":157,"time_elapsed":1286124,"internal_node_id":"0.0-6.0-0.21","subject_id":"6075cf9b059725b365f85e34","study_id":"60edd13110225f80f9f3709b","session_id":"6196c4a6aa85b596f57e1a14","condition":"full-information","relevant_dimensions":["antennae","wings"],"bee_group":{"anten