[{"success":true,"trial_type":"fullscreen","trial_index":0,"time_elapsed":4853,"internal_node_id":"0.0-0.0","subject_id":"5b758f1c8b13610001f8cd1c","study_id":"60edd13110225f80f9f3709b","session_id":"6196c1f1860a3164bf54ef77","condition":"full-information","relevant_dimensions":["wings","legs"],"bee_group":{"antennae":"X","wings":"1","pattern":"X","legs":"M"},"bonus":0.5000000000000012},{"success":true,"timeout":false,"failed_images":[],"failed_audio":[],"failed_video":[],"trial_type":"preload","trial_index":1,"time_elapsed":11438,"internal_node_id":"0.0-1.0","subject_id":"5b758f1c8b13610001f8cd1c","study_id":"60edd13110225f80f9f3709b","session_id":"6196c1f1860a3164bf54ef77","condition":"full-information","relevant_dimensions":["wings","legs"],"bee_group":{"antennae":"X","wings":"1","pattern":"X","legs":"M"},"bonus":0.5000000000000012},{"rt":5510.899999976158,"stimulus":"Welcome! Press any key to begin.","response":"k","trial_type":"html-keyboard-response","trial_index":2,"time_elapsed":16954,"internal_node_id":"0.0-2.0","subject_id":"5b758f1c8b13610001f8cd1c","study_id":"60edd13110225f80f9f3709b","session_id":"6196c1f1860a3164bf54ef77","condition":"full-information","relevant_dimensions":["wings","legs"],"bee_group":{"antennae":"X","wings":"1","pattern":"X","legs":"M"},"bonus":0.5000000000000012},{"view_history":[{"page_index":0,"viewing_time":447079.10000002384},{"page_index":1,"viewing_time":93927.19999998808},{"page_index":2,"viewing_time":20240.100000023842},{"page_index":3,"viewing_time":18184.80000001192},{"page_index":4,"viewing_time":142608.89999997616},{"page_index":5,"viewing_time":3447.800000011921},{"page_index":6,"viewing_time":8379.699999988079},{"page_index":7,"viewing_time":9434.800000011921},{"page_index":8,"viewing_time":6384.599999964237},{"page_index":9,"viewing_time":4235.700000047684},{"page_index":10,"viewing_time":6056.199999988079},{"page_index":11,"viewing_time":14367.5},{"page_index":12,"viewing_time":28603.099999964237},{"page_index":13,"viewing_time":2306.100000023842},{"page_index":14,"viewing_time":3037.199999988079}],"rt":808395.6000000238,"trial_type":"instructions","trial_index":3,"time_elapsed":825373,"internal_node_id":"0.0-3.0-0.0","subject_id":"5b758f1c8b13610001f8cd1c","study_id":"60edd13110225f80f9f3709b","session_id":"6196c1f1860a3164bf54ef77","condition":"full-information","relevant_dimensions":["wings","legs"],"bee_group":{"antennae":"X","wings":"1","pattern":"X","legs":"M"},"bonus":0.5000000000000012},{"rt":33284.10000002384,"response":{"Q0":["Two or six legs","Stripes or spots on body","Single or double wings","Antennae or no antennae"]},"question_order":[0],"trial_type":"survey-multi-select","trial_index":4,"time_elapsed":862000,"internal_node_id":"0.0-3.0-1.0","subject_id":"5b758f1c8b13610001f8cd1c","study_id":"60edd13110225f80f9f3709b","session_id":"6196c1f1860a3164bf54ef77","condition":"full-information","relevant_dimensions":["wings","legs"],"bee_group":{"antennae":"X","wings":"1","pattern":"X","legs":"M"},"correct":true,"bonus":0.5000000000000012},{"rt":27287.399999976158,"response":{"Q1":"No.","Q2":"Based on the four features of the bee.","Q3":"You learn if it was friendly or dangerous, but do not alter your bonus."},"question_order":[0,1,2],"trial_type":"survey-multi-choice","trial_index":5,"time_elapsed":891292,"internal_node_id":"0.0-3.0-2.0","subject_id":"5b758f1c8b13610001f8cd1c","study_id":"60edd13110225f80f9f3709b","session_id":"6196c1f1860a3164bf54ef77","condition":"full-information","relevant_dimensions":["wings","legs"],"bee_group":{"antennae":"X","wings":"1","pattern":"X","legs":"M"},"correct":true,"bonus":0.5000000000000012},{"rt":43110.30000001192,"stimulus":"<p>Congrats, you got everything right<br>When you're ready, click the button below to continue to the experiment.</p>","response":0,"trial_type":"html-button-response","trial_index":6,"time_elapsed":934703,"internal_node_id":"0.0-3.0-3.0","subject_id":"5b758f1c8b13610001f8cd1c","study_id":"60edd13110225f80f9f3709b","session_id":"6196c1f1860a3164bf54ef77","condition":"full-information","relevant_dimensions":["wings","legs"],"bee_group":{"antennae":"X","wings":"1","pattern":"X","legs":"M"},"bonus":0.5000000000000012},{"rt":8522.600000023842,"stimulus":"bees-with-color/bee-A2SF.svg","response":0,"trial_type":"image-button-response","trial_index":7,"time_elapsed":945228,"internal_node_id":"0.0-4.0-0.0","subject_id":"5b758f1c8b13610001f8cd1c","study_id":"60edd13110225f80f9f3709b","session_id":"6196c1f1860a3164bf54ef77","condition":"full-information","relevant_dimensions":["wings","legs"],"bee_group":{"antennae":"X","wings":"1","pattern":"X","legs":"M"},"action":"harvest","summary":"good-harvest","bonus":0.5000000000000012},{"rt":9848.800000011921,"stimulus":"\n                    <p><b>Action: <em>harvest</em></b></p>\n                    <p>This is the bee that you just saw.</p>\n                    <img src=\"bees-with-color/bee-A2SF.svg\" width=\"200\">\n                    <p><span class=\"greenText\"><b>Successful harvest!</b></span><br>Your pay has increased by $0.02. Your bonus pay is now $0.56.</p>\n            ","response":0,"trial_type":"html-button-response","trial_index":8,"time_elapsed":956815,"internal_node_id":"0.0-4.0-1.0","subject_id":"5b758f1c8b13610001f8cd1c","study_id":"60edd13110225f80f9f3709b","session_id":"6196c1f1860a3164bf54ef77","condition":"full-information","relevant_dimensions":["wings","legs"],"bee_group":{"antennae":"X","wings":"1","pattern":"X","legs":"M"},"bonus":0.5000000000000012},{"rt":4377.199999988079,"stimulus":"bees-with-color/bee-B2DM.svg","response":1,"trial_type":"image-button-response","trial_index":9,"time_elapsed":961422,"internal_node_id":"0.0-4.0-0.1","subject_id":"5b758f1c8b13610001f8cd1c","study_id":"60edd13110225f80f9f3709b","session_id":"6196c1f1860a3164bf54ef77","condition":"full-information","relevant_dimensions":["wings","legs"],"bee_group":{"antennae":"X","wings":"1","pattern":"X","legs":"M"},"action":"avoid","summary":"bad-avoid","bonus":0.5000000000000012},{"rt":13596.300000011921,"stimulus":"\n                    <p><b>Action: <em>avoid</em></b></p>\n                    <p>This is the bee that you just saw.</p>\n                    <img src=\"bees-with-color/bee-B2DM.svg\" width=\"200\">\n                    <p><span class=\"redText\">Bad choice,</span> the bee was friendly.<br>Your bonus pay is unchanged, and remains at $0.56.</p>\n            ","response":0,"trial_type":"html-button-response","trial_index":10,"time_elapsed":975196,"internal_node_id":"0.0-4.0-1.1","subject_id":"5b758f1c8b13610001f8cd1c","study_id":"60edd13110225f80f9f3709b","session_id":"6196c1f1860a3164bf54ef77","condition":"full-information","relevant_dimensions":["wings","legs"],"bee_group":{"antennae":"X","wings":"1","pattern":"X","legs":"M"},"bonus":0.5000000000000012},{"rt":48033.19999998808,"stimulus":"bees-with-color/bee-A1DF.svg","response":0,"trial_type":"image-button-response","trial_index":11,"time_elapsed":1023234,"internal_node_id":"0.0-4.0-0.2","subject_id":"5b758f1c8b13610001f8cd1c","study_id":"60edd13110225f80f9f3709b","session_id":"6196c1f1860a3164bf54ef77","condition":"full-information","relevant_dimensions":["wings","legs"],"bee_group":{"antennae":"X","wings":"1","pattern":"X","legs":"M"},"action":"harvest","summary":"good-harvest","bonus":0.5000000000000012},{"rt":3904.699999988079,"stimulus":"\n                    <p><b>Action: <em>harvest</em></b></p>\n                    <p>This is the bee that you just saw.</p>\n                    <img src=\"bees-with-color/bee-A1DF.svg\" width=\"200\">\n                    <p><span class=\"greenText\"><b>Successful harvest!</b></span><br>Your pay has increased by $0.02. Your bonus pay is now $0.58.</p>\n            ","response":0,"trial_type":"html-button-response","trial_index":12,"time_elapsed":1027165,"internal_node_id":"0.0-4.0-1.2","subject_id":"5b758f1c8b13610001f8cd1c","study_id":"60edd13110225f80f9f3709b","session_id":"6196c1f1860a3164bf54ef77","condition":"full-information","relevant_dimensions":["wings","legs"],"bee_group":{"antennae":"X","wings":"1","pattern":"X","legs":"M"},"bonus":0.5000000000000012},{"rt":10350.600000023842,"stimulus":"bees-with-color/bee-A1DM.svg","response":1,"trial_type":"image-button-response","trial_index":13,"time_elapsed":1037520,"internal_node_id":"0.0-4.0-0.3","subject_id":"5b758f1c8b13610001f8cd1c","study_id":"60edd13110225f80f9f3709b","session_id":"6196c1f1860a3164bf54ef77","condition":"full-information","relevant_dimensions":["wings","legs"],"bee_group":{"antennae":"X","wings":"1","pattern":"X","legs":"M"},"action":"avoid","summary":"good-avoid","bonus":0.5000000000000012},{"rt":6424.399999976158,"stimulus":"\n                    <p><b>Action: <em>avoid</em></b></p>\n                    <p>This is the bee that you just saw.</p>\n                    <img src=\"bees-with-color/bee-A1DM.svg\" width=\"200\">\n                    <p><span class=\"greenText\">Good choice!</span>  This bee would have stung you.<br>Your bonus pay is unchanged, and remains at $0.58.</p>\n            ","response":0,"trial_type":"html-button-response","trial_index":14,"time_elapsed":1043948,"internal_node_id":"0.0-4.0-1.3","subject_id":"5b758f1c8b13610001f8cd1c","study_id":"60edd13110225f80f9f3709b","session_id":"6196c1f1860a3164bf54ef77","condition":"full-information","relevant_dimensions":["wings","legs"],"bee_group":{"antennae":"X","wings":"1","pattern":"X","legs":"M"},"bonus":0.5000000000000012},{"rt":5120.899999976158,"stimulus":"bees-with-color/bee-A2DF.svg","response":0,"trial_type":"image-button-response","trial_index":15,"time_elapsed":1049151,"internal_node_id":"0.0-4.0-0.4","subject_id":"5b758f1c8b13610001f8cd1c","study_id":"60edd13110225f80f9f3709b","session_id":"6196c1f1860a3164bf54ef77","condition":"full-information","relevant_dimensions":["wings","legs"],"bee_group":{"antennae":"X","wings":"1","pattern":"X","legs":"M"},"action":"harvest","summary":"good-harvest","bonus":0.5000000000000012},{"rt":3307.900000035763,"stimulus":"\n                    <p><b>Action: <em>harvest</em></b></p>\n                    <p>This is the bee that you just saw.</p>\n                    <img src=\"bees-with-color/bee-A2DF.svg\" width=\"200\">\n                    <p><span class=\"greenText\"><b>Successful harvest!</b></span><br>Your pay has increased by $0.02. Your bonus pay is now $0.60.</p>\n            ","response":0,"trial_type":"html-button-response","trial_index":16,"time_elapsed":1052462,"internal_node_id":"0.0-4.0-1.4","subject_id":"5b758f1c8b13610001f8cd1c","study_id":"60edd13110225f80f9f3709b","session_id":"6196c1f1860a3164bf54ef77","condition":"full-information","relevant_dimensions":["wings","legs"],"bee_group":{"antennae":"X","wings":"1","pattern":"X","legs":"M"},"bonus":0.5000000000000012},{"rt":3183.699999988079,"stimulus":"bees-with-color/bee-A2DM.svg","response":1,"trial_type":"image-button-response","trial_index":17,"time_elapsed":1055650,"internal_node_id":"0.0-4.0-0.5","subject_id":"5b758f1c8b13610001f8cd1c","study_id":"60edd13110225f80f9f3709b","session_id":"6196c1f1860a3164bf54ef77","condition":"full-information","relevant_dimensions":["wings","legs"],"bee_group":{"antennae":"X","wings":"1","pattern":"X","legs":"M"},"action":"avoid","summary":"bad-avoid","bonus":0.5000000000000012},{"rt":10760.400000035763,"stimulus":"\n                    <p><b>Action: <em>avoid</em></b></p>\n                    <p>This is the bee that you just saw.</p>\n                    <img src=\"bees-with-color/bee-A2DM.svg\" width=\"200\">\n                    <p><span class=\"redText\">Bad choice,</span> the bee was friendly.<br>Your bonus pay is unchanged, and remains at $0.60.</p>\n            ","response":0,"trial_type":"html-button-response","trial_index":18,"time_elapsed":1066413,"internal_node_id":"0.0-4.0-1.5","subject_id":"5b758f1c8b13610001f8cd1c","study_id":"60edd13110225f80f9f3709b","session_id":"6196c1f1860a3164bf54ef77","condition":"full-information","relevant_dimensions":["wings","legs"],"bee_group":{"antennae":"X","wings":"1","pattern":"X","legs":"M"},"bonus":0.5000000000000012},{"rt":3952.899999976158,"stimulus":"bees-with-color/bee-B1SF.svg","response":0,"trial_type":"image-button-response","trial_index":19,"time_elapsed":1070370,"internal_node_id":"0.0-4.0-0.6","subject_id":"5b758f1c8b13610001f8cd1c","study_id":"60edd13110225f80f9f3709b","session_id":"6196c1f1860a3164bf54ef77","condition":"full-information","relevant_dimensions":["wings","legs"],"bee_group":{"antennae":"X","wings":"1","pattern":"X","legs":"M"},"action":"harvest","summary":"good-harvest","bonus":0.5000000000000012},{"rt":2834.800000011921,"stimulus":"\n                    <p><b>Action: <em>harvest</em></b></p>\n                    <p>This is the bee that you just saw.</p>\n                    <img src=\"bees-with-color/bee-B1SF.svg\" width=\"200\">\n                    <p><span class=\"greenText\"><b>Successful harvest!</b></span><br>Your pay has increased by $0.02. Your bonus pay is now $0.62.</p>\n            ","response":0,"trial_type":"html-button-response","trial_index":20,"time_elapsed":1073209,"internal_node_id":"0.0-4.0-1.6","subject_id":"5b758f1c8b13610001f8cd1c","study_id":"60edd13110225f80f9f3709b","session_id":"6196c1f1860a3164bf54ef77","condition":"full-information","relevant_dimensions":["wings","legs"],"bee_group":{"antennae":"X","wings":"1","pattern":"X","legs":"M"},"bonus":0.5000000000000012},{"rt":3283.100000023842,"stimulus":"bees-with-color/bee-B1SM.svg","response":0,"trial_type":"image-button-response","trial_index":21,"time_elapsed":1076519,"internal_node_id":"0.0-4.0-0.7","subject_id":"5b758f1c8b13610001f8cd1c","study_id":"60edd13110225f80f9f3709b","session_id":"6196c1f1860a3164bf54ef77","condition":"full-information","relevant_dimensions":["wings","legs"],"bee_group":{"antennae":"X","wings":"1","pattern":"X","legs":"M"},"action":"harvest","summary":"bad-harvest","bonus":0.5000000000000012},{"rt":7487.800000011921,"stimulus":"\n                    <p><b>Action: <em>harvest</em></b></p>\n                    <p>This is the bee that you just saw.</p>\n                    <img src=\"bees-with-color/bee-B1SM.svg\" width=\"200\">\n                    <p><span class=\"redText\">Bad choice, the bee was angry.</span><br><b>You have been stung!</b><br>Your pay has been decreased by $0.10. Your bonus pay is now $0.52.</p>\n            ","response":0,"trial_type":"html-button-response","trial_index":22,"time_elapsed":1084009,"internal_node_id":"0.0-4.0-1.7","subject_id":"5b758f1c8b13610001f8cd1c","study_id":"60edd13110225f80f9f3709b","session_id":"6196c1f1860a3164bf54ef77","condition":"full-information","relevant_dimensions":["wings","legs"],"bee_group":{"antennae":"X","wings":"1","pattern":"X","legs":"M"},"bonus":0.5000000000000012},{"rt":3654.199999988079,"stimulus":"bees-with-color/bee-A1SM.svg","response":1,"trial_type":"image-button-response","trial_index":23,"time_elapsed":1087668,"internal_node_id":"0.0-4.0-0.8","subject_id":"5b758f1c8b13610001f8cd1c","study_id":"60edd13110225f80f9f3709b","session_id":"6196c1f1860a3164bf54ef77","condition":"full-information","relevant_dimensions":["wings","legs"],"bee_group":{"antennae":"X","wings":"1","pattern":"X","legs":"M"},"action":"avoid","summary":"good-avoid","bonus":0.5000000000000012},{"rt":2724.7000000476837,"stimulus":"\n                    <p><b>Action: <em>avoid</em></b></p>\n                    <p>This is the bee that you just saw.</p>\n                    <img src=\"bees-with-color/bee-A1SM.svg\" width=\"200\">\n                    <p><span class=\"greenText\">Good choice!</span>  This bee would have stung you.<br>Your bonus pay is unchanged, and remains at $0.52.</p>\n            ","response":0,"trial_type":"html-button-response","trial_index":24,"time_elapsed":1090396,"internal_node_id":"0.0-4.0-1.8","subject_id":"5b758f1c8b13610001f8cd1c","study_id":"60edd13110225f80f9f3709b","session_id":"6196c1f1860a3164bf54ef77","condition":"full-information","relevant_dimensions":["wings","legs"],"bee_group":{"antennae":"X","wings":"1","pattern":"X","legs":"M"},"bonus":0.5000000000000012},{"rt":8496.199999988079,"stimulus":"bees-with-color/bee-B2SM.svg","response":0,"trial_type":"image-button-response","trial_index":25,"time_elapsed":1098968,"internal_node_id":"0.0-4.0-0.9","subject_id":"5b758f1c8b13610001f8cd1c","study_id":"60edd13110225f80f9f3709b","session_id":"6196c1f1860a3164bf54ef77","condition":"full-information","relevant_dimensions":["wings","legs"],"bee_group":{"antennae":"X","wings":"1","pattern":"X","legs":"M"},"action":"harvest","summary":"good-harvest","bonus":0.5000000000000012},{"rt":2111.699999988079,"stimulus":"\n                    <p><b>Action: <em>harvest</em></b></p>\n                    <p>This is the bee that you just saw.</p>\n                    <img src=\"bees-with-color/bee-B2SM.svg\" width=\"200\">\n                    <p><span class=\"greenText\"><b>Successful harvest!</b></span><br>Your pay has increased by $0.02. Your bonus pay is now $0.54.</p>\n            ","response":0,"trial_type":"html-button-response","trial_index":26,"time_elapsed":1101085,"internal_node_id":"0.0-4.0-1.9","subject_id":"5b758f1c8b13610001f8cd1c","study_id":"60edd13110225f80f9f3709b","session_id":"6196c1f1860a3164bf54ef77","condition":"full-information","relevant_dimensions":["wings","legs"],"bee_group":{"antennae":"X","wings":"1","pattern":"X","legs":"M"},"bonus":0.5000000000000012},{"rt":2197.399999976158,"stimulus":"bees-with-color/bee-A2SM.svg","response":0,"trial_type":"image-button-response","trial_index":27,"time_elapsed":1103305,"internal_node_id":"0.0-4.0-0.10","subject_id":"5b758f1c8b13610001f8cd1c","study_id":"60edd13110225f80f9f3709b","session_id":"6196c1f1860a3164bf54ef77","condition":"full-information","relevant_dimensions":["wings","legs"],"bee_group":{"antennae":"X","wings":"1","pattern":"X","legs":"M"},"action":"harvest","summary":"good-harvest","bonus":0.5000000000000012},{"rt":1993.5,"stimulus":"\n                    <p><b>Action: <em>harvest</em></b></p>\n                    <p>This is the bee that you just saw.</p>\n                    <img src=\"bees-with-color/bee-A2SM.svg\" width=\"200\">\n                    <p><span class=\"greenText\"><b>Successful harvest!</b></span><br>Your pay has increased by $0.02. Your bonus pay is now $0.56.</p>\n            ","response":0,"trial_type":"html-button-response","trial_index":28,"time_elapsed":1105302,"internal_node_id":"0.0-4.0-1.10","subject_id":"5b758f1c8b13610001f8cd1c","study_id":"60edd13110225f80f9f3709b","session_id":"6196c1f1860a3164bf54ef77","condition":"full-information","relevant_dimensions":["wings","legs"],"bee_group":{"antennae":"X","wings":"1","pattern":"X","legs":"M"},"bonus":0.5000000000000012},{"rt":6322.400000035763,"stimulus":"bees-with-color/bee-B1DF.svg","response":0,"trial_type":"image-button-response","trial_index":29,"time_elapsed":1111628,"internal_node_id":"0.0-4.0-0.11","subject_id":"5b758f1c8b13610001f8cd1c","study_id":"60edd13110225f80f9f3709b","session_id":"6196c1f1860a3164bf54ef77","condition":"full-information","relevant_dimensions":["wings","legs"],"bee_group":{"antennae":"X","wings":"1","pattern":"X","legs":"M"},"action":"harvest","summary":"good-harvest","bonus":0.5000000000000012},{"rt":1786.9000000357628,"stimulus":"\n                    <p><b>Action: <em>harvest</em></b></p>\n                    <p>This is the bee that you just saw.</p>\n                    <img src=\"bees-with-color/bee-B1DF.svg\" width=\"200\">\n                    <p><span class=\"greenText\"><b>Successful harvest!</b></span><br>Your pay has increased by $0.02. Your bonus pay is now $0.58.</p>\n            ","response":0,"trial_type":"html-button-response","trial_index":30,"time_elapsed":1113462,"internal_node_id":"0.0-4.0-1.11","subject_id":"5b758f1c8b13610001f8cd1c","study_id":"60edd13110225f80f9f3709b","session_id":"6196c1f1860a3164bf54ef77","condition":"full-information","relevant_dimensions":["wings","legs"],"bee_group":{"antennae":"X","wings":"1","pattern":"X","legs":"M"},"bonus":0.5000000000000012},{"rt":4657.800000011921,"stimulus":"bees-with-color/bee-B1DM.svg","response":1,"trial_type":"image-button-response","trial_index":31,"time_elapsed":1118127,"internal_node_id":"0.0-4.0-0.12","subject_id":"5b758f1c8b13610001f8cd1c","study_id":"60edd13110225f80f9f3709b","session_id":"6196c1f1860a3164bf54ef77","condition":"full-information","relevant_dimensions":["wings","legs"],"bee_group":{"antennae":"X","wings":"1","pattern":"X","legs":"M"},"action":"avoid","summary":"good-avoid","bonus":0.5000000000000012},{"rt":2290.099999964237,"stimulus":"\n                    <p><b>Action: <em>avoid</em></b></p>\n                    <p>This is the bee that you just saw.</p>\n                    <img src=\"bees-with-color/bee-B1DM.svg\" width=\"200\">\n                    <p><span class=\"greenText\">Good choice!</span>  This bee would have stung you.<br>Your bonus pay is unchanged, and remains at $0.58.</p>\n            ","response":0,"trial_type":"html-button-response","trial_index":32,"time_elapsed":1120420,"internal_node_id":"0.0-4.0-1.12","subject_id":"5b758f1c8b13610001f8cd1c","study_id":"60edd13110225f80f9f3709b","session_id":"6196c1f1860a3164bf54ef77","condition":"full-information","relevant_dimensions":["wings","legs"],"bee_group":{"antennae":"X","wings":"1","pattern":"X","legs":"M"},"bonus":0.5000000000000012},{"rt":15286.300000011921,"stimulus":"bees-with-color/bee-A1SF.svg","response":0,"trial_type":"image-button-response","trial_index":33,"time_elapsed":1135709,"internal_node_id":"0.0-4.0-0.13","subject_id":"5b758f1c8b13610001f8cd1c","study_id":"60edd13110225f80f9f3709b","session_id":"6196c1f1860a3164bf54ef77","condition":"full-information","relevant_dimensions":["wings","legs"],"bee_group":{"antennae":"X","wings":"1","pattern":"X","legs":"M"},"action":"harvest","summary":"good-harvest","bonus":0.5000000000000012},{"rt":2279.600000023842,"stimulus":"\n                    <p><b>Action: <em>harvest</em></b></p>\n                    <p>This is the bee that you just saw.</p>\n                    <img src=\"bees-with-color/bee-A1SF.svg\" width=\"200\">\n                    <p><span class=\"greenText\"><b>Successful harvest!</b></span><br>Your pay has increased by $0.02. Your bonus pay is now $0.60.</p>\n            ","response":0,"trial_type":"html-button-response","trial_index":34,"time_elapsed":1137992,"internal_node_id":"0.0-4.0-1.13","subject_id":"5b758f1c8b13610001f8cd1c","study_id":"60edd13110225f80f9f3709b","session_id":"6196c1f1860a3164bf54ef77","condition":"full-information","relevant_dimensions":["wings","legs"],"bee_group":{"antennae":"X","wings":"1","pattern":"X","legs":"M"},"bonus":0.5000000000000012},{"rt":2437.900000035763,"stimulus":"bees-with-color/bee-B2SF.svg","response":0,"trial_type":"image-button-response","trial_index":35,"time_elapsed":1140435,"internal_node_id":"0.0-4.0-0.14","subject_id":"5b758f1c8b13610001f8cd1c","study_id":"60edd13110225f80f9f3709b","session_id":"6196c1f1860a3164bf54ef77","condition":"full-information","relevant_dimensions":["wings","legs"],"bee_group":{"antennae":"X","wings":"1","pattern":"X","legs":"M"},"action":"harvest","summary":"good-harvest","bonus":0.5000000000000012},{"rt":1645.8999999761581,"stimulus":"\n                    <p><b>Action: <em>harvest</em></b></p>\n                    <p>This is the bee that you just saw.</p>\n                    <img src=\"bees-with-color/bee-B2SF.svg\" width=\"200\">\n                    <p><span class=\"greenText\"><b>Successful harvest!</b></span><br>Your pay has increased by $0.02. Your bonus pay is now $0.62.</p>\n            ","response":0,"trial_type":"html-button-response","trial_index":36,"time_elapsed":1142084,"internal_node_id":"0.0-4.0-1.14","subject_id":"5b758f1c8b13610001f8cd1c","study_id":"60edd13110225f80f9f3709b","session_id":"6196c1f1860a3164bf54ef77","condition":"full-information","relevant_dimensions":["wings","legs"],"bee_group":{"antennae":"X","wings":"1","pattern":"X","legs":"M"},"bonus":0.5000000000000012},{"rt":2136.300000011921,"stimulus":"bees-with-color/bee-B2DF.svg","response":0,"trial_type":"image-button-response","trial_index":37,"time_elapsed":1144379,"internal_node_id":"0.0-4.0-0.15","subject_id":"5b758f1c8b13610001f8cd1c","study_id":"60edd13110225f80f9f3709b","session_id":"6196c1f1860a3164bf54ef77","condition":"full-information","relevant_dimensions":["wings","legs"],"bee_group":{"antennae":"X","wings":"1","pattern":"X","legs":"M"},"action":"harvest","summary":"good-harvest","bonus":0.5000000000000012},{"rt":1620.5,"stimulus":"\n                    <p><b>Action: <em>harvest</em></b></p>\n                    <p>This is the bee that you just saw.</p>\n                    <img src=\"bees-with-color/bee-B2DF.svg\" width=\"200\">\n                    <p><span class=\"greenText\"><b>Successful harvest!</b></span><br>Your pay has increased by $0.02. Your bonus pay is now $0.64.</p>\n            ","response":0,"trial_type":"html-button-response","trial_index":38,"time_elapsed":1146003,"internal_node_id":"0.0-4.0-1.15","subject_id":"5b758f1c8b13610001f8cd1c","study_id":"60edd13110225f80f9f3709b","session_id":"6196c1f1860a3164bf54ef77","condition":"full-information","relevant_dimensions":["wings","legs"],"bee_group":{"antennae":"X","wings":"1","pattern":"X","legs":"M"},"bonus":0.5000000000000012},{"rt":2353.300000011921,"stimulus":"bees-with-color/bee-B1DM.svg","response":1,"trial_type":"image-button-response","trial_index":39,"time_elapsed":1148359,"internal_node_id":"0.0-4.0-0.16","subject_id":"5b758f1c8b13610001f8cd1c","study_id":"60edd13110225f80f9f3709b","session_id":"6196c1f1860a3164bf54ef77","condition":"full-information","relevant_dimensions":["wings","legs"],"bee_group":{"antennae":"X","wings":"1","pattern":"X","legs":"M"},"action":"avoid","summary":"good-avoid","bonus":0.5000000000000012},{"rt":1759.0999999642372,"stimulus":"\n                    <p><b>Action: <em>avoid</em></b></p>\n                    <p>This is the bee that you just saw.</p>\n                    <img src=\"bees-with-color/bee-B1DM.svg\" width=\"200\">\n                    <p><span class=\"greenText\">Good choice!</span>  This bee would have stung you.<br>Your bonus pay is unchanged, and remains at $0.64.</p>\n            ","response":0,"trial_type":"html-button-response","trial_index":40,"time_elapsed":1150121,"internal_node_id":"0.0-4.0-1.16","subject_id":"5b758f1c8b13610001f8cd1c","study_id":"60edd13110225f80f9f3709b","session_id":"6196c1f1860a3164bf54ef77","condition":"full-information","relevant_dimensions":["wings","legs"],"bee_group":{"antennae":"X","wings":"1","pattern":"X","legs":"M"},"bonus":0.5000000000000012},{"rt":1892.9000000357628,"stimulus":"bees-with-color/bee-A1SF.svg","response":0,"trial_type":"image-button-response","trial_index":41,"time_elapsed":1152018,"internal_node_id":"0.0-4.0-0.17","subject_id":"5b758f1c8b13610001f8cd1c","study_id":"60edd13110225f80f9f3709b","session_id":"6196c1f1860a3164bf54ef77","condition":"full-information","relevant_dimensions":["wings","legs"],"bee_group":{"antennae":"X","wings":"1","pattern":"X","legs":"M"},"action":"harvest","summary":"good-harvest","bonus":0.5000000000000012},{"rt":1744.800000011921,"stimulus":"\n                    <p><b>Action: <em>harvest</em></b></p>\n                    <p>This is the bee that you just saw.</p>\n                    <img src=\"bees-with-color/bee-A1SF.svg\" width=\"200\">\n                    <p><span class=\"greenText\"><b>Successful harvest!</b></span><br>Your pay has increased by $0.02. Your bonus pay is now $0.66.</p>\n            ","response":0,"trial_type":"html-button-response","trial_index":42,"time_elapsed":1153766,"internal_node_id":"0.0-4.0-1.17","subject_id":"5b758f1c8b13610001f8cd1c","study_id":"60edd13110225f80f9f3709b","session_id":"6196c1f1860a3164bf54ef77","condition":"full-information","relevant_dimensions":["wings","legs"],"bee_group":{"antennae":"X","wings":"1","pattern":"X","legs":"M"},"bonus":0.5000000000000012},{"rt":2541,"stimulus":"bees-with-color/bee-B1DF.svg","response":0,"trial_type":"image-button-response","trial_index":43,"time_elapsed":1156310,"internal_node_id":"0.0-4.0-0.18","subject_id":"5b758f1c8b13610001f8cd1c","study_id":"60edd13110225f80f9f3709b","session_id":"6196c1f1860a3164bf54ef77","condition":"full-information","relevant_dimensions":["wings","legs"],"bee_group":{"antennae":"X","wings":"1","pattern":"X","legs":"M"},"action":"harvest","summary":"good-harvest","bonus":0.5000000000000012},{"rt":1632.5,"stimulus":"\n                    <p><b>Action: <em>harvest</em></b></p>\n                    <p>This is the bee that you just saw.</p>\n                    <img src=\"bees-with-color/bee-B1DF.svg\" width=\"200\">\n                    <p><span class=\"greenText\"><b>Successful harvest!</b></span><br>Your pay has increased by $0.02. Your bonus pay is now $0.68.</p>\n            ","response":0,"trial_type":"html-button-response","trial_index":44,"time_elapsed":1157947,"internal_node_id":"0.0-4.0-1.18","subject_id":"5b758f1c8b13610001f8cd1c","study_id":"60edd13110225f80f9f3709b","session_id":"6196c1f1860a3164bf54ef77","condition":"full-information","relevant_dimensions":["wings","legs"],"bee_group":{"antennae":"X","wings":"1","pattern":"X","legs":"M"},"bonus":0.5000000000000012},{"rt":3443.300000011921,"stimulus":"bees-with-color/bee-A2SF.svg","response":0,"trial_type":"image-button-response","trial_index":45,"time_elapsed":1161395,"internal_node_id":"0.0-4.0-0.19","subject_id":"5b758f1c8b13610001f8cd1c","study_id":"60edd13110225f80f9f3709b","session_id":"6196c1f1860a3164bf54ef77","condition":"full-information","relevant_dimensions":["wings","legs"],"bee_group":{"antennae":"X","wings":"1","pattern":"X","legs":"M"},"action":"harvest","summary":"good-harvest","bonus":0.5000000000000012},{"rt":1510,"stimulus":"\n                    <p><b>Action: <em>harvest</em></b></p>\n                    <p>This is the bee that you just saw.</p>\n                    <img src=\"bees-with-color/bee-A2SF.svg\" width=\"200\">\n                    <p><span class=\"greenText\"><b>Successful harvest!</b></span><br>Your pay has increased by $0.02. Your bonus pay is now $0.70.</p>\n            ","response":0,"trial_type":"html-button-response","trial_index":46,"time_elapsed":1162908,"internal_node_id":"0.0-4.0-1.19","subject_id":"5b758f1c8b13610001f8cd1c","study_id":"60edd13110225f80f9f3709b","session_id":"6196c1f1860a3164bf54ef77","condition":"full-information","relevant_dimensions":["wings","legs"],"bee_group":{"antennae":"X","wings":"1","pattern":"X","legs":"M"},"bonus":0.5000000000000012},{"rt":2785,"stimulus":"bees-with-color/bee-B2SF.svg","response":0,"trial_type":"image-button-response","trial_index":47,"time_elapsed":1165698,"internal_node_id":"0.0-4.0-0.20","subject_id":"5b758f1c8b13610001f8cd1c","study_id":"60edd13110225f80f9f3709b","session_id":"6196c1f1860a3164bf54ef77","condition":"full-information","relevant_dimensions":["wings","legs"],"bee_group":{"antennae":"X","wings":"1","pattern":"X","legs":"M"},"action":"harvest","summary":"good-harvest","bonus":0.5000000000000012},{"rt":1706.5,"stimulus":"\n                    <p><b>Action: <em>harvest</em></b></p>\n                    <p>This is the bee that you just saw.</p>\n                    <img src=\"bees-with-color/bee-B2SF.svg\" width=\"200\">\n                    <p><span class=\"greenText\"><b>Successful harvest!</b></span><br>Your pay has increased by $0.02. Your bonus pay is now $0.72.</p>\n            ","response":0,"trial_type":"html-button-response","trial_index":48,"time_elapsed":1167410,"internal_node_id":"0.0-4.0-1.20","subject_id":"5b758f1c8b13610001f8cd1c","study_id":"60edd13110225f80f9f3709b","session_id":"6196c1f1860a3164bf54ef77","condition":"full-information","relevant_dimensions":["wings","legs"],"bee_group":{"antennae":"X","wings":"1","pattern":"X","legs":"M"},"bonus":0.5000000000000012},{"rt":5180.199999988079,"stimulus":"bees-with-color/bee-B1SM.svg","response":1,"trial_type":"image-button-response","trial_index":49,"time_elapsed":1172593,"internal_node_id":"0.0-4.0-0.21","subject_id":"5b758f1c8b13610001f8cd1c","study_id":"60edd13110225f80f9f3709b","session_id":"6196c1f1860a3164bf54ef77","condition":"full-information","relevant_dimensions":["wings","legs"],"bee_group":{"antennae":"X","wings":"1","pattern":"X","legs":"M"},"action":"avoid","summary":"good-avoid","bonus":0.5000000000000012},{"rt":1770.6000000238419,"stimulus":"\n                    <p><b>Action: <em>avoid</em></b></p>\n                    <p>This is the bee that you just saw.</p>\n                    <img src=\"bees-with-color/bee-B1SM.svg\" width=\"200\">\n                    <p><span class=\"greenText\">Good choice!</span>  This bee would have stung you.<br>Your bonus pay is unchanged, and remains at $0.72.</p>\n            ","response":0,"trial_type":"html-button-response","trial_index":50,"time_elapsed":1174367,"internal_node_id":"0.0-4.0-1.21","subject_id":"5b758f1c8b13610001f8cd1c","study_id":"60edd13110225f80f9f3709b","session_id":"6196c1f1860a3164bf54ef77","condition":"full-information","relevant_dimensions":["wings","legs"],"bee_group":{"antennae":"X","wings":"1","pattern":"X","legs":"M"},"bonus":0.5000000000000012},{"rt":1831.199999988079,"stimulus":"bees-with-color/bee-A2DM.svg","response":0,"trial_type":"image-button-response","trial_index":51,"time_elapsed":1176203,"internal_node_id":"0.0-4.0-0.22","subject_id":"5b758f1c8b13610001f8cd1c","study_id":"60edd13110225f80f9f3709b","session_id":"6196c1f1860a3164bf54ef77","condition":"full-information","relevant_dimensions":["wings","legs"],"bee_group":{"antennae":"X","wings":"1","pattern":"X","legs":"M"},"action":"harvest","summary":"good-harvest","bonus":0.5000000000000012},{"rt":1472.1000000238419,"stimulus":"\n                    <p><b>Action: <em>harvest</em></b></p>\n                    <p>This is the bee that you just saw.</p>\n                    <img src=\"bees-with-color/bee-A2DM.svg\" width=\"200\">\n                    <p><span class=\"greenText\"><b>Successful harvest!</b></span><br>Your pay has increased by $0.02. Your bonus pay is now $0.74.</p>\n            ","response":0,"trial_type":"html-button-response","trial_index":52,"time_elapsed":1177679,"internal_node_id":"0.0-4.0-1.22","subject_id":"5b758f1c8b13610001f8cd1c","study_id":"60edd13110225f80f9f3709b","session_id":"6196c1f1860a3164bf54ef77","condition":"full-information","relevant_dimensions":["wings","legs"],"bee_group":{"antennae":"X","wings":"1","pattern":"X","legs":"M"},"bonus":0.5000000000000012},{"rt":2080.5,"stimulus":"bees-with-color/bee-A2DF.svg","response":0,"trial_type":"image-button-response","trial_index":53,"time_elapsed":1179763,"internal_node_id":"0.0-4.0-0.23","subject_id":"5b758f1c8b13610001f8cd1c","study_id":"60edd13110225f80f9f3709b","session_id":"6196c1f1860a3164bf54ef77","condition":"full-information","relevant_dimensions":["wings","legs"],"bee_group":{"antennae":"X","wings":"1","pattern":"X","legs":"M"},"action":"harvest","summary":"good-harvest","bonus":0.5000000000000012},{"rt":1855.199999988079,"stimulus":"\n                    <p><b>Action: <em>harvest</em></b></p>\n                    <p>This is the bee that you just saw.</p>\n                    <img src=\"bees-with-color/bee-A2DF.svg\" width=\"200\">\n                    <p><span class=\"greenText\"><b>Successful harvest!</b></span><br>Your pay has increased by $0.02. Your bonus pay is now $0.76.</p>\n            ","response":0,"trial_type":"html-button-response","trial_index":54,"time_elapsed":1181622,"internal_node_id":"0.0-4.0-1.23","subject_id":"5b758f1c8b13610001f8cd1c","study_id":"60edd13110225f80f9f3709b","session_id":"6196c1f1860a3164bf54ef77","condition":"full-information","relevant_dimensions":["wings","legs"],"bee_group":{"antennae":"X","wings":"1","pattern":"X","legs":"M"},"bonus":0.5000000000000012},{"rt":2650.2999999523163,"stimulus":"bees-with-color/bee-A1DF.svg","response":0,"trial_type":"image-button-response","trial_index":55,"time_elapsed":1185688,"internal_node_id":"0.0-4.0-0.24","subject_id":"5b758f1c8b13610001f8cd1c","study_id":"60edd13110225f80f9f3709b","session_id":"6196c1f1860a3164bf54ef77","condition":"full-information","relevant_dimensions":["wings","legs"],"bee_group":{"antennae":"X","wings":"1","pattern":"X","legs":"M"},"action":"harvest","summary":"good-harvest","bonus":0.5000000000000012},{"rt":1841.7000000476837,"stimulus":"\n                    <p><b>Action: <em>harvest</em></b></p>\n                    <p>This is the bee that you just saw.</p>\n                    <img src=\"bees-with-color/bee-A1DF.svg\" width=\"200\">\n                    <p><span class=\"greenText\"><b>Successful harvest!</b></span><br>Your pay has increased by $0.02. Your bonus pay is now $0.78.</p>\n            ","response":0,"trial_type":"html-button-response","trial_index":56,"time_elapsed":1187537,"internal_node_id":"0.0-4.0-1.24","subject_id":"5b758f1c8b13610001f8cd1c","study_id":"60edd13110225f80f9f3709b","session_id":"6196c1f1860a3164bf54ef77","condition":"full-information","relevant_dimensions":["wings","legs"],"bee_group":{"antennae":"X","wings":"1","pattern":"X","legs":"M"},"bonus":0.5000000000000012},{"rt":2537.399999976158,"stimulus":"bees-with-color/bee-A1DM.svg","response":1,"trial_type":"image-button-response","trial_index":57,"time_elapsed":1190081,"internal_node_id":"0.0-4.0-0.25","subject_id":"5b758f1c8b13610001f8cd1c","study_id":"60edd13110225f80f9f3709b","session_id":"6196c1f1860a3164bf54ef77","condition":"full-information","relevant_dimensions":["wings","legs"],"bee_group":{"antennae":"X","wings":"1","pattern":"X","legs":"M"},"action":"avoid","summary":"good-avoid","bonus":0.5000000000000012},{"rt":1633.199999988079,"stimulus":"\n                    <p><b>Action: <em>avoid</em></b></p>\n                    <p>This is the bee that you just saw.</p>\n                    <img src=\"bees-with-color/bee-A1DM.svg\" width=\"200\">\n                    <p><span class=\"greenText\">Good choice!</span>  This bee would have stung you.<br>Your bonus pay is unchanged, and remains at $0.78.</p>\n            ","response":0,"trial_type":"html-button-response","trial_index":58,"time_elapsed":1191718,"internal_node_id":"0.0-4.0-1.25","subject_id":"5b758f1c8b13610001f8cd1c","study_id":"60edd13110225f80f9f3709b","session_id":"6196c1f1860a3164bf54ef77","condition":"full-information","relevant_dimensions":["wings","legs"],"bee_group":{"antennae":"X","wings":"1","pattern":"X","legs":"M"},"bonus":0.5000000000000012},{"rt":1881.5,"stimulus":"bees-with-color/bee-A2SM.svg","response":0,"trial_type":"image-button-response","trial_index":59,"time_elapsed":1193603,"internal_node_id":"0.0-4.0-0.26","subject_id":"5b758f1c8b13610001f8cd1c","study_id":"60edd13110225f80f9f3709b","session_id":"6196c1f1860a3164bf54ef77","condition":"full-information","relevant_dimensions":["wings","legs"],"bee_group":{"antennae":"X","wings":"1","pattern":"X","legs":"M"},"action":"harvest","summary":"good-harvest","bonus":0.5000000000000012},{"rt":1818.8999999761581,"stimulus":"\n                    <p><b>Action: <em>harvest</em></b></p>\n                    <p>This is the bee that you just saw.</p>\n                    <img src=\"bees-with-color/bee-A2SM.svg\" width=\"200\">\n                    <p><span class=\"greenText\"><b>Successful harvest!</b></span><br>Your pay has increased by $0.02. Your bonus pay is now $0.80.</p>\n            ","response":0,"trial_type":"html-button-response","trial_index":60,"time_elapsed":1195428,"internal_node_id":"0.0-4.0-1.26","subject_id":"5b758f1c8b13610001f8cd1c","study_id":"60edd13110225f80f9f3709b","session_id":"6196c1f1860a3164bf54ef77","condition":"full-information","relevant_dimensions":["wings","legs"],"bee_group":{"antennae":"X","wings":"1","pattern":"X","legs":"M"},"bonus":0.5000000000000012},{"rt":6494.400000035763,"stimulus":"bees-with-color/bee-B2DM.svg","response":0,"trial_type":"image-button-response","trial_index":61,"time_elapsed":1201926,"internal_node_id":"0.0-4.0-0.27","subject_id":"5b758f1c8b13610001f8cd1c","study_id":"60edd13110225f80f9f3709b","session_id":"6196c1f1860a3164bf54ef77","condition":"full-information","relevant_dimensions":["wings","legs"],"bee_group":{"antennae":"X","wings":"1","pattern":"X","legs":"M"},"action":"harvest","summary":"good-harvest","bonus":0.5000000000000012},{"rt":1545.5,"stimulus":"\n                    <p><b>Action: <em>harvest</em></b></p>\n                    <p>This is the bee that you just saw.</p>\n                    <img src=\"bees-with-color/bee-B2DM.svg\" width=\"200\">\n                    <p><span class=\"greenText\"><b>Successful harvest!</b></span><br>Your pay has increased by $0.02. Your bonus pay is now $0.82.</p>\n            ","response":0,"trial_type":"html-button-response","trial_index":62,"time_elapsed":1203475,"internal_node_id":"0.0-4.0-1.27","subject_id":"5b758f1c8b13610001f8cd1c","study_id":"60edd13110225f80f9f3709b","session_id":"6196c1f1860a3164bf54ef77","condition":"full-information","relevant_dimensions":["wings","legs"],"bee_group":{"antennae":"X","wings":"1","pattern":"X","legs":"M"},"bonus":0.5000000000000012},{"rt":1944.4000000357628,"stimulus":"bees-with-color/bee-B2DF.svg","response":0,"trial_type":"image-button-response","trial_index":63,"time_elapsed":1205423,"internal_node_id":"0.0-4.0-0.28","subject_id":"5b758f1c8b13610001f8cd1c","study_id":"60edd13110225f80f9f3709b","session_id":"6196c1f1860a3164bf54ef77","condition":"full-information","relevant_dimensions":["wings","legs"],"bee_group":{"antennae":"X","wings":"1","pattern":"X","legs":"M"},"action":"harvest","summary":"good-harvest","bonus":0.5000000000000012},{"rt":1460.300000011921,"stimulus":"\n                    <p><b>Action: <em>harvest</em></b></p>\n                    <p>This is the bee that you just saw.</p>\n                    <img src=\"bees-with-color/bee-B2DF.svg\" width=\"200\">\n                    <p><span class=\"greenText\"><b>Successful harvest!</b></span><br>Your pay has increased by $0.02. Your bonus pay is now $0.84.</p>\n            ","response":0,"trial_type":"html-button-response","trial_index":64,"time_elapsed":1206886,"internal_node_id":"0.0-4.0-1.28","subject_id":"5b758f1c8b13610001f8cd1c","study_id":"60edd13110225f80f9f3709b","session_id":"6196c1f1860a3164bf54ef77","condition":"full-information","relevant_dimensions":["wings","legs"],"bee_group":{"antennae":"X","wings":"1","pattern":"X","legs":"M"},"bonus":0.5000000000000012},{"rt":2826.699999988079,"stimulus":"bees-with-color/bee-B2SM.svg","response":0,"trial_type":"image-button-response","trial_index":65,"time_elapsed":1209716,"internal_node_id":"0.0-4.0-0.29","subject_id":"5b758f1c8b13610001f8cd1c","study_id":"60edd13110225f80f9f3709b","session_id":"6196c1f1860a3164bf54ef77","condition":"full-information","relevant_dimensions":["wings","legs"],"bee_group":{"antennae":"X","wings":"1","pattern":"X","legs":"M"},"action":"harvest","summary":"good-harvest","bonus":0.5000000000000012},{"rt":1459.6000000238419,"stimulus":"\n                    <p><b>Action: <em>harvest</em></b></p>\n                    <p>This is the bee that you just saw.</p>\n                    <img src=\"bees-with-color/bee-B2SM.svg\" width=\"200\">\n                    <p><span class=\"greenText\"><b>Successful harvest!</b></span><br>Your pay has increased by $0.02. Your bonus pay is now $0.86.</p>\n            ","response":0,"trial_type":"html-button-response","trial_index":66,"time_elapsed":1211178,"internal_node_id":"0.0-4.0-1.29","subject_id":"5b758f1c8b13610001f8cd1c","study_id":"60edd13110225f80f9f3709b","session_id":"6196c1f1860a3164bf54ef77","condition":"full-information","relevant_dimensions":["wings","legs"],"bee_group":{"antennae":"X","wings":"1","pattern":"X","legs":"M"},"bonus":0.5000000000000012},{"rt":6857.100000023842,"stimulus":"bees-with-color/bee-A1SM.svg","response":1,"trial_type":"image-button-response","trial_index":67,"time_elapsed":1218039,"internal_node_id":"0.0-4.0-0.30","subject_id":"5b758f1c8b13610001f8cd1c","study_id":"60edd13110225f80f9f3709b","session_id":"6196c1f1860a3164bf54ef77","condition":"full-information","relevant_dimensions":["wings","legs"],"bee_group":{"antennae":"X","wings":"1","pattern":"X","legs":"M"},"action":"avoid","summary":"good-avoid","bonus":0.5000000000000012},{"rt":1658.3999999761581,"stimulus":"\n                    <p><b>Action: <em>avoid</em></b></p>\n                    <p>This is the bee that you just saw.</p>\n                    <img src=\"bees-with-color/bee-A1SM.svg\" width=\"200\">\n                    <p><span class=\"greenText\">Good choice!</span>  This bee would have stung you.<br>Your bonus pay is unchanged, and remains at $0.86.</p>\n            ","response":0,"trial_type":"html-button-response","trial_index":68,"time_elapsed":1219700,"internal_node_id":"0.0-4.0-1.30","subject_id":"5b758f1c8b13610001f8cd1c","study_id":"60edd13110225f80f9f3709b","session_id":"6196c1f1860a3164bf54ef77","condition":"full-information","relevant_dimensions":["wings","legs"],"bee_group":{"antennae":"X","wings":"1","pattern":"X","legs":"M"},"bonus":0.5000000000000012},{"rt":1832.5,"stimulus":"bees-with-color/bee-B1SF.svg","response":0,"trial_type":"image-button-response","trial_index":69,"time_elapsed":1221537,"internal_node_id":"0.0-4.0-0.31","subject_id":"5b758f1c8b13610001f8cd1c","study_id":"60edd13110225f80f9f3709b","session_id":"6196c1f1860a3164bf54ef77","condition":"full-information","relevant_dimensions":["wings","legs"],"bee_group":{"antennae":"X","wings":"1","pattern":"X","legs":"M"},"action":"harvest","summary":"good-harvest","bonus":0.5000000000000012},{"rt":1645.7000000476837,"stimulus":"\n                    <p><b>Action: <em>harvest</em></b></p>\n                    <p>This is the bee that you just saw.</p>\n                    <img src=\"bees-with-color/bee-B1SF.svg\" width=\"200\">\n                    <p><span class=\"greenText\"><b>Successful harvest!</b></span><br>Your pay has increased by $0.02. Your bonus pay is now $0.88.</p>\n            ","response":0,"trial_type":"html-button-response","trial_index":70,"time_elapsed":1223186,"internal_node_id":"0.0-4.0-1.31","subject_id":"5b758f1c8b13610001f8cd1c","study_id":"60edd13110225f80f9f3709b","session_id":"6196c1f1860a3164bf54ef77","condition":"full-information","relevant_dimensions":["wings","legs"],"bee_group":{"antennae":"X","wings":"1","pattern":"X","legs":"M"},"bonus":0.5000000000000012},{"rt":18069.80000001192,"stimulus":"bees-with-color/bee-B1DF.svg","response":0,"trial_type":"image-button-response","trial_index":71,"time_elapsed":1241259,"internal_node_id":"0.0-4.0-0.32","subject_id":"5b758f1c8b13610001f8cd1c","study_id":"60edd13110225f80f9f3709b","session_id":"6196c1f1860a3164bf54ef77","condition":"full-information","relevant_dimensions":["wings","legs"],"bee_group":{"antennae":"X","wings":"1","pattern":"X","legs":"M"},"action":"harvest","summary":"good-harvest","bonus":0.5000000000000012},{"rt":1572.0999999642372,"stimulus":"\n                    <p><b>Action: <em>harvest</em></b></p>\n                    <p>This is the bee that you just saw.</p>\n                    <img src=\"bees-with-color/bee-B1DF.svg\" width=\"200\">\n                    <p><span class=\"greenText\"><b>Successful harvest!</b></span><br>Your pay has increased by $0.02. Your bonus pay is now $0.90.</p>\n            ","response":0,"trial_type":"html-button-response","trial_index":72,"time_elapsed":1242835,"internal_node_id":"0.0-4.0-1.32","subject_id":"5b758f1c8b13610001f8cd1c","study_id":"60edd13110225f80f9f3709b","session_id":"6196c1f1860a3164bf54ef77","condition":"full-information","relevant_dimensions":["wings","legs"],"bee_group":{"antennae":"X","wings":"1","pattern":"X","legs":"M"},"bonus":0.5000000000000012},{"rt":17621.19999998808,"stimulus":"bees-with-color/bee-A2SF.svg","response":0,"trial_type":"image-button-response","trial_index":73,"time_elapsed":1260461,"internal_node_id":"0.0-4.0-0.33","subject_id":"5b758f1c8b13610001f8cd1c","study_id":"60edd13110225f80f9f3709b","session_id":"6196c1f1860a3164bf54ef77","condition":"full-information","relevant_dimensions":["wings","legs"],"bee_group":{"antennae":"X","wings":"1","pattern":"X","legs":"M"},"action":"harvest","summary":"good-harvest","bonus":0.5000000000000012},{"rt":7958.800000011921,"stimulus":"\n                    <p><b>Action: <em>harvest</em></b></p>\n                    <p>This is the bee that you just saw.</p>\n                    <img src=\"bees-with-color/bee-A2SF.svg\" width=\"200\">\n                    <p><span class=\"greenText\"><b>Successful harvest!</b></span><br>Your pay has increased by $0.02. Your bonus pay is now $0.92.</p>\n            ","response":0,"trial_type":"html-button-response","trial_index":74,"time_elapsed":1268423,"internal_node_id":"0.0-4.0-1.33","subject_id":"5b758f1c8b13610001f8cd1c","study_id":"60edd13110225f80f9f3709b","session_id":"6196c1f1860a3164bf54ef77","condition":"full-information","relevant_dimensions":["wings","legs"],"bee_group":{"antennae":"X","wings":"1","pattern":"X","legs":"M"},"bonus":0.5000000000000012},{"rt":2141.899999976158,"stimulus":"bees-with-color/bee-B1SF.svg","response":0,"trial_type":"image-button-response","trial_index":75,"time_elapsed":1270568,"internal_node_id":"0.0-4.0-0.34","subject_id":"5b758f1c8b13610001f8cd1c","study_id":"60edd13110225f80f9f3709b","session_id":"6196c1f1860a3164bf54ef77","condition":"full-information","relevant_dimensions":["wings","legs"],"bee_group":{"antennae":"X","wings":"1","pattern":"X","legs":"M"},"action":"harvest","summary":"good-harvest","bonus":0.5000000000000012},{"rt":1524.5999999642372,"stimulus":"\n                    <p><b>Action: <em>harvest</em></b></p>\n                    <p>This is the bee that you just saw.</p>\n                    <img src=\"bees-with-color/bee-B1SF.svg\" width=\"200\">\n                    <p><span class=\"greenText\"><b>Successful harvest!</b></span><br>Your pay has increased by $0.02. Your bonus pay is now $0.94.</p>\n            ","response":0,"trial_type":"html-button-response","trial_index":76,"time_elapsed":1272096,"internal_node_id":"0.0-4.0-1.34","subject_id":"5b758f1c8b13610001f8cd1c","study_id":"60edd13110225f80f9f3709b","session_id":"6196c1f1860a3164bf54ef77","condition":"full-information","relevant_dimensions":["wings","legs"],"bee_group":{"antennae":"X","wings":"1","pattern":"X","legs":"M"},"bonus":0.5000000000000012},{"rt":2154.7999999523163,"stimulus":"bees-with-color/bee-B2SM.svg","response":0,"trial_type":"image-button-response","trial_index":77,"time_elapsed":1274253,"internal_node_id":"0.0-4.0-0.35","subject_id":"5b758f1c8b13610001f8cd1c","study_id":"60edd13110225f80f9f3709b","session_id":"6196c1f1860a3164bf54ef77","condition":"full-information","relevant_dimensions":["wings","legs"],"bee_group":{"antennae":"X","wings":"1","pattern":"X","legs":"M"},"action":"harvest","summary":"good-harvest","bonus":0.5000000000000012},{"rt":1521.199999988079,"stimulus":"\n                    <p><b>Action: <em>harvest</em></b></p>\n                    <p>This is the bee that you just saw.</p>\n                    <img src=\"bees-with-color/bee-B2SM.svg\" width=\"200\">\n                    <p><span class=\"greenText\"><b>Successful harvest!</b></span><br>Your pay has increased by $0.02. Your bonus pay is now $0.96.</p>\n            ","response":0,"trial_type":"html-button-response","trial_index":78,"time_elapsed":1275778,"internal_node_id":"0.0-4.0-1.35","subject_id":"5b758f1c8b13610001f8cd1c","study_id":"60edd13110225f80f9f3709b","session_id":"6196c1f1860a3164bf54ef77","condition":"full-information","relevant_dimensions":["wings","legs"],"bee_group":{"antennae":"X","wings":"1","pattern":"X","legs":"M"},"bonus":0.5000000000000012},{"rt":4847.100000023842,"stimulus":"bees-with-color/bee-A1SM.svg","response":0,"trial_type":"image-button-response","trial_index":79,"time_elapsed":1280628,"internal_node_id":"0.0-4.0-0.36","subject_id":"5b758f1c8b13610001f8cd1c","study_id":"60edd13110225f80f9f3709b","session_id":"6196c1f1860a3164bf54ef77","condition":"full-information","relevant_dimensions":["wings","legs"],"bee_group":{"antennae":"X","wings":"1","pattern":"X","legs":"M"},"action":"harvest","summary":"bad-harvest","bonus":0.5000000000000012},{"rt":1696,"stimulus":"\n                    <p><b>Action: <em>harvest</em></b></p>\n                    <p>This is the bee that you just saw.</p>\n                    <img src=\"bees-with-color/bee-A1SM.svg\" width=\"200\">\n                    <p><span class=\"redText\">Bad choice, the bee was angry.</span><br><b>You have been stung!</b><br>Your pay has been decreased by $0.10. Your bonus pay is now $0.86.</p>\n            ","response":0,"trial_type":"html-button-response","trial_index":80,"time_elapsed":1282327,"internal_node_id":"0.0-4.0-1.36","subject_id":"5b758f1c8b13610001f8cd1c","study_id":"60edd13110225f80f9f3709b","session_id":"6196c1f1860a3164bf54ef77","condition":"full-information","relevant_dimensions":["wings","legs"],"bee_group":{"antennae":"X","wings":"1","pattern":"X","legs":"M"},"bonus":0.5000000000000012},{"rt":2230.5,"stimulus":"bees-with-color/bee-B2DM.svg","response":0,"trial_type":"image-button-response","trial_index":81,"time_elapsed":1284562,"internal_node_id":"0.0-4.0-0.37","subject_id":"5b758f1c8b13610001f8cd1c","study_id":"60edd13110225f80f9f3709b","session_id":"6196c1f1860a3164bf54ef77","condition":"full-information","relevant_dimensions":["wings","legs"],"bee_group":{"antennae":"X","wings":"1","pattern":"X","legs":"M"},"action":"harvest","summary":"good-harvest","bonus":0.5000000000000012},{"rt":1595.2999999523163,"stimulus":"\n                    <p><b>Action: <em>harvest</em></b></p>\n                    <p>This is the bee that you just saw.</p>\n                    <img src=\"bees-with-color/bee-B2DM.svg\" width=\"200\">\n                    <p><span class=\"greenText\"><b>Successful harvest!</b></span><br>Your pay has increased by $0.02. Your bonus pay is now $0.88.</p>\n            ","response":0,"trial_type":"html-button-response","trial_index":82,"time_elapsed":1286160,"internal_node_id":"0.0-4.0-1.37","subject_id":"5b758f1c8b13610001f8cd1c","study_id":"60edd13110225f80f9f3709b","session_id":"6196c1f1860a3164bf54ef77","condition":"full-information","relevant_dimensions":["wings","legs"],"bee_group":{"antennae":"X","wings":"1","pattern":"X","legs":"M"},"bonus":0.5000000000000012},{"rt":2093.600000023842,"stimulus":"bees-with-color/bee-A2SM.svg","response":1,"trial_type":"image-button-response","trial_index":83,"time_elapsed":1288258,"internal_node_id":"0.0-4.0-0.38","subject_id":"5b758f1c8b13610001f8cd1c","study_id":"60edd13110225f80f9f3709b","session_id":"6196c1f1860a3164bf54ef77","condition":"full-information","relevant_dimensions":["wings","legs"],"bee_group":{"antennae":"X","wings":"1","pattern":"X","legs":"M"},"action":"avoid","summary":"bad-avoid","bonus":0.5000000000000012},{"rt":1459.4000000357628,"stimulus":"\n                    <p><b>Action: <em>avoid</em></b></p>\n                    <p>This is the bee that you just saw.</p>\n                    <img src=\"bees-with-color/bee-A2SM.svg\" width=\"200\">\n                    <p><span class=\"redText\">Bad choice,</span> the bee was friendly.<br>Your bonus pay is unchanged, and remains at $0.88.</p>\n            ","response":0,"trial_type":"html-button-response","trial_index":84,"time_elapsed":1289720,"internal_node_id":"0.0-4.0-1.38","subject_id":"5b758f1c8b13610001f8cd1c","study_id":"60edd13110225f80f9f3709b","session_id":"6196c1f1860a3164bf54ef77","condition":"full-information","relevant_dimensions":["wings","legs"],"bee_group":{"antennae":"X","wings":"1","pattern":"X","legs":"M"},"bonus":0.5000000000000012},{"rt":7089.400000035763,"stimulus":"bees-with-color/bee-A1DM.svg","response":0,"trial_type":"image-button-response","trial_index":85,"time_elapsed":1296815,"internal_node_id":"0.0-4.0-0.39","subject_id":"5b758f1c8b13610001f8cd1c","study_id":"60edd13110225f80f9f3709b","session_id":"6196c1f1860a3164bf54ef77","condition":"full-information","relevant_dimensions":["wings","legs"],"bee_group":{"antennae":"X","wings":"1","pattern":"X","legs":"M"},"action":"harvest","summary":"bad-harvest","bonus":0.5000000000000012},{"rt":1435.5,"stimulus":"\n                    <p><b>Action: <em>harvest</em></b></p>\n                    <p>This is the bee that you just saw.</p>\n                    <img src=\"bees-with-color/bee-A1DM.svg\" width=\"200\">\n                    <p><span class=\"redText\">Bad choice, the bee was angry.</span><br><b>You have been stung!</b><br>Your pay has been decreased by $0.10. Your bonus pay is now $0.78.</p>\n            ","response":0,"trial_type":"html-button-response","trial_index":86,"time_elapsed":1298253,"internal_node_id":"0.0-4.0-1.39","subject_id":"5b758f1c8b13610001f8cd1c","study_id":"60edd13110225f80f9f3709b","session_id":"6196c1f1860a3164bf54ef77","condition":"full-information","relevant_dimensions":["wings","legs"],"bee_group":{"antennae":"X","wings":"1","pattern":"X","legs":"M"},"bonus":0.5000000000000012},{"rt":3791.800000011921,"stimulus":"bees-with-color/bee-B2SF.svg","response":1,"trial_type":"image-button-response","trial_index":87,"time_elapsed":1302048,"internal_node_id":"0.0-4.0-0.40","subject_id":"5b758f1c8b13610001f8cd1c","study_id":"60edd13110225f80f9f3709b","session_id":"6196c1f1860a3164bf54ef77","condition":"full-information","relevant_dimensions":["wings","legs"],"bee_group":{"antennae":"X","wings":"1","pattern":"X","legs":"M"},"action":"avoid","summary":"bad-avoid","bonus":0.5000000000000012},{"rt":2602.100000023842,"stimulus":"\n                    <p><b>Action: <em>avoid</em></b></p>\n                    <p>This is the bee that you just saw.</p>\n                    <img src=\"bees-with-color/bee-B2SF.svg\" width=\"200\">\n                    <p><span class=\"redText\">Bad choice,</span> the bee was friendly.<br>Your bonus pay is unchanged, and remains at $0.78.</p>\n            ","response":0,"trial_type":"html-button-response","trial_index":88,"time_elapsed":1304654,"internal_node_id":"0.0-4.0-1.40","subject_id":"5b758f1c8b13610001f8cd1c","study_id":"60edd13110225f80f9f3709b","session_id":"6196c1f1860a3164bf54ef77","condition":"full-information","relevant_dimensions":["wings","legs"],"bee_group":{"antennae":"X","wings":"1","pattern":"X","legs":"M"},"bonus":0.5000000000000012},{"rt":2787.399999976158,"stimulus":"bees-with-color/bee-A2DM.svg","response":0,"trial_type":"image-button-response","trial_index":89,"time_elapsed":1307445,"internal_node_id":"0.0-4.0-0.41","subject_id":"5b758f1c8b13610001f8cd1c","study_id":"60edd13110225f80f9f3709b","session_id":"6196c1f1860a3164bf54ef77","condition":"full-information","relevant_dimensions":["wings","legs"],"bee_group":{"antennae":"X","wings":"1","pattern":"X","legs":"M"},"action":"harvest","summary":"good-harvest","bonus":0.5000000000000012},{"rt":1637.199999988079,"stimulus":"\n                    <p><b>Action: <em>harvest</em></b></p>\n                    <p>This is the bee that you just saw.</p>\n                    <img src=\"bees-with-color/bee-A2DM.svg\" width=\"200\">\n                    <p><span class=\"greenText\"><b>Successful harvest!</b></span><br>Your pay has increased by $0.02. Your bonus pay is now $0.80.</p>\n            ","response":0,"trial_type":"html-button-response","trial_index":90,"time_elapsed":1310249,"internal_node_id":"0.0-4.0-1.41","subject_id":"5b758f1c8b13610001f8cd1c","study_id":"60edd13110225f80f9f3709b","session_id":"6196c1f1860a3164bf54ef77","condition":"full-information","relevant_dimensions":["wings","legs"],"bee_group":{"antennae":"X","wings":"1","pattern":"X","legs":"M"},"bonus":0.5000000000000012},{"rt":2116.300000011921,"stimulus":"bees-with-color/bee-B1DM.svg","response":1,"trial_type":"image-button-response","trial_index":91,"time_elapsed":1312370,"internal_node_id":"0.0-4.0-0.42","subject_id":"5b758f1c8b13610001f8cd1c","study_id":"60edd13110225f80f9f3709b","session_id":"6196c1f1860a3164bf54ef77","condition":"full-information","relevant_dimensions":["wings","legs"],"bee_group":{"antennae":"X","wings":"1","pattern":"X","legs":"M"},"action":"avoid","summary":"good-avoid","bonus":0.5000000000000012},{"rt":1696.199999988079,"stimulus":"\n                    <p><b>Action: <em>avoid</em></b></p>\n                    <p>This is the bee that you just saw.</p>\n                    <img src=\"bees-with-color/bee-B1DM.svg\" width=\"200\">\n                    <p><span class=\"greenText\">Good choice!</span>  This bee would have stung you.<br>Your bonus pay is unchanged, and remains at $0.80.</p>\n            ","response":0,"trial_type":"html-button-response","trial_index":92,"time_elapsed":1314069,"internal_node_id":"0.0-4.0-1.42","subject_id":"5b758f1c8b13610001f8cd1c","study_id":"60edd13110225f80f9f3709b","session_id":"6196c1f1860a3164bf54ef77","condition":"full-information","relevant_dimensions":["wings","legs"],"bee_group":{"antennae":"X","wings":"1","pattern":"X","legs":"M"},"bonus":0.5000000000000012},{"rt":1681.6000000238419,"stimulus":"bees-with-color/bee-A2DF.svg","response":1,"trial_type":"image-button-response","trial_index":93,"time_elapsed":1315756,"internal_node_id":"0.0-4.0-0.43","subject_id":"5b758f1c8b13610001f8cd1c","study_id":"60edd13110225f80f9f3709b","session_id":"6196c1f1860a3164bf54ef77","condition":"full-information","relevant_dimensions":["wings","legs"],"bee_group":{"antennae":"X","wings":"1","pattern":"X","legs":"M"},"action":"avoid","summary":"bad-avoid","bonus":0.5000000000000012},{"rt":2215.300000011921,"stimulus":"\n                    <p><b>Action: <em>avoid</em></b></p>\n                    <p>This is the bee that you just saw.</p>\n                    <img src=\"bees-with-color/bee-A2DF.svg\" width=\"200\">\n                    <p><span class=\"redText\">Bad choice,</span> the bee was friendly.<br>Your bonus pay is unchanged, and remains at $0.80.</p>\n            ","response":0,"trial_type":"html-button-response","trial_index":94,"time_elapsed":1317977,"internal_node_id":"0.0-4.0-1.43","subject_id":"5b758f1c8b13610001f8cd1c","study_id":"60edd13110225f80f9f3709b","session_id":"6196c1f1860a3164bf54ef77","condition":"full-information","relevant_dimensions":["wings","legs"],"bee_group":{"antennae":"X","wings":"1","pattern":"X","legs":"M"},"bonus":0.5000000000000012},{"rt":1844.0999999642372,"stimulus":"bees-with-color/bee-B1SM.svg","response":0,"trial_type":"image-button-response","trial_index":95,"time_elapsed":1319825,"internal_node_id":"0.0-4.0-0.44","subject_id":"5b758f1c8b13610001f8cd1c","study_id":"60edd13110225f80f9f3709b","session_id":"6196c1f1860a3164bf54ef77","condition":"full-information","relevant_dimensions":["wings","legs"],"bee_group":{"antennae":"X","wings":"1","pattern":"X","legs":"M"},"action":"harvest","summary":"bad-harvest","bonus":0.5000000000000012},{"rt":2713.699999988079,"stimulus":"\n                    <p><b>Action: <em>harvest</em></b></p>\n                    <p>This is the bee that you just saw.</p>\n                    <img src=\"bees-with-color/bee-B1SM.svg\" width=\"200\">\n                    <p><span class=\"redText\">Bad choice, the bee was angry.</span><br><b>You have been stung!</b><br>Your pay has been decreased by $0.10. Your bonus pay is now $0.70.</p>\n            ","response":0,"trial_type":"html-button-response","trial_index":96,"time_elapsed":1322542,"internal_node_id":"0.0-4.0-1.44","subject_id":"5b758f1c8b13610001f8cd1c","study_id":"60edd13110225f80f9f3709b","session_id":"6196c1f1860a3164bf54ef77","condition":"full-information","relevant_dimensions":["wings","legs"],"bee_group":{"antennae":"X","wings":"1","pattern":"X","legs":"M"},"bonus":0.5000000000000012},{"rt":1209.4000000357628,"stimulus":"bees-with-color/bee-A1DF.svg","response":1,"trial_type":"image-button-response","trial_index":97,"time_elapsed":1323757,"internal_node_id":"0.0-4.0-0.45","subject_id":"5b758f1c8b13610001f8cd1c","study_id":"60edd13110225f80f9f3709b","session_id":"6196c1f1860a3164bf54ef77","condition":"full-information","relevant_dimensions":["wings","legs"],"bee_group":{"antennae":"X","wings":"1","pattern":"X","legs":"M"},"action":"avoid","summary":"bad-avoid","bonus":0.5000000000000012},{"rt":1460.9000000357628,"stimulus":"\n                    <p><b>Action: <em>avoid</em></b></p>\n                    <p>This is the bee that you just saw.</p>\n                    <img src=\"bees-with-color/bee-A1DF.svg\" width=\"200\">\n                    <p><span class=\"redText\">Bad choice,</span> the bee was friendly.<br>Your bonus pay is unchanged, and remains at $0.70.</p>\n            ","response":0,"trial_type":"html-button-response","trial_index":98,"time_elapsed":1325221,"internal_node_id":"0.0-4.0-1.45","subject_id":"5b758f1c8b13610001f8cd1c","study_id":"60edd13110225f80f9f3709b","session_id":"6196c1f1860a3164bf54ef77","condition":"full-information","relevant_dimensions":["wings","legs"],"bee_group":{"antennae":"X","wings":"1","pattern":"X","legs":"M"},"bonus":0.5000000000000012},{"rt":1894.4000000357628,"stimulus":"bees-with-color/bee-A1SF.svg","response":0,"trial_type":"image-button-response","trial_index":99,"time_elapsed":1327119,"internal_node_id":"0.0-4.0-0.46","subject_id":"5b758f1c8b13610001f8cd1c","study_id":"60edd13110225f80f9f3709b","session_id":"6196c1f1860a3164bf54ef77","condition":"full-information","relevant_dimensions":["wings","legs"],"bee_group":{"antennae":"X","wings":"1","pattern":"X","legs":"M"},"action":"harvest","summary":"good-harvest","bonus":0.5000000000000012},{"rt":1508.3999999761581,"stimulus":"\n                    <p><b>Action: <em>harvest</em></b></p>\n                    <p>This is the bee that you just saw.</p>\n                    <img src=\"bees-with-color/bee-A1SF.svg\" width=\"200\">\n                    <p><span class=\"greenText\"><b>Successful harvest!</b></span><br>Your pay has increased by $0.02. Your bonus pay is now $0.72.</p>\n            ","response":0,"trial_type":"html-button-response","trial_index":100,"time_elapsed":1328632,"internal_node_id":"0.0-4.0-1.46","subject_id":"5b758f1c8b13610001f8cd1c","study_id":"60edd13110225f80f9f3709b","session_id":"6196c1f1860a3164bf54ef77","condition":"full-information","relevant_dimensions":["wings","legs"],"bee_group":{"antennae":"X","wings":"1","pattern":"X","legs":"M"},"bonus":0.5000000000000012},{"rt":2900.100000023842,"stimulus":"bees-with-color/bee-B2DF.svg","response":0,"trial_type":"image-button-response","trial_index":101,"time_elapsed":1331536,"internal_node_id":"0.0-4.0-0.47","subject_id":"5b758f1c8b13610001f8cd1c","study_id":"60edd13110225f80f9f3709b","session_id":"6196c1f1860a3164bf54ef77","condition":"full-information","relevant_dimensions":["wings","legs"],"bee_group":{"antennae":"X","wings":"1","pattern":"X","legs":"M"},"action":"harvest","summary":"good-harvest","bonus":0.5000000000000012},{"rt":2453.5,"stimulus":"\n                    <p><b>Action: <em>harvest</em></b></p>\n                    <p>This is the bee that you just saw.</p>\n                    <img src=\"bees-with-color/bee-B2DF.svg\" width=\"200\">\n                    <p><span class=\"greenText\"><b>Successful harvest!</b></span><br>Your pay has increased by $0.02. Your bonus pay is now $0.74.</p>\n            ","response":0,"trial_type":"html-button-response","trial_index":102,"time_elapsed":1333993,"internal_node_id":"0.0-4.0-1.47","subject_id":"5b758f1c8b13610001f8cd1c","study_id":"60edd13110225f80f9f3709b","session_id":"6196c1f1860a3164bf54ef77","condition":"full-information","relevant_dimensions":["wings","legs"],"bee_group":{"antennae":"X","wings":"1","pattern":"X","legs":"M"},"bonus":0.5000000000000012},{"rt":3506,"stimulus":"bees-with-color/bee-B1DM.svg","response":1,"trial_type":"image-button-response","trial_index":103,"time_elapsed":1337502,"internal_node_id":"0.0-4.0-0.48","subject_id":"5b758f1c8b13610001f8cd1c","study_id":"60edd13110225f80f9f3709b","session_id":"6196c1f1860a3164bf54ef77","condition":"full-information","relevant_dimensions":["wings","legs"],"bee_group":{"antennae":"X","wings":"1","pattern":"X","legs":"M"},"action":"avoid","summary":"good-avoid","bonus":0.5000000000000012},{"rt":1375.2999999523163,"stimulus":"\n                    <p><b>Action: <em>avoid</em></b></p>\n                    <p>This is the bee that you just saw.</p>\n                    <img src=\"bees-with-color/bee-B1DM.svg\" width=\"200\">\n                    <p><span class=\"greenText\">Good choice!</span>  This bee would have stung you.<br>Your bonus pay is unchanged, and remains at $0.74.</p>\n            ","response":0,"trial_type":"html-button-response","trial_index":104,"time_elapsed":1338880,"internal_node_id":"0.0-4.0-1.48","subject_id":"5b758f1c8b13610001f8cd1c","study_id":"60edd13110225f80f9f3709b","session_id":"6196c1f1860a3164bf54ef77","condition":"full-information","relevant_dimensions":["wings","legs"],"bee_group":{"antennae":"X","wings":"1","pattern":"X","legs":"M"},"bonus":0.5000000000000012},{"rt":2211,"stimulus":"bees-with-color/bee-A2SM.svg","response":0,"trial_type":"image-button-response","trial_index":105,"time_elapsed":1341094,"internal_node_id":"0.0-4.0-0.49","subject_id":"5b758f1c8b13610001f8cd1c","study_id":"60edd13110225f80f9f3709b","session_id":"6196c1f1860a3164bf54ef77","condition":"full-information","relevant_dimensions":["wings","legs"],"bee_group":{"antennae":"X","wings":"1","pattern":"X","legs":"M"},"action":"harvest","summary":"good-harvest","bonus":0.5000000000000012},{"rt":2310.300000011921,"stimulus":"\n                    <p><b>Action: <em>harvest</em></b></p>\n                    <p>This is the bee that you just saw.</p>\n                    <img src=\"bees-with-color/bee-A2SM.svg\" width=\"200\">\n                    <p><span class=\"greenText\"><b>Successful harvest!</b></span><br>Your pay has increased by $0.02. Your bonus pay is now $0.76.</p>\n            ","response":0,"trial_type":"html-button-response","trial_index":106,"time_elapsed":1343408,"internal_node_id":"0.0-4.0-1.49","subject_id":"5b758f1c8b13610001f8cd1c","study_id":"60edd13110225f80f9f3709b","session_id":"6196c1f1860a3164bf54ef77","condition":"full-information","relevant_dimensions":["wings","legs"],"bee_group":{"antennae":"X","wings":"1","pattern":"X","legs":"M"},"bonus":0.5000000000000012},{"rt":1670.800000011921,"stimulus":"bees-with-color/bee-A1SF.svg","response":0,"trial_type":"image-button-response","trial_index":107,"time_elapsed":1345082,"internal_node_id":"0.0-4.0-0.50","subject_id":"5b758f1c8b13610001f8cd1c","study_id":"60edd13110225f80f9f3709b","session_id":"6196c1f1860a3164bf54ef77","condition":"full-information","relevant_dimensions":["wings","legs"],"bee_group":{"antennae":"X","wings":"1","pattern":"X","legs":"M"},"action":"harvest","summary":"good-harvest","bonus":0.5000000000000012},{"rt":1647.699999988079,"stimulus":"\n                    <p><b>Action: <em>harvest</em></b></p>\n                    <p>This is the bee that you just saw.</p>\n                    <img src=\"bees-with-color/bee-A1SF.svg\" width=\"200\">\n                    <p><span class=\"greenText\"><b>Successful harvest!</b></span><br>Your pay has increased by $0.02. Your bonus pay is now $0.78.</p>\n            ","response":0,"trial_type":"html-button-response","trial_index":108,"time_elapsed":1346732,"internal_node_id":"0.0-4.0-1.50","subject_id":"5b758f1c8b13610001f8cd1c","study_id":"60edd13110225f80f9f3709b","session_id":"6196c1f1860a3164bf54ef77","condition":"full-information","relevant_dimensions":["wings","legs"],"bee_group":{"antennae":"X","wings":"1","pattern":"X","legs":"M"},"bonus":0.5000000000000012},{"rt":4438,"stimulus":"bees-with-color/bee-B2SM.svg","response":0,"trial_type":"image-button-response","trial_index":109,"time_elapsed":1351173,"internal_node_id":"0.0-4.0-0.51","subject_id":"5b758f1c8b13610001f8cd1c","study_id":"60edd13110225f80f9f3709b","session_id":"6196c1f1860a3164bf54ef77","condition":"full-information","relevant_dimensions":["wings","legs"],"bee_group":{"antennae":"X","wings":"1","pattern":"X","legs":"M"},"action":"harvest","summary":"good-harvest","bonus":0.5000000000000012},{"rt":1274.2000000476837,"stimulus":"\n                    <p><b>Action: <em>harvest</em></b></p>\n                    <p>This is the bee that you just saw.</p>\n                    <img src=\"bees-with-color/bee-B2SM.svg\" width=\"200\">\n                    <p><span class=\"greenText\"><b>Successful harvest!</b></span><br>Your pay has increased by $0.02. Your bonus pay is now $0.80.</p>\n            ","response":0,"trial_type":"html-button-response","trial_index":110,"time_elapsed":1352451,"internal_node_id":"0.0-4.0-1.51","subject_id":"5b758f1c8b13610001f8cd1c","study_id":"60edd13110225f80f9f3709b","session_id":"6196c1f1860a3164bf54ef77","condition":"full-information","relevant_dimensions":["wings","legs"],"bee_group":{"antennae":"X","wings":"1","pattern":"X","legs":"M"},"bonus":0.5000000000000012},{"rt":2539.5,"stimulus":"bees-with-color/bee-A2DF.svg","response":1,"trial_type":"image-button-response","trial_index":111,"time_elapsed":1354995,"internal_node_id":"0.0-4.0-0.52","subject_id":"5b758f1c8b13610001f8cd1c","study_id":"60edd13110225f80f9f3709b","session_id":"6196c1f1860a3164bf54ef77","condition":"full-information","relevant_dimensions":["wings","legs"],"bee_group":{"antennae":"X","wings":"1","pattern":"X","legs":"M"},"action":"avoid","summary":"bad-avoid","bonus":0.5000000000000012},{"rt":1596,"stimulus":"\n                    <p><b>Action: <em>avoid</em></b></p>\n                    <p>This is the bee that you just saw.</p>\n                    <img src=\"bees-with-color/bee-A2DF.svg\" width=\"200\">\n                    <p><span class=\"redText\">Bad choice,</span> the bee was friendly.<br>Your bonus pay is unchanged, and remains at $0.80.</p>\n            ","response":0,"trial_type":"html-button-response","trial_index":112,"time_elapsed":1356594,"internal_node_id":"0.0-4.0-1.52","subject_id":"5b758f1c8b13610001f8cd1c","study_id":"60edd13110225f80f9f3709b","session_id":"6196c1f1860a3164bf54ef77","condition":"full-information","relevant_dimensions":["wings","legs"],"bee_group":{"antennae":"X","wings":"1","pattern":"X","legs":"M"},"bonus":0.5000000000000012},{"rt":1447.9000000357628,"stimulus":"bees-with-color/bee-B2SF.svg","response":0,"trial_type":"image-button-response","trial_index":113,"time_elapsed":1358046,"internal_node_id":"0.0-4.0-0.53","subject_id":"5b758f1c8b13610001f8cd1c","study_id":"60edd13110225f80f9f3709b","session_id":"6196c1f1860a3164bf54ef77","condition":"full-information","relevant_dimensions":["wings","legs"],"bee_group":{"antennae":"X","wings":"1","pattern":"X","legs":"M"},"action":"harvest","summary":"good-harvest","bonus":0.5000000000000012},{"rt":1150.699999988079,"stimulus":"\n                    <p><b>Action: <em>harvest</em></b></p>\n                    <p>This is the bee that you just saw.</p>\n                    <img src=\"bees-with-color/bee-B2SF.svg\" width=\"200\">\n                    <p><span class=\"greenText\"><b>Successful harvest!</b></span><br>Your pay has increased by $0.02. Your bonus pay is now $0.82.</p>\n            ","response":0,"trial_type":"html-button-response","trial_index":114,"time_elapsed":1359200,"internal_node_id":"0.0-4.0-1.53","subject_id":"5b758f1c8b13610001f8cd1c","study_id":"60edd13110225f80f9f3709b","session_id":"6196c1f1860a3164bf54ef77","condition":"full-information","relevant_dimensions":["wings","legs"],"bee_group":{"antennae":"X","wings":"1","pattern":"X","legs":"M"},"bonus":0.5000000000000012},{"rt":1658.9000000357628,"stimulus":"bees-with-color/bee-A1DM.svg","response":0,"trial_type":"image-button-response","trial_index":115,"time_elapsed":1360862,"internal_node_id":"0.0-4.0-0.54","subject_id":"5b758f1c8b13610001f8cd1c","study_id":"60edd13110225f80f9f3709b","session_id":"6196c1f1860a3164bf54ef77","condition":"full-information","relevant_dimensions":["wings","legs"],"bee_group":{"antennae":"X","wings":"1","pattern":"X","legs":"M"},"action":"harvest","summary":"bad-harvest","bonus":0.5000000000000012},{"rt":1311.5,"stimulus":"\n                    <p><b>Action: <em>harvest</em></b></p>\n                    <p>This is the bee that you just saw.</p>\n                    <img src=\"bees-with-color/bee-A1DM.svg\" width=\"200\">\n                    <p><span class=\"redText\">Bad choice, the bee was angry.</span><br><b>You have been stung!</b><br>Your pay has been decreased by $0.10. Your bonus pay is now $0.72.</p>\n            ","response":0,"trial_type":"html-button-response","trial_index":116,"time_elapsed":1362176,"internal_node_id":"0.0-4.0-1.54","subject_id":"5b758f1c8b13610001f8cd1c","study_id":"60edd13110225f80f9f3709b","session_id":"6196c1f1860a3164bf54ef77","condition":"full-information","relevant_dimensions":["wings","legs"],"bee_group":{"antennae":"X","wings":"1","pattern":"X","legs":"M"},"bonus":0.5000000000000012},{"rt":2031.7999999523163,"stimulus":"bees-with-color/bee-A2SF.svg","response":0,"trial_type":"image-button-response","trial_index":117,"time_elapsed":1364211,"internal_node_id":"0.0-4.0-0.55","subject_id":"5b758f1c8b13610001f8cd1c","study_id":"60edd13110225f80f9f3709b","session_id":"6196c1f1860a3164bf54ef77","condition":"full-information","relevant_dimensions":["wings","legs"],"bee_group":{"antennae":"X","wings":"1","pattern":"X","legs":"M"},"action":"harvest","summary":"good-harvest","bonus":0.5000000000000012},{"rt":1969.800000011921,"stimulus":"\n                    <p><b>Action: <em>harvest</em></b></p>\n                    <p>This is the bee that you just saw.</p>\n                    <img src=\"bees-with-color/bee-A2SF.svg\" width=\"200\">\n                    <p><span class=\"greenText\"><b>Successful harvest!</b></span><br>Your pay has increased by $0.02. Your bonus pay is now $0.74.</p>\n            ","response":0,"trial_type":"html-button-response","trial_index":118,"time_elapsed":1366184,"internal_node_id":"0.0-4.0-1.55","subject_id":"5b758f1c8b13610001f8cd1c","study_id":"60edd13110225f80f9f3709b","session_id":"6196c1f1860a3164bf54ef77","condition":"full-information","relevant_dimensions":["wings","legs"],"bee_group":{"antennae":"X","wings":"1","pattern":"X","legs":"M"},"bonus":0.5000000000000012},{"rt":4362.899999976158,"stimulus":"bees-with-color/bee-A1DF.svg","response":0,"trial_type":"image-button-response","trial_index":119,"time_elapsed":1370550,"internal_node_id":"0.0-4.0-0.56","subject_id":"5b758f1c8b13610001f8cd1c","study_id":"60edd13110225f80f9f3709b","session_id":"6196c1f1860a3164bf54ef77","condition":"full-information","relevant_dimensions":["wings","legs"],"bee_group":{"antennae":"X","wings":"1","pattern":"X","legs":"M"},"action":"harvest","summary":"good-harvest","bonus":0.5000000000000012},{"rt":1211.5,"stimulus":"\n                    <p><b>Action: <em>harvest</em></b></p>\n                    <p>This is the bee that you just saw.</p>\n                    <img src=\"bees-with-color/bee-A1DF.svg\" width=\"200\">\n                    <p><span class=\"greenText\"><b>Successful harvest!</b></span><br>Your pay has increased by $0.02. Your bonus pay is now $0.76.</p>\n            ","response":0,"trial_type":"html-button-response","trial_index":120,"time_elapsed":1371766,"internal_node_id":"0.0-4.0-1.56","subject_id":"5b758f1c8b13610001f8cd1c","study_id":"60edd13110225f80f9f3709b","session_id":"6196c1f1860a3164bf54ef77","condition":"full-information","relevant_dimensions":["wings","legs"],"bee_group":{"antennae":"X","wings":"1","pattern":"X","legs":"M"},"bonus":0.5000000000000012},{"rt":1881.7999999523163,"stimulus":"bees-with-color/bee-B1DF.svg","response":0,"trial_type":"image-button-response","trial_index":121,"time_elapsed":1373652,"internal_node_id":"0.0-4.0-0.57","subject_id":"5b758f1c8b13610001f8cd1c","study_id":"60edd13110225f80f9f3709b","session_id":"6196c1f1860a3164bf54ef77","condition":"full-information","relevant_dimensions":["wings","legs"],"bee_group":{"antennae":"X","wings":"1","pattern":"X","legs":"M"},"action":"harvest","summary":"good-harvest","bonus":0.5000000000000012},{"rt":1473.6000000238419,"stimulus":"\n                    <p><b>Action: <em>harvest</em></b></p>\n                    <p>This is the bee that you just saw.</p>\n                    <img src=\"bees-with-color/bee-B1DF.svg\" width=\"200\">\n                    <p><span class=\"greenText\"><b>Successful harvest!</b></span><br>Your pay has increased by $0.02. Your bonus pay is now $0.78.</p>\n            ","response":0,"trial_type":"html-button-response","trial_index":122,"time_elapsed":1375129,"internal_node_id":"0.0-4.0-1.57","subject_id":"5b758f1c8b13610001f8cd1c","study_id":"60edd13110225f80f9f3709b","session_id":"6196c1f1860a3164bf54ef77","condition":"full-information","relevant_dimensions":["wings","legs"],"bee_group":{"antennae":"X","wings":"1","pattern":"X","legs":"M"},"bonus":0.5000000000000012},{"rt":1905.199999988079,"stimulus":"bees-with-color/bee-B2DF.svg","response":0,"trial_type":"image-button-response","trial_index":123,"time_elapsed":1377039,"internal_node_id":"0.0-4.0-0.58","subject_id":"5b758f1c8b13610001f8cd1c","study_id":"60edd13110225f80f9f3709b","session_id":"6196c1f1860a3164bf54ef77","condition":"full-information","relevant_dimensions":["wings","legs"],"bee_group":{"antennae":"X","wings":"1","pattern":"X","legs":"M"},"action":"harvest","summary":"good-harvest","bonus":0.5000000000000012},{"rt":1287.1000000238419,"stimulus":"\n                    <p><b>Action: <em>harvest</em></b></p>\n                    <p>This is the bee that you just saw.</p>\n                    <img src=\"bees-with-color/bee-B2DF.svg\" width=\"200\">\n                    <p><span class=\"greenText\"><b>Successful harvest!</b></span><br>Your pay has increased by $0.02. Your bonus pay is now $0.80.</p>\n            ","response":0,"trial_type":"html-button-response","trial_index":124,"time_elapsed":1378329,"internal_node_id":"0.0-4.0-1.58","subject_id":"5b758f1c8b13610001f8cd1c","study_id":"60edd13110225f80f9f3709b","session_id":"6196c1f1860a3164bf54ef77","condition":"full-information","relevant_dimensions":["wings","legs"],"bee_group":{"antennae":"X","wings":"1","pattern":"X","legs":"M"},"bonus":0.5000000000000012},{"rt":1858.2000000476837,"stimulus":"bees-with-color/bee-B2DM.svg","response":1,"trial_type":"image-button-response","trial_index":125,"time_elapsed":1380190,"internal_node_id":"0.0-4.0-0.59","subject_id":"5b758f1c8b13610001f8cd1c","study_id":"60edd13110225f80f9f3709b","session_id":"6196c1f1860a3164bf54ef77","condition":"full-information","relevant_dimensions":["wings","legs"],"bee_group":{"antennae":"X","wings":"1","pattern":"X","legs":"M"},"action":"avoid","summary":"bad-avoid","bonus":0.5000000000000012},{"rt":1609.5,"stimulus":"\n                    <p><b>Action: <em>avoid</em></b></p>\n                    <p>This is the bee that you just saw.</p>\n                    <img src=\"bees-with-color/bee-B2DM.svg\" width=\"200\">\n                    <p><span class=\"redText\">Bad choice,</span> the bee was friendly.<br>Your bonus pay is unchanged, and remains at $0.80.</p>\n            ","response":0,"trial_type":"html-button-response","trial_index":126,"time_elapsed":1381802,"internal_node_id":"0.0-4.0-1.59","subject_id":"5b758f1c8b13610001f8cd1c","study_id":"60edd13110225f80f9f3709b","session_id":"6196c1f1860a3164bf54ef77","condition":"full-information","relevant_dimensions":["wings","legs"],"bee_group":{"antennae":"X","wings":"1","pattern":"X","legs":"M"},"bonus":0.5000000000000012},{"rt":2790,"stimulus":"bees-with-color/bee-A2DM.svg","response":0,"trial_type":"image-button-response","trial_index":127,"time_elapsed":1384596,"internal_node_id":"0.0-4.0-0.60","subject_id":"5b758f1c8b13610001f8cd1c","study_id":"60edd13110225f80f9f3709b","session_id":"6196c1f1860a3164bf54ef77","condition":"full-information","relevant_dimensions":["wings","legs"],"bee_group":{"antennae":"X","wings":"1","pattern":"X","legs":"M"},"action":"harvest","summary":"good-harvest","bonus":0.5000000000000012},{"rt":1272.699999988079,"stimulus":"\n                    <p><b>Action: <em>harvest</em></b></p>\n                    <p>This is the bee that you just saw.</p>\n                    <img src=\"bees-with-color/bee-A2DM.svg\" width=\"200\">\n                    <p><span class=\"greenText\"><b>Successful harvest!</b></span><br>Your pay has increased by $0.02. Your bonus pay is now $0.82.</p>\n            ","response":0,"trial_type":"html-button-response","trial_index":128,"time_elapsed":1385872,"internal_node_id":"0.0-4.0-1.60","subject_id":"5b758f1c8b13610001f8cd1c","study_id":"60edd13110225f80f9f3709b","session_id":"6196c1f1860a3164bf54ef77","condition":"full-information","relevant_dimensions":["wings","legs"],"bee_group":{"antennae":"X","wings":"1","pattern":"X","legs":"M"},"bonus":0.5000000000000012},{"rt":3418.300000011921,"stimulus":"bees-with-color/bee-B1SM.svg","response":1,"trial_type":"image-button-response","trial_index":129,"time_elapsed":1389296,"internal_node_id":"0.0-4.0-0.61","subject_id":"5b758f1c8b13610001f8cd1c","study_id":"60edd13110225f80f9f3709b","session_id":"6196c1f1860a3164bf54ef77","condition":"full-information","relevant_dimensions":["wings","legs"],"bee_group":{"antennae":"X","wings":"1","pattern":"X","legs":"M"},"action":"avoid","summary":"good-avoid","bonus":0.5000000000000012},{"rt":1647.699999988079,"stimulus":"\n                    <p><b>Action: <em>avoid</em></b></p>\n                    <p>This is the bee that you just saw.</p>\n                    <img src=\"bees-with-color/bee-B1SM.svg\" width=\"200\">\n                    <p><span class=\"greenText\">Good choice!</span>  This bee would have stung you.<br>Your bonus pay is unchanged, and remains at $0.82.</p>\n            ","response":0,"trial_type":"html-button-response","trial_index":130,"time_elapsed":1390946,"internal_node_id":"0.0-4.0-1.61","subject_id":"5b758f1c8b13610001f8cd1c","study_id":"60edd13110225f80f9f3709b","session_id":"6196c1f1860a3164bf54ef77","condition":"full-information","relevant_dimensions":["wings","legs"],"bee_group":{"antennae":"X","wings":"1","pattern":"X","legs":"M"},"bonus":0.5000000000000012},{"rt":1670.8999999761581,"stimulus":"bees-with-color/bee-B1SF.svg","response":0,"trial_type":"image-button-response","trial_index":131,"time_elapsed":1392621,"internal_node_id":"0.0-4.0-0.62","subject_id":"5b758f1c8b13610001f8cd1c","study_id":"60edd13110225f80f9f3709b","session_id":"6196c1f1860a3164bf54ef77","condition":"full-information","relevant_dimensions":["wings","legs"],"bee_group":{"antennae":"X","wings":"1","pattern":"X","legs":"M"},"action":"harvest","summary":"good-harvest","bonus":0.5000000000000012},{"rt":1349.4000000357628,"stimulus":"\n                    <p><b>Action: <em>harvest</em></b></p>\n                    <p>This is the bee that you just saw.</p>\n                    <img src=\"bees-with-color/bee-B1SF.svg\" width=\"200\">\n                    <p><span class=\"greenText\"><b>Successful harvest!</b></span><br>Your pay has increased by $0.02. Your bonus pay is now $0.84.</p>\n            ","response":0,"trial_type":"html-button-response","trial_index":132,"time_elapsed":1393973,"internal_node_id":"0.0-4.0-1.62","subject_id":"5b758f1c8b13610001f8cd1c","study_id":"60edd13110225f80f9f3709b","session_id":"6196c1f1860a3164bf54ef77","condition":"full-information","relevant_dimensions":["wings","legs"],"bee_group":{"antennae":"X","wings":"1","pattern":"X","legs":"M"},"bonus":0.5000000000000012},{"rt":3420.300000011921,"stimulus":"bees-with-color/bee-A1SM.svg","response":0,"trial_type":"image-button-response","trial_index":133,"time_elapsed":1397397,"internal_node_id":"0.0-4.0-0.63","subject_id":"5b758f1c8b13610001f8cd1c","study_id":"60edd13110225f80f9f3709b","session_id":"6196c1f1860a3164bf54ef77","condition":"full-information","relevant_dimensions":["wings","legs"],"bee_group":{"antennae":"X","wings":"1","pattern":"X","legs":"M"},"action":"harvest","summary":"bad-harvest","bonus":0.5000000000000012},{"rt":1746.1000000238419,"stimulus":"\n                    <p><b>Action: <em>harvest</em></b></p>\n                    <p>This is the bee that you just saw.</p>\n                    <img src=\"bees-with-color/bee-A1SM.svg\" width=\"200\">\n                    <p><span class=\"redText\">Bad choice, the bee was angry.</span><br><b>You have been stung!</b><br>Your pay has been decreased by $0.10. Your bonus pay is now $0.74.</p>\n            ","response":0,"trial_type":"html-button-response","trial_index":134,"time_elapsed":1399146,"internal_node_id":"0.0-4.0-1.63","subject_id":"5b758f1c8b13610001f8cd1c","study_id":"60edd13110225f80f9f3709b","session_id":"6196c1f1860a3164bf54ef77","condition":"full-information","relevant_dimensions":["wings","legs"],"bee_group":{"antennae":"X","wings":"1","pattern":"X","legs":"M"},"bonus":0.5000000000000012},{"rt":10113.100000023842,"stimulus":"You have completed the first part of this experiment.<br><br>You will now begin a shorter second part, in which you will receive no feedback.<br>The same rules regarding bonus pay apply.<br><br>Press any key to begin.","response":"capslock","trial_type":"html-keyboard-response","trial_index":135,"time_elapsed":1410102,"internal_node_id":"0.0-5.0","subject_id":"5b758f1c8b13610001f8cd1c","study_id":"60edd13110225f80f9f3709b","session_id":"6196c1f1860a3164bf54ef77","condition":"full-information","relevant_dimensions":["wings","legs"],"bee_group":{"antennae":"X","wings":"1","pattern":"X","legs":"M"},"bonus":0.5000000000000012},{"rt":13245.699999988079,"stimulus":"bees-with-color/bee-B1SF.svg","response":0,"trial_type":"image-button-response","trial_index":136,"time_elapsed":1427567,"internal_node_id":"0.0-6.0-0.0","subject_id":"5b758f1c8b13610001f8cd1c","study_id":"60edd13110225f80f9f3709b","session_id":"6196c1f1860a3164bf54ef77","condition":"full-information","relevant_dimensions":["wings","legs"],"bee_group":{"antennae":"X","wings":"1","pattern":"X","legs":"M"},"bonus":0.5000000000000012},{"rt":2020.699999988079,"stimulus":"bees-with-color/bee-B2DF.svg","response":0,"trial_type":"image-button-response","trial_index":137,"time_elapsed":1429641,"internal_node_id":"0.0-6.0-0.1","subject_id":"5b758f1c8b13610001f8cd1c","study_id":"60edd13110225f80f9f3709b","session_id":"6196c1f1860a3164bf54ef77","condition":"full-information","relevant_dimensions":["wings","legs"],"bee_group":{"antennae":"X","wings":"1","pattern":"X","legs":"M"},"bonus":0.5000000000000012},{"rt":2538.2000000476837,"stimulus":"bees-with-color/bee-A1SF.svg","response":0,"trial_type":"image-button-response","trial_index":138,"time_elapsed":1432183,"internal_node_id":"0.0-6.0-0.2","subject_id":"5b758f1c8b13610001f8cd1c","study_id":"60edd13110225f80f9f3709b","session_id":"6196c1f1860a3164bf54ef77","condition":"full-information","relevant_dimensions":["wings","legs"],"bee_group":{"antennae":"X","wings":"1","pattern":"X","legs":"M"},"bonus":0.5000000000000012},{"rt":1644.5999999642372,"stimulus":"bees-with-color/bee-B1DM.svg","response":1,"trial_type":"image-button-response","trial_index":139,"time_elapsed":1433832,"internal_node_id":"0.0-6.0-0.3","subject_id":"5b758f1c8b13610001f8cd1c","study_id":"60edd13110225f80f9f3709b","session_id":"6196c1f1860a3164bf54ef77","condition":"full-information","relevant_dimensions":["wings","legs"],"bee_group":{"antennae":"X","wings":"1","pattern":"X","legs":"M"},"bonus":0.5000000000000012},{"rt":4175.299999952316,"stimulus":"bees-with-color/bee-B2SM.svg","response":0,"trial_type":"image-button-response","trial_index":140,"time_elapsed":1438014,"internal_node_id":"0.0-6.0-0.4","subject_id":"5b758f1c8b13610001f8cd1c","study_id":"60edd13110225f80f9f3709b","session_id":"6196c1f1860a3164bf54ef77","condition":"full-information","relevant_dimensions":["wings","legs"],"bee_group":{"antennae":"X","wings":"1","pattern":"X","legs":"M"},"bonus":0.5000000000000012},{"rt":5650.699999988079,"stimulus":"bees-with-color/bee-B2SF.svg","response":0,"trial_type":"image-button-response","trial_index":141,"time_elapsed":1443669,"internal_node_id":"0.0-6.0-0.5","subject_id":"5b758f1c8b13610001f8cd1c","study_id":"60edd13110225f80f9f3709b","session_id":"6196c1f1860a3164bf54ef77","condition":"full-information","relevant_dimensions":["wings","legs"],"bee_group":{"antennae":"X","wings":"1","pattern":"X","legs":"M"},"bonus":0.5000000000000012},{"rt":2004.2999999523163,"stimulus":"bees-with-color/bee-A1DM.svg","response":1,"trial_type":"image-button-response","trial_index":142,"time_elapsed":1445679,"internal_node_id":"0.0-6.0-0.6","subject_id":"5b758f1c8b13610001f8cd1c","study_id":"60edd13110225f80f9f3709b","session_id":"6196c1f1860a3164bf54ef77","condition":"full-information","relevant_dimensions":["wings","legs"],"bee_group":{"antennae":"X","wings":"1","pattern":"X","legs":"M"},"bonus":0.5000000000000012},{"rt":1520.1000000238419,"stimulus":"bees-with-color/bee-A1DF.svg","response":0,"trial_type":"image-button-response","trial_index":143,"time_elapsed":1447205,"internal_node_id":"0.0-6.0-0.7","subject_id":"5b758f1c8b13610001f8cd1c","study_id":"60edd13110225f80f9f3709b","session_id":"6196c1f1860a3164bf54ef77","condition":"full-information","relevant_dimensions":["wings","legs"],"bee_group":{"antennae":"X","wings":"1","pattern":"X","legs":"M"},"bonus":0.5000000000000012},{"rt":1666.699999988079,"stimulus":"bees-with-color/bee-A2SF.svg","response":0,"trial_type":"image-button-response","trial_index":144,"time_elapsed":1449066,"internal_node_id":"0.0-6.0-0.8","subject_id":"5b758f1c8b13610001f8cd1c","study_id":"60edd13110225f80f9f3709b","session_id":"6196c1f1860a3164bf54ef77","condition":"full-information","relevant_dimensions":["wings","legs"],"bee_group":{"antennae":"X","wings":"1","pattern":"X","legs":"M"},"bonus":0.5000000000000012},{"rt":2377.800000011921,"stimulus":"bees-with-color/bee-A2DM.svg","response":1,"trial_type":"image-button-response","trial_index":145,"time_elapsed":1451448,"internal_node_id":"0.0-6.0-0.9","subject_id":"5b758f1c8b13610001f8cd1c","study_id":"60edd13110225f80f9f3709b","session_id":"6196c1f1860a3164bf54ef77","condition":"full-information","relevant_dimensions":["wings","legs"],"bee_group":{"antennae":"X","wings":"1","pattern":"X","legs":"M"},"bonus":0.5000000000000012},{"rt":2327.5,"stimulus":"bees-with-color/bee-B2DM.svg","response":1,"trial_type":"image-button-response","trial_index":146,"time_elapsed":1453779,"internal_node_id":"0.0-6.0-0.10","subject_id":"5b758f1c8b13610001f8cd1c","study_id":"60edd13110225f80f9f3709b","session_id":"6196c1f1860a3164bf54ef77","condition":"full-information","relevant_dimensions":["wings","legs"],"bee_group":{"antennae":"X","wings":"1","pattern":"X","legs":"M"},"bonus":0.5000000000000012},{"rt":1063.5,"stimulus":"bees-with-color/bee-B1DF.svg","response":0,"trial_type":"image-button-response","trial_index":147,"time_elapsed":1454847,"internal_node_id":"0.0-6.0-0.11","subject_id":"5b758f1c8b13610001f8cd1c","study_id":"60edd13110225f80f9f3709b","session_id":"6196c1f1860a3164bf54ef77","condition":"full-information","relevant_dimensions":["wings","legs"],"bee_group":{"antennae":"X","wings":"1","pattern":"X","legs":"M"},"bonus":0.5000000000000012},{"rt":1311.4000000357628,"stimulus":"bees-with-color/bee-A2DF.svg","response":0,"trial_type":"image-button-response","trial_index":148,"time_elapsed":1456162,"internal_node_id":"0.0-6.0-0.12","subject_id":"5b758f1c8b13610001f8cd1c","study_id":"60edd13110225f80f9f3709b","session_id":"6196c1f1860a3164bf54ef77","condition":"full-information","relevant_dimensions":["wings","legs"],"bee_group":{"antennae":"X","wings":"1","pattern":"X","legs":"M"},"bonus":0.5000000000000012},{"rt":2440.7000000476837,"stimulus":"bees-with-color/bee-A2SM.svg","response":1,"trial_type":"image-button-response","trial_index":149,"time_elapsed":1458606,"internal_node_id":"0.0-6.0-0.13","subject_id":"5b758f1c8b13610001f8cd1c","study_id":"60edd13110225f80f9f3709b","session_id":"6196c1f1860a3164bf54ef77","condition":"full-information","relevant_dimensions":["wings","legs"],"bee_group":{"antennae":"X","wings":"1","pattern":"X","legs":"M"},"bonus":0.5000000000000012},{"rt":1025.8999999761581,"stimulus":"bees-with-color/bee-A1SM.svg","response":0,"trial_type":"image-button-response","trial_index":150,"time_elapsed":1459636,"internal_node_id":"0.0-6.0-0.14","subject_id":"5b758f1c8b13610001f8cd1c","study_id":"60edd13110225f80f9f3709b","session_id":"6196c1f1860a3164bf54ef77","condition":"full-information","relevant_dimensions":["wings","legs"],"bee_group":{"antennae":"X","wings":"1","pattern":"X","legs":"M"},"bonus":0.5000000000000012},{"rt":1869.2000000476837,"stimulus":"bees-with-color/bee-B1SM.svg","response":0,"trial_type":"image-button-response","trial_index":151,"time_elapsed":1461509,"internal_node_id":"0.0-6.0-0.15","subject_id":"5b758f1c8b13610001f8cd1c","study_id":"60edd13110225f80f9f3709b","session_id":"6196c1f1860a3164bf54ef77","condition":"full-information","relevant_dimensions":["wings","legs"],"bee_group":{"antennae":"X","wings":"1","pattern":"X","legs":"M"},"bonus":0.5000000000000012},{"rt":2613.600000023842,"stimulus":"bees-with-color/bee-A2DM.svg","response":1,"trial_type":"image-button-response","trial_index":152,"time_elapsed":1464126,"internal_node_id":"0.0-6.0-0.16","subject_id":"5b758f1c8b13610001f8cd1c","study_id":"60edd13110225f80f9f3709b","session_id":"6196c1f1860a3164bf54ef77","condition":"full-information","relevant_dimensions":["wings","legs"],"bee_group":{"antennae":"X","wings":"1","pattern":"X","legs":"M"},"bonus":0.5000000000000012},{"rt":1844.800000011921,"stimulus":"bees-with-color/bee-B1SF.svg","response":0,"trial_type":"image-button-response","trial_index":153,"time_elapsed":1465975,"internal_node_id":"0.0-6.0-0.17","subject_id":"5b758f1c8b13610001f8cd1c","study_id":"60edd13110225f80f9f3709b","session_id":"6196c1f1860a3164bf54ef77","condition":"full-information","relevant_dimensions":["wings","legs"],"bee_group":{"antennae":"X","wings":"1","pattern":"X","legs":"M"},"bonus":0.5000000000000012},{"rt":928.1999999880791,"stimulus":"bees-with-color/bee-A1SM.svg","response":0,"trial_type":"image-button-response","trial_index":154,"time_elapsed":1466906,"internal_node_id":"0.0-6.0-0.18","subject_id":"5b758f1c8b13610001f8cd1c","study_id":"60edd13110225f80f9f3709b","session_id":"6196c1f1860a3164bf54ef77","condition":"full-information","relevant_dimensions":["wings","legs"],"bee_group":{"antennae":"X","wings":"1","pattern":"X","legs":"M"},"bonus":0.5000000000000012},{"rt":1125,"stimulus":"bees-with-color/bee-B1DM.svg","response":0,"trial_type":"image-button-response","trial_index":155,"time_elapsed":1468035,"internal_node_id":"0.0-6.0-0.19","subject_id":"5b758f1c8b13610001f8cd1c","study_id":"60edd13110225f80f9f3709b","session_id":"6196c1f1860a3164bf54ef77","condition":"full-information","relevant_dimensions":["wings","legs"],"bee_group":{"antennae":"X","wings":"1","pattern":"X","legs":"M"},"bonus":0.5000000000000012},{"rt":1435.300000011921,"stimulus":"bees-with-color/bee-B2SF.svg","response":1,"trial_type":"image-button-response","trial_index":156,"time_elapsed":1469473,"internal_node_id":"0.0-6.0-0.20","subject_id":"5b758f1c8b13610001f8cd1c","study_id":"60edd13110225f80f9f3709b","session_id":"6196c1f1860a3164bf54ef77","condition":"full-information","relevant_dimensions":["wings","legs"],"bee_group":{"antennae":"X","wings":"1","pattern":"X","legs":"M"},"bonus":0.5000000000000012},{"rt":2464.699999988079,"stimulus":"bees-with-color/bee-B2DF.svg","response":1,"trial_type":"image-button-response","trial_index":157,"time_elapsed":1471941,"internal_node_id":"0.0-6.0-0.21","subject_id":"5b758f1c8b13610001f8cd1c","study_id":"60edd13110225f80f9f3709b","session_id":"6196c1f1860a3164bf54ef77","condition":"full-information","relevant_dimensions":["wings","legs"],"bee_group":{"antenn