[{"success":true,"trial_type":"fullscreen","trial_index":0,"time_elapsed":8538,"internal_node_id":"0.0-0.0","subject_id":"611e00dc377e4fb7a27725e8","study_id":"6197b3f67c2b5cd3b6d9596a","session_id":"6197b9ee61101f953c133691","condition":"contingent","relevant_dimensions":["antennae","legs"],"bee_group":{"antennae":"B","wings":"X","pattern":"X","legs":"M"},"bonus":0.44000000000000083},{"success":true,"timeout":false,"failed_images":[],"failed_audio":[],"failed_video":[],"trial_type":"preload","trial_index":1,"time_elapsed":13622,"internal_node_id":"0.0-1.0","subject_id":"611e00dc377e4fb7a27725e8","study_id":"6197b3f67c2b5cd3b6d9596a","session_id":"6197b9ee61101f953c133691","condition":"contingent","relevant_dimensions":["antennae","legs"],"bee_group":{"antennae":"B","wings":"X","pattern":"X","legs":"M"},"bonus":0.44000000000000083},{"rt":7072.199999999255,"stimulus":"Welcome! Press any key to begin.","response":" ","trial_type":"html-keyboard-response","trial_index":2,"time_elapsed":20697,"internal_node_id":"0.0-2.0","subject_id":"611e00dc377e4fb7a27725e8","study_id":"6197b3f67c2b5cd3b6d9596a","session_id":"6197b9ee61101f953c133691","condition":"contingent","relevant_dimensions":["antennae","legs"],"bee_group":{"antennae":"B","wings":"X","pattern":"X","legs":"M"},"bonus":0.44000000000000083},{"view_history":[{"page_index":0,"viewing_time":5976.5},{"page_index":1,"viewing_time":20521.199999999255},{"page_index":2,"viewing_time":14060.699999999255},{"page_index":3,"viewing_time":21873.300000000745},{"page_index":4,"viewing_time":7619.300000000745},{"page_index":5,"viewing_time":9778},{"page_index":6,"viewing_time":11023.10000000149},{"page_index":7,"viewing_time":41387.699999999255},{"page_index":8,"viewing_time":10924},{"page_index":9,"viewing_time":20309.199999999255},{"page_index":10,"viewing_time":14487.300000000745},{"page_index":11,"viewing_time":8353.699999999255},{"page_index":12,"viewing_time":11199.10000000149},{"page_index":13,"viewing_time":1838.5},{"page_index":14,"viewing_time":4257.699999999255}],"rt":203609.8999999985,"trial_type":"instructions","trial_index":3,"time_elapsed":224307,"internal_node_id":"0.0-3.0-0.0","subject_id":"611e00dc377e4fb7a27725e8","study_id":"6197b3f67c2b5cd3b6d9596a","session_id":"6197b9ee61101f953c133691","condition":"contingent","relevant_dimensions":["antennae","legs"],"bee_group":{"antennae":"B","wings":"X","pattern":"X","legs":"M"},"bonus":0.44000000000000083},{"rt":18555.900000002235,"response":{"Q0":["Two or six legs","Stripes or spots on body","Single or double wings","Antennae or no antennae"]},"question_order":[0],"trial_type":"survey-multi-select","trial_index":4,"time_elapsed":242870,"internal_node_id":"0.0-3.0-1.0","subject_id":"611e00dc377e4fb7a27725e8","study_id":"6197b3f67c2b5cd3b6d9596a","session_id":"6197b9ee61101f953c133691","condition":"contingent","relevant_dimensions":["antennae","legs"],"bee_group":{"antennae":"B","wings":"X","pattern":"X","legs":"M"},"correct":true,"bonus":0.44000000000000083},{"rt":46014.900000002235,"response":{"Q1":"No.","Q2":"Based on the four features of the bee.","Q3":"You do not learn if it was friendly or dangerous, and do not alter your bonus."},"question_order":[0,1,2],"trial_type":"survey-multi-choice","trial_index":5,"time_elapsed":288892,"internal_node_id":"0.0-3.0-2.0","subject_id":"611e00dc377e4fb7a27725e8","study_id":"6197b3f67c2b5cd3b6d9596a","session_id":"6197b9ee61101f953c133691","condition":"contingent","relevant_dimensions":["antennae","legs"],"bee_group":{"antennae":"B","wings":"X","pattern":"X","legs":"M"},"correct":true,"bonus":0.44000000000000083},{"rt":5645.699999999255,"stimulus":"<p>Congrats, you got everything right<br>When you're ready, click the button below to continue to the experiment.</p>","response":0,"trial_type":"html-button-response","trial_index":6,"time_elapsed":294543,"internal_node_id":"0.0-3.0-3.0","subject_id":"611e00dc377e4fb7a27725e8","study_id":"6197b3f67c2b5cd3b6d9596a","session_id":"6197b9ee61101f953c133691","condition":"contingent","relevant_dimensions":["antennae","legs"],"bee_group":{"antennae":"B","wings":"X","pattern":"X","legs":"M"},"bonus":0.44000000000000083},{"rt":2923.699999999255,"stimulus":"bees-with-color/bee-B1DF.svg","response":1,"trial_type":"image-button-response","trial_index":7,"time_elapsed":297471,"internal_node_id":"0.0-4.0-0.0","subject_id":"611e00dc377e4fb7a27725e8","study_id":"6197b3f67c2b5cd3b6d9596a","session_id":"6197b9ee61101f953c133691","condition":"contingent","relevant_dimensions":["antennae","legs"],"bee_group":{"antennae":"B","wings":"X","pattern":"X","legs":"M"},"action":"avoid","summary":"bad-avoid","bonus":0.44000000000000083},{"rt":9963.5,"stimulus":"\n                    <p><b>Action: <em>avoid</em></b></p>\n                    <p>This is the bee that you just saw.</p>\n                    <img src=\"bees-with-color/bee-B1DF.svg\" width=\"200\">\n                    <p><br>Your bonus pay is unchanged, and remains at $0.54.</p>\n            ","response":0,"trial_type":"html-button-response","trial_index":8,"time_elapsed":307439,"internal_node_id":"0.0-4.0-1.0","subject_id":"611e00dc377e4fb7a27725e8","study_id":"6197b3f67c2b5cd3b6d9596a","session_id":"6197b9ee61101f953c133691","condition":"contingent","relevant_dimensions":["antennae","legs"],"bee_group":{"antennae":"B","wings":"X","pattern":"X","legs":"M"},"bonus":0.44000000000000083},{"rt":2626.39999999851,"stimulus":"bees-with-color/bee-B1DM.svg","response":0,"trial_type":"image-button-response","trial_index":9,"time_elapsed":310068,"internal_node_id":"0.0-4.0-0.1","subject_id":"611e00dc377e4fb7a27725e8","study_id":"6197b3f67c2b5cd3b6d9596a","session_id":"6197b9ee61101f953c133691","condition":"contingent","relevant_dimensions":["antennae","legs"],"bee_group":{"antennae":"B","wings":"X","pattern":"X","legs":"M"},"action":"harvest","summary":"bad-harvest","bonus":0.44000000000000083},{"rt":9848.60000000149,"stimulus":"\n                    <p><b>Action: <em>harvest</em></b></p>\n                    <p>This is the bee that you just saw.</p>\n                    <img src=\"bees-with-color/bee-B1DM.svg\" width=\"200\">\n                    <p><span class=\"redText\">Bad choice, the bee was angry.</span><br><b>You have been stung!</b><br>Your pay has been decreased by $0.10. Your bonus pay is now $0.44.</p>\n            ","response":0,"trial_type":"html-button-response","trial_index":10,"time_elapsed":319920,"internal_node_id":"0.0-4.0-1.1","subject_id":"611e00dc377e4fb7a27725e8","study_id":"6197b3f67c2b5cd3b6d9596a","session_id":"6197b9ee61101f953c133691","condition":"contingent","relevant_dimensions":["antennae","legs"],"bee_group":{"antennae":"B","wings":"X","pattern":"X","legs":"M"},"bonus":0.44000000000000083},{"rt":3594.5,"stimulus":"bees-with-color/bee-A2DF.svg","response":0,"trial_type":"image-button-response","trial_index":11,"time_elapsed":323518,"internal_node_id":"0.0-4.0-0.2","subject_id":"611e00dc377e4fb7a27725e8","study_id":"6197b3f67c2b5cd3b6d9596a","session_id":"6197b9ee61101f953c133691","condition":"contingent","relevant_dimensions":["antennae","legs"],"bee_group":{"antennae":"B","wings":"X","pattern":"X","legs":"M"},"action":"harvest","summary":"good-harvest","bonus":0.44000000000000083},{"rt":33304.199999999255,"stimulus":"\n                    <p><b>Action: <em>harvest</em></b></p>\n                    <p>This is the bee that you just saw.</p>\n                    <img src=\"bees-with-color/bee-A2DF.svg\" width=\"200\">\n                    <p><span class=\"greenText\"><b>Successful harvest!</b></span><br>Your pay has increased by $0.02. Your bonus pay is now $0.46.</p>\n            ","response":0,"trial_type":"html-button-response","trial_index":12,"time_elapsed":356825,"internal_node_id":"0.0-4.0-1.2","subject_id":"611e00dc377e4fb7a27725e8","study_id":"6197b3f67c2b5cd3b6d9596a","session_id":"6197b9ee61101f953c133691","condition":"contingent","relevant_dimensions":["antennae","legs"],"bee_group":{"antennae":"B","wings":"X","pattern":"X","legs":"M"},"bonus":0.44000000000000083},{"rt":10460.400000002235,"stimulus":"bees-with-color/bee-A2DM.svg","response":0,"trial_type":"image-button-response","trial_index":13,"time_elapsed":367288,"internal_node_id":"0.0-4.0-0.3","subject_id":"611e00dc377e4fb7a27725e8","study_id":"6197b3f67c2b5cd3b6d9596a","session_id":"6197b9ee61101f953c133691","condition":"contingent","relevant_dimensions":["antennae","legs"],"bee_group":{"antennae":"B","wings":"X","pattern":"X","legs":"M"},"action":"harvest","summary":"good-harvest","bonus":0.44000000000000083},{"rt":22492.39999999851,"stimulus":"\n                    <p><b>Action: <em>harvest</em></b></p>\n                    <p>This is the bee that you just saw.</p>\n                    <img src=\"bees-with-color/bee-A2DM.svg\" width=\"200\">\n                    <p><span class=\"greenText\"><b>Successful harvest!</b></span><br>Your pay has increased by $0.02. Your bonus pay is now $0.48.</p>\n            ","response":0,"trial_type":"html-button-response","trial_index":14,"time_elapsed":389784,"internal_node_id":"0.0-4.0-1.3","subject_id":"611e00dc377e4fb7a27725e8","study_id":"6197b3f67c2b5cd3b6d9596a","session_id":"6197b9ee61101f953c133691","condition":"contingent","relevant_dimensions":["antennae","legs"],"bee_group":{"antennae":"B","wings":"X","pattern":"X","legs":"M"},"bonus":0.44000000000000083},{"rt":5468.699999999255,"stimulus":"bees-with-color/bee-B2SF.svg","response":1,"trial_type":"image-button-response","trial_index":15,"time_elapsed":395256,"internal_node_id":"0.0-4.0-0.4","subject_id":"611e00dc377e4fb7a27725e8","study_id":"6197b3f67c2b5cd3b6d9596a","session_id":"6197b9ee61101f953c133691","condition":"contingent","relevant_dimensions":["antennae","legs"],"bee_group":{"antennae":"B","wings":"X","pattern":"X","legs":"M"},"action":"avoid","summary":"bad-avoid","bonus":0.44000000000000083},{"rt":16410.20000000298,"stimulus":"\n                    <p><b>Action: <em>avoid</em></b></p>\n                    <p>This is the bee that you just saw.</p>\n                    <img src=\"bees-with-color/bee-B2SF.svg\" width=\"200\">\n                    <p><br>Your bonus pay is unchanged, and remains at $0.48.</p>\n            ","response":0,"trial_type":"html-button-response","trial_index":16,"time_elapsed":411669,"internal_node_id":"0.0-4.0-1.4","subject_id":"611e00dc377e4fb7a27725e8","study_id":"6197b3f67c2b5cd3b6d9596a","session_id":"6197b9ee61101f953c133691","condition":"contingent","relevant_dimensions":["antennae","legs"],"bee_group":{"antennae":"B","wings":"X","pattern":"X","legs":"M"},"bonus":0.44000000000000083},{"rt":1632.4000000022352,"stimulus":"bees-with-color/bee-A2SF.svg","response":0,"trial_type":"image-button-response","trial_index":17,"time_elapsed":413305,"internal_node_id":"0.0-4.0-0.5","subject_id":"611e00dc377e4fb7a27725e8","study_id":"6197b3f67c2b5cd3b6d9596a","session_id":"6197b9ee61101f953c133691","condition":"contingent","relevant_dimensions":["antennae","legs"],"bee_group":{"antennae":"B","wings":"X","pattern":"X","legs":"M"},"action":"harvest","summary":"good-harvest","bonus":0.44000000000000083},{"rt":24540.300000000745,"stimulus":"\n                    <p><b>Action: <em>harvest</em></b></p>\n                    <p>This is the bee that you just saw.</p>\n                    <img src=\"bees-with-color/bee-A2SF.svg\" width=\"200\">\n                    <p><span class=\"greenText\"><b>Successful harvest!</b></span><br>Your pay has increased by $0.02. Your bonus pay is now $0.50.</p>\n            ","response":0,"trial_type":"html-button-response","trial_index":18,"time_elapsed":437848,"internal_node_id":"0.0-4.0-1.5","subject_id":"611e00dc377e4fb7a27725e8","study_id":"6197b3f67c2b5cd3b6d9596a","session_id":"6197b9ee61101f953c133691","condition":"contingent","relevant_dimensions":["antennae","legs"],"bee_group":{"antennae":"B","wings":"X","pattern":"X","legs":"M"},"bonus":0.44000000000000083},{"rt":10524.39999999851,"stimulus":"bees-with-color/bee-B2DF.svg","response":1,"trial_type":"image-button-response","trial_index":19,"time_elapsed":448376,"internal_node_id":"0.0-4.0-0.6","subject_id":"611e00dc377e4fb7a27725e8","study_id":"6197b3f67c2b5cd3b6d9596a","session_id":"6197b9ee61101f953c133691","condition":"contingent","relevant_dimensions":["antennae","legs"],"bee_group":{"antennae":"B","wings":"X","pattern":"X","legs":"M"},"action":"avoid","summary":"bad-avoid","bonus":0.44000000000000083},{"rt":1803.2000000029802,"stimulus":"\n                    <p><b>Action: <em>avoid</em></b></p>\n                    <p>This is the bee that you just saw.</p>\n                    <img src=\"bees-with-color/bee-B2DF.svg\" width=\"200\">\n                    <p><br>Your bonus pay is unchanged, and remains at $0.50.</p>\n            ","response":0,"trial_type":"html-button-response","trial_index":20,"time_elapsed":450182,"internal_node_id":"0.0-4.0-1.6","subject_id":"611e00dc377e4fb7a27725e8","study_id":"6197b3f67c2b5cd3b6d9596a","session_id":"6197b9ee61101f953c133691","condition":"contingent","relevant_dimensions":["antennae","legs"],"bee_group":{"antennae":"B","wings":"X","pattern":"X","legs":"M"},"bonus":0.44000000000000083},{"rt":1414.4000000022352,"stimulus":"bees-with-color/bee-B2SM.svg","response":0,"trial_type":"image-button-response","trial_index":21,"time_elapsed":451600,"internal_node_id":"0.0-4.0-0.7","subject_id":"611e00dc377e4fb7a27725e8","study_id":"6197b3f67c2b5cd3b6d9596a","session_id":"6197b9ee61101f953c133691","condition":"contingent","relevant_dimensions":["antennae","legs"],"bee_group":{"antennae":"B","wings":"X","pattern":"X","legs":"M"},"action":"harvest","summary":"bad-harvest","bonus":0.44000000000000083},{"rt":10046.699999999255,"stimulus":"\n                    <p><b>Action: <em>harvest</em></b></p>\n                    <p>This is the bee that you just saw.</p>\n                    <img src=\"bees-with-color/bee-B2SM.svg\" width=\"200\">\n                    <p><span class=\"redText\">Bad choice, the bee was angry.</span><br><b>You have been stung!</b><br>Your pay has been decreased by $0.10. Your bonus pay is now $0.40.</p>\n            ","response":0,"trial_type":"html-button-response","trial_index":22,"time_elapsed":461650,"internal_node_id":"0.0-4.0-1.7","subject_id":"611e00dc377e4fb7a27725e8","study_id":"6197b3f67c2b5cd3b6d9596a","session_id":"6197b9ee61101f953c133691","condition":"contingent","relevant_dimensions":["antennae","legs"],"bee_group":{"antennae":"B","wings":"X","pattern":"X","legs":"M"},"bonus":0.44000000000000083},{"rt":1804.199999999255,"stimulus":"bees-with-color/bee-A1SM.svg","response":0,"trial_type":"image-button-response","trial_index":23,"time_elapsed":463457,"internal_node_id":"0.0-4.0-0.8","subject_id":"611e00dc377e4fb7a27725e8","study_id":"6197b3f67c2b5cd3b6d9596a","session_id":"6197b9ee61101f953c133691","condition":"contingent","relevant_dimensions":["antennae","legs"],"bee_group":{"antennae":"B","wings":"X","pattern":"X","legs":"M"},"action":"harvest","summary":"good-harvest","bonus":0.44000000000000083},{"rt":1399,"stimulus":"\n                    <p><b>Action: <em>harvest</em></b></p>\n                    <p>This is the bee that you just saw.</p>\n                    <img src=\"bees-with-color/bee-A1SM.svg\" width=\"200\">\n                    <p><span class=\"greenText\"><b>Successful harvest!</b></span><br>Your pay has increased by $0.02. Your bonus pay is now $0.42.</p>\n            ","response":0,"trial_type":"html-button-response","trial_index":24,"time_elapsed":464860,"internal_node_id":"0.0-4.0-1.8","subject_id":"611e00dc377e4fb7a27725e8","study_id":"6197b3f67c2b5cd3b6d9596a","session_id":"6197b9ee61101f953c133691","condition":"contingent","relevant_dimensions":["antennae","legs"],"bee_group":{"antennae":"B","wings":"X","pattern":"X","legs":"M"},"bonus":0.44000000000000083},{"rt":1269.0999999977648,"stimulus":"bees-with-color/bee-A1DM.svg","response":0,"trial_type":"image-button-response","trial_index":25,"time_elapsed":466132,"internal_node_id":"0.0-4.0-0.9","subject_id":"611e00dc377e4fb7a27725e8","study_id":"6197b3f67c2b5cd3b6d9596a","session_id":"6197b9ee61101f953c133691","condition":"contingent","relevant_dimensions":["antennae","legs"],"bee_group":{"antennae":"B","wings":"X","pattern":"X","legs":"M"},"action":"harvest","summary":"good-harvest","bonus":0.44000000000000083},{"rt":1096.3999999985099,"stimulus":"\n                    <p><b>Action: <em>harvest</em></b></p>\n                    <p>This is the bee that you just saw.</p>\n                    <img src=\"bees-with-color/bee-A1DM.svg\" width=\"200\">\n                    <p><span class=\"greenText\"><b>Successful harvest!</b></span><br>Your pay has increased by $0.02. Your bonus pay is now $0.44.</p>\n            ","response":0,"trial_type":"html-button-response","trial_index":26,"time_elapsed":467231,"internal_node_id":"0.0-4.0-1.9","subject_id":"611e00dc377e4fb7a27725e8","study_id":"6197b3f67c2b5cd3b6d9596a","session_id":"6197b9ee61101f953c133691","condition":"contingent","relevant_dimensions":["antennae","legs"],"bee_group":{"antennae":"B","wings":"X","pattern":"X","legs":"M"},"bonus":0.44000000000000083},{"rt":2027.199999999255,"stimulus":"bees-with-color/bee-B1SM.svg","response":0,"trial_type":"image-button-response","trial_index":27,"time_elapsed":469262,"internal_node_id":"0.0-4.0-0.10","subject_id":"611e00dc377e4fb7a27725e8","study_id":"6197b3f67c2b5cd3b6d9596a","session_id":"6197b9ee61101f953c133691","condition":"contingent","relevant_dimensions":["antennae","legs"],"bee_group":{"antennae":"B","wings":"X","pattern":"X","legs":"M"},"action":"harvest","summary":"bad-harvest","bonus":0.44000000000000083},{"rt":1206.0999999977648,"stimulus":"\n                    <p><b>Action: <em>harvest</em></b></p>\n                    <p>This is the bee that you just saw.</p>\n                    <img src=\"bees-with-color/bee-B1SM.svg\" width=\"200\">\n                    <p><span class=\"redText\">Bad choice, the bee was angry.</span><br><b>You have been stung!</b><br>Your pay has been decreased by $0.10. Your bonus pay is now $0.34.</p>\n            ","response":0,"trial_type":"html-button-response","trial_index":28,"time_elapsed":470471,"internal_node_id":"0.0-4.0-1.10","subject_id":"611e00dc377e4fb7a27725e8","study_id":"6197b3f67c2b5cd3b6d9596a","session_id":"6197b9ee61101f953c133691","condition":"contingent","relevant_dimensions":["antennae","legs"],"bee_group":{"antennae":"B","wings":"X","pattern":"X","legs":"M"},"bonus":0.44000000000000083},{"rt":1909.300000000745,"stimulus":"bees-with-color/bee-A1SF.svg","response":0,"trial_type":"image-button-response","trial_index":29,"time_elapsed":472383,"internal_node_id":"0.0-4.0-0.11","subject_id":"611e00dc377e4fb7a27725e8","study_id":"6197b3f67c2b5cd3b6d9596a","session_id":"6197b9ee61101f953c133691","condition":"contingent","relevant_dimensions":["antennae","legs"],"bee_group":{"antennae":"B","wings":"X","pattern":"X","legs":"M"},"action":"harvest","summary":"good-harvest","bonus":0.44000000000000083},{"rt":987.8999999985099,"stimulus":"\n                    <p><b>Action: <em>harvest</em></b></p>\n                    <p>This is the bee that you just saw.</p>\n                    <img src=\"bees-with-color/bee-A1SF.svg\" width=\"200\">\n                    <p><span class=\"greenText\"><b>Successful harvest!</b></span><br>Your pay has increased by $0.02. Your bonus pay is now $0.36.</p>\n            ","response":0,"trial_type":"html-button-response","trial_index":30,"time_elapsed":473373,"internal_node_id":"0.0-4.0-1.11","subject_id":"611e00dc377e4fb7a27725e8","study_id":"6197b3f67c2b5cd3b6d9596a","session_id":"6197b9ee61101f953c133691","condition":"contingent","relevant_dimensions":["antennae","legs"],"bee_group":{"antennae":"B","wings":"X","pattern":"X","legs":"M"},"bonus":0.44000000000000083},{"rt":3761.60000000149,"stimulus":"bees-with-color/bee-B1SF.svg","response":0,"trial_type":"image-button-response","trial_index":31,"time_elapsed":477137,"internal_node_id":"0.0-4.0-0.12","subject_id":"611e00dc377e4fb7a27725e8","study_id":"6197b3f67c2b5cd3b6d9596a","session_id":"6197b9ee61101f953c133691","condition":"contingent","relevant_dimensions":["antennae","legs"],"bee_group":{"antennae":"B","wings":"X","pattern":"X","legs":"M"},"action":"harvest","summary":"good-harvest","bonus":0.44000000000000083},{"rt":981.8000000007451,"stimulus":"\n                    <p><b>Action: <em>harvest</em></b></p>\n                    <p>This is the bee that you just saw.</p>\n                    <img src=\"bees-with-color/bee-B1SF.svg\" width=\"200\">\n                    <p><span class=\"greenText\"><b>Successful harvest!</b></span><br>Your pay has increased by $0.02. Your bonus pay is now $0.38.</p>\n            ","response":0,"trial_type":"html-button-response","trial_index":32,"time_elapsed":478121,"internal_node_id":"0.0-4.0-1.12","subject_id":"611e00dc377e4fb7a27725e8","study_id":"6197b3f67c2b5cd3b6d9596a","session_id":"6197b9ee61101f953c133691","condition":"contingent","relevant_dimensions":["antennae","legs"],"bee_group":{"antennae":"B","wings":"X","pattern":"X","legs":"M"},"bonus":0.44000000000000083},{"rt":1532.199999999255,"stimulus":"bees-with-color/bee-B2DM.svg","response":0,"trial_type":"image-button-response","trial_index":33,"time_elapsed":479656,"internal_node_id":"0.0-4.0-0.13","subject_id":"611e00dc377e4fb7a27725e8","study_id":"6197b3f67c2b5cd3b6d9596a","session_id":"6197b9ee61101f953c133691","condition":"contingent","relevant_dimensions":["antennae","legs"],"bee_group":{"antennae":"B","wings":"X","pattern":"X","legs":"M"},"action":"harvest","summary":"bad-harvest","bonus":0.44000000000000083},{"rt":1275,"stimulus":"\n                    <p><b>Action: <em>harvest</em></b></p>\n                    <p>This is the bee that you just saw.</p>\n                    <img src=\"bees-with-color/bee-B2DM.svg\" width=\"200\">\n                    <p><span class=\"redText\">Bad choice, the bee was angry.</span><br><b>You have been stung!</b><br>Your pay has been decreased by $0.10. Your bonus pay is now $0.28.</p>\n            ","response":0,"trial_type":"html-button-response","trial_index":34,"time_elapsed":480933,"internal_node_id":"0.0-4.0-1.13","subject_id":"611e00dc377e4fb7a27725e8","study_id":"6197b3f67c2b5cd3b6d9596a","session_id":"6197b9ee61101f953c133691","condition":"contingent","relevant_dimensions":["antennae","legs"],"bee_group":{"antennae":"B","wings":"X","pattern":"X","legs":"M"},"bonus":0.44000000000000083},{"rt":1353.5999999977648,"stimulus":"bees-with-color/bee-A1DF.svg","response":0,"trial_type":"image-button-response","trial_index":35,"time_elapsed":482288,"internal_node_id":"0.0-4.0-0.14","subject_id":"611e00dc377e4fb7a27725e8","study_id":"6197b3f67c2b5cd3b6d9596a","session_id":"6197b9ee61101f953c133691","condition":"contingent","relevant_dimensions":["antennae","legs"],"bee_group":{"antennae":"B","wings":"X","pattern":"X","legs":"M"},"action":"harvest","summary":"good-harvest","bonus":0.44000000000000083},{"rt":809.6999999992549,"stimulus":"\n                    <p><b>Action: <em>harvest</em></b></p>\n                    <p>This is the bee that you just saw.</p>\n                    <img src=\"bees-with-color/bee-A1DF.svg\" width=\"200\">\n                    <p><span class=\"greenText\"><b>Successful harvest!</b></span><br>Your pay has increased by $0.02. Your bonus pay is now $0.30.</p>\n            ","response":0,"trial_type":"html-button-response","trial_index":36,"time_elapsed":483101,"internal_node_id":"0.0-4.0-1.14","subject_id":"611e00dc377e4fb7a27725e8","study_id":"6197b3f67c2b5cd3b6d9596a","session_id":"6197b9ee61101f953c133691","condition":"contingent","relevant_dimensions":["antennae","legs"],"bee_group":{"antennae":"B","wings":"X","pattern":"X","legs":"M"},"bonus":0.44000000000000083},{"rt":1460,"stimulus":"bees-with-color/bee-A2SM.svg","response":0,"trial_type":"image-button-response","trial_index":37,"time_elapsed":484563,"internal_node_id":"0.0-4.0-0.15","subject_id":"611e00dc377e4fb7a27725e8","study_id":"6197b3f67c2b5cd3b6d9596a","session_id":"6197b9ee61101f953c133691","condition":"contingent","relevant_dimensions":["antennae","legs"],"bee_group":{"antennae":"B","wings":"X","pattern":"X","legs":"M"},"action":"harvest","summary":"good-harvest","bonus":0.44000000000000083},{"rt":777.5,"stimulus":"\n                    <p><b>Action: <em>harvest</em></b></p>\n                    <p>This is the bee that you just saw.</p>\n                    <img src=\"bees-with-color/bee-A2SM.svg\" width=\"200\">\n                    <p><span class=\"greenText\"><b>Successful harvest!</b></span><br>Your pay has increased by $0.02. Your bonus pay is now $0.32.</p>\n            ","response":0,"trial_type":"html-button-response","trial_index":38,"time_elapsed":485343,"internal_node_id":"0.0-4.0-1.15","subject_id":"611e00dc377e4fb7a27725e8","study_id":"6197b3f67c2b5cd3b6d9596a","session_id":"6197b9ee61101f953c133691","condition":"contingent","relevant_dimensions":["antennae","legs"],"bee_group":{"antennae":"B","wings":"X","pattern":"X","legs":"M"},"bonus":0.44000000000000083},{"rt":1287.8999999985099,"stimulus":"bees-with-color/bee-B1DF.svg","response":0,"trial_type":"image-button-response","trial_index":39,"time_elapsed":486633,"internal_node_id":"0.0-4.0-0.16","subject_id":"611e00dc377e4fb7a27725e8","study_id":"6197b3f67c2b5cd3b6d9596a","session_id":"6197b9ee61101f953c133691","condition":"contingent","relevant_dimensions":["antennae","legs"],"bee_group":{"antennae":"B","wings":"X","pattern":"X","legs":"M"},"action":"harvest","summary":"good-harvest","bonus":0.44000000000000083},{"rt":696.1999999992549,"stimulus":"\n                    <p><b>Action: <em>harvest</em></b></p>\n                    <p>This is the bee that you just saw.</p>\n                    <img src=\"bees-with-color/bee-B1DF.svg\" width=\"200\">\n                    <p><span class=\"greenText\"><b>Successful harvest!</b></span><br>Your pay has increased by $0.02. Your bonus pay is now $0.34.</p>\n            ","response":0,"trial_type":"html-button-response","trial_index":40,"time_elapsed":487331,"internal_node_id":"0.0-4.0-1.16","subject_id":"611e00dc377e4fb7a27725e8","study_id":"6197b3f67c2b5cd3b6d9596a","session_id":"6197b9ee61101f953c133691","condition":"contingent","relevant_dimensions":["antennae","legs"],"bee_group":{"antennae":"B","wings":"X","pattern":"X","legs":"M"},"bonus":0.44000000000000083},{"rt":1395.800000000745,"stimulus":"bees-with-color/bee-A2DF.svg","response":0,"trial_type":"image-button-response","trial_index":41,"time_elapsed":488729,"internal_node_id":"0.0-4.0-0.17","subject_id":"611e00dc377e4fb7a27725e8","study_id":"6197b3f67c2b5cd3b6d9596a","session_id":"6197b9ee61101f953c133691","condition":"contingent","relevant_dimensions":["antennae","legs"],"bee_group":{"antennae":"B","wings":"X","pattern":"X","legs":"M"},"action":"harvest","summary":"good-harvest","bonus":0.44000000000000083},{"rt":869.4000000022352,"stimulus":"\n                    <p><b>Action: <em>harvest</em></b></p>\n                    <p>This is the bee that you just saw.</p>\n                    <img src=\"bees-with-color/bee-A2DF.svg\" width=\"200\">\n                    <p><span class=\"greenText\"><b>Successful harvest!</b></span><br>Your pay has increased by $0.02. Your bonus pay is now $0.36.</p>\n            ","response":0,"trial_type":"html-button-response","trial_index":42,"time_elapsed":489600,"internal_node_id":"0.0-4.0-1.17","subject_id":"611e00dc377e4fb7a27725e8","study_id":"6197b3f67c2b5cd3b6d9596a","session_id":"6197b9ee61101f953c133691","condition":"contingent","relevant_dimensions":["antennae","legs"],"bee_group":{"antennae":"B","wings":"X","pattern":"X","legs":"M"},"bonus":0.44000000000000083},{"rt":1359.7999999970198,"stimulus":"bees-with-color/bee-B2SF.svg","response":0,"trial_type":"image-button-response","trial_index":43,"time_elapsed":490962,"internal_node_id":"0.0-4.0-0.18","subject_id":"611e00dc377e4fb7a27725e8","study_id":"6197b3f67c2b5cd3b6d9596a","session_id":"6197b9ee61101f953c133691","condition":"contingent","relevant_dimensions":["antennae","legs"],"bee_group":{"antennae":"B","wings":"X","pattern":"X","legs":"M"},"action":"harvest","summary":"good-harvest","bonus":0.44000000000000083},{"rt":801.5999999977648,"stimulus":"\n                    <p><b>Action: <em>harvest</em></b></p>\n                    <p>This is the bee that you just saw.</p>\n                    <img src=\"bees-with-color/bee-B2SF.svg\" width=\"200\">\n                    <p><span class=\"greenText\"><b>Successful harvest!</b></span><br>Your pay has increased by $0.02. Your bonus pay is now $0.38.</p>\n            ","response":0,"trial_type":"html-button-response","trial_index":44,"time_elapsed":491767,"internal_node_id":"0.0-4.0-1.18","subject_id":"611e00dc377e4fb7a27725e8","study_id":"6197b3f67c2b5cd3b6d9596a","session_id":"6197b9ee61101f953c133691","condition":"contingent","relevant_dimensions":["antennae","legs"],"bee_group":{"antennae":"B","wings":"X","pattern":"X","legs":"M"},"bonus":0.44000000000000083},{"rt":1088.9000000022352,"stimulus":"bees-with-color/bee-A1DF.svg","response":0,"trial_type":"image-button-response","trial_index":45,"time_elapsed":492858,"internal_node_id":"0.0-4.0-0.19","subject_id":"611e00dc377e4fb7a27725e8","study_id":"6197b3f67c2b5cd3b6d9596a","session_id":"6197b9ee61101f953c133691","condition":"contingent","relevant_dimensions":["antennae","legs"],"bee_group":{"antennae":"B","wings":"X","pattern":"X","legs":"M"},"action":"harvest","summary":"good-harvest","bonus":0.44000000000000083},{"rt":729.3000000007451,"stimulus":"\n                    <p><b>Action: <em>harvest</em></b></p>\n                    <p>This is the bee that you just saw.</p>\n                    <img src=\"bees-with-color/bee-A1DF.svg\" width=\"200\">\n                    <p><span class=\"greenText\"><b>Successful harvest!</b></span><br>Your pay has increased by $0.02. Your bonus pay is now $0.40.</p>\n            ","response":0,"trial_type":"html-button-response","trial_index":46,"time_elapsed":493590,"internal_node_id":"0.0-4.0-1.19","subject_id":"611e00dc377e4fb7a27725e8","study_id":"6197b3f67c2b5cd3b6d9596a","session_id":"6197b9ee61101f953c133691","condition":"contingent","relevant_dimensions":["antennae","legs"],"bee_group":{"antennae":"B","wings":"X","pattern":"X","legs":"M"},"bonus":0.44000000000000083},{"rt":1514.8999999985099,"stimulus":"bees-with-color/bee-B1SM.svg","response":0,"trial_type":"image-button-response","trial_index":47,"time_elapsed":495107,"internal_node_id":"0.0-4.0-0.20","subject_id":"611e00dc377e4fb7a27725e8","study_id":"6197b3f67c2b5cd3b6d9596a","session_id":"6197b9ee61101f953c133691","condition":"contingent","relevant_dimensions":["antennae","legs"],"bee_group":{"antennae":"B","wings":"X","pattern":"X","legs":"M"},"action":"harvest","summary":"bad-harvest","bonus":0.44000000000000083},{"rt":1018.5,"stimulus":"\n                    <p><b>Action: <em>harvest</em></b></p>\n                    <p>This is the bee that you just saw.</p>\n                    <img src=\"bees-with-color/bee-B1SM.svg\" width=\"200\">\n                    <p><span class=\"redText\">Bad choice, the bee was angry.</span><br><b>You have been stung!</b><br>Your pay has been decreased by $0.10. Your bonus pay is now $0.30.</p>\n            ","response":0,"trial_type":"html-button-response","trial_index":48,"time_elapsed":496128,"internal_node_id":"0.0-4.0-1.20","subject_id":"611e00dc377e4fb7a27725e8","study_id":"6197b3f67c2b5cd3b6d9596a","session_id":"6197b9ee61101f953c133691","condition":"contingent","relevant_dimensions":["antennae","legs"],"bee_group":{"antennae":"B","wings":"X","pattern":"X","legs":"M"},"bonus":0.44000000000000083},{"rt":5817,"stimulus":"bees-with-color/bee-A1SF.svg","response":0,"trial_type":"image-button-response","trial_index":49,"time_elapsed":501948,"internal_node_id":"0.0-4.0-0.21","subject_id":"611e00dc377e4fb7a27725e8","study_id":"6197b3f67c2b5cd3b6d9596a","session_id":"6197b9ee61101f953c133691","condition":"contingent","relevant_dimensions":["antennae","legs"],"bee_group":{"antennae":"B","wings":"X","pattern":"X","legs":"M"},"action":"harvest","summary":"good-harvest","bonus":0.44000000000000083},{"rt":765.3999999985099,"stimulus":"\n                    <p><b>Action: <em>harvest</em></b></p>\n                    <p>This is the bee that you just saw.</p>\n                    <img src=\"bees-with-color/bee-A1SF.svg\" width=\"200\">\n                    <p><span class=\"greenText\"><b>Successful harvest!</b></span><br>Your pay has increased by $0.02. Your bonus pay is now $0.32.</p>\n            ","response":0,"trial_type":"html-button-response","trial_index":50,"time_elapsed":502716,"internal_node_id":"0.0-4.0-1.21","subject_id":"611e00dc377e4fb7a27725e8","study_id":"6197b3f67c2b5cd3b6d9596a","session_id":"6197b9ee61101f953c133691","condition":"contingent","relevant_dimensions":["antennae","legs"],"bee_group":{"antennae":"B","wings":"X","pattern":"X","legs":"M"},"bonus":0.44000000000000083},{"rt":1946.5,"stimulus":"bees-with-color/bee-A1SM.svg","response":1,"trial_type":"image-button-response","trial_index":51,"time_elapsed":504666,"internal_node_id":"0.0-4.0-0.22","subject_id":"611e00dc377e4fb7a27725e8","study_id":"6197b3f67c2b5cd3b6d9596a","session_id":"6197b9ee61101f953c133691","condition":"contingent","relevant_dimensions":["antennae","legs"],"bee_group":{"antennae":"B","wings":"X","pattern":"X","legs":"M"},"action":"avoid","summary":"bad-avoid","bonus":0.44000000000000083},{"rt":1632,"stimulus":"\n                    <p><b>Action: <em>avoid</em></b></p>\n                    <p>This is the bee that you just saw.</p>\n                    <img src=\"bees-with-color/bee-A1SM.svg\" width=\"200\">\n                    <p><br>Your bonus pay is unchanged, and remains at $0.32.</p>\n            ","response":0,"trial_type":"html-button-response","trial_index":52,"time_elapsed":506300,"internal_node_id":"0.0-4.0-1.22","subject_id":"611e00dc377e4fb7a27725e8","study_id":"6197b3f67c2b5cd3b6d9596a","session_id":"6197b9ee61101f953c133691","condition":"contingent","relevant_dimensions":["antennae","legs"],"bee_group":{"antennae":"B","wings":"X","pattern":"X","legs":"M"},"bonus":0.44000000000000083},{"rt":1303,"stimulus":"bees-with-color/bee-B2SM.svg","response":0,"trial_type":"image-button-response","trial_index":53,"time_elapsed":507606,"internal_node_id":"0.0-4.0-0.23","subject_id":"611e00dc377e4fb7a27725e8","study_id":"6197b3f67c2b5cd3b6d9596a","session_id":"6197b9ee61101f953c133691","condition":"contingent","relevant_dimensions":["antennae","legs"],"bee_group":{"antennae":"B","wings":"X","pattern":"X","legs":"M"},"action":"harvest","summary":"bad-harvest","bonus":0.44000000000000083},{"rt":1959.5999999977648,"stimulus":"\n                    <p><b>Action: <em>harvest</em></b></p>\n                    <p>This is the bee that you just saw.</p>\n                    <img src=\"bees-with-color/bee-B2SM.svg\" width=\"200\">\n                    <p><span class=\"redText\">Bad choice, the bee was angry.</span><br><b>You have been stung!</b><br>Your pay has been decreased by $0.10. Your bonus pay is now $0.22.</p>\n            ","response":0,"trial_type":"html-button-response","trial_index":54,"time_elapsed":509568,"internal_node_id":"0.0-4.0-1.23","subject_id":"611e00dc377e4fb7a27725e8","study_id":"6197b3f67c2b5cd3b6d9596a","session_id":"6197b9ee61101f953c133691","condition":"contingent","relevant_dimensions":["antennae","legs"],"bee_group":{"antennae":"B","wings":"X","pattern":"X","legs":"M"},"bonus":0.44000000000000083},{"rt":4465.39999999851,"stimulus":"bees-with-color/bee-B2DM.svg","response":0,"trial_type":"image-button-response","trial_index":55,"time_elapsed":514036,"internal_node_id":"0.0-4.0-0.24","subject_id":"611e00dc377e4fb7a27725e8","study_id":"6197b3f67c2b5cd3b6d9596a","session_id":"6197b9ee61101f953c133691","condition":"contingent","relevant_dimensions":["antennae","legs"],"bee_group":{"antennae":"B","wings":"X","pattern":"X","legs":"M"},"action":"harvest","summary":"bad-harvest","bonus":0.44000000000000083},{"rt":933.1000000014901,"stimulus":"\n                    <p><b>Action: <em>harvest</em></b></p>\n                    <p>This is the bee that you just saw.</p>\n                    <img src=\"bees-with-color/bee-B2DM.svg\" width=\"200\">\n                    <p><span class=\"redText\">Bad choice, the bee was angry.</span><br><b>You have been stung!</b><br>Your pay has been decreased by $0.10. Your bonus pay is now $0.12.</p>\n            ","response":0,"trial_type":"html-button-response","trial_index":56,"time_elapsed":514972,"internal_node_id":"0.0-4.0-1.24","subject_id":"611e00dc377e4fb7a27725e8","study_id":"6197b3f67c2b5cd3b6d9596a","session_id":"6197b9ee61101f953c133691","condition":"contingent","relevant_dimensions":["antennae","legs"],"bee_group":{"antennae":"B","wings":"X","pattern":"X","legs":"M"},"bonus":0.44000000000000083},{"rt":5812.800000000745,"stimulus":"bees-with-color/bee-A1DM.svg","response":0,"trial_type":"image-button-response","trial_index":57,"time_elapsed":520788,"internal_node_id":"0.0-4.0-0.25","subject_id":"611e00dc377e4fb7a27725e8","study_id":"6197b3f67c2b5cd3b6d9596a","session_id":"6197b9ee61101f953c133691","condition":"contingent","relevant_dimensions":["antennae","legs"],"bee_group":{"antennae":"B","wings":"X","pattern":"X","legs":"M"},"action":"harvest","summary":"good-harvest","bonus":0.44000000000000083},{"rt":1343.3999999985099,"stimulus":"\n                    <p><b>Action: <em>harvest</em></b></p>\n                    <p>This is the bee that you just saw.</p>\n                    <img src=\"bees-with-color/bee-A1DM.svg\" width=\"200\">\n                    <p><span class=\"greenText\"><b>Successful harvest!</b></span><br>Your pay has increased by $0.02. Your bonus pay is now $0.14.</p>\n            ","response":0,"trial_type":"html-button-response","trial_index":58,"time_elapsed":522134,"internal_node_id":"0.0-4.0-1.25","subject_id":"611e00dc377e4fb7a27725e8","study_id":"6197b3f67c2b5cd3b6d9596a","session_id":"6197b9ee61101f953c133691","condition":"contingent","relevant_dimensions":["antennae","legs"],"bee_group":{"antennae":"B","wings":"X","pattern":"X","legs":"M"},"bonus":0.44000000000000083},{"rt":964.2000000029802,"stimulus":"bees-with-color/bee-A2SF.svg","response":0,"trial_type":"image-button-response","trial_index":59,"time_elapsed":523102,"internal_node_id":"0.0-4.0-0.26","subject_id":"611e00dc377e4fb7a27725e8","study_id":"6197b3f67c2b5cd3b6d9596a","session_id":"6197b9ee61101f953c133691","condition":"contingent","relevant_dimensions":["antennae","legs"],"bee_group":{"antennae":"B","wings":"X","pattern":"X","legs":"M"},"action":"harvest","summary":"good-harvest","bonus":0.44000000000000083},{"rt":1580.699999999255,"stimulus":"\n                    <p><b>Action: <em>harvest</em></b></p>\n                    <p>This is the bee that you just saw.</p>\n                    <img src=\"bees-with-color/bee-A2SF.svg\" width=\"200\">\n                    <p><span class=\"greenText\"><b>Successful harvest!</b></span><br>Your pay has increased by $0.02. Your bonus pay is now $0.16.</p>\n            ","response":0,"trial_type":"html-button-response","trial_index":60,"time_elapsed":524685,"internal_node_id":"0.0-4.0-1.26","subject_id":"611e00dc377e4fb7a27725e8","study_id":"6197b3f67c2b5cd3b6d9596a","session_id":"6197b9ee61101f953c133691","condition":"contingent","relevant_dimensions":["antennae","legs"],"bee_group":{"antennae":"B","wings":"X","pattern":"X","legs":"M"},"bonus":0.44000000000000083},{"rt":6465.5,"stimulus":"bees-with-color/bee-A2DM.svg","response":0,"trial_type":"image-button-response","trial_index":61,"time_elapsed":531153,"internal_node_id":"0.0-4.0-0.27","subject_id":"611e00dc377e4fb7a27725e8","study_id":"6197b3f67c2b5cd3b6d9596a","session_id":"6197b9ee61101f953c133691","condition":"contingent","relevant_dimensions":["antennae","legs"],"bee_group":{"antennae":"B","wings":"X","pattern":"X","legs":"M"},"action":"harvest","summary":"good-harvest","bonus":0.44000000000000083},{"rt":924.8999999985099,"stimulus":"\n                    <p><b>Action: <em>harvest</em></b></p>\n                    <p>This is the bee that you just saw.</p>\n                    <img src=\"bees-with-color/bee-A2DM.svg\" width=\"200\">\n                    <p><span class=\"greenText\"><b>Successful harvest!</b></span><br>Your pay has increased by $0.02. Your bonus pay is now $0.18.</p>\n            ","response":0,"trial_type":"html-button-response","trial_index":62,"time_elapsed":532081,"internal_node_id":"0.0-4.0-1.27","subject_id":"611e00dc377e4fb7a27725e8","study_id":"6197b3f67c2b5cd3b6d9596a","session_id":"6197b9ee61101f953c133691","condition":"contingent","relevant_dimensions":["antennae","legs"],"bee_group":{"antennae":"B","wings":"X","pattern":"X","legs":"M"},"bonus":0.44000000000000083},{"rt":9864.199999999255,"stimulus":"bees-with-color/bee-B2DF.svg","response":0,"trial_type":"image-button-response","trial_index":63,"time_elapsed":541949,"internal_node_id":"0.0-4.0-0.28","subject_id":"611e00dc377e4fb7a27725e8","study_id":"6197b3f67c2b5cd3b6d9596a","session_id":"6197b9ee61101f953c133691","condition":"contingent","relevant_dimensions":["antennae","legs"],"bee_group":{"antennae":"B","wings":"X","pattern":"X","legs":"M"},"action":"harvest","summary":"good-harvest","bonus":0.44000000000000083},{"rt":21310.39999999851,"stimulus":"\n                    <p><b>Action: <em>harvest</em></b></p>\n                    <p>This is the bee that you just saw.</p>\n                    <img src=\"bees-with-color/bee-B2DF.svg\" width=\"200\">\n                    <p><span class=\"greenText\"><b>Successful harvest!</b></span><br>Your pay has increased by $0.02. Your bonus pay is now $0.20.</p>\n            ","response":0,"trial_type":"html-button-response","trial_index":64,"time_elapsed":563263,"internal_node_id":"0.0-4.0-1.28","subject_id":"611e00dc377e4fb7a27725e8","study_id":"6197b3f67c2b5cd3b6d9596a","session_id":"6197b9ee61101f953c133691","condition":"contingent","relevant_dimensions":["antennae","legs"],"bee_group":{"antennae":"B","wings":"X","pattern":"X","legs":"M"},"bonus":0.44000000000000083},{"rt":13506.400000002235,"stimulus":"bees-with-color/bee-A2SM.svg","response":0,"trial_type":"image-button-response","trial_index":65,"time_elapsed":576772,"internal_node_id":"0.0-4.0-0.29","subject_id":"611e00dc377e4fb7a27725e8","study_id":"6197b3f67c2b5cd3b6d9596a","session_id":"6197b9ee61101f953c133691","condition":"contingent","relevant_dimensions":["antennae","legs"],"bee_group":{"antennae":"B","wings":"X","pattern":"X","legs":"M"},"action":"harvest","summary":"good-harvest","bonus":0.44000000000000083},{"rt":16270.900000002235,"stimulus":"\n                    <p><b>Action: <em>harvest</em></b></p>\n                    <p>This is the bee that you just saw.</p>\n                    <img src=\"bees-with-color/bee-A2SM.svg\" width=\"200\">\n                    <p><span class=\"greenText\"><b>Successful harvest!</b></span><br>Your pay has increased by $0.02. Your bonus pay is now $0.22.</p>\n            ","response":0,"trial_type":"html-button-response","trial_index":66,"time_elapsed":593046,"internal_node_id":"0.0-4.0-1.29","subject_id":"611e00dc377e4fb7a27725e8","study_id":"6197b3f67c2b5cd3b6d9596a","session_id":"6197b9ee61101f953c133691","condition":"contingent","relevant_dimensions":["antennae","legs"],"bee_group":{"antennae":"B","wings":"X","pattern":"X","legs":"M"},"bonus":0.44000000000000083},{"rt":6658.300000000745,"stimulus":"bees-with-color/bee-B1DM.svg","response":0,"trial_type":"image-button-response","trial_index":67,"time_elapsed":599708,"internal_node_id":"0.0-4.0-0.30","subject_id":"611e00dc377e4fb7a27725e8","study_id":"6197b3f67c2b5cd3b6d9596a","session_id":"6197b9ee61101f953c133691","condition":"contingent","relevant_dimensions":["antennae","legs"],"bee_group":{"antennae":"B","wings":"X","pattern":"X","legs":"M"},"action":"harvest","summary":"bad-harvest","bonus":0.44000000000000083},{"rt":33339.5,"stimulus":"\n                    <p><b>Action: <em>harvest</em></b></p>\n                    <p>This is the bee that you just saw.</p>\n                    <img src=\"bees-with-color/bee-B1DM.svg\" width=\"200\">\n                    <p><span class=\"redText\">Bad choice, the bee was angry.</span><br><b>You have been stung!</b><br>Your pay has been decreased by $0.10. Your bonus pay is now $0.12.</p>\n            ","response":0,"trial_type":"html-button-response","trial_index":68,"time_elapsed":633049,"internal_node_id":"0.0-4.0-1.30","subject_id":"611e00dc377e4fb7a27725e8","study_id":"6197b3f67c2b5cd3b6d9596a","session_id":"6197b9ee61101f953c133691","condition":"contingent","relevant_dimensions":["antennae","legs"],"bee_group":{"antennae":"B","wings":"X","pattern":"X","legs":"M"},"bonus":0.44000000000000083},{"rt":2428.5,"stimulus":"bees-with-color/bee-B1SF.svg","response":0,"trial_type":"image-button-response","trial_index":69,"time_elapsed":635481,"internal_node_id":"0.0-4.0-0.31","subject_id":"611e00dc377e4fb7a27725e8","study_id":"6197b3f67c2b5cd3b6d9596a","session_id":"6197b9ee61101f953c133691","condition":"contingent","relevant_dimensions":["antennae","legs"],"bee_group":{"antennae":"B","wings":"X","pattern":"X","legs":"M"},"action":"harvest","summary":"good-harvest","bonus":0.44000000000000083},{"rt":2099.60000000149,"stimulus":"\n                    <p><b>Action: <em>harvest</em></b></p>\n                    <p>This is the bee that you just saw.</p>\n                    <img src=\"bees-with-color/bee-B1SF.svg\" width=\"200\">\n                    <p><span class=\"greenText\"><b>Successful harvest!</b></span><br>Your pay has increased by $0.02. Your bonus pay is now $0.14.</p>\n            ","response":0,"trial_type":"html-button-response","trial_index":70,"time_elapsed":637583,"internal_node_id":"0.0-4.0-1.31","subject_id":"611e00dc377e4fb7a27725e8","study_id":"6197b3f67c2b5cd3b6d9596a","session_id":"6197b9ee61101f953c133691","condition":"contingent","relevant_dimensions":["antennae","legs"],"bee_group":{"antennae":"B","wings":"X","pattern":"X","legs":"M"},"bonus":0.44000000000000083},{"rt":4523.300000000745,"stimulus":"bees-with-color/bee-B2DF.svg","response":0,"trial_type":"image-button-response","trial_index":71,"time_elapsed":642109,"internal_node_id":"0.0-4.0-0.32","subject_id":"611e00dc377e4fb7a27725e8","study_id":"6197b3f67c2b5cd3b6d9596a","session_id":"6197b9ee61101f953c133691","condition":"contingent","relevant_dimensions":["antennae","legs"],"bee_group":{"antennae":"B","wings":"X","pattern":"X","legs":"M"},"action":"harvest","summary":"good-harvest","bonus":0.44000000000000083},{"rt":38048.89999999851,"stimulus":"\n                    <p><b>Action: <em>harvest</em></b></p>\n                    <p>This is the bee that you just saw.</p>\n                    <img src=\"bees-with-color/bee-B2DF.svg\" width=\"200\">\n                    <p><span class=\"greenText\"><b>Successful harvest!</b></span><br>Your pay has increased by $0.02. Your bonus pay is now $0.16.</p>\n            ","response":0,"trial_type":"html-button-response","trial_index":72,"time_elapsed":680160,"internal_node_id":"0.0-4.0-1.32","subject_id":"611e00dc377e4fb7a27725e8","study_id":"6197b3f67c2b5cd3b6d9596a","session_id":"6197b9ee61101f953c133691","condition":"contingent","relevant_dimensions":["antennae","legs"],"bee_group":{"antennae":"B","wings":"X","pattern":"X","legs":"M"},"bonus":0.44000000000000083},{"rt":12720.699999999255,"stimulus":"bees-with-color/bee-B2SM.svg","response":1,"trial_type":"image-button-response","trial_index":73,"time_elapsed":692883,"internal_node_id":"0.0-4.0-0.33","subject_id":"611e00dc377e4fb7a27725e8","study_id":"6197b3f67c2b5cd3b6d9596a","session_id":"6197b9ee61101f953c133691","condition":"contingent","relevant_dimensions":["antennae","legs"],"bee_group":{"antennae":"B","wings":"X","pattern":"X","legs":"M"},"action":"avoid","summary":"good-avoid","bonus":0.44000000000000083},{"rt":1341.800000000745,"stimulus":"\n                    <p><b>Action: <em>avoid</em></b></p>\n                    <p>This is the bee that you just saw.</p>\n                    <img src=\"bees-with-color/bee-B2SM.svg\" width=\"200\">\n                    <p><br>Your bonus pay is unchanged, and remains at $0.16.</p>\n            ","response":0,"trial_type":"html-button-response","trial_index":74,"time_elapsed":694227,"internal_node_id":"0.0-4.0-1.33","subject_id":"611e00dc377e4fb7a27725e8","study_id":"6197b3f67c2b5cd3b6d9596a","session_id":"6197b9ee61101f953c133691","condition":"contingent","relevant_dimensions":["antennae","legs"],"bee_group":{"antennae":"B","wings":"X","pattern":"X","legs":"M"},"bonus":0.44000000000000083},{"rt":5542.800000000745,"stimulus":"bees-with-color/bee-A1SM.svg","response":1,"trial_type":"image-button-response","trial_index":75,"time_elapsed":699773,"internal_node_id":"0.0-4.0-0.34","subject_id":"611e00dc377e4fb7a27725e8","study_id":"6197b3f67c2b5cd3b6d9596a","session_id":"6197b9ee61101f953c133691","condition":"contingent","relevant_dimensions":["antennae","legs"],"bee_group":{"antennae":"B","wings":"X","pattern":"X","legs":"M"},"action":"avoid","summary":"bad-avoid","bonus":0.44000000000000083},{"rt":1363.8999999985099,"stimulus":"\n                    <p><b>Action: <em>avoid</em></b></p>\n                    <p>This is the bee that you just saw.</p>\n                    <img src=\"bees-with-color/bee-A1SM.svg\" width=\"200\">\n                    <p><br>Your bonus pay is unchanged, and remains at $0.16.</p>\n            ","response":0,"trial_type":"html-button-response","trial_index":76,"time_elapsed":701139,"internal_node_id":"0.0-4.0-1.34","subject_id":"611e00dc377e4fb7a27725e8","study_id":"6197b3f67c2b5cd3b6d9596a","session_id":"6197b9ee61101f953c133691","condition":"contingent","relevant_dimensions":["antennae","legs"],"bee_group":{"antennae":"B","wings":"X","pattern":"X","legs":"M"},"bonus":0.44000000000000083},{"rt":1934.5999999977648,"stimulus":"bees-with-color/bee-A2SM.svg","response":0,"trial_type":"image-button-response","trial_index":77,"time_elapsed":703077,"internal_node_id":"0.0-4.0-0.35","subject_id":"611e00dc377e4fb7a27725e8","study_id":"6197b3f67c2b5cd3b6d9596a","session_id":"6197b9ee61101f953c133691","condition":"contingent","relevant_dimensions":["antennae","legs"],"bee_group":{"antennae":"B","wings":"X","pattern":"X","legs":"M"},"action":"harvest","summary":"good-harvest","bonus":0.44000000000000083},{"rt":1019.3999999985099,"stimulus":"\n                    <p><b>Action: <em>harvest</em></b></p>\n                    <p>This is the bee that you just saw.</p>\n                    <img src=\"bees-with-color/bee-A2SM.svg\" width=\"200\">\n                    <p><span class=\"greenText\"><b>Successful harvest!</b></span><br>Your pay has increased by $0.02. Your bonus pay is now $0.18.</p>\n            ","response":0,"trial_type":"html-button-response","trial_index":78,"time_elapsed":704099,"internal_node_id":"0.0-4.0-1.35","subject_id":"611e00dc377e4fb7a27725e8","study_id":"6197b3f67c2b5cd3b6d9596a","session_id":"6197b9ee61101f953c133691","condition":"contingent","relevant_dimensions":["antennae","legs"],"bee_group":{"antennae":"B","wings":"X","pattern":"X","legs":"M"},"bonus":0.44000000000000083},{"rt":1279.7000000029802,"stimulus":"bees-with-color/bee-B2SF.svg","response":0,"trial_type":"image-button-response","trial_index":79,"time_elapsed":705381,"internal_node_id":"0.0-4.0-0.36","subject_id":"611e00dc377e4fb7a27725e8","study_id":"6197b3f67c2b5cd3b6d9596a","session_id":"6197b9ee61101f953c133691","condition":"contingent","relevant_dimensions":["antennae","legs"],"bee_group":{"antennae":"B","wings":"X","pattern":"X","legs":"M"},"action":"harvest","summary":"good-harvest","bonus":0.44000000000000083},{"rt":1111.5999999977648,"stimulus":"\n                    <p><b>Action: <em>harvest</em></b></p>\n                    <p>This is the bee that you just saw.</p>\n                    <img src=\"bees-with-color/bee-B2SF.svg\" width=\"200\">\n                    <p><span class=\"greenText\"><b>Successful harvest!</b></span><br>Your pay has increased by $0.02. Your bonus pay is now $0.20.</p>\n            ","response":0,"trial_type":"html-button-response","trial_index":80,"time_elapsed":706495,"internal_node_id":"0.0-4.0-1.36","subject_id":"611e00dc377e4fb7a27725e8","study_id":"6197b3f67c2b5cd3b6d9596a","session_id":"6197b9ee61101f953c133691","condition":"contingent","relevant_dimensions":["antennae","legs"],"bee_group":{"antennae":"B","wings":"X","pattern":"X","legs":"M"},"bonus":0.44000000000000083},{"rt":7142.800000000745,"stimulus":"bees-with-color/bee-A1DM.svg","response":0,"trial_type":"image-button-response","trial_index":81,"time_elapsed":713641,"internal_node_id":"0.0-4.0-0.37","subject_id":"611e00dc377e4fb7a27725e8","study_id":"6197b3f67c2b5cd3b6d9596a","session_id":"6197b9ee61101f953c133691","condition":"contingent","relevant_dimensions":["antennae","legs"],"bee_group":{"antennae":"B","wings":"X","pattern":"X","legs":"M"},"action":"harvest","summary":"good-harvest","bonus":0.44000000000000083},{"rt":1259.800000000745,"stimulus":"\n                    <p><b>Action: <em>harvest</em></b></p>\n                    <p>This is the bee that you just saw.</p>\n                    <img src=\"bees-with-color/bee-A1DM.svg\" width=\"200\">\n                    <p><span class=\"greenText\"><b>Successful harvest!</b></span><br>Your pay has increased by $0.02. Your bonus pay is now $0.22.</p>\n            ","response":0,"trial_type":"html-button-response","trial_index":82,"time_elapsed":714904,"internal_node_id":"0.0-4.0-1.37","subject_id":"611e00dc377e4fb7a27725e8","study_id":"6197b3f67c2b5cd3b6d9596a","session_id":"6197b9ee61101f953c133691","condition":"contingent","relevant_dimensions":["antennae","legs"],"bee_group":{"antennae":"B","wings":"X","pattern":"X","legs":"M"},"bonus":0.44000000000000083},{"rt":6968.800000000745,"stimulus":"bees-with-color/bee-B1DM.svg","response":1,"trial_type":"image-button-response","trial_index":83,"time_elapsed":721875,"internal_node_id":"0.0-4.0-0.38","subject_id":"611e00dc377e4fb7a27725e8","study_id":"6197b3f67c2b5cd3b6d9596a","session_id":"6197b9ee61101f953c133691","condition":"contingent","relevant_dimensions":["antennae","legs"],"bee_group":{"antennae":"B","wings":"X","pattern":"X","legs":"M"},"action":"avoid","summary":"good-avoid","bonus":0.44000000000000083},{"rt":1097.1000000014901,"stimulus":"\n                    <p><b>Action: <em>avoid</em></b></p>\n                    <p>This is the bee that you just saw.</p>\n                    <img src=\"bees-with-color/bee-B1DM.svg\" width=\"200\">\n                    <p><br>Your bonus pay is unchanged, and remains at $0.22.</p>\n            ","response":0,"trial_type":"html-button-response","trial_index":84,"time_elapsed":722975,"internal_node_id":"0.0-4.0-1.38","subject_id":"611e00dc377e4fb7a27725e8","study_id":"6197b3f67c2b5cd3b6d9596a","session_id":"6197b9ee61101f953c133691","condition":"contingent","relevant_dimensions":["antennae","legs"],"bee_group":{"antennae":"B","wings":"X","pattern":"X","legs":"M"},"bonus":0.44000000000000083},{"rt":2570.800000000745,"stimulus":"bees-with-color/bee-A1SF.svg","response":0,"trial_type":"image-button-response","trial_index":85,"time_elapsed":725549,"internal_node_id":"0.0-4.0-0.39","subject_id":"611e00dc377e4fb7a27725e8","study_id":"6197b3f67c2b5cd3b6d9596a","session_id":"6197b9ee61101f953c133691","condition":"contingent","relevant_dimensions":["antennae","legs"],"bee_group":{"antennae":"B","wings":"X","pattern":"X","legs":"M"},"action":"harvest","summary":"good-harvest","bonus":0.44000000000000083},{"rt":1047.300000000745,"stimulus":"\n                    <p><b>Action: <em>harvest</em></b></p>\n                    <p>This is the bee that you just saw.</p>\n                    <img src=\"bees-with-color/bee-A1SF.svg\" width=\"200\">\n                    <p><span class=\"greenText\"><b>Successful harvest!</b></span><br>Your pay has increased by $0.02. Your bonus pay is now $0.24.</p>\n            ","response":0,"trial_type":"html-button-response","trial_index":86,"time_elapsed":726599,"internal_node_id":"0.0-4.0-1.39","subject_id":"611e00dc377e4fb7a27725e8","study_id":"6197b3f67c2b5cd3b6d9596a","session_id":"6197b9ee61101f953c133691","condition":"contingent","relevant_dimensions":["antennae","legs"],"bee_group":{"antennae":"B","wings":"X","pattern":"X","legs":"M"},"bonus":0.44000000000000083},{"rt":1918.6000000014901,"stimulus":"bees-with-color/bee-B1DF.svg","response":0,"trial_type":"image-button-response","trial_index":87,"time_elapsed":728521,"internal_node_id":"0.0-4.0-0.40","subject_id":"611e00dc377e4fb7a27725e8","study_id":"6197b3f67c2b5cd3b6d9596a","session_id":"6197b9ee61101f953c133691","condition":"contingent","relevant_dimensions":["antennae","legs"],"bee_group":{"antennae":"B","wings":"X","pattern":"X","legs":"M"},"action":"harvest","summary":"good-harvest","bonus":0.44000000000000083},{"rt":887.3999999985099,"stimulus":"\n                    <p><b>Action: <em>harvest</em></b></p>\n                    <p>This is the bee that you just saw.</p>\n                    <img src=\"bees-with-color/bee-B1DF.svg\" width=\"200\">\n                    <p><span class=\"greenText\"><b>Successful harvest!</b></span><br>Your pay has increased by $0.02. Your bonus pay is now $0.26.</p>\n            ","response":0,"trial_type":"html-button-response","trial_index":88,"time_elapsed":729411,"internal_node_id":"0.0-4.0-1.40","subject_id":"611e00dc377e4fb7a27725e8","study_id":"6197b3f67c2b5cd3b6d9596a","session_id":"6197b9ee61101f953c133691","condition":"contingent","relevant_dimensions":["antennae","legs"],"bee_group":{"antennae":"B","wings":"X","pattern":"X","legs":"M"},"bonus":0.44000000000000083},{"rt":2603.400000002235,"stimulus":"bees-with-color/bee-B1SM.svg","response":1,"trial_type":"image-button-response","trial_index":89,"time_elapsed":732017,"internal_node_id":"0.0-4.0-0.41","subject_id":"611e00dc377e4fb7a27725e8","study_id":"6197b3f67c2b5cd3b6d9596a","session_id":"6197b9ee61101f953c133691","condition":"contingent","relevant_dimensions":["antennae","legs"],"bee_group":{"antennae":"B","wings":"X","pattern":"X","legs":"M"},"action":"avoid","summary":"good-avoid","bonus":0.44000000000000083},{"rt":4774,"stimulus":"\n                    <p><b>Action: <em>avoid</em></b></p>\n                    <p>This is the bee that you just saw.</p>\n                    <img src=\"bees-with-color/bee-B1SM.svg\" width=\"200\">\n                    <p><br>Your bonus pay is unchanged, and remains at $0.26.</p>\n            ","response":0,"trial_type":"html-button-response","trial_index":90,"time_elapsed":736794,"internal_node_id":"0.0-4.0-1.41","subject_id":"611e00dc377e4fb7a27725e8","study_id":"6197b3f67c2b5cd3b6d9596a","session_id":"6197b9ee61101f953c133691","condition":"contingent","relevant_dimensions":["antennae","legs"],"bee_group":{"antennae":"B","wings":"X","pattern":"X","legs":"M"},"bonus":0.44000000000000083},{"rt":1556.7000000029802,"stimulus":"bees-with-color/bee-B1SF.svg","response":0,"trial_type":"image-button-response","trial_index":91,"time_elapsed":738354,"internal_node_id":"0.0-4.0-0.42","subject_id":"611e00dc377e4fb7a27725e8","study_id":"6197b3f67c2b5cd3b6d9596a","session_id":"6197b9ee61101f953c133691","condition":"contingent","relevant_dimensions":["antennae","legs"],"bee_group":{"antennae":"B","wings":"X","pattern":"X","legs":"M"},"action":"harvest","summary":"good-harvest","bonus":0.44000000000000083},{"rt":2879,"stimulus":"\n                    <p><b>Action: <em>harvest</em></b></p>\n                    <p>This is the bee that you just saw.</p>\n                    <img src=\"bees-with-color/bee-B1SF.svg\" width=\"200\">\n                    <p><span class=\"greenText\"><b>Successful harvest!</b></span><br>Your pay has increased by $0.02. Your bonus pay is now $0.28.</p>\n            ","response":0,"trial_type":"html-button-response","trial_index":92,"time_elapsed":741236,"internal_node_id":"0.0-4.0-1.42","subject_id":"611e00dc377e4fb7a27725e8","study_id":"6197b3f67c2b5cd3b6d9596a","session_id":"6197b9ee61101f953c133691","condition":"contingent","relevant_dimensions":["antennae","legs"],"bee_group":{"antennae":"B","wings":"X","pattern":"X","legs":"M"},"bonus":0.44000000000000083},{"rt":19512.89999999851,"stimulus":"bees-with-color/bee-B2DM.svg","response":1,"trial_type":"image-button-response","trial_index":93,"time_elapsed":760752,"internal_node_id":"0.0-4.0-0.43","subject_id":"611e00dc377e4fb7a27725e8","study_id":"6197b3f67c2b5cd3b6d9596a","session_id":"6197b9ee61101f953c133691","condition":"contingent","relevant_dimensions":["antennae","legs"],"bee_group":{"antennae":"B","wings":"X","pattern":"X","legs":"M"},"action":"avoid","summary":"good-avoid","bonus":0.44000000000000083},{"rt":1135,"stimulus":"\n                    <p><b>Action: <em>avoid</em></b></p>\n                    <p>This is the bee that you just saw.</p>\n                    <img src=\"bees-with-color/bee-B2DM.svg\" width=\"200\">\n                    <p><br>Your bonus pay is unchanged, and remains at $0.28.</p>\n            ","response":0,"trial_type":"html-button-response","trial_index":94,"time_elapsed":761890,"internal_node_id":"0.0-4.0-1.43","subject_id":"611e00dc377e4fb7a27725e8","study_id":"6197b3f67c2b5cd3b6d9596a","session_id":"6197b9ee61101f953c133691","condition":"contingent","relevant_dimensions":["antennae","legs"],"bee_group":{"antennae":"B","wings":"X","pattern":"X","legs":"M"},"bonus":0.44000000000000083},{"rt":4978.5,"stimulus":"bees-with-color/bee-A2SF.svg","response":0,"trial_type":"image-button-response","trial_index":95,"time_elapsed":766872,"internal_node_id":"0.0-4.0-0.44","subject_id":"611e00dc377e4fb7a27725e8","study_id":"6197b3f67c2b5cd3b6d9596a","session_id":"6197b9ee61101f953c133691","condition":"contingent","relevant_dimensions":["antennae","legs"],"bee_group":{"antennae":"B","wings":"X","pattern":"X","legs":"M"},"action":"harvest","summary":"good-harvest","bonus":0.44000000000000083},{"rt":1217.3999999985099,"stimulus":"\n                    <p><b>Action: <em>harvest</em></b></p>\n                    <p>This is the bee that you just saw.</p>\n                    <img src=\"bees-with-color/bee-A2SF.svg\" width=\"200\">\n                    <p><span class=\"greenText\"><b>Successful harvest!</b></span><br>Your pay has increased by $0.02. Your bonus pay is now $0.30.</p>\n            ","response":0,"trial_type":"html-button-response","trial_index":96,"time_elapsed":768092,"internal_node_id":"0.0-4.0-1.44","subject_id":"611e00dc377e4fb7a27725e8","study_id":"6197b3f67c2b5cd3b6d9596a","session_id":"6197b9ee61101f953c133691","condition":"contingent","relevant_dimensions":["antennae","legs"],"bee_group":{"antennae":"B","wings":"X","pattern":"X","legs":"M"},"bonus":0.44000000000000083},{"rt":16650,"stimulus":"bees-with-color/bee-A2DM.svg","response":1,"trial_type":"image-button-response","trial_index":97,"time_elapsed":784746,"internal_node_id":"0.0-4.0-0.45","subject_id":"611e00dc377e4fb7a27725e8","study_id":"6197b3f67c2b5cd3b6d9596a","session_id":"6197b9ee61101f953c133691","condition":"contingent","relevant_dimensions":["antennae","legs"],"bee_group":{"antennae":"B","wings":"X","pattern":"X","legs":"M"},"action":"avoid","summary":"bad-avoid","bonus":0.44000000000000083},{"rt":1563,"stimulus":"\n                    <p><b>Action: <em>avoid</em></b></p>\n                    <p>This is the bee that you just saw.</p>\n                    <img src=\"bees-with-color/bee-A2DM.svg\" width=\"200\">\n                    <p><br>Your bonus pay is unchanged, and remains at $0.30.</p>\n            ","response":0,"trial_type":"html-button-response","trial_index":98,"time_elapsed":786312,"internal_node_id":"0.0-4.0-1.45","subject_id":"611e00dc377e4fb7a27725e8","study_id":"6197b3f67c2b5cd3b6d9596a","session_id":"6197b9ee61101f953c133691","condition":"contingent","relevant_dimensions":["antennae","legs"],"bee_group":{"antennae":"B","wings":"X","pattern":"X","legs":"M"},"bonus":0.44000000000000083},{"rt":18829.599999997765,"stimulus":"bees-with-color/bee-A2DF.svg","response":0,"trial_type":"image-button-response","trial_index":99,"time_elapsed":805145,"internal_node_id":"0.0-4.0-0.46","subject_id":"611e00dc377e4fb7a27725e8","study_id":"6197b3f67c2b5cd3b6d9596a","session_id":"6197b9ee61101f953c133691","condition":"contingent","relevant_dimensions":["antennae","legs"],"bee_group":{"antennae":"B","wings":"X","pattern":"X","legs":"M"},"action":"harvest","summary":"good-harvest","bonus":0.44000000000000083},{"rt":7752.10000000149,"stimulus":"\n                    <p><b>Action: <em>harvest</em></b></p>\n                    <p>This is the bee that you just saw.</p>\n                    <img src=\"bees-with-color/bee-A2DF.svg\" width=\"200\">\n                    <p><span class=\"greenText\"><b>Successful harvest!</b></span><br>Your pay has increased by $0.02. Your bonus pay is now $0.32.</p>\n            ","response":0,"trial_type":"html-button-response","trial_index":100,"time_elapsed":812899,"internal_node_id":"0.0-4.0-1.46","subject_id":"611e00dc377e4fb7a27725e8","study_id":"6197b3f67c2b5cd3b6d9596a","session_id":"6197b9ee61101f953c133691","condition":"contingent","relevant_dimensions":["antennae","legs"],"bee_group":{"antennae":"B","wings":"X","pattern":"X","legs":"M"},"bonus":0.44000000000000083},{"rt":1449,"stimulus":"bees-with-color/bee-A1DF.svg","response":0,"trial_type":"image-button-response","trial_index":101,"time_elapsed":814351,"internal_node_id":"0.0-4.0-0.47","subject_id":"611e00dc377e4fb7a27725e8","study_id":"6197b3f67c2b5cd3b6d9596a","session_id":"6197b9ee61101f953c133691","condition":"contingent","relevant_dimensions":["antennae","legs"],"bee_group":{"antennae":"B","wings":"X","pattern":"X","legs":"M"},"action":"harvest","summary":"good-harvest","bonus":0.44000000000000083},{"rt":867.7999999970198,"stimulus":"\n                    <p><b>Action: <em>harvest</em></b></p>\n                    <p>This is the bee that you just saw.</p>\n                    <img src=\"bees-with-color/bee-A1DF.svg\" width=\"200\">\n                    <p><span class=\"greenText\"><b>Successful harvest!</b></span><br>Your pay has increased by $0.02. Your bonus pay is now $0.34.</p>\n            ","response":0,"trial_type":"html-button-response","trial_index":102,"time_elapsed":815221,"internal_node_id":"0.0-4.0-1.47","subject_id":"611e00dc377e4fb7a27725e8","study_id":"6197b3f67c2b5cd3b6d9596a","session_id":"6197b9ee61101f953c133691","condition":"contingent","relevant_dimensions":["antennae","legs"],"bee_group":{"antennae":"B","wings":"X","pattern":"X","legs":"M"},"bonus":0.44000000000000083},{"rt":12835.900000002235,"stimulus":"bees-with-color/bee-A1DM.svg","response":1,"trial_type":"image-button-response","trial_index":103,"time_elapsed":828059,"internal_node_id":"0.0-4.0-0.48","subject_id":"611e00dc377e4fb7a27725e8","study_id":"6197b3f67c2b5cd3b6d9596a","session_id":"6197b9ee61101f953c133691","condition":"contingent","relevant_dimensions":["antennae","legs"],"bee_group":{"antennae":"B","wings":"X","pattern":"X","legs":"M"},"action":"avoid","summary":"bad-avoid","bonus":0.44000000000000083},{"rt":1315.5,"stimulus":"\n                    <p><b>Action: <em>avoid</em></b></p>\n                    <p>This is the bee that you just saw.</p>\n                    <img src=\"bees-with-color/bee-A1DM.svg\" width=\"200\">\n                    <p><br>Your bonus pay is unchanged, and remains at $0.34.</p>\n            ","response":0,"trial_type":"html-button-response","trial_index":104,"time_elapsed":829377,"internal_node_id":"0.0-4.0-1.48","subject_id":"611e00dc377e4fb7a27725e8","study_id":"6197b3f67c2b5cd3b6d9596a","session_id":"6197b9ee61101f953c133691","condition":"contingent","relevant_dimensions":["antennae","legs"],"bee_group":{"antennae":"B","wings":"X","pattern":"X","legs":"M"},"bonus":0.44000000000000083},{"rt":1289.2000000029802,"stimulus":"bees-with-color/bee-A2DF.svg","response":0,"trial_type":"image-button-response","trial_index":105,"time_elapsed":830669,"internal_node_id":"0.0-4.0-0.49","subject_id":"611e00dc377e4fb7a27725e8","study_id":"6197b3f67c2b5cd3b6d9596a","session_id":"6197b9ee61101f953c133691","condition":"contingent","relevant_dimensions":["antennae","legs"],"bee_group":{"antennae":"B","wings":"X","pattern":"X","legs":"M"},"action":"harvest","summary":"good-harvest","bonus":0.44000000000000083},{"rt":995.8000000007451,"stimulus":"\n                    <p><b>Action: <em>harvest</em></b></p>\n                    <p>This is the bee that you just saw.</p>\n                    <img src=\"bees-with-color/bee-A2DF.svg\" width=\"200\">\n                    <p><span class=\"greenText\"><b>Successful harvest!</b></span><br>Your pay has increased by $0.02. Your bonus pay is now $0.36.</p>\n            ","response":0,"trial_type":"html-button-response","trial_index":106,"time_elapsed":831667,"internal_node_id":"0.0-4.0-1.49","subject_id":"611e00dc377e4fb7a27725e8","study_id":"6197b3f67c2b5cd3b6d9596a","session_id":"6197b9ee61101f953c133691","condition":"contingent","relevant_dimensions":["antennae","legs"],"bee_group":{"antennae":"B","wings":"X","pattern":"X","legs":"M"},"bonus":0.44000000000000083},{"rt":11385.699999999255,"stimulus":"bees-with-color/bee-B1DM.svg","response":1,"trial_type":"image-button-response","trial_index":107,"time_elapsed":843055,"internal_node_id":"0.0-4.0-0.50","subject_id":"611e00dc377e4fb7a27725e8","study_id":"6197b3f67c2b5cd3b6d9596a","session_id":"6197b9ee61101f953c133691","condition":"contingent","relevant_dimensions":["antennae","legs"],"bee_group":{"antennae":"B","wings":"X","pattern":"X","legs":"M"},"action":"avoid","summary":"good-avoid","bonus":0.44000000000000083},{"rt":1353.3999999985099,"stimulus":"\n                    <p><b>Action: <em>avoid</em></b></p>\n                    <p>This is the bee that you just saw.</p>\n                    <img src=\"bees-with-color/bee-B1DM.svg\" width=\"200\">\n                    <p><br>Your bonus pay is unchanged, and remains at $0.36.</p>\n            ","response":0,"trial_type":"html-button-response","trial_index":108,"time_elapsed":844411,"internal_node_id":"0.0-4.0-1.50","subject_id":"611e00dc377e4fb7a27725e8","study_id":"6197b3f67c2b5cd3b6d9596a","session_id":"6197b9ee61101f953c133691","condition":"contingent","relevant_dimensions":["antennae","legs"],"bee_group":{"antennae":"B","wings":"X","pattern":"X","legs":"M"},"bonus":0.44000000000000083},{"rt":1130.699999999255,"stimulus":"bees-with-color/bee-B1SF.svg","response":0,"trial_type":"image-button-response","trial_index":109,"time_elapsed":845545,"internal_node_id":"0.0-4.0-0.51","subject_id":"611e00dc377e4fb7a27725e8","study_id":"6197b3f67c2b5cd3b6d9596a","session_id":"6197b9ee61101f953c133691","condition":"contingent","relevant_dimensions":["antennae","legs"],"bee_group":{"antennae":"B","wings":"X","pattern":"X","legs":"M"},"action":"harvest","summary":"good-harvest","bonus":0.44000000000000083},{"rt":1505.5999999977648,"stimulus":"\n                    <p><b>Action: <em>harvest</em></b></p>\n                    <p>This is the bee that you just saw.</p>\n                    <img src=\"bees-with-color/bee-B1SF.svg\" width=\"200\">\n                    <p><span class=\"greenText\"><b>Successful harvest!</b></span><br>Your pay has increased by $0.02. Your bonus pay is now $0.38.</p>\n            ","response":0,"trial_type":"html-button-response","trial_index":110,"time_elapsed":847053,"internal_node_id":"0.0-4.0-1.51","subject_id":"611e00dc377e4fb7a27725e8","study_id":"6197b3f67c2b5cd3b6d9596a","session_id":"6197b9ee61101f953c133691","condition":"contingent","relevant_dimensions":["antennae","legs"],"bee_group":{"antennae":"B","wings":"X","pattern":"X","legs":"M"},"bonus":0.44000000000000083},{"rt":1935.5,"stimulus":"bees-with-color/bee-A2SF.svg","response":0,"trial_type":"image-button-response","trial_index":111,"time_elapsed":848990,"internal_node_id":"0.0-4.0-0.52","subject_id":"611e00dc377e4fb7a27725e8","study_id":"6197b3f67c2b5cd3b6d9596a","session_id":"6197b9ee61101f953c133691","condition":"contingent","relevant_dimensions":["antennae","legs"],"bee_group":{"antennae":"B","wings":"X","pattern":"X","legs":"M"},"action":"harvest","summary":"good-harvest","bonus":0.44000000000000083},{"rt":1065.5,"stimulus":"\n                    <p><b>Action: <em>harvest</em></b></p>\n                    <p>This is the bee that you just saw.</p>\n                    <img src=\"bees-with-color/bee-A2SF.svg\" width=\"200\">\n                    <p><span class=\"greenText\"><b>Successful harvest!</b></span><br>Your pay has increased by $0.02. Your bonus pay is now $0.40.</p>\n            ","response":0,"trial_type":"html-button-response","trial_index":112,"time_elapsed":850058,"internal_node_id":"0.0-4.0-1.52","subject_id":"611e00dc377e4fb7a27725e8","study_id":"6197b3f67c2b5cd3b6d9596a","session_id":"6197b9ee61101f953c133691","condition":"contingent","relevant_dimensions":["antennae","legs"],"bee_group":{"antennae":"B","wings":"X","pattern":"X","legs":"M"},"bonus":0.44000000000000083},{"rt":1127.800000000745,"stimulus":"bees-with-color/bee-B2SF.svg","response":0,"trial_type":"image-button-response","trial_index":113,"time_elapsed":851188,"internal_node_id":"0.0-4.0-0.53","subject_id":"611e00dc377e4fb7a27725e8","study_id":"6197b3f67c2b5cd3b6d9596a","session_id":"6197b9ee61101f953c133691","condition":"contingent","relevant_dimensions":["antennae","legs"],"bee_group":{"antennae":"B","wings":"X","pattern":"X","legs":"M"},"action":"harvest","summary":"good-harvest","bonus":0.44000000000000083},{"rt":851.1999999992549,"stimulus":"\n                    <p><b>Action: <em>harvest</em></b></p>\n                    <p>This is the bee that you just saw.</p>\n                    <img src=\"bees-with-color/bee-B2SF.svg\" width=\"200\">\n                    <p><span class=\"greenText\"><b>Successful harvest!</b></span><br>Your pay has increased by $0.02. Your bonus pay is now $0.42.</p>\n            ","response":0,"trial_type":"html-button-response","trial_index":114,"time_elapsed":852042,"internal_node_id":"0.0-4.0-1.53","subject_id":"611e00dc377e4fb7a27725e8","study_id":"6197b3f67c2b5cd3b6d9596a","session_id":"6197b9ee61101f953c133691","condition":"contingent","relevant_dimensions":["antennae","legs"],"bee_group":{"antennae":"B","wings":"X","pattern":"X","legs":"M"},"bonus":0.44000000000000083},{"rt":3699.89999999851,"stimulus":"bees-with-color/bee-A1SM.svg","response":0,"trial_type":"image-button-response","trial_index":115,"time_elapsed":855744,"internal_node_id":"0.0-4.0-0.54","subject_id":"611e00dc377e4fb7a27725e8","study_id":"6197b3f67c2b5cd3b6d9596a","session_id":"6197b9ee61101f953c133691","condition":"contingent","relevant_dimensions":["antennae","legs"],"bee_group":{"antennae":"B","wings":"X","pattern":"X","legs":"M"},"action":"harvest","summary":"good-harvest","bonus":0.44000000000000083},{"rt":961.2000000029802,"stimulus":"\n                    <p><b>Action: <em>harvest</em></b></p>\n                    <p>This is the bee that you just saw.</p>\n                    <img src=\"bees-with-color/bee-A1SM.svg\" width=\"200\">\n                    <p><span class=\"greenText\"><b>Successful harvest!</b></span><br>Your pay has increased by $0.02. Your bonus pay is now $0.44.</p>\n            ","response":0,"trial_type":"html-button-response","trial_index":116,"time_elapsed":856708,"internal_node_id":"0.0-4.0-1.54","subject_id":"611e00dc377e4fb7a27725e8","study_id":"6197b3f67c2b5cd3b6d9596a","session_id":"6197b9ee61101f953c133691","condition":"contingent","relevant_dimensions":["antennae","legs"],"bee_group":{"antennae":"B","wings":"X","pattern":"X","legs":"M"},"bonus":0.44000000000000083},{"rt":3283.300000000745,"stimulus":"bees-with-color/bee-B2DM.svg","response":1,"trial_type":"image-button-response","trial_index":117,"time_elapsed":859994,"internal_node_id":"0.0-4.0-0.55","subject_id":"611e00dc377e4fb7a27725e8","study_id":"6197b3f67c2b5cd3b6d9596a","session_id":"6197b9ee61101f953c133691","condition":"contingent","relevant_dimensions":["antennae","legs"],"bee_group":{"antennae":"B","wings":"X","pattern":"X","legs":"M"},"action":"avoid","summary":"good-avoid","bonus":0.44000000000000083},{"rt":951.4000000022352,"stimulus":"\n                    <p><b>Action: <em>avoid</em></b></p>\n                    <p>This is the bee that you just saw.</p>\n                    <img src=\"bees-with-color/bee-B2DM.svg\" width=\"200\">\n                    <p><br>Your bonus pay is unchanged, and remains at $0.44.</p>\n            ","response":0,"trial_type":"html-button-response","trial_index":118,"time_elapsed":860948,"internal_node_id":"0.0-4.0-1.55","subject_id":"611e00dc377e4fb7a27725e8","study_id":"6197b3f67c2b5cd3b6d9596a","session_id":"6197b9ee61101f953c133691","condition":"contingent","relevant_dimensions":["antennae","legs"],"bee_group":{"antennae":"B","wings":"X","pattern":"X","legs":"M"},"bonus":0.44000000000000083},{"rt":1678.699999999255,"stimulus":"bees-with-color/bee-A1SF.svg","response":0,"trial_type":"image-button-response","trial_index":119,"time_elapsed":862630,"internal_node_id":"0.0-4.0-0.56","subject_id":"611e00dc377e4fb7a27725e8","study_id":"6197b3f67c2b5cd3b6d9596a","session_id":"6197b9ee61101f953c133691","condition":"contingent","relevant_dimensions":["antennae","legs"],"bee_group":{"antennae":"B","wings":"X","pattern":"X","legs":"M"},"action":"harvest","summary":"good-harvest","bonus":0.44000000000000083},{"rt":1999.1000000014901,"stimulus":"\n                    <p><b>Action: <em>harvest</em></b></p>\n                    <p>This is the bee that you just saw.</p>\n                    <img src=\"bees-with-color/bee-A1SF.svg\" width=\"200\">\n                    <p><span class=\"greenText\"><b>Successful harvest!</b></span><br>Your pay has increased by $0.02. Your bonus pay is now $0.46.</p>\n            ","response":0,"trial_type":"html-button-response","trial_index":120,"time_elapsed":864632,"internal_node_id":"0.0-4.0-1.56","subject_id":"611e00dc377e4fb7a27725e8","study_id":"6197b3f67c2b5cd3b6d9596a","session_id":"6197b9ee61101f953c133691","condition":"contingent","relevant_dimensions":["antennae","legs"],"bee_group":{"antennae":"B","wings":"X","pattern":"X","legs":"M"},"bonus":0.44000000000000083},{"rt":3570.599999997765,"stimulus":"bees-with-color/bee-B1SM.svg","response":1,"trial_type":"image-button-response","trial_index":121,"time_elapsed":868206,"internal_node_id":"0.0-4.0-0.57","subject_id":"611e00dc377e4fb7a27725e8","study_id":"6197b3f67c2b5cd3b6d9596a","session_id":"6197b9ee61101f953c133691","condition":"contingent","relevant_dimensions":["antennae","legs"],"bee_group":{"antennae":"B","wings":"X","pattern":"X","legs":"M"},"action":"avoid","summary":"good-avoid","bonus":0.44000000000000083},{"rt":931.0999999977648,"stimulus":"\n                    <p><b>Action: <em>avoid</em></b></p>\n                    <p>This is the bee that you just saw.</p>\n                    <img src=\"bees-with-color/bee-B1SM.svg\" width=\"200\">\n                    <p><br>Your bonus pay is unchanged, and remains at $0.46.</p>\n            ","response":0,"trial_type":"html-button-response","trial_index":122,"time_elapsed":869140,"internal_node_id":"0.0-4.0-1.57","subject_id":"611e00dc377e4fb7a27725e8","study_id":"6197b3f67c2b5cd3b6d9596a","session_id":"6197b9ee61101f953c133691","condition":"contingent","relevant_dimensions":["antennae","legs"],"bee_group":{"antennae":"B","wings":"X","pattern":"X","legs":"M"},"bonus":0.44000000000000083},{"rt":1590.8999999985099,"stimulus":"bees-with-color/bee-A1DF.svg","response":0,"trial_type":"image-button-response","trial_index":123,"time_elapsed":870734,"internal_node_id":"0.0-4.0-0.58","subject_id":"611e00dc377e4fb7a27725e8","study_id":"6197b3f67c2b5cd3b6d9596a","session_id":"6197b9ee61101f953c133691","condition":"contingent","relevant_dimensions":["antennae","legs"],"bee_group":{"antennae":"B","wings":"X","pattern":"X","legs":"M"},"action":"harvest","summary":"good-harvest","bonus":0.44000000000000083},{"rt":921.3000000007451,"stimulus":"\n                    <p><b>Action: <em>harvest</em></b></p>\n                    <p>This is the bee that you just saw.</p>\n                    <img src=\"bees-with-color/bee-A1DF.svg\" width=\"200\">\n                    <p><span class=\"greenText\"><b>Successful harvest!</b></span><br>Your pay has increased by $0.02. Your bonus pay is now $0.48.</p>\n            ","response":0,"trial_type":"html-button-response","trial_index":124,"time_elapsed":871658,"internal_node_id":"0.0-4.0-1.58","subject_id":"611e00dc377e4fb7a27725e8","study_id":"6197b3f67c2b5cd3b6d9596a","session_id":"6197b9ee61101f953c133691","condition":"contingent","relevant_dimensions":["antennae","legs"],"bee_group":{"antennae":"B","wings":"X","pattern":"X","legs":"M"},"bonus":0.44000000000000083},{"rt":2153,"stimulus":"bees-with-color/bee-B1DF.svg","response":1,"trial_type":"image-button-response","trial_index":125,"time_elapsed":873814,"internal_node_id":"0.0-4.0-0.59","subject_id":"611e00dc377e4fb7a27725e8","study_id":"6197b3f67c2b5cd3b6d9596a","session_id":"6197b9ee61101f953c133691","condition":"contingent","relevant_dimensions":["antennae","legs"],"bee_group":{"antennae":"B","wings":"X","pattern":"X","legs":"M"},"action":"avoid","summary":"bad-avoid","bonus":0.44000000000000083},{"rt":1095.199999999255,"stimulus":"\n                    <p><b>Action: <em>avoid</em></b></p>\n                    <p>This is the bee that you just saw.</p>\n                    <img src=\"bees-with-color/bee-B1DF.svg\" width=\"200\">\n                    <p><br>Your bonus pay is unchanged, and remains at $0.48.</p>\n            ","response":0,"trial_type":"html-button-response","trial_index":126,"time_elapsed":874912,"internal_node_id":"0.0-4.0-1.59","subject_id":"611e00dc377e4fb7a27725e8","study_id":"6197b3f67c2b5cd3b6d9596a","session_id":"6197b9ee61101f953c133691","condition":"contingent","relevant_dimensions":["antennae","legs"],"bee_group":{"antennae":"B","wings":"X","pattern":"X","legs":"M"},"bonus":0.44000000000000083},{"rt":1306.699999999255,"stimulus":"bees-with-color/bee-B2DF.svg","response":0,"trial_type":"image-button-response","trial_index":127,"time_elapsed":876222,"internal_node_id":"0.0-4.0-0.60","subject_id":"611e00dc377e4fb7a27725e8","study_id":"6197b3f67c2b5cd3b6d9596a","session_id":"6197b9ee61101f953c133691","condition":"contingent","relevant_dimensions":["antennae","legs"],"bee_group":{"antennae":"B","wings":"X","pattern":"X","legs":"M"},"action":"harvest","summary":"good-harvest","bonus":0.44000000000000083},{"rt":904.9000000022352,"stimulus":"\n                    <p><b>Action: <em>harvest</em></b></p>\n                    <p>This is the bee that you just saw.</p>\n                    <img src=\"bees-with-color/bee-B2DF.svg\" width=\"200\">\n                    <p><span class=\"greenText\"><b>Successful harvest!</b></span><br>Your pay has increased by $0.02. Your bonus pay is now $0.50.</p>\n            ","response":0,"trial_type":"html-button-response","trial_index":128,"time_elapsed":877130,"internal_node_id":"0.0-4.0-1.60","subject_id":"611e00dc377e4fb7a27725e8","study_id":"6197b3f67c2b5cd3b6d9596a","session_id":"6197b9ee61101f953c133691","condition":"contingent","relevant_dimensions":["antennae","legs"],"bee_group":{"antennae":"B","wings":"X","pattern":"X","legs":"M"},"bonus":0.44000000000000083},{"rt":1395.4000000022352,"stimulus":"bees-with-color/bee-B2SM.svg","response":1,"trial_type":"image-button-response","trial_index":129,"time_elapsed":878528,"internal_node_id":"0.0-4.0-0.61","subject_id":"611e00dc377e4fb7a27725e8","study_id":"6197b3f67c2b5cd3b6d9596a","session_id":"6197b9ee61101f953c133691","condition":"contingent","relevant_dimensions":["antennae","legs"],"bee_group":{"antennae":"B","wings":"X","pattern":"X","legs":"M"},"action":"avoid","summary":"good-avoid","bonus":0.44000000000000083},{"rt":1047,"stimulus":"\n                    <p><b>Action: <em>avoid</em></b></p>\n                    <p>This is the bee that you just saw.</p>\n                    <img src=\"bees-with-color/bee-B2SM.svg\" width=\"200\">\n                    <p><br>Your bonus pay is unchanged, and remains at $0.50.</p>\n            ","response":0,"trial_type":"html-button-response","trial_index":130,"time_elapsed":879578,"internal_node_id":"0.0-4.0-1.61","subject_id":"611e00dc377e4fb7a27725e8","study_id":"6197b3f67c2b5cd3b6d9596a","session_id":"6197b9ee61101f953c133691","condition":"contingent","relevant_dimensions":["antennae","legs"],"bee_group":{"antennae":"B","wings":"X","pattern":"X","legs":"M"},"bonus":0.44000000000000083},{"rt":11896.89999999851,"stimulus":"bees-with-color/bee-A2DM.svg","response":0,"trial_type":"image-button-response","trial_index":131,"time_elapsed":891478,"internal_node_id":"0.0-4.0-0.62","subject_id":"611e00dc377e4fb7a27725e8","study_id":"6197b3f67c2b5cd3b6d9596a","session_id":"6197b9ee61101f953c133691","condition":"contingent","relevant_dimensions":["antennae","legs"],"bee_group":{"antennae":"B","wings":"X","pattern":"X","legs":"M"},"action":"harvest","summary":"good-harvest","bonus":0.44000000000000083},{"rt":1006.5,"stimulus":"\n                    <p><b>Action: <em>harvest</em></b></p>\n                    <p>This is the bee that you just saw.</p>\n                    <img src=\"bees-with-color/bee-A2DM.svg\" width=\"200\">\n                    <p><span class=\"greenText\"><b>Successful harvest!</b></span><br>Your pay has increased by $0.02. Your bonus pay is now $0.52.</p>\n            ","response":0,"trial_type":"html-button-response","trial_index":132,"time_elapsed":892487,"internal_node_id":"0.0-4.0-1.62","subject_id":"611e00dc377e4fb7a27725e8","study_id":"6197b3f67c2b5cd3b6d9596a","session_id":"6197b9ee61101f953c133691","condition":"contingent","relevant_dimensions":["antennae","legs"],"bee_group":{"antennae":"B","wings":"X","pattern":"X","legs":"M"},"bonus":0.44000000000000083},{"rt":7224.300000000745,"stimulus":"bees-with-color/bee-A2SM.svg","response":1,"trial_type":"image-button-response","trial_index":133,"time_elapsed":899713,"internal_node_id":"0.0-4.0-0.63","subject_id":"611e00dc377e4fb7a27725e8","study_id":"6197b3f67c2b5cd3b6d9596a","session_id":"6197b9ee61101f953c133691","condition":"contingent","relevant_dimensions":["antennae","legs"],"bee_group":{"antennae":"B","wings":"X","pattern":"X","legs":"M"},"action":"avoid","summary":"bad-avoid","bonus":0.44000000000000083},{"rt":1898,"stimulus":"\n                    <p><b>Action: <em>avoid</em></b></p>\n                    <p>This is the bee that you just saw.</p>\n                    <img src=\"bees-with-color/bee-A2SM.svg\" width=\"200\">\n                    <p><br>Your bonus pay is unchanged, and remains at $0.52.</p>\n            ","response":0,"trial_type":"html-button-response","trial_index":134,"time_elapsed":901613,"internal_node_id":"0.0-4.0-1.63","subject_id":"611e00dc377e4fb7a27725e8","study_id":"6197b3f67c2b5cd3b6d9596a","session_id":"6197b9ee61101f953c133691","condition":"contingent","relevant_dimensions":["antennae","legs"],"bee_group":{"antennae":"B","wings":"X","pattern":"X","legs":"M"},"bonus":0.44000000000000083},{"rt":7348.5,"stimulus":"You have completed the first part of this experiment.<br><br>You will now begin a shorter second part, in which you will receive no feedback.<br>The same rules regarding bonus pay apply.<br><br>Press any key to begin.","response":" ","trial_type":"html-keyboard-response","trial_index":135,"time_elapsed":908964,"internal_node_id":"0.0-5.0","subject_id":"611e00dc377e4fb7a27725e8","study_id":"6197b3f67c2b5cd3b6d9596a","session_id":"6197b9ee61101f953c133691","condition":"contingent","relevant_dimensions":["antennae","legs"],"bee_group":{"antennae":"B","wings":"X","pattern":"X","legs":"M"},"bonus":0.44000000000000083},{"rt":14078.300000000745,"stimulus":"bees-with-color/bee-A1DM.svg","response":1,"trial_type":"image-button-response","trial_index":136,"time_elapsed":923053,"internal_node_id":"0.0-6.0-0.0","subject_id":"611e00dc377e4fb7a27725e8","study_id":"6197b3f67c2b5cd3b6d9596a","session_id":"6197b9ee61101f953c133691","condition":"contingent","relevant_dimensions":["antennae","legs"],"bee_group":{"antennae":"B","wings":"X","pattern":"X","legs":"M"},"bonus":0.44000000000000083},{"rt":3263.89999999851,"stimulus":"bees-with-color/bee-A2DM.svg","response":0,"trial_type":"image-button-response","trial_index":137,"time_elapsed":926321,"internal_node_id":"0.0-6.0-0.1","subject_id":"611e00dc377e4fb7a27725e8","study_id":"6197b3f67c2b5cd3b6d9596a","session_id":"6197b9ee61101f953c133691","condition":"contingent","relevant_dimensions":["antennae","legs"],"bee_group":{"antennae":"B","wings":"X","pattern":"X","legs":"M"},"bonus":0.44000000000000083},{"rt":3892.400000002235,"stimulus":"bees-with-color/bee-A2SF.svg","response":0,"trial_type":"image-button-response","trial_index":138,"time_elapsed":930217,"internal_node_id":"0.0-6.0-0.2","subject_id":"611e00dc377e4fb7a27725e8","study_id":"6197b3f67c2b5cd3b6d9596a","session_id":"6197b9ee61101f953c133691","condition":"contingent","relevant_dimensions":["antennae","legs"],"bee_group":{"antennae":"B","wings":"X","pattern":"X","legs":"M"},"bonus":0.44000000000000083},{"rt":1163,"stimulus":"bees-with-color/bee-B2SM.svg","response":1,"trial_type":"image-button-response","trial_index":139,"time_elapsed":931383,"internal_node_id":"0.0-6.0-0.3","subject_id":"611e00dc377e4fb7a27725e8","study_id":"6197b3f67c2b5cd3b6d9596a","session_id":"6197b9ee61101f953c133691","condition":"contingent","relevant_dimensions":["antennae","legs"],"bee_group":{"antennae":"B","wings":"X","pattern":"X","legs":"M"},"bonus":0.44000000000000083},{"rt":1354.699999999255,"stimulus":"bees-with-color/bee-B1DM.svg","response":0,"trial_type":"image-button-response","trial_index":140,"time_elapsed":932741,"internal_node_id":"0.0-6.0-0.4","subject_id":"611e00dc377e4fb7a27725e8","study_id":"6197b3f67c2b5cd3b6d9596a","session_id":"6197b9ee61101f953c133691","condition":"contingent","relevant_dimensions":["antennae","legs"],"bee_group":{"antennae":"B","wings":"X","pattern":"X","legs":"M"},"bonus":0.44000000000000083},{"rt":1308.699999999255,"stimulus":"bees-with-color/bee-A1DF.svg","response":0,"trial_type":"image-button-response","trial_index":141,"time_elapsed":934053,"internal_node_id":"0.0-6.0-0.5","subject_id":"611e00dc377e4fb7a27725e8","study_id":"6197b3f67c2b5cd3b6d9596a","session_id":"6197b9ee61101f953c133691","condition":"contingent","relevant_dimensions":["antennae","legs"],"bee_group":{"antennae":"B","wings":"X","pattern":"X","legs":"M"},"bonus":0.44000000000000083},{"rt":882.3999999985099,"stimulus":"bees-with-color/bee-B2DF.svg","response":1,"trial_type":"image-button-response","trial_index":142,"time_elapsed":934939,"internal_node_id":"0.0-6.0-0.6","subject_id":"611e00dc377e4fb7a27725e8","study_id":"6197b3f67c2b5cd3b6d9596a","session_id":"6197b9ee61101f953c133691","condition":"contingent","relevant_dimensions":["antennae","legs"],"bee_group":{"antennae":"B","wings":"X","pattern":"X","legs":"M"},"bonus":0.44000000000000083},{"rt":1985.0999999977648,"stimulus":"bees-with-color/bee-A2SM.svg","response":1,"trial_type":"image-button-response","trial_index":143,"time_elapsed":936927,"internal_node_id":"0.0-6.0-0.7","subject_id":"611e00dc377e4fb7a27725e8","study_id":"6197b3f67c2b5cd3b6d9596a","session_id":"6197b9ee61101f953c133691","condition":"contingent","relevant_dimensions":["antennae","legs"],"bee_group":{"antennae":"B","wings":"X","pattern":"X","legs":"M"},"bonus":0.44000000000000083},{"rt":1502.5,"stimulus":"bees-with-color/bee-B1SM.svg","response":1,"trial_type":"image-button-response","trial_index":144,"time_elapsed":938433,"internal_node_id":"0.0-6.0-0.8","subject_id":"611e00dc377e4fb7a27725e8","study_id":"6197b3f67c2b5cd3b6d9596a","session_id":"6197b9ee61101f953c133691","condition":"contingent","relevant_dimensions":["antennae","legs"],"bee_group":{"antennae":"B","wings":"X","pattern":"X","legs":"M"},"bonus":0.44000000000000083},{"rt":1578.699999999255,"stimulus":"bees-with-color/bee-B1SF.svg","response":0,"trial_type":"image-button-response","trial_index":145,"time_elapsed":940015,"internal_node_id":"0.0-6.0-0.9","subject_id":"611e00dc377e4fb7a27725e8","study_id":"6197b3f67c2b5cd3b6d9596a","session_id":"6197b9ee61101f953c133691","condition":"contingent","relevant_dimensions":["antennae","legs"],"bee_group":{"antennae":"B","wings":"X","pattern":"X","legs":"M"},"bonus":0.44000000000000083},{"rt":904.1999999992549,"stimulus":"bees-with-color/bee-B1DF.svg","response":0,"trial_type":"image-button-response","trial_index":146,"time_elapsed":940922,"internal_node_id":"0.0-6.0-0.10","subject_id":"611e00dc377e4fb7a27725e8","study_id":"6197b3f67c2b5cd3b6d9596a","session_id":"6197b9ee61101f953c133691","condition":"contingent","relevant_dimensions":["antennae","legs"],"bee_group":{"antennae":"B","wings":"X","pattern":"X","legs":"M"},"bonus":0.44000000000000083},{"rt":1152.5,"stimulus":"bees-with-color/bee-B2DM.svg","response":1,"trial_type":"image-button-response","trial_index":147,"time_elapsed":942076,"internal_node_id":"0.0-6.0-0.11","subject_id":"611e00dc377e4fb7a27725e8","study_id":"6197b3f67c2b5cd3b6d9596a","session_id":"6197b9ee61101f953c133691","condition":"contingent","relevant_dimensions":["antennae","legs"],"bee_group":{"antennae":"B","wings":"X","pattern":"X","legs":"M"},"bonus":0.44000000000000083},{"rt":1469.3999999985099,"stimulus":"bees-with-color/bee-A1SM.svg","response":0,"trial_type":"image-button-response","trial_index":148,"time_elapsed":943549,"internal_node_id":"0.0-6.0-0.12","subject_id":"611e00dc377e4fb7a27725e8","study_id":"6197b3f67c2b5cd3b6d9596a","session_id":"6197b9ee61101f953c133691","condition":"contingent","relevant_dimensions":["antennae","legs"],"bee_group":{"antennae":"B","wings":"X","pattern":"X","legs":"M"},"bonus":0.44000000000000083},{"rt":789.1000000014901,"stimulus":"bees-with-color/bee-A1SF.svg","response":1,"trial_type":"image-button-response","trial_index":149,"time_elapsed":944341,"internal_node_id":"0.0-6.0-0.13","subject_id":"611e00dc377e4fb7a27725e8","study_id":"6197b3f67c2b5cd3b6d9596a","session_id":"6197b9ee61101f953c133691","condition":"contingent","relevant_dimensions":["antennae","legs"],"bee_group":{"antennae":"B","wings":"X","pattern":"X","legs":"M"},"bonus":0.44000000000000083},{"rt":1255.1000000014901,"stimulus":"bees-with-color/bee-B2SF.svg","response":0,"trial_type":"image-button-response","trial_index":150,"time_elapsed":945599,"internal_node_id":"0.0-6.0-0.14","subject_id":"611e00dc377e4fb7a27725e8","study_id":"6197b3f67c2b5cd3b6d9596a","session_id":"6197b9ee61101f953c133691","condition":"contingent","relevant_dimensions":["antennae","legs"],"bee_group":{"antennae":"B","wings":"X","pattern":"X","legs":"M"},"bonus":0.44000000000000083},{"rt":1088.8999999985099,"stimulus":"bees-with-color/bee-A2DF.svg","response":1,"trial_type":"image-button-response","trial_index":151,"time_elapsed":946690,"internal_node_id":"0.0-6.0-0.15","subject_id":"611e00dc377e4fb7a27725e8","study_id":"6197b3f67c2b5cd3b6d9596a","session_id":"6197b9ee61101f953c133691","condition":"contingent","relevant_dimensions":["antennae","legs"],"bee_group":{"antennae":"B","wings":"X","pattern":"X","legs":"M"},"bonus":0.44000000000000083},{"rt":599.8999999985099,"stimulus":"bees-with-color/bee-B1SF.svg","response":0,"trial_type":"image-button-response","trial_index":152,"time_elapsed":947293,"internal_node_id":"0.0-6.0-0.16","subject_id":"611e00dc377e4fb7a27725e8","study_id":"6197b3f67c2b5cd3b6d9596a","session_id":"6197b9ee61101f953c133691","condition":"contingent","relevant_dimensions":["antennae","legs"],"bee_group":{"antennae":"B","wings":"X","pattern":"X","legs":"M"},"bonus":0.44000000000000083},{"rt":753.5,"stimulus":"bees-with-color/bee-B1DF.svg","response":0,"trial_type":"image-button-response","trial_index":153,"time_elapsed":948049,"internal_node_id":"0.0-6.0-0.17","subject_id":"611e00dc377e4fb7a27725e8","study_id":"6197b3f67c2b5cd3b6d9596a","session_id":"6197b9ee61101f953c133691","condition":"contingent","relevant_dimensions":["antennae","legs"],"bee_group":{"antennae":"B","wings":"X","pattern":"X","legs":"M"},"bonus":0.44000000000000083},{"rt":847.5,"stimulus":"bees-with-color/bee-A1DF.svg","response":1,"trial_type":"image-button-response","trial_index":154,"time_elapsed":948899,"internal_node_id":"0.0-6.0-0.18","subject_id":"611e00dc377e4fb7a27725e8","study_id":"6197b3f67c2b5cd3b6d9596a","session_id":"6197b9ee61101f953c133691","condition":"contingent","relevant_dimensions":["antennae","legs"],"bee_group":{"antennae":"B","wings":"X","pattern":"X","legs":"M"},"bonus":0.44000000000000083},{"rt":1333.300000000745,"stimulus":"bees-with-color/bee-A1DM.svg","response":0,"trial_type":"image-button-response","trial_index":155,"time_elapsed":950235,"internal_node_id":"0.0-6.0-0.19","subject_id":"611e00dc377e4fb7a27725e8","study_id":"6197b3f67c2b5cd3b6d9596a","session_id":"6197b9ee61101f953c133691","condition":"contingent","relevant_dimensions":["antennae","legs"],"bee_group":{"antennae":"B","wings":"X","pattern":"X","legs":"M"},"bonus":0.44000000000000083},{"rt":821.3000000007451,"stimulus":"bees-with-color/bee-B2DM.svg","response":0,"trial_type":"image-button-response","trial_index":156,"time_elapsed":951059,"internal_node_id":"0.0-6.0-0.20","subject_id":"611e00dc377e4fb7a27725e8","study_id":"6197b3f67c2b5cd3b6d9596a","session_id":"6197b9ee61101f953c133691","condition":"contingent","relevant_dimensions":["antennae","legs"],"bee_group":{"antennae":"B","wings":"X","pattern":"X","legs":"M"},"bonus":0.44000000000000083},{"rt":1399.1000000014901,"stimulus":"bees-with-color/bee-B2SM.svg","response":0,"trial_type":"image-button-response","trial_index":157,"time_elapsed":952461,"internal_node_id":"0.0-6.0-0.21","subject_id":"611e00dc377e4fb7a27725e8","study_id":"6197b3f67c2b5cd3b6d9596a","session_id":"6197b9ee61101f953c133691","condition":"contingent","relevant_dimensions":["antennae","legs"],"bee_group":{"antennae":"B","wings":"X","pattern":"X","legs":"M"},"bonus":0.44000000000000083},{"rt":995.2999999970198,"stimulus":"bees-with-color/bee-B2SF.svg","response":0,"trial_type":"image-button-response","trial_index":158,"time_elapsed":953459,"internal_node_id":"0.0-6.0-0.22","subject_id":"611e00dc377e4fb7a27725e8","study_id":"6197b3f67c2b5cd3b6d9596a","session_id":"6197b9ee61101f953c133691","condition":"contingent","relevant_dimensions":["antennae","legs"],"bee_group":{"antennae":"B","wings":"X","pattern":"X","legs":"M"},"bonus":0.44000000000000083},{"rt":1852.8999999985099,"stimulus":"bees-with-color/bee-A2DM.svg","response":1,"trial_type":"image-button-response","trial_index":159,"time_elapsed":955314,"internal_node_id":"0.0-6.0-0.23","subject_id":"611e00dc377e4fb7a27725e8","study_id":"6197b3f67c2b5cd3b6d9596a","session_id":"6197b9ee61101f953c133691","condition":"contingent","relevant_dimensions":["antennae","legs"],"bee_group":{"antennae":"B","wings":"X","pattern":"X","legs":"M"},"bonus":0.44000000000000083},{"rt":892,"stimulus":"bees-with-color/bee-A2SF.svg","response":0,"trial_type":"image-button-response","trial_index":160,"time_elapsed":956208,"internal_node_id":"0.0-6.0-0.24","subject_id":"611e00dc377e4fb7a27725e8","study_id":"6197b3f67c2b5cd3b6d9596a","session_id":"6197b9ee61101f953c133691","condition":"contingent","relevant_dimensions":["antennae","legs"],"bee_group":{"antennae":"B","wings":"X","pattern":"X","legs":"M"},"bonus":0.44000000000000083},{"rt":1259.4000000022352,"stimulus":"bees-with-color/bee-B1DM.svg","response":1,"trial_type":"image-button-response","trial_index":161,"time_elapsed":957470,"internal_node_id":"0.0-6.0-0.25","subject_id":"611e00dc377e4fb7a27725e8","study_id":"6197b3f67c2b5cd3b6d95