[{"success":true,"trial_type":"fullscreen","trial_index":0,"time_elapsed":45140,"internal_node_id":"0.0-0.0","subject_id":"60a2dc206ce94a429c60a885","study_id":"60edd13110225f80f9f3709b","session_id":"6196c1f2740bdcc0c6a24763","condition":"contingent","relevant_dimensions":["antennae","pattern"],"bee_group":{"antennae":"B","wings":"X","pattern":"S","legs":"X"},"bonus":0.8400000000000005},{"success":true,"timeout":false,"failed_images":[],"failed_audio":[],"failed_video":[],"trial_type":"preload","trial_index":1,"time_elapsed":46613,"internal_node_id":"0.0-1.0","subject_id":"60a2dc206ce94a429c60a885","study_id":"60edd13110225f80f9f3709b","session_id":"6196c1f2740bdcc0c6a24763","condition":"contingent","relevant_dimensions":["antennae","pattern"],"bee_group":{"antennae":"B","wings":"X","pattern":"S","legs":"X"},"bonus":0.8400000000000005},{"rt":3050,"stimulus":"Welcome! Press any key to begin.","response":" ","trial_type":"html-keyboard-response","trial_index":2,"time_elapsed":49664,"internal_node_id":"0.0-2.0","subject_id":"60a2dc206ce94a429c60a885","study_id":"60edd13110225f80f9f3709b","session_id":"6196c1f2740bdcc0c6a24763","condition":"contingent","relevant_dimensions":["antennae","pattern"],"bee_group":{"antennae":"B","wings":"X","pattern":"S","legs":"X"},"bonus":0.8400000000000005},{"view_history":[{"page_index":0,"viewing_time":4206},{"page_index":1,"viewing_time":17660},{"page_index":2,"viewing_time":19788},{"page_index":3,"viewing_time":17735},{"page_index":4,"viewing_time":10873},{"page_index":5,"viewing_time":8624},{"page_index":6,"viewing_time":12412},{"page_index":7,"viewing_time":5734},{"page_index":8,"viewing_time":8106},{"page_index":9,"viewing_time":3976},{"page_index":10,"viewing_time":4466},{"page_index":11,"viewing_time":5715},{"page_index":12,"viewing_time":29267},{"page_index":13,"viewing_time":1316},{"page_index":14,"viewing_time":1685}],"rt":151563,"trial_type":"instructions","trial_index":3,"time_elapsed":201229,"internal_node_id":"0.0-3.0-0.0","subject_id":"60a2dc206ce94a429c60a885","study_id":"60edd13110225f80f9f3709b","session_id":"6196c1f2740bdcc0c6a24763","condition":"contingent","relevant_dimensions":["antennae","pattern"],"bee_group":{"antennae":"B","wings":"X","pattern":"S","legs":"X"},"bonus":0.8400000000000005},{"rt":11221,"response":{"Q0":["Two or six legs","Stripes or spots on body","Single or double wings","Antennae or no antennae"]},"question_order":[0],"trial_type":"survey-multi-select","trial_index":4,"time_elapsed":212455,"internal_node_id":"0.0-3.0-1.0","subject_id":"60a2dc206ce94a429c60a885","study_id":"60edd13110225f80f9f3709b","session_id":"6196c1f2740bdcc0c6a24763","condition":"contingent","relevant_dimensions":["antennae","pattern"],"bee_group":{"antennae":"B","wings":"X","pattern":"S","legs":"X"},"correct":true,"bonus":0.8400000000000005},{"rt":20208,"response":{"Q1":"No.","Q2":"Based on the four features of the bee.","Q3":"You do not learn if it was friendly or dangerous, and do not alter your bonus."},"question_order":[0,1,2],"trial_type":"survey-multi-choice","trial_index":5,"time_elapsed":232665,"internal_node_id":"0.0-3.0-2.0","subject_id":"60a2dc206ce94a429c60a885","study_id":"60edd13110225f80f9f3709b","session_id":"6196c1f2740bdcc0c6a24763","condition":"contingent","relevant_dimensions":["antennae","pattern"],"bee_group":{"antennae":"B","wings":"X","pattern":"S","legs":"X"},"correct":true,"bonus":0.8400000000000005},{"rt":1958,"stimulus":"<p>Congrats, you got everything right<br>When you're ready, click the button below to continue to the experiment.</p>","response":0,"trial_type":"html-button-response","trial_index":6,"time_elapsed":234624,"internal_node_id":"0.0-3.0-3.0","subject_id":"60a2dc206ce94a429c60a885","study_id":"60edd13110225f80f9f3709b","session_id":"6196c1f2740bdcc0c6a24763","condition":"contingent","relevant_dimensions":["antennae","pattern"],"bee_group":{"antennae":"B","wings":"X","pattern":"S","legs":"X"},"bonus":0.8400000000000005},{"rt":13462,"stimulus":"bees-with-color/bee-B1DF.svg","response":1,"trial_type":"image-button-response","trial_index":7,"time_elapsed":248088,"internal_node_id":"0.0-4.0-0.0","subject_id":"60a2dc206ce94a429c60a885","study_id":"60edd13110225f80f9f3709b","session_id":"6196c1f2740bdcc0c6a24763","condition":"contingent","relevant_dimensions":["antennae","pattern"],"bee_group":{"antennae":"B","wings":"X","pattern":"S","legs":"X"},"action":"avoid","summary":"bad-avoid","bonus":0.8400000000000005},{"rt":2362,"stimulus":"\n                    <p><b>Action: <em>avoid</em></b></p>\n                    <p>This is the bee that you just saw.</p>\n                    <img src=\"bees-with-color/bee-B1DF.svg\" width=\"200\">\n                    <p><br>Your bonus pay is unchanged, and remains at $0.54.</p>\n            ","response":0,"trial_type":"html-button-response","trial_index":8,"time_elapsed":250460,"internal_node_id":"0.0-4.0-1.0","subject_id":"60a2dc206ce94a429c60a885","study_id":"60edd13110225f80f9f3709b","session_id":"6196c1f2740bdcc0c6a24763","condition":"contingent","relevant_dimensions":["antennae","pattern"],"bee_group":{"antennae":"B","wings":"X","pattern":"S","legs":"X"},"bonus":0.8400000000000005},{"rt":2951,"stimulus":"bees-with-color/bee-A1SM.svg","response":0,"trial_type":"image-button-response","trial_index":9,"time_elapsed":253413,"internal_node_id":"0.0-4.0-0.1","subject_id":"60a2dc206ce94a429c60a885","study_id":"60edd13110225f80f9f3709b","session_id":"6196c1f2740bdcc0c6a24763","condition":"contingent","relevant_dimensions":["antennae","pattern"],"bee_group":{"antennae":"B","wings":"X","pattern":"S","legs":"X"},"action":"harvest","summary":"good-harvest","bonus":0.8400000000000005},{"rt":1957,"stimulus":"\n                    <p><b>Action: <em>harvest</em></b></p>\n                    <p>This is the bee that you just saw.</p>\n                    <img src=\"bees-with-color/bee-A1SM.svg\" width=\"200\">\n                    <p><span class=\"greenText\"><b>Successful harvest!</b></span><br>Your pay has increased by $0.02. Your bonus pay is now $0.56.</p>\n            ","response":0,"trial_type":"html-button-response","trial_index":10,"time_elapsed":255371,"internal_node_id":"0.0-4.0-1.1","subject_id":"60a2dc206ce94a429c60a885","study_id":"60edd13110225f80f9f3709b","session_id":"6196c1f2740bdcc0c6a24763","condition":"contingent","relevant_dimensions":["antennae","pattern"],"bee_group":{"antennae":"B","wings":"X","pattern":"S","legs":"X"},"bonus":0.8400000000000005},{"rt":12611,"stimulus":"bees-with-color/bee-A1SF.svg","response":1,"trial_type":"image-button-response","trial_index":11,"time_elapsed":267983,"internal_node_id":"0.0-4.0-0.2","subject_id":"60a2dc206ce94a429c60a885","study_id":"60edd13110225f80f9f3709b","session_id":"6196c1f2740bdcc0c6a24763","condition":"contingent","relevant_dimensions":["antennae","pattern"],"bee_group":{"antennae":"B","wings":"X","pattern":"S","legs":"X"},"action":"avoid","summary":"bad-avoid","bonus":0.8400000000000005},{"rt":1350,"stimulus":"\n                    <p><b>Action: <em>avoid</em></b></p>\n                    <p>This is the bee that you just saw.</p>\n                    <img src=\"bees-with-color/bee-A1SF.svg\" width=\"200\">\n                    <p><br>Your bonus pay is unchanged, and remains at $0.56.</p>\n            ","response":0,"trial_type":"html-button-response","trial_index":12,"time_elapsed":269335,"internal_node_id":"0.0-4.0-1.2","subject_id":"60a2dc206ce94a429c60a885","study_id":"60edd13110225f80f9f3709b","session_id":"6196c1f2740bdcc0c6a24763","condition":"contingent","relevant_dimensions":["antennae","pattern"],"bee_group":{"antennae":"B","wings":"X","pattern":"S","legs":"X"},"bonus":0.8400000000000005},{"rt":1323,"stimulus":"bees-with-color/bee-A2DF.svg","response":1,"trial_type":"image-button-response","trial_index":13,"time_elapsed":270659,"internal_node_id":"0.0-4.0-0.3","subject_id":"60a2dc206ce94a429c60a885","study_id":"60edd13110225f80f9f3709b","session_id":"6196c1f2740bdcc0c6a24763","condition":"contingent","relevant_dimensions":["antennae","pattern"],"bee_group":{"antennae":"B","wings":"X","pattern":"S","legs":"X"},"action":"avoid","summary":"bad-avoid","bonus":0.8400000000000005},{"rt":824,"stimulus":"\n                    <p><b>Action: <em>avoid</em></b></p>\n                    <p>This is the bee that you just saw.</p>\n                    <img src=\"bees-with-color/bee-A2DF.svg\" width=\"200\">\n                    <p><br>Your bonus pay is unchanged, and remains at $0.56.</p>\n            ","response":0,"trial_type":"html-button-response","trial_index":14,"time_elapsed":271483,"internal_node_id":"0.0-4.0-1.3","subject_id":"60a2dc206ce94a429c60a885","study_id":"60edd13110225f80f9f3709b","session_id":"6196c1f2740bdcc0c6a24763","condition":"contingent","relevant_dimensions":["antennae","pattern"],"bee_group":{"antennae":"B","wings":"X","pattern":"S","legs":"X"},"bonus":0.8400000000000005},{"rt":2426,"stimulus":"bees-with-color/bee-A2SM.svg","response":0,"trial_type":"image-button-response","trial_index":15,"time_elapsed":273910,"internal_node_id":"0.0-4.0-0.4","subject_id":"60a2dc206ce94a429c60a885","study_id":"60edd13110225f80f9f3709b","session_id":"6196c1f2740bdcc0c6a24763","condition":"contingent","relevant_dimensions":["antennae","pattern"],"bee_group":{"antennae":"B","wings":"X","pattern":"S","legs":"X"},"action":"harvest","summary":"good-harvest","bonus":0.8400000000000005},{"rt":4486,"stimulus":"\n                    <p><b>Action: <em>harvest</em></b></p>\n                    <p>This is the bee that you just saw.</p>\n                    <img src=\"bees-with-color/bee-A2SM.svg\" width=\"200\">\n                    <p><span class=\"greenText\"><b>Successful harvest!</b></span><br>Your pay has increased by $0.02. Your bonus pay is now $0.58.</p>\n            ","response":0,"trial_type":"html-button-response","trial_index":16,"time_elapsed":278398,"internal_node_id":"0.0-4.0-1.4","subject_id":"60a2dc206ce94a429c60a885","study_id":"60edd13110225f80f9f3709b","session_id":"6196c1f2740bdcc0c6a24763","condition":"contingent","relevant_dimensions":["antennae","pattern"],"bee_group":{"antennae":"B","wings":"X","pattern":"S","legs":"X"},"bonus":0.8400000000000005},{"rt":3198,"stimulus":"bees-with-color/bee-B1SM.svg","response":1,"trial_type":"image-button-response","trial_index":17,"time_elapsed":281596,"internal_node_id":"0.0-4.0-0.5","subject_id":"60a2dc206ce94a429c60a885","study_id":"60edd13110225f80f9f3709b","session_id":"6196c1f2740bdcc0c6a24763","condition":"contingent","relevant_dimensions":["antennae","pattern"],"bee_group":{"antennae":"B","wings":"X","pattern":"S","legs":"X"},"action":"avoid","summary":"good-avoid","bonus":0.8400000000000005},{"rt":1255,"stimulus":"\n                    <p><b>Action: <em>avoid</em></b></p>\n                    <p>This is the bee that you just saw.</p>\n                    <img src=\"bees-with-color/bee-B1SM.svg\" width=\"200\">\n                    <p><br>Your bonus pay is unchanged, and remains at $0.58.</p>\n            ","response":0,"trial_type":"html-button-response","trial_index":18,"time_elapsed":282852,"internal_node_id":"0.0-4.0-1.5","subject_id":"60a2dc206ce94a429c60a885","study_id":"60edd13110225f80f9f3709b","session_id":"6196c1f2740bdcc0c6a24763","condition":"contingent","relevant_dimensions":["antennae","pattern"],"bee_group":{"antennae":"B","wings":"X","pattern":"S","legs":"X"},"bonus":0.8400000000000005},{"rt":1364,"stimulus":"bees-with-color/bee-A2DM.svg","response":1,"trial_type":"image-button-response","trial_index":19,"time_elapsed":284216,"internal_node_id":"0.0-4.0-0.6","subject_id":"60a2dc206ce94a429c60a885","study_id":"60edd13110225f80f9f3709b","session_id":"6196c1f2740bdcc0c6a24763","condition":"contingent","relevant_dimensions":["antennae","pattern"],"bee_group":{"antennae":"B","wings":"X","pattern":"S","legs":"X"},"action":"avoid","summary":"bad-avoid","bonus":0.8400000000000005},{"rt":1345,"stimulus":"\n                    <p><b>Action: <em>avoid</em></b></p>\n                    <p>This is the bee that you just saw.</p>\n                    <img src=\"bees-with-color/bee-A2DM.svg\" width=\"200\">\n                    <p><br>Your bonus pay is unchanged, and remains at $0.58.</p>\n            ","response":0,"trial_type":"html-button-response","trial_index":20,"time_elapsed":285563,"internal_node_id":"0.0-4.0-1.6","subject_id":"60a2dc206ce94a429c60a885","study_id":"60edd13110225f80f9f3709b","session_id":"6196c1f2740bdcc0c6a24763","condition":"contingent","relevant_dimensions":["antennae","pattern"],"bee_group":{"antennae":"B","wings":"X","pattern":"S","legs":"X"},"bonus":0.8400000000000005},{"rt":1663,"stimulus":"bees-with-color/bee-B2SM.svg","response":0,"trial_type":"image-button-response","trial_index":21,"time_elapsed":287226,"internal_node_id":"0.0-4.0-0.7","subject_id":"60a2dc206ce94a429c60a885","study_id":"60edd13110225f80f9f3709b","session_id":"6196c1f2740bdcc0c6a24763","condition":"contingent","relevant_dimensions":["antennae","pattern"],"bee_group":{"antennae":"B","wings":"X","pattern":"S","legs":"X"},"action":"harvest","summary":"bad-harvest","bonus":0.8400000000000005},{"rt":3125,"stimulus":"\n                    <p><b>Action: <em>harvest</em></b></p>\n                    <p>This is the bee that you just saw.</p>\n                    <img src=\"bees-with-color/bee-B2SM.svg\" width=\"200\">\n                    <p><span class=\"redText\">Bad choice, the bee was angry.</span><br><b>You have been stung!</b><br>Your pay has been decreased by $0.10. Your bonus pay is now $0.48.</p>\n            ","response":0,"trial_type":"html-button-response","trial_index":22,"time_elapsed":290353,"internal_node_id":"0.0-4.0-1.7","subject_id":"60a2dc206ce94a429c60a885","study_id":"60edd13110225f80f9f3709b","session_id":"6196c1f2740bdcc0c6a24763","condition":"contingent","relevant_dimensions":["antennae","pattern"],"bee_group":{"antennae":"B","wings":"X","pattern":"S","legs":"X"},"bonus":0.8400000000000005},{"rt":1010,"stimulus":"bees-with-color/bee-A1DF.svg","response":1,"trial_type":"image-button-response","trial_index":23,"time_elapsed":291364,"internal_node_id":"0.0-4.0-0.8","subject_id":"60a2dc206ce94a429c60a885","study_id":"60edd13110225f80f9f3709b","session_id":"6196c1f2740bdcc0c6a24763","condition":"contingent","relevant_dimensions":["antennae","pattern"],"bee_group":{"antennae":"B","wings":"X","pattern":"S","legs":"X"},"action":"avoid","summary":"bad-avoid","bonus":0.8400000000000005},{"rt":987,"stimulus":"\n                    <p><b>Action: <em>avoid</em></b></p>\n                    <p>This is the bee that you just saw.</p>\n                    <img src=\"bees-with-color/bee-A1DF.svg\" width=\"200\">\n                    <p><br>Your bonus pay is unchanged, and remains at $0.48.</p>\n            ","response":0,"trial_type":"html-button-response","trial_index":24,"time_elapsed":292352,"internal_node_id":"0.0-4.0-1.8","subject_id":"60a2dc206ce94a429c60a885","study_id":"60edd13110225f80f9f3709b","session_id":"6196c1f2740bdcc0c6a24763","condition":"contingent","relevant_dimensions":["antennae","pattern"],"bee_group":{"antennae":"B","wings":"X","pattern":"S","legs":"X"},"bonus":0.8400000000000005},{"rt":1717,"stimulus":"bees-with-color/bee-A2SF.svg","response":0,"trial_type":"image-button-response","trial_index":25,"time_elapsed":294070,"internal_node_id":"0.0-4.0-0.9","subject_id":"60a2dc206ce94a429c60a885","study_id":"60edd13110225f80f9f3709b","session_id":"6196c1f2740bdcc0c6a24763","condition":"contingent","relevant_dimensions":["antennae","pattern"],"bee_group":{"antennae":"B","wings":"X","pattern":"S","legs":"X"},"action":"harvest","summary":"good-harvest","bonus":0.8400000000000005},{"rt":1823,"stimulus":"\n                    <p><b>Action: <em>harvest</em></b></p>\n                    <p>This is the bee that you just saw.</p>\n                    <img src=\"bees-with-color/bee-A2SF.svg\" width=\"200\">\n                    <p><span class=\"greenText\"><b>Successful harvest!</b></span><br>Your pay has increased by $0.02. Your bonus pay is now $0.50.</p>\n            ","response":0,"trial_type":"html-button-response","trial_index":26,"time_elapsed":295895,"internal_node_id":"0.0-4.0-1.9","subject_id":"60a2dc206ce94a429c60a885","study_id":"60edd13110225f80f9f3709b","session_id":"6196c1f2740bdcc0c6a24763","condition":"contingent","relevant_dimensions":["antennae","pattern"],"bee_group":{"antennae":"B","wings":"X","pattern":"S","legs":"X"},"bonus":0.8400000000000005},{"rt":2968,"stimulus":"bees-with-color/bee-B1SF.svg","response":1,"trial_type":"image-button-response","trial_index":27,"time_elapsed":298864,"internal_node_id":"0.0-4.0-0.10","subject_id":"60a2dc206ce94a429c60a885","study_id":"60edd13110225f80f9f3709b","session_id":"6196c1f2740bdcc0c6a24763","condition":"contingent","relevant_dimensions":["antennae","pattern"],"bee_group":{"antennae":"B","wings":"X","pattern":"S","legs":"X"},"action":"avoid","summary":"good-avoid","bonus":0.8400000000000005},{"rt":856,"stimulus":"\n                    <p><b>Action: <em>avoid</em></b></p>\n                    <p>This is the bee that you just saw.</p>\n                    <img src=\"bees-with-color/bee-B1SF.svg\" width=\"200\">\n                    <p><br>Your bonus pay is unchanged, and remains at $0.50.</p>\n            ","response":0,"trial_type":"html-button-response","trial_index":28,"time_elapsed":299720,"internal_node_id":"0.0-4.0-1.10","subject_id":"60a2dc206ce94a429c60a885","study_id":"60edd13110225f80f9f3709b","session_id":"6196c1f2740bdcc0c6a24763","condition":"contingent","relevant_dimensions":["antennae","pattern"],"bee_group":{"antennae":"B","wings":"X","pattern":"S","legs":"X"},"bonus":0.8400000000000005},{"rt":1565,"stimulus":"bees-with-color/bee-B2DM.svg","response":1,"trial_type":"image-button-response","trial_index":29,"time_elapsed":301287,"internal_node_id":"0.0-4.0-0.11","subject_id":"60a2dc206ce94a429c60a885","study_id":"60edd13110225f80f9f3709b","session_id":"6196c1f2740bdcc0c6a24763","condition":"contingent","relevant_dimensions":["antennae","pattern"],"bee_group":{"antennae":"B","wings":"X","pattern":"S","legs":"X"},"action":"avoid","summary":"bad-avoid","bonus":0.8400000000000005},{"rt":1661,"stimulus":"\n                    <p><b>Action: <em>avoid</em></b></p>\n                    <p>This is the bee that you just saw.</p>\n                    <img src=\"bees-with-color/bee-B2DM.svg\" width=\"200\">\n                    <p><br>Your bonus pay is unchanged, and remains at $0.50.</p>\n            ","response":0,"trial_type":"html-button-response","trial_index":30,"time_elapsed":302947,"internal_node_id":"0.0-4.0-1.11","subject_id":"60a2dc206ce94a429c60a885","study_id":"60edd13110225f80f9f3709b","session_id":"6196c1f2740bdcc0c6a24763","condition":"contingent","relevant_dimensions":["antennae","pattern"],"bee_group":{"antennae":"B","wings":"X","pattern":"S","legs":"X"},"bonus":0.8400000000000005},{"rt":14250,"stimulus":"bees-with-color/bee-B2DF.svg","response":1,"trial_type":"image-button-response","trial_index":31,"time_elapsed":317198,"internal_node_id":"0.0-4.0-0.12","subject_id":"60a2dc206ce94a429c60a885","study_id":"60edd13110225f80f9f3709b","session_id":"6196c1f2740bdcc0c6a24763","condition":"contingent","relevant_dimensions":["antennae","pattern"],"bee_group":{"antennae":"B","wings":"X","pattern":"S","legs":"X"},"action":"avoid","summary":"bad-avoid","bonus":0.8400000000000005},{"rt":657,"stimulus":"\n                    <p><b>Action: <em>avoid</em></b></p>\n                    <p>This is the bee that you just saw.</p>\n                    <img src=\"bees-with-color/bee-B2DF.svg\" width=\"200\">\n                    <p><br>Your bonus pay is unchanged, and remains at $0.50.</p>\n            ","response":0,"trial_type":"html-button-response","trial_index":32,"time_elapsed":317856,"internal_node_id":"0.0-4.0-1.12","subject_id":"60a2dc206ce94a429c60a885","study_id":"60edd13110225f80f9f3709b","session_id":"6196c1f2740bdcc0c6a24763","condition":"contingent","relevant_dimensions":["antennae","pattern"],"bee_group":{"antennae":"B","wings":"X","pattern":"S","legs":"X"},"bonus":0.8400000000000005},{"rt":1565,"stimulus":"bees-with-color/bee-B1DM.svg","response":1,"trial_type":"image-button-response","trial_index":33,"time_elapsed":319422,"internal_node_id":"0.0-4.0-0.13","subject_id":"60a2dc206ce94a429c60a885","study_id":"60edd13110225f80f9f3709b","session_id":"6196c1f2740bdcc0c6a24763","condition":"contingent","relevant_dimensions":["antennae","pattern"],"bee_group":{"antennae":"B","wings":"X","pattern":"S","legs":"X"},"action":"avoid","summary":"bad-avoid","bonus":0.8400000000000005},{"rt":626,"stimulus":"\n                    <p><b>Action: <em>avoid</em></b></p>\n                    <p>This is the bee that you just saw.</p>\n                    <img src=\"bees-with-color/bee-B1DM.svg\" width=\"200\">\n                    <p><br>Your bonus pay is unchanged, and remains at $0.50.</p>\n            ","response":0,"trial_type":"html-button-response","trial_index":34,"time_elapsed":320048,"internal_node_id":"0.0-4.0-1.13","subject_id":"60a2dc206ce94a429c60a885","study_id":"60edd13110225f80f9f3709b","session_id":"6196c1f2740bdcc0c6a24763","condition":"contingent","relevant_dimensions":["antennae","pattern"],"bee_group":{"antennae":"B","wings":"X","pattern":"S","legs":"X"},"bonus":0.8400000000000005},{"rt":1480,"stimulus":"bees-with-color/bee-A1DM.svg","response":1,"trial_type":"image-button-response","trial_index":35,"time_elapsed":321529,"internal_node_id":"0.0-4.0-0.14","subject_id":"60a2dc206ce94a429c60a885","study_id":"60edd13110225f80f9f3709b","session_id":"6196c1f2740bdcc0c6a24763","condition":"contingent","relevant_dimensions":["antennae","pattern"],"bee_group":{"antennae":"B","wings":"X","pattern":"S","legs":"X"},"action":"avoid","summary":"bad-avoid","bonus":0.8400000000000005},{"rt":535,"stimulus":"\n                    <p><b>Action: <em>avoid</em></b></p>\n                    <p>This is the bee that you just saw.</p>\n                    <img src=\"bees-with-color/bee-A1DM.svg\" width=\"200\">\n                    <p><br>Your bonus pay is unchanged, and remains at $0.50.</p>\n            ","response":0,"trial_type":"html-button-response","trial_index":36,"time_elapsed":322065,"internal_node_id":"0.0-4.0-1.14","subject_id":"60a2dc206ce94a429c60a885","study_id":"60edd13110225f80f9f3709b","session_id":"6196c1f2740bdcc0c6a24763","condition":"contingent","relevant_dimensions":["antennae","pattern"],"bee_group":{"antennae":"B","wings":"X","pattern":"S","legs":"X"},"bonus":0.8400000000000005},{"rt":1243,"stimulus":"bees-with-color/bee-B2SF.svg","response":1,"trial_type":"image-button-response","trial_index":37,"time_elapsed":323308,"internal_node_id":"0.0-4.0-0.15","subject_id":"60a2dc206ce94a429c60a885","study_id":"60edd13110225f80f9f3709b","session_id":"6196c1f2740bdcc0c6a24763","condition":"contingent","relevant_dimensions":["antennae","pattern"],"bee_group":{"antennae":"B","wings":"X","pattern":"S","legs":"X"},"action":"avoid","summary":"good-avoid","bonus":0.8400000000000005},{"rt":606,"stimulus":"\n                    <p><b>Action: <em>avoid</em></b></p>\n                    <p>This is the bee that you just saw.</p>\n                    <img src=\"bees-with-color/bee-B2SF.svg\" width=\"200\">\n                    <p><br>Your bonus pay is unchanged, and remains at $0.50.</p>\n            ","response":0,"trial_type":"html-button-response","trial_index":38,"time_elapsed":323916,"internal_node_id":"0.0-4.0-1.15","subject_id":"60a2dc206ce94a429c60a885","study_id":"60edd13110225f80f9f3709b","session_id":"6196c1f2740bdcc0c6a24763","condition":"contingent","relevant_dimensions":["antennae","pattern"],"bee_group":{"antennae":"B","wings":"X","pattern":"S","legs":"X"},"bonus":0.8400000000000005},{"rt":1450,"stimulus":"bees-with-color/bee-A2SF.svg","response":0,"trial_type":"image-button-response","trial_index":39,"time_elapsed":325367,"internal_node_id":"0.0-4.0-0.16","subject_id":"60a2dc206ce94a429c60a885","study_id":"60edd13110225f80f9f3709b","session_id":"6196c1f2740bdcc0c6a24763","condition":"contingent","relevant_dimensions":["antennae","pattern"],"bee_group":{"antennae":"B","wings":"X","pattern":"S","legs":"X"},"action":"harvest","summary":"good-harvest","bonus":0.8400000000000005},{"rt":1270,"stimulus":"\n                    <p><b>Action: <em>harvest</em></b></p>\n                    <p>This is the bee that you just saw.</p>\n                    <img src=\"bees-with-color/bee-A2SF.svg\" width=\"200\">\n                    <p><span class=\"greenText\"><b>Successful harvest!</b></span><br>Your pay has increased by $0.02. Your bonus pay is now $0.52.</p>\n            ","response":0,"trial_type":"html-button-response","trial_index":40,"time_elapsed":326638,"internal_node_id":"0.0-4.0-1.16","subject_id":"60a2dc206ce94a429c60a885","study_id":"60edd13110225f80f9f3709b","session_id":"6196c1f2740bdcc0c6a24763","condition":"contingent","relevant_dimensions":["antennae","pattern"],"bee_group":{"antennae":"B","wings":"X","pattern":"S","legs":"X"},"bonus":0.8400000000000005},{"rt":1250,"stimulus":"bees-with-color/bee-B2SM.svg","response":1,"trial_type":"image-button-response","trial_index":41,"time_elapsed":327888,"internal_node_id":"0.0-4.0-0.17","subject_id":"60a2dc206ce94a429c60a885","study_id":"60edd13110225f80f9f3709b","session_id":"6196c1f2740bdcc0c6a24763","condition":"contingent","relevant_dimensions":["antennae","pattern"],"bee_group":{"antennae":"B","wings":"X","pattern":"S","legs":"X"},"action":"avoid","summary":"good-avoid","bonus":0.8400000000000005},{"rt":618,"stimulus":"\n                    <p><b>Action: <em>avoid</em></b></p>\n                    <p>This is the bee that you just saw.</p>\n                    <img src=\"bees-with-color/bee-B2SM.svg\" width=\"200\">\n                    <p><br>Your bonus pay is unchanged, and remains at $0.52.</p>\n            ","response":0,"trial_type":"html-button-response","trial_index":42,"time_elapsed":328508,"internal_node_id":"0.0-4.0-1.17","subject_id":"60a2dc206ce94a429c60a885","study_id":"60edd13110225f80f9f3709b","session_id":"6196c1f2740bdcc0c6a24763","condition":"contingent","relevant_dimensions":["antennae","pattern"],"bee_group":{"antennae":"B","wings":"X","pattern":"S","legs":"X"},"bonus":0.8400000000000005},{"rt":1232,"stimulus":"bees-with-color/bee-A1SM.svg","response":0,"trial_type":"image-button-response","trial_index":43,"time_elapsed":329743,"internal_node_id":"0.0-4.0-0.18","subject_id":"60a2dc206ce94a429c60a885","study_id":"60edd13110225f80f9f3709b","session_id":"6196c1f2740bdcc0c6a24763","condition":"contingent","relevant_dimensions":["antennae","pattern"],"bee_group":{"antennae":"B","wings":"X","pattern":"S","legs":"X"},"action":"harvest","summary":"good-harvest","bonus":0.8400000000000005},{"rt":1325,"stimulus":"\n                    <p><b>Action: <em>harvest</em></b></p>\n                    <p>This is the bee that you just saw.</p>\n                    <img src=\"bees-with-color/bee-A1SM.svg\" width=\"200\">\n                    <p><span class=\"greenText\"><b>Successful harvest!</b></span><br>Your pay has increased by $0.02. Your bonus pay is now $0.54.</p>\n            ","response":0,"trial_type":"html-button-response","trial_index":44,"time_elapsed":331068,"internal_node_id":"0.0-4.0-1.18","subject_id":"60a2dc206ce94a429c60a885","study_id":"60edd13110225f80f9f3709b","session_id":"6196c1f2740bdcc0c6a24763","condition":"contingent","relevant_dimensions":["antennae","pattern"],"bee_group":{"antennae":"B","wings":"X","pattern":"S","legs":"X"},"bonus":0.8400000000000005},{"rt":1253,"stimulus":"bees-with-color/bee-B2DM.svg","response":1,"trial_type":"image-button-response","trial_index":45,"time_elapsed":332322,"internal_node_id":"0.0-4.0-0.19","subject_id":"60a2dc206ce94a429c60a885","study_id":"60edd13110225f80f9f3709b","session_id":"6196c1f2740bdcc0c6a24763","condition":"contingent","relevant_dimensions":["antennae","pattern"],"bee_group":{"antennae":"B","wings":"X","pattern":"S","legs":"X"},"action":"avoid","summary":"bad-avoid","bonus":0.8400000000000005},{"rt":1238,"stimulus":"\n                    <p><b>Action: <em>avoid</em></b></p>\n                    <p>This is the bee that you just saw.</p>\n                    <img src=\"bees-with-color/bee-B2DM.svg\" width=\"200\">\n                    <p><br>Your bonus pay is unchanged, and remains at $0.54.</p>\n            ","response":0,"trial_type":"html-button-response","trial_index":46,"time_elapsed":333562,"internal_node_id":"0.0-4.0-1.19","subject_id":"60a2dc206ce94a429c60a885","study_id":"60edd13110225f80f9f3709b","session_id":"6196c1f2740bdcc0c6a24763","condition":"contingent","relevant_dimensions":["antennae","pattern"],"bee_group":{"antennae":"B","wings":"X","pattern":"S","legs":"X"},"bonus":0.8400000000000005},{"rt":1015,"stimulus":"bees-with-color/bee-B1SF.svg","response":1,"trial_type":"image-button-response","trial_index":47,"time_elapsed":334578,"internal_node_id":"0.0-4.0-0.20","subject_id":"60a2dc206ce94a429c60a885","study_id":"60edd13110225f80f9f3709b","session_id":"6196c1f2740bdcc0c6a24763","condition":"contingent","relevant_dimensions":["antennae","pattern"],"bee_group":{"antennae":"B","wings":"X","pattern":"S","legs":"X"},"action":"avoid","summary":"good-avoid","bonus":0.8400000000000005},{"rt":584,"stimulus":"\n                    <p><b>Action: <em>avoid</em></b></p>\n                    <p>This is the bee that you just saw.</p>\n                    <img src=\"bees-with-color/bee-B1SF.svg\" width=\"200\">\n                    <p><br>Your bonus pay is unchanged, and remains at $0.54.</p>\n            ","response":0,"trial_type":"html-button-response","trial_index":48,"time_elapsed":335162,"internal_node_id":"0.0-4.0-1.20","subject_id":"60a2dc206ce94a429c60a885","study_id":"60edd13110225f80f9f3709b","session_id":"6196c1f2740bdcc0c6a24763","condition":"contingent","relevant_dimensions":["antennae","pattern"],"bee_group":{"antennae":"B","wings":"X","pattern":"S","legs":"X"},"bonus":0.8400000000000005},{"rt":2402,"stimulus":"bees-with-color/bee-B1DF.svg","response":1,"trial_type":"image-button-response","trial_index":49,"time_elapsed":337566,"internal_node_id":"0.0-4.0-0.21","subject_id":"60a2dc206ce94a429c60a885","study_id":"60edd13110225f80f9f3709b","session_id":"6196c1f2740bdcc0c6a24763","condition":"contingent","relevant_dimensions":["antennae","pattern"],"bee_group":{"antennae":"B","wings":"X","pattern":"S","legs":"X"},"action":"avoid","summary":"bad-avoid","bonus":0.8400000000000005},{"rt":897,"stimulus":"\n                    <p><b>Action: <em>avoid</em></b></p>\n                    <p>This is the bee that you just saw.</p>\n                    <img src=\"bees-with-color/bee-B1DF.svg\" width=\"200\">\n                    <p><br>Your bonus pay is unchanged, and remains at $0.54.</p>\n            ","response":0,"trial_type":"html-button-response","trial_index":50,"time_elapsed":338464,"internal_node_id":"0.0-4.0-1.21","subject_id":"60a2dc206ce94a429c60a885","study_id":"60edd13110225f80f9f3709b","session_id":"6196c1f2740bdcc0c6a24763","condition":"contingent","relevant_dimensions":["antennae","pattern"],"bee_group":{"antennae":"B","wings":"X","pattern":"S","legs":"X"},"bonus":0.8400000000000005},{"rt":1061,"stimulus":"bees-with-color/bee-A2SM.svg","response":0,"trial_type":"image-button-response","trial_index":51,"time_elapsed":339526,"internal_node_id":"0.0-4.0-0.22","subject_id":"60a2dc206ce94a429c60a885","study_id":"60edd13110225f80f9f3709b","session_id":"6196c1f2740bdcc0c6a24763","condition":"contingent","relevant_dimensions":["antennae","pattern"],"bee_group":{"antennae":"B","wings":"X","pattern":"S","legs":"X"},"action":"harvest","summary":"good-harvest","bonus":0.8400000000000005},{"rt":1003,"stimulus":"\n                    <p><b>Action: <em>harvest</em></b></p>\n                    <p>This is the bee that you just saw.</p>\n                    <img src=\"bees-with-color/bee-A2SM.svg\" width=\"200\">\n                    <p><span class=\"greenText\"><b>Successful harvest!</b></span><br>Your pay has increased by $0.02. Your bonus pay is now $0.56.</p>\n            ","response":0,"trial_type":"html-button-response","trial_index":52,"time_elapsed":340530,"internal_node_id":"0.0-4.0-1.22","subject_id":"60a2dc206ce94a429c60a885","study_id":"60edd13110225f80f9f3709b","session_id":"6196c1f2740bdcc0c6a24763","condition":"contingent","relevant_dimensions":["antennae","pattern"],"bee_group":{"antennae":"B","wings":"X","pattern":"S","legs":"X"},"bonus":0.8400000000000005},{"rt":821,"stimulus":"bees-with-color/bee-B2DF.svg","response":1,"trial_type":"image-button-response","trial_index":53,"time_elapsed":341353,"internal_node_id":"0.0-4.0-0.23","subject_id":"60a2dc206ce94a429c60a885","study_id":"60edd13110225f80f9f3709b","session_id":"6196c1f2740bdcc0c6a24763","condition":"contingent","relevant_dimensions":["antennae","pattern"],"bee_group":{"antennae":"B","wings":"X","pattern":"S","legs":"X"},"action":"avoid","summary":"bad-avoid","bonus":0.8400000000000005},{"rt":730,"stimulus":"\n                    <p><b>Action: <em>avoid</em></b></p>\n                    <p>This is the bee that you just saw.</p>\n                    <img src=\"bees-with-color/bee-B2DF.svg\" width=\"200\">\n                    <p><br>Your bonus pay is unchanged, and remains at $0.56.</p>\n            ","response":0,"trial_type":"html-button-response","trial_index":54,"time_elapsed":342084,"internal_node_id":"0.0-4.0-1.23","subject_id":"60a2dc206ce94a429c60a885","study_id":"60edd13110225f80f9f3709b","session_id":"6196c1f2740bdcc0c6a24763","condition":"contingent","relevant_dimensions":["antennae","pattern"],"bee_group":{"antennae":"B","wings":"X","pattern":"S","legs":"X"},"bonus":0.8400000000000005},{"rt":3525,"stimulus":"bees-with-color/bee-A2DM.svg","response":0,"trial_type":"image-button-response","trial_index":55,"time_elapsed":345611,"internal_node_id":"0.0-4.0-0.24","subject_id":"60a2dc206ce94a429c60a885","study_id":"60edd13110225f80f9f3709b","session_id":"6196c1f2740bdcc0c6a24763","condition":"contingent","relevant_dimensions":["antennae","pattern"],"bee_group":{"antennae":"B","wings":"X","pattern":"S","legs":"X"},"action":"harvest","summary":"good-harvest","bonus":0.8400000000000005},{"rt":3052,"stimulus":"\n                    <p><b>Action: <em>harvest</em></b></p>\n                    <p>This is the bee that you just saw.</p>\n                    <img src=\"bees-with-color/bee-A2DM.svg\" width=\"200\">\n                    <p><span class=\"greenText\"><b>Successful harvest!</b></span><br>Your pay has increased by $0.02. Your bonus pay is now $0.58.</p>\n            ","response":0,"trial_type":"html-button-response","trial_index":56,"time_elapsed":348664,"internal_node_id":"0.0-4.0-1.24","subject_id":"60a2dc206ce94a429c60a885","study_id":"60edd13110225f80f9f3709b","session_id":"6196c1f2740bdcc0c6a24763","condition":"contingent","relevant_dimensions":["antennae","pattern"],"bee_group":{"antennae":"B","wings":"X","pattern":"S","legs":"X"},"bonus":0.8400000000000005},{"rt":1105,"stimulus":"bees-with-color/bee-B2SF.svg","response":1,"trial_type":"image-button-response","trial_index":57,"time_elapsed":349771,"internal_node_id":"0.0-4.0-0.25","subject_id":"60a2dc206ce94a429c60a885","study_id":"60edd13110225f80f9f3709b","session_id":"6196c1f2740bdcc0c6a24763","condition":"contingent","relevant_dimensions":["antennae","pattern"],"bee_group":{"antennae":"B","wings":"X","pattern":"S","legs":"X"},"action":"avoid","summary":"good-avoid","bonus":0.8400000000000005},{"rt":733,"stimulus":"\n                    <p><b>Action: <em>avoid</em></b></p>\n                    <p>This is the bee that you just saw.</p>\n                    <img src=\"bees-with-color/bee-B2SF.svg\" width=\"200\">\n                    <p><br>Your bonus pay is unchanged, and remains at $0.58.</p>\n            ","response":0,"trial_type":"html-button-response","trial_index":58,"time_elapsed":350504,"internal_node_id":"0.0-4.0-1.25","subject_id":"60a2dc206ce94a429c60a885","study_id":"60edd13110225f80f9f3709b","session_id":"6196c1f2740bdcc0c6a24763","condition":"contingent","relevant_dimensions":["antennae","pattern"],"bee_group":{"antennae":"B","wings":"X","pattern":"S","legs":"X"},"bonus":0.8400000000000005},{"rt":2041,"stimulus":"bees-with-color/bee-B1DM.svg","response":1,"trial_type":"image-button-response","trial_index":59,"time_elapsed":352546,"internal_node_id":"0.0-4.0-0.26","subject_id":"60a2dc206ce94a429c60a885","study_id":"60edd13110225f80f9f3709b","session_id":"6196c1f2740bdcc0c6a24763","condition":"contingent","relevant_dimensions":["antennae","pattern"],"bee_group":{"antennae":"B","wings":"X","pattern":"S","legs":"X"},"action":"avoid","summary":"bad-avoid","bonus":0.8400000000000005},{"rt":646,"stimulus":"\n                    <p><b>Action: <em>avoid</em></b></p>\n                    <p>This is the bee that you just saw.</p>\n                    <img src=\"bees-with-color/bee-B1DM.svg\" width=\"200\">\n                    <p><br>Your bonus pay is unchanged, and remains at $0.58.</p>\n            ","response":0,"trial_type":"html-button-response","trial_index":60,"time_elapsed":353195,"internal_node_id":"0.0-4.0-1.26","subject_id":"60a2dc206ce94a429c60a885","study_id":"60edd13110225f80f9f3709b","session_id":"6196c1f2740bdcc0c6a24763","condition":"contingent","relevant_dimensions":["antennae","pattern"],"bee_group":{"antennae":"B","wings":"X","pattern":"S","legs":"X"},"bonus":0.8400000000000005},{"rt":3236,"stimulus":"bees-with-color/bee-A2DF.svg","response":0,"trial_type":"image-button-response","trial_index":61,"time_elapsed":356431,"internal_node_id":"0.0-4.0-0.27","subject_id":"60a2dc206ce94a429c60a885","study_id":"60edd13110225f80f9f3709b","session_id":"6196c1f2740bdcc0c6a24763","condition":"contingent","relevant_dimensions":["antennae","pattern"],"bee_group":{"antennae":"B","wings":"X","pattern":"S","legs":"X"},"action":"harvest","summary":"good-harvest","bonus":0.8400000000000005},{"rt":1075,"stimulus":"\n                    <p><b>Action: <em>harvest</em></b></p>\n                    <p>This is the bee that you just saw.</p>\n                    <img src=\"bees-with-color/bee-A2DF.svg\" width=\"200\">\n                    <p><span class=\"greenText\"><b>Successful harvest!</b></span><br>Your pay has increased by $0.02. Your bonus pay is now $0.60.</p>\n            ","response":0,"trial_type":"html-button-response","trial_index":62,"time_elapsed":357507,"internal_node_id":"0.0-4.0-1.27","subject_id":"60a2dc206ce94a429c60a885","study_id":"60edd13110225f80f9f3709b","session_id":"6196c1f2740bdcc0c6a24763","condition":"contingent","relevant_dimensions":["antennae","pattern"],"bee_group":{"antennae":"B","wings":"X","pattern":"S","legs":"X"},"bonus":0.8400000000000005},{"rt":9411,"stimulus":"bees-with-color/bee-A1DM.svg","response":1,"trial_type":"image-button-response","trial_index":63,"time_elapsed":366919,"internal_node_id":"0.0-4.0-0.28","subject_id":"60a2dc206ce94a429c60a885","study_id":"60edd13110225f80f9f3709b","session_id":"6196c1f2740bdcc0c6a24763","condition":"contingent","relevant_dimensions":["antennae","pattern"],"bee_group":{"antennae":"B","wings":"X","pattern":"S","legs":"X"},"action":"avoid","summary":"bad-avoid","bonus":0.8400000000000005},{"rt":891,"stimulus":"\n                    <p><b>Action: <em>avoid</em></b></p>\n                    <p>This is the bee that you just saw.</p>\n                    <img src=\"bees-with-color/bee-A1DM.svg\" width=\"200\">\n                    <p><br>Your bonus pay is unchanged, and remains at $0.60.</p>\n            ","response":0,"trial_type":"html-button-response","trial_index":64,"time_elapsed":367812,"internal_node_id":"0.0-4.0-1.28","subject_id":"60a2dc206ce94a429c60a885","study_id":"60edd13110225f80f9f3709b","session_id":"6196c1f2740bdcc0c6a24763","condition":"contingent","relevant_dimensions":["antennae","pattern"],"bee_group":{"antennae":"B","wings":"X","pattern":"S","legs":"X"},"bonus":0.8400000000000005},{"rt":3317,"stimulus":"bees-with-color/bee-A1DF.svg","response":1,"trial_type":"image-button-response","trial_index":65,"time_elapsed":371131,"internal_node_id":"0.0-4.0-0.29","subject_id":"60a2dc206ce94a429c60a885","study_id":"60edd13110225f80f9f3709b","session_id":"6196c1f2740bdcc0c6a24763","condition":"contingent","relevant_dimensions":["antennae","pattern"],"bee_group":{"antennae":"B","wings":"X","pattern":"S","legs":"X"},"action":"avoid","summary":"bad-avoid","bonus":0.8400000000000005},{"rt":744,"stimulus":"\n                    <p><b>Action: <em>avoid</em></b></p>\n                    <p>This is the bee that you just saw.</p>\n                    <img src=\"bees-with-color/bee-A1DF.svg\" width=\"200\">\n                    <p><br>Your bonus pay is unchanged, and remains at $0.60.</p>\n            ","response":0,"trial_type":"html-button-response","trial_index":66,"time_elapsed":371876,"internal_node_id":"0.0-4.0-1.29","subject_id":"60a2dc206ce94a429c60a885","study_id":"60edd13110225f80f9f3709b","session_id":"6196c1f2740bdcc0c6a24763","condition":"contingent","relevant_dimensions":["antennae","pattern"],"bee_group":{"antennae":"B","wings":"X","pattern":"S","legs":"X"},"bonus":0.8400000000000005},{"rt":1067,"stimulus":"bees-with-color/bee-B1SM.svg","response":1,"trial_type":"image-button-response","trial_index":67,"time_elapsed":372943,"internal_node_id":"0.0-4.0-0.30","subject_id":"60a2dc206ce94a429c60a885","study_id":"60edd13110225f80f9f3709b","session_id":"6196c1f2740bdcc0c6a24763","condition":"contingent","relevant_dimensions":["antennae","pattern"],"bee_group":{"antennae":"B","wings":"X","pattern":"S","legs":"X"},"action":"avoid","summary":"good-avoid","bonus":0.8400000000000005},{"rt":519,"stimulus":"\n                    <p><b>Action: <em>avoid</em></b></p>\n                    <p>This is the bee that you just saw.</p>\n                    <img src=\"bees-with-color/bee-B1SM.svg\" width=\"200\">\n                    <p><br>Your bonus pay is unchanged, and remains at $0.60.</p>\n            ","response":0,"trial_type":"html-button-response","trial_index":68,"time_elapsed":373463,"internal_node_id":"0.0-4.0-1.30","subject_id":"60a2dc206ce94a429c60a885","study_id":"60edd13110225f80f9f3709b","session_id":"6196c1f2740bdcc0c6a24763","condition":"contingent","relevant_dimensions":["antennae","pattern"],"bee_group":{"antennae":"B","wings":"X","pattern":"S","legs":"X"},"bonus":0.8400000000000005},{"rt":2836,"stimulus":"bees-with-color/bee-A1SF.svg","response":0,"trial_type":"image-button-response","trial_index":69,"time_elapsed":376300,"internal_node_id":"0.0-4.0-0.31","subject_id":"60a2dc206ce94a429c60a885","study_id":"60edd13110225f80f9f3709b","session_id":"6196c1f2740bdcc0c6a24763","condition":"contingent","relevant_dimensions":["antennae","pattern"],"bee_group":{"antennae":"B","wings":"X","pattern":"S","legs":"X"},"action":"harvest","summary":"good-harvest","bonus":0.8400000000000005},{"rt":983,"stimulus":"\n                    <p><b>Action: <em>harvest</em></b></p>\n                    <p>This is the bee that you just saw.</p>\n                    <img src=\"bees-with-color/bee-A1SF.svg\" width=\"200\">\n                    <p><span class=\"greenText\"><b>Successful harvest!</b></span><br>Your pay has increased by $0.02. Your bonus pay is now $0.62.</p>\n            ","response":0,"trial_type":"html-button-response","trial_index":70,"time_elapsed":377284,"internal_node_id":"0.0-4.0-1.31","subject_id":"60a2dc206ce94a429c60a885","study_id":"60edd13110225f80f9f3709b","session_id":"6196c1f2740bdcc0c6a24763","condition":"contingent","relevant_dimensions":["antennae","pattern"],"bee_group":{"antennae":"B","wings":"X","pattern":"S","legs":"X"},"bonus":0.8400000000000005},{"rt":2335,"stimulus":"bees-with-color/bee-A2DF.svg","response":1,"trial_type":"image-button-response","trial_index":71,"time_elapsed":379620,"internal_node_id":"0.0-4.0-0.32","subject_id":"60a2dc206ce94a429c60a885","study_id":"60edd13110225f80f9f3709b","session_id":"6196c1f2740bdcc0c6a24763","condition":"contingent","relevant_dimensions":["antennae","pattern"],"bee_group":{"antennae":"B","wings":"X","pattern":"S","legs":"X"},"action":"avoid","summary":"bad-avoid","bonus":0.8400000000000005},{"rt":646,"stimulus":"\n                    <p><b>Action: <em>avoid</em></b></p>\n                    <p>This is the bee that you just saw.</p>\n                    <img src=\"bees-with-color/bee-A2DF.svg\" width=\"200\">\n                    <p><br>Your bonus pay is unchanged, and remains at $0.62.</p>\n            ","response":0,"trial_type":"html-button-response","trial_index":72,"time_elapsed":380266,"internal_node_id":"0.0-4.0-1.32","subject_id":"60a2dc206ce94a429c60a885","study_id":"60edd13110225f80f9f3709b","session_id":"6196c1f2740bdcc0c6a24763","condition":"contingent","relevant_dimensions":["antennae","pattern"],"bee_group":{"antennae":"B","wings":"X","pattern":"S","legs":"X"},"bonus":0.8400000000000005},{"rt":4890,"stimulus":"bees-with-color/bee-B1SM.svg","response":1,"trial_type":"image-button-response","trial_index":73,"time_elapsed":385158,"internal_node_id":"0.0-4.0-0.33","subject_id":"60a2dc206ce94a429c60a885","study_id":"60edd13110225f80f9f3709b","session_id":"6196c1f2740bdcc0c6a24763","condition":"contingent","relevant_dimensions":["antennae","pattern"],"bee_group":{"antennae":"B","wings":"X","pattern":"S","legs":"X"},"action":"avoid","summary":"good-avoid","bonus":0.8400000000000005},{"rt":619,"stimulus":"\n                    <p><b>Action: <em>avoid</em></b></p>\n                    <p>This is the bee that you just saw.</p>\n                    <img src=\"bees-with-color/bee-B1SM.svg\" width=\"200\">\n                    <p><br>Your bonus pay is unchanged, and remains at $0.62.</p>\n            ","response":0,"trial_type":"html-button-response","trial_index":74,"time_elapsed":385778,"internal_node_id":"0.0-4.0-1.33","subject_id":"60a2dc206ce94a429c60a885","study_id":"60edd13110225f80f9f3709b","session_id":"6196c1f2740bdcc0c6a24763","condition":"contingent","relevant_dimensions":["antennae","pattern"],"bee_group":{"antennae":"B","wings":"X","pattern":"S","legs":"X"},"bonus":0.8400000000000005},{"rt":1399,"stimulus":"bees-with-color/bee-B1SF.svg","response":1,"trial_type":"image-button-response","trial_index":75,"time_elapsed":387178,"internal_node_id":"0.0-4.0-0.34","subject_id":"60a2dc206ce94a429c60a885","study_id":"60edd13110225f80f9f3709b","session_id":"6196c1f2740bdcc0c6a24763","condition":"contingent","relevant_dimensions":["antennae","pattern"],"bee_group":{"antennae":"B","wings":"X","pattern":"S","legs":"X"},"action":"avoid","summary":"good-avoid","bonus":0.8400000000000005},{"rt":527,"stimulus":"\n                    <p><b>Action: <em>avoid</em></b></p>\n                    <p>This is the bee that you just saw.</p>\n                    <img src=\"bees-with-color/bee-B1SF.svg\" width=\"200\">\n                    <p><br>Your bonus pay is unchanged, and remains at $0.62.</p>\n            ","response":0,"trial_type":"html-button-response","trial_index":76,"time_elapsed":387706,"internal_node_id":"0.0-4.0-1.34","subject_id":"60a2dc206ce94a429c60a885","study_id":"60edd13110225f80f9f3709b","session_id":"6196c1f2740bdcc0c6a24763","condition":"contingent","relevant_dimensions":["antennae","pattern"],"bee_group":{"antennae":"B","wings":"X","pattern":"S","legs":"X"},"bonus":0.8400000000000005},{"rt":1149,"stimulus":"bees-with-color/bee-A1DM.svg","response":0,"trial_type":"image-button-response","trial_index":77,"time_elapsed":388856,"internal_node_id":"0.0-4.0-0.35","subject_id":"60a2dc206ce94a429c60a885","study_id":"60edd13110225f80f9f3709b","session_id":"6196c1f2740bdcc0c6a24763","condition":"contingent","relevant_dimensions":["antennae","pattern"],"bee_group":{"antennae":"B","wings":"X","pattern":"S","legs":"X"},"action":"harvest","summary":"good-harvest","bonus":0.8400000000000005},{"rt":953,"stimulus":"\n                    <p><b>Action: <em>harvest</em></b></p>\n                    <p>This is the bee that you just saw.</p>\n                    <img src=\"bees-with-color/bee-A1DM.svg\" width=\"200\">\n                    <p><span class=\"greenText\"><b>Successful harvest!</b></span><br>Your pay has increased by $0.02. Your bonus pay is now $0.64.</p>\n            ","response":0,"trial_type":"html-button-response","trial_index":78,"time_elapsed":389810,"internal_node_id":"0.0-4.0-1.35","subject_id":"60a2dc206ce94a429c60a885","study_id":"60edd13110225f80f9f3709b","session_id":"6196c1f2740bdcc0c6a24763","condition":"contingent","relevant_dimensions":["antennae","pattern"],"bee_group":{"antennae":"B","wings":"X","pattern":"S","legs":"X"},"bonus":0.8400000000000005},{"rt":1673,"stimulus":"bees-with-color/bee-A2SF.svg","response":0,"trial_type":"image-button-response","trial_index":79,"time_elapsed":391484,"internal_node_id":"0.0-4.0-0.36","subject_id":"60a2dc206ce94a429c60a885","study_id":"60edd13110225f80f9f3709b","session_id":"6196c1f2740bdcc0c6a24763","condition":"contingent","relevant_dimensions":["antennae","pattern"],"bee_group":{"antennae":"B","wings":"X","pattern":"S","legs":"X"},"action":"harvest","summary":"good-harvest","bonus":0.8400000000000005},{"rt":896,"stimulus":"\n                    <p><b>Action: <em>harvest</em></b></p>\n                    <p>This is the bee that you just saw.</p>\n                    <img src=\"bees-with-color/bee-A2SF.svg\" width=\"200\">\n                    <p><span class=\"greenText\"><b>Successful harvest!</b></span><br>Your pay has increased by $0.02. Your bonus pay is now $0.66.</p>\n            ","response":0,"trial_type":"html-button-response","trial_index":80,"time_elapsed":392382,"internal_node_id":"0.0-4.0-1.36","subject_id":"60a2dc206ce94a429c60a885","study_id":"60edd13110225f80f9f3709b","session_id":"6196c1f2740bdcc0c6a24763","condition":"contingent","relevant_dimensions":["antennae","pattern"],"bee_group":{"antennae":"B","wings":"X","pattern":"S","legs":"X"},"bonus":0.8400000000000005},{"rt":9498,"stimulus":"bees-with-color/bee-B2DM.svg","response":1,"trial_type":"image-button-response","trial_index":81,"time_elapsed":401880,"internal_node_id":"0.0-4.0-0.37","subject_id":"60a2dc206ce94a429c60a885","study_id":"60edd13110225f80f9f3709b","session_id":"6196c1f2740bdcc0c6a24763","condition":"contingent","relevant_dimensions":["antennae","pattern"],"bee_group":{"antennae":"B","wings":"X","pattern":"S","legs":"X"},"action":"avoid","summary":"bad-avoid","bonus":0.8400000000000005},{"rt":595,"stimulus":"\n                    <p><b>Action: <em>avoid</em></b></p>\n                    <p>This is the bee that you just saw.</p>\n                    <img src=\"bees-with-color/bee-B2DM.svg\" width=\"200\">\n                    <p><br>Your bonus pay is unchanged, and remains at $0.66.</p>\n            ","response":0,"trial_type":"html-button-response","trial_index":82,"time_elapsed":402476,"internal_node_id":"0.0-4.0-1.37","subject_id":"60a2dc206ce94a429c60a885","study_id":"60edd13110225f80f9f3709b","session_id":"6196c1f2740bdcc0c6a24763","condition":"contingent","relevant_dimensions":["antennae","pattern"],"bee_group":{"antennae":"B","wings":"X","pattern":"S","legs":"X"},"bonus":0.8400000000000005},{"rt":780,"stimulus":"bees-with-color/bee-B1DM.svg","response":1,"trial_type":"image-button-response","trial_index":83,"time_elapsed":403258,"internal_node_id":"0.0-4.0-0.38","subject_id":"60a2dc206ce94a429c60a885","study_id":"60edd13110225f80f9f3709b","session_id":"6196c1f2740bdcc0c6a24763","condition":"contingent","relevant_dimensions":["antennae","pattern"],"bee_group":{"antennae":"B","wings":"X","pattern":"S","legs":"X"},"action":"avoid","summary":"bad-avoid","bonus":0.8400000000000005},{"rt":563,"stimulus":"\n                    <p><b>Action: <em>avoid</em></b></p>\n                    <p>This is the bee that you just saw.</p>\n                    <img src=\"bees-with-color/bee-B1DM.svg\" width=\"200\">\n                    <p><br>Your bonus pay is unchanged, and remains at $0.66.</p>\n            ","response":0,"trial_type":"html-button-response","trial_index":84,"time_elapsed":403823,"internal_node_id":"0.0-4.0-1.38","subject_id":"60a2dc206ce94a429c60a885","study_id":"60edd13110225f80f9f3709b","session_id":"6196c1f2740bdcc0c6a24763","condition":"contingent","relevant_dimensions":["antennae","pattern"],"bee_group":{"antennae":"B","wings":"X","pattern":"S","legs":"X"},"bonus":0.8400000000000005},{"rt":1268,"stimulus":"bees-with-color/bee-A1SF.svg","response":0,"trial_type":"image-button-response","trial_index":85,"time_elapsed":405093,"internal_node_id":"0.0-4.0-0.39","subject_id":"60a2dc206ce94a429c60a885","study_id":"60edd13110225f80f9f3709b","session_id":"6196c1f2740bdcc0c6a24763","condition":"contingent","relevant_dimensions":["antennae","pattern"],"bee_group":{"antennae":"B","wings":"X","pattern":"S","legs":"X"},"action":"harvest","summary":"good-harvest","bonus":0.8400000000000005},{"rt":823,"stimulus":"\n                    <p><b>Action: <em>harvest</em></b></p>\n                    <p>This is the bee that you just saw.</p>\n                    <img src=\"bees-with-color/bee-A1SF.svg\" width=\"200\">\n                    <p><span class=\"greenText\"><b>Successful harvest!</b></span><br>Your pay has increased by $0.02. Your bonus pay is now $0.68.</p>\n            ","response":0,"trial_type":"html-button-response","trial_index":86,"time_elapsed":405916,"internal_node_id":"0.0-4.0-1.39","subject_id":"60a2dc206ce94a429c60a885","study_id":"60edd13110225f80f9f3709b","session_id":"6196c1f2740bdcc0c6a24763","condition":"contingent","relevant_dimensions":["antennae","pattern"],"bee_group":{"antennae":"B","wings":"X","pattern":"S","legs":"X"},"bonus":0.8400000000000005},{"rt":4702,"stimulus":"bees-with-color/bee-A1DF.svg","response":1,"trial_type":"image-button-response","trial_index":87,"time_elapsed":410619,"internal_node_id":"0.0-4.0-0.40","subject_id":"60a2dc206ce94a429c60a885","study_id":"60edd13110225f80f9f3709b","session_id":"6196c1f2740bdcc0c6a24763","condition":"contingent","relevant_dimensions":["antennae","pattern"],"bee_group":{"antennae":"B","wings":"X","pattern":"S","legs":"X"},"action":"avoid","summary":"bad-avoid","bonus":0.8400000000000005},{"rt":822,"stimulus":"\n                    <p><b>Action: <em>avoid</em></b></p>\n                    <p>This is the bee that you just saw.</p>\n                    <img src=\"bees-with-color/bee-A1DF.svg\" width=\"200\">\n                    <p><br>Your bonus pay is unchanged, and remains at $0.68.</p>\n            ","response":0,"trial_type":"html-button-response","trial_index":88,"time_elapsed":411443,"internal_node_id":"0.0-4.0-1.40","subject_id":"60a2dc206ce94a429c60a885","study_id":"60edd13110225f80f9f3709b","session_id":"6196c1f2740bdcc0c6a24763","condition":"contingent","relevant_dimensions":["antennae","pattern"],"bee_group":{"antennae":"B","wings":"X","pattern":"S","legs":"X"},"bonus":0.8400000000000005},{"rt":833,"stimulus":"bees-with-color/bee-A1SM.svg","response":0,"trial_type":"image-button-response","trial_index":89,"time_elapsed":412276,"internal_node_id":"0.0-4.0-0.41","subject_id":"60a2dc206ce94a429c60a885","study_id":"60edd13110225f80f9f3709b","session_id":"6196c1f2740bdcc0c6a24763","condition":"contingent","relevant_dimensions":["antennae","pattern"],"bee_group":{"antennae":"B","wings":"X","pattern":"S","legs":"X"},"action":"harvest","summary":"good-harvest","bonus":0.8400000000000005},{"rt":963,"stimulus":"\n                    <p><b>Action: <em>harvest</em></b></p>\n                    <p>This is the bee that you just saw.</p>\n                    <img src=\"bees-with-color/bee-A1SM.svg\" width=\"200\">\n                    <p><span class=\"greenText\"><b>Successful harvest!</b></span><br>Your pay has increased by $0.02. Your bonus pay is now $0.70.</p>\n            ","response":0,"trial_type":"html-button-response","trial_index":90,"time_elapsed":413240,"internal_node_id":"0.0-4.0-1.41","subject_id":"60a2dc206ce94a429c60a885","study_id":"60edd13110225f80f9f3709b","session_id":"6196c1f2740bdcc0c6a24763","condition":"contingent","relevant_dimensions":["antennae","pattern"],"bee_group":{"antennae":"B","wings":"X","pattern":"S","legs":"X"},"bonus":0.8400000000000005},{"rt":1055,"stimulus":"bees-with-color/bee-B1DF.svg","response":1,"trial_type":"image-button-response","trial_index":91,"time_elapsed":414296,"internal_node_id":"0.0-4.0-0.42","subject_id":"60a2dc206ce94a429c60a885","study_id":"60edd13110225f80f9f3709b","session_id":"6196c1f2740bdcc0c6a24763","condition":"contingent","relevant_dimensions":["antennae","pattern"],"bee_group":{"antennae":"B","wings":"X","pattern":"S","legs":"X"},"action":"avoid","summary":"bad-avoid","bonus":0.8400000000000005},{"rt":873,"stimulus":"\n                    <p><b>Action: <em>avoid</em></b></p>\n                    <p>This is the bee that you just saw.</p>\n                    <img src=\"bees-with-color/bee-B1DF.svg\" width=\"200\">\n                    <p><br>Your bonus pay is unchanged, and remains at $0.70.</p>\n            ","response":0,"trial_type":"html-button-response","trial_index":92,"time_elapsed":415170,"internal_node_id":"0.0-4.0-1.42","subject_id":"60a2dc206ce94a429c60a885","study_id":"60edd13110225f80f9f3709b","session_id":"6196c1f2740bdcc0c6a24763","condition":"contingent","relevant_dimensions":["antennae","pattern"],"bee_group":{"antennae":"B","wings":"X","pattern":"S","legs":"X"},"bonus":0.8400000000000005},{"rt":1357,"stimulus":"bees-with-color/bee-A2SM.svg","response":0,"trial_type":"image-button-response","trial_index":93,"time_elapsed":416528,"internal_node_id":"0.0-4.0-0.43","subject_id":"60a2dc206ce94a429c60a885","study_id":"60edd13110225f80f9f3709b","session_id":"6196c1f2740bdcc0c6a24763","condition":"contingent","relevant_dimensions":["antennae","pattern"],"bee_group":{"antennae":"B","wings":"X","pattern":"S","legs":"X"},"action":"harvest","summary":"good-harvest","bonus":0.8400000000000005},{"rt":865,"stimulus":"\n                    <p><b>Action: <em>harvest</em></b></p>\n                    <p>This is the bee that you just saw.</p>\n                    <img src=\"bees-with-color/bee-A2SM.svg\" width=\"200\">\n                    <p><span class=\"greenText\"><b>Successful harvest!</b></span><br>Your pay has increased by $0.02. Your bonus pay is now $0.72.</p>\n            ","response":0,"trial_type":"html-button-response","trial_index":94,"time_elapsed":417394,"internal_node_id":"0.0-4.0-1.43","subject_id":"60a2dc206ce94a429c60a885","study_id":"60edd13110225f80f9f3709b","session_id":"6196c1f2740bdcc0c6a24763","condition":"contingent","relevant_dimensions":["antennae","pattern"],"bee_group":{"antennae":"B","wings":"X","pattern":"S","legs":"X"},"bonus":0.8400000000000005},{"rt":5113,"stimulus":"bees-with-color/bee-A2DM.svg","response":0,"trial_type":"image-button-response","trial_index":95,"time_elapsed":422508,"internal_node_id":"0.0-4.0-0.44","subject_id":"60a2dc206ce94a429c60a885","study_id":"60edd13110225f80f9f3709b","session_id":"6196c1f2740bdcc0c6a24763","condition":"contingent","relevant_dimensions":["antennae","pattern"],"bee_group":{"antennae":"B","wings":"X","pattern":"S","legs":"X"},"action":"harvest","summary":"good-harvest","bonus":0.8400000000000005},{"rt":804,"stimulus":"\n                    <p><b>Action: <em>harvest</em></b></p>\n                    <p>This is the bee that you just saw.</p>\n                    <img src=\"bees-with-color/bee-A2DM.svg\" width=\"200\">\n                    <p><span class=\"greenText\"><b>Successful harvest!</b></span><br>Your pay has increased by $0.02. Your bonus pay is now $0.74.</p>\n            ","response":0,"trial_type":"html-button-response","trial_index":96,"time_elapsed":423313,"internal_node_id":"0.0-4.0-1.44","subject_id":"60a2dc206ce94a429c60a885","study_id":"60edd13110225f80f9f3709b","session_id":"6196c1f2740bdcc0c6a24763","condition":"contingent","relevant_dimensions":["antennae","pattern"],"bee_group":{"antennae":"B","wings":"X","pattern":"S","legs":"X"},"bonus":0.8400000000000005},{"rt":1774,"stimulus":"bees-with-color/bee-B2SF.svg","response":1,"trial_type":"image-button-response","trial_index":97,"time_elapsed":425088,"internal_node_id":"0.0-4.0-0.45","subject_id":"60a2dc206ce94a429c60a885","study_id":"60edd13110225f80f9f3709b","session_id":"6196c1f2740bdcc0c6a24763","condition":"contingent","relevant_dimensions":["antennae","pattern"],"bee_group":{"antennae":"B","wings":"X","pattern":"S","legs":"X"},"action":"avoid","summary":"good-avoid","bonus":0.8400000000000005},{"rt":713,"stimulus":"\n                    <p><b>Action: <em>avoid</em></b></p>\n                    <p>This is the bee that you just saw.</p>\n                    <img src=\"bees-with-color/bee-B2SF.svg\" width=\"200\">\n                    <p><br>Your bonus pay is unchanged, and remains at $0.74.</p>\n            ","response":0,"trial_type":"html-button-response","trial_index":98,"time_elapsed":425802,"internal_node_id":"0.0-4.0-1.45","subject_id":"60a2dc206ce94a429c60a885","study_id":"60edd13110225f80f9f3709b","session_id":"6196c1f2740bdcc0c6a24763","condition":"contingent","relevant_dimensions":["antennae","pattern"],"bee_group":{"antennae":"B","wings":"X","pattern":"S","legs":"X"},"bonus":0.8400000000000005},{"rt":1464,"stimulus":"bees-with-color/bee-B2SM.svg","response":1,"trial_type":"image-button-response","trial_index":99,"time_elapsed":427266,"internal_node_id":"0.0-4.0-0.46","subject_id":"60a2dc206ce94a429c60a885","study_id":"60edd13110225f80f9f3709b","session_id":"6196c1f2740bdcc0c6a24763","condition":"contingent","relevant_dimensions":["antennae","pattern"],"bee_group":{"antennae":"B","wings":"X","pattern":"S","legs":"X"},"action":"avoid","summary":"good-avoid","bonus":0.8400000000000005},{"rt":844,"stimulus":"\n                    <p><b>Action: <em>avoid</em></b></p>\n                    <p>This is the bee that you just saw.</p>\n                    <img src=\"bees-with-color/bee-B2SM.svg\" width=\"200\">\n                    <p><br>Your bonus pay is unchanged, and remains at $0.74.</p>\n            ","response":0,"trial_type":"html-button-response","trial_index":100,"time_elapsed":428112,"internal_node_id":"0.0-4.0-1.46","subject_id":"60a2dc206ce94a429c60a885","study_id":"60edd13110225f80f9f3709b","session_id":"6196c1f2740bdcc0c6a24763","condition":"contingent","relevant_dimensions":["antennae","pattern"],"bee_group":{"antennae":"B","wings":"X","pattern":"S","legs":"X"},"bonus":0.8400000000000005},{"rt":5251,"stimulus":"bees-with-color/bee-B2DF.svg","response":1,"trial_type":"image-button-response","trial_index":101,"time_elapsed":433364,"internal_node_id":"0.0-4.0-0.47","subject_id":"60a2dc206ce94a429c60a885","study_id":"60edd13110225f80f9f3709b","session_id":"6196c1f2740bdcc0c6a24763","condition":"contingent","relevant_dimensions":["antennae","pattern"],"bee_group":{"antennae":"B","wings":"X","pattern":"S","legs":"X"},"action":"avoid","summary":"bad-avoid","bonus":0.8400000000000005},{"rt":1253,"stimulus":"\n                    <p><b>Action: <em>avoid</em></b></p>\n                    <p>This is the bee that you just saw.</p>\n                    <img src=\"bees-with-color/bee-B2DF.svg\" width=\"200\">\n                    <p><br>Your bonus pay is unchanged, and remains at $0.74.</p>\n            ","response":0,"trial_type":"html-button-response","trial_index":102,"time_elapsed":434617,"internal_node_id":"0.0-4.0-1.47","subject_id":"60a2dc206ce94a429c60a885","study_id":"60edd13110225f80f9f3709b","session_id":"6196c1f2740bdcc0c6a24763","condition":"contingent","relevant_dimensions":["antennae","pattern"],"bee_group":{"antennae":"B","wings":"X","pattern":"S","legs":"X"},"bonus":0.8400000000000005},{"rt":1536,"stimulus":"bees-with-color/bee-A1SF.svg","response":0,"trial_type":"image-button-response","trial_index":103,"time_elapsed":436154,"internal_node_id":"0.0-4.0-0.48","subject_id":"60a2dc206ce94a429c60a885","study_id":"60edd13110225f80f9f3709b","session_id":"6196c1f2740bdcc0c6a24763","condition":"contingent","relevant_dimensions":["antennae","pattern"],"bee_group":{"antennae":"B","wings":"X","pattern":"S","legs":"X"},"action":"harvest","summary":"good-harvest","bonus":0.8400000000000005},{"rt":836,"stimulus":"\n                    <p><b>Action: <em>harvest</em></b></p>\n                    <p>This is the bee that you just saw.</p>\n                    <img src=\"bees-with-color/bee-A1SF.svg\" width=\"200\">\n                    <p><span class=\"greenText\"><b>Successful harvest!</b></span><br>Your pay has increased by $0.02. Your bonus pay is now $0.76.</p>\n            ","response":0,"trial_type":"html-button-response","trial_index":104,"time_elapsed":436992,"internal_node_id":"0.0-4.0-1.48","subject_id":"60a2dc206ce94a429c60a885","study_id":"60edd13110225f80f9f3709b","session_id":"6196c1f2740bdcc0c6a24763","condition":"contingent","relevant_dimensions":["antennae","pattern"],"bee_group":{"antennae":"B","wings":"X","pattern":"S","legs":"X"},"bonus":0.8400000000000005},{"rt":947,"stimulus":"bees-with-color/bee-B2DM.svg","response":1,"trial_type":"image-button-response","trial_index":105,"time_elapsed":437940,"internal_node_id":"0.0-4.0-0.49","subject_id":"60a2dc206ce94a429c60a885","study_id":"60edd13110225f80f9f3709b","session_id":"6196c1f2740bdcc0c6a24763","condition":"contingent","relevant_dimensions":["antennae","pattern"],"bee_group":{"antennae":"B","wings":"X","pattern":"S","legs":"X"},"action":"avoid","summary":"bad-avoid","bonus":0.8400000000000005},{"rt":1461,"stimulus":"\n                    <p><b>Action: <em>avoid</em></b></p>\n                    <p>This is the bee that you just saw.</p>\n                    <img src=\"bees-with-color/bee-B2DM.svg\" width=\"200\">\n                    <p><br>Your bonus pay is unchanged, and remains at $0.76.</p>\n            ","response":0,"trial_type":"html-button-response","trial_index":106,"time_elapsed":439402,"internal_node_id":"0.0-4.0-1.49","subject_id":"60a2dc206ce94a429c60a885","study_id":"60edd13110225f80f9f3709b","session_id":"6196c1f2740bdcc0c6a24763","condition":"contingent","relevant_dimensions":["antennae","pattern"],"bee_group":{"antennae":"B","wings":"X","pattern":"S","legs":"X"},"bonus":0.8400000000000005},{"rt":1043,"stimulus":"bees-with-color/bee-B1DF.svg","response":1,"trial_type":"image-button-response","trial_index":107,"time_elapsed":440446,"internal_node_id":"0.0-4.0-0.50","subject_id":"60a2dc206ce94a429c60a885","study_id":"60edd13110225f80f9f3709b","session_id":"6196c1f2740bdcc0c6a24763","condition":"contingent","relevant_dimensions":["antennae","pattern"],"bee_group":{"antennae":"B","wings":"X","pattern":"S","legs":"X"},"action":"avoid","summary":"bad-avoid","bonus":0.8400000000000005},{"rt":959,"stimulus":"\n                    <p><b>Action: <em>avoid</em></b></p>\n                    <p>This is the bee that you just saw.</p>\n                    <img src=\"bees-with-color/bee-B1DF.svg\" width=\"200\">\n                    <p><br>Your bonus pay is unchanged, and remains at $0.76.</p>\n            ","response":0,"trial_type":"html-button-response","trial_index":108,"time_elapsed":441406,"internal_node_id":"0.0-4.0-1.50","subject_id":"60a2dc206ce94a429c60a885","study_id":"60edd13110225f80f9f3709b","session_id":"6196c1f2740bdcc0c6a24763","condition":"contingent","relevant_dimensions":["antennae","pattern"],"bee_group":{"antennae":"B","wings":"X","pattern":"S","legs":"X"},"bonus":0.8400000000000005},{"rt":1640,"stimulus":"bees-with-color/bee-A2DM.svg","response":0,"trial_type":"image-button-response","trial_index":109,"time_elapsed":443046,"internal_node_id":"0.0-4.0-0.51","subject_id":"60a2dc206ce94a429c60a885","study_id":"60edd13110225f80f9f3709b","session_id":"6196c1f2740bdcc0c6a24763","condition":"contingent","relevant_dimensions":["antennae","pattern"],"bee_group":{"antennae":"B","wings":"X","pattern":"S","legs":"X"},"action":"harvest","summary":"good-harvest","bonus":0.8400000000000005},{"rt":892,"stimulus":"\n                    <p><b>Action: <em>harvest</em></b></p>\n                    <p>This is the bee that you just saw.</p>\n                    <img src=\"bees-with-color/bee-A2DM.svg\" width=\"200\">\n                    <p><span class=\"greenText\"><b>Successful harvest!</b></span><br>Your pay has increased by $0.02. Your bonus pay is now $0.78.</p>\n            ","response":0,"trial_type":"html-button-response","trial_index":110,"time_elapsed":443938,"internal_node_id":"0.0-4.0-1.51","subject_id":"60a2dc206ce94a429c60a885","study_id":"60edd13110225f80f9f3709b","session_id":"6196c1f2740bdcc0c6a24763","condition":"contingent","relevant_dimensions":["antennae","pattern"],"bee_group":{"antennae":"B","wings":"X","pattern":"S","legs":"X"},"bonus":0.8400000000000005},{"rt":1015,"stimulus":"bees-with-color/bee-B2DF.svg","response":1,"trial_type":"image-button-response","trial_index":111,"time_elapsed":444954,"internal_node_id":"0.0-4.0-0.52","subject_id":"60a2dc206ce94a429c60a885","study_id":"60edd13110225f80f9f3709b","session_id":"6196c1f2740bdcc0c6a24763","condition":"contingent","relevant_dimensions":["antennae","pattern"],"bee_group":{"antennae":"B","wings":"X","pattern":"S","legs":"X"},"action":"avoid","summary":"bad-avoid","bonus":0.8400000000000005},{"rt":674,"stimulus":"\n                    <p><b>Action: <em>avoid</em></b></p>\n                    <p>This is the bee that you just saw.</p>\n                    <img src=\"bees-with-color/bee-B2DF.svg\" width=\"200\">\n                    <p><br>Your bonus pay is unchanged, and remains at $0.78.</p>\n            ","response":0,"trial_type":"html-button-response","trial_index":112,"time_elapsed":445628,"internal_node_id":"0.0-4.0-1.52","subject_id":"60a2dc206ce94a429c60a885","study_id":"60edd13110225f80f9f3709b","session_id":"6196c1f2740bdcc0c6a24763","condition":"contingent","relevant_dimensions":["antennae","pattern"],"bee_group":{"antennae":"B","wings":"X","pattern":"S","legs":"X"},"bonus":0.8400000000000005},{"rt":1175,"stimulus":"bees-with-color/bee-B2SM.svg","response":1,"trial_type":"image-button-response","trial_index":113,"time_elapsed":446804,"internal_node_id":"0.0-4.0-0.53","subject_id":"60a2dc206ce94a429c60a885","study_id":"60edd13110225f80f9f3709b","session_id":"6196c1f2740bdcc0c6a24763","condition":"contingent","relevant_dimensions":["antennae","pattern"],"bee_group":{"antennae":"B","wings":"X","pattern":"S","legs":"X"},"action":"avoid","summary":"good-avoid","bonus":0.8400000000000005},{"rt":657,"stimulus":"\n                    <p><b>Action: <em>avoid</em></b></p>\n                    <p>This is the bee that you just saw.</p>\n                    <img src=\"bees-with-color/bee-B2SM.svg\" width=\"200\">\n                    <p><br>Your bonus pay is unchanged, and remains at $0.78.</p>\n            ","response":0,"trial_type":"html-button-response","trial_index":114,"time_elapsed":447462,"internal_node_id":"0.0-4.0-1.53","subject_id":"60a2dc206ce94a429c60a885","study_id":"60edd13110225f80f9f3709b","session_id":"6196c1f2740bdcc0c6a24763","condition":"contingent","relevant_dimensions":["antennae","pattern"],"bee_group":{"antennae":"B","wings":"X","pattern":"S","legs":"X"},"bonus":0.8400000000000005},{"rt":1337,"stimulus":"bees-with-color/bee-B2SF.svg","response":1,"trial_type":"image-button-response","trial_index":115,"time_elapsed":448800,"internal_node_id":"0.0-4.0-0.54","subject_id":"60a2dc206ce94a429c60a885","study_id":"60edd13110225f80f9f3709b","session_id":"6196c1f2740bdcc0c6a24763","condition":"contingent","relevant_dimensions":["antennae","pattern"],"bee_group":{"antennae":"B","wings":"X","pattern":"S","legs":"X"},"action":"avoid","summary":"good-avoid","bonus":0.8400000000000005},{"rt":795,"stimulus":"\n                    <p><b>Action: <em>avoid</em></b></p>\n                    <p>This is the bee that you just saw.</p>\n                    <img src=\"bees-with-color/bee-B2SF.svg\" width=\"200\">\n                    <p><br>Your bonus pay is unchanged, and remains at $0.78.</p>\n            ","response":0,"trial_type":"html-button-response","trial_index":116,"time_elapsed":449596,"internal_node_id":"0.0-4.0-1.54","subject_id":"60a2dc206ce94a429c60a885","study_id":"60edd13110225f80f9f3709b","session_id":"6196c1f2740bdcc0c6a24763","condition":"contingent","relevant_dimensions":["antennae","pattern"],"bee_group":{"antennae":"B","wings":"X","pattern":"S","legs":"X"},"bonus":0.8400000000000005},{"rt":1075,"stimulus":"bees-with-color/bee-A2SF.svg","response":0,"trial_type":"image-button-response","trial_index":117,"time_elapsed":450672,"internal_node_id":"0.0-4.0-0.55","subject_id":"60a2dc206ce94a429c60a885","study_id":"60edd13110225f80f9f3709b","session_id":"6196c1f2740bdcc0c6a24763","condition":"contingent","relevant_dimensions":["antennae","pattern"],"bee_group":{"antennae":"B","wings":"X","pattern":"S","legs":"X"},"action":"harvest","summary":"good-harvest","bonus":0.8400000000000005},{"rt":806,"stimulus":"\n                    <p><b>Action: <em>harvest</em></b></p>\n                    <p>This is the bee that you just saw.</p>\n                    <img src=\"bees-with-color/bee-A2SF.svg\" width=\"200\">\n                    <p><span class=\"greenText\"><b>Successful harvest!</b></span><br>Your pay has increased by $0.02. Your bonus pay is now $0.80.</p>\n            ","response":0,"trial_type":"html-button-response","trial_index":118,"time_elapsed":451478,"internal_node_id":"0.0-4.0-1.55","subject_id":"60a2dc206ce94a429c60a885","study_id":"60edd13110225f80f9f3709b","session_id":"6196c1f2740bdcc0c6a24763","condition":"contingent","relevant_dimensions":["antennae","pattern"],"bee_group":{"antennae":"B","wings":"X","pattern":"S","legs":"X"},"bonus":0.8400000000000005},{"rt":846,"stimulus":"bees-with-color/bee-B1DM.svg","response":1,"trial_type":"image-button-response","trial_index":119,"time_elapsed":452324,"internal_node_id":"0.0-4.0-0.56","subject_id":"60a2dc206ce94a429c60a885","study_id":"60edd13110225f80f9f3709b","session_id":"6196c1f2740bdcc0c6a24763","condition":"contingent","relevant_dimensions":["antennae","pattern"],"bee_group":{"antennae":"B","wings":"X","pattern":"S","legs":"X"},"action":"avoid","summary":"bad-avoid","bonus":0.8400000000000005},{"rt":589,"stimulus":"\n                    <p><b>Action: <em>avoid</em></b></p>\n                    <p>This is the bee that you just saw.</p>\n                    <img src=\"bees-with-color/bee-B1DM.svg\" width=\"200\">\n                    <p><br>Your bonus pay is unchanged, and remains at $0.80.</p>\n            ","response":0,"trial_type":"html-button-response","trial_index":120,"time_elapsed":452914,"internal_node_id":"0.0-4.0-1.56","subject_id":"60a2dc206ce94a429c60a885","study_id":"60edd13110225f80f9f3709b","session_id":"6196c1f2740bdcc0c6a24763","condition":"contingent","relevant_dimensions":["antennae","pattern"],"bee_group":{"antennae":"B","wings":"X","pattern":"S","legs":"X"},"bonus":0.8400000000000005},{"rt":1496,"stimulus":"bees-with-color/bee-A1DM.svg","response":0,"trial_type":"image-button-response","trial_index":121,"time_elapsed":454410,"internal_node_id":"0.0-4.0-0.57","subject_id":"60a2dc206ce94a429c60a885","study_id":"60edd13110225f80f9f3709b","session_id":"6196c1f2740bdcc0c6a24763","condition":"contingent","relevant_dimensions":["antennae","pattern"],"bee_group":{"antennae":"B","wings":"X","pattern":"S","legs":"X"},"action":"harvest","summary":"good-harvest","bonus":0.8400000000000005},{"rt":884,"stimulus":"\n                    <p><b>Action: <em>harvest</em></b></p>\n                    <p>This is the bee that you just saw.</p>\n                    <img src=\"bees-with-color/bee-A1DM.svg\" width=\"200\">\n                    <p><span class=\"greenText\"><b>Successful harvest!</b></span><br>Your pay has increased by $0.02. Your bonus pay is now $0.82.</p>\n            ","response":0,"trial_type":"html-button-response","trial_index":122,"time_elapsed":455295,"internal_node_id":"0.0-4.0-1.57","subject_id":"60a2dc206ce94a429c60a885","study_id":"60edd13110225f80f9f3709b","session_id":"6196c1f2740bdcc0c6a24763","condition":"contingent","relevant_dimensions":["antennae","pattern"],"bee_group":{"antennae":"B","wings":"X","pattern":"S","legs":"X"},"bonus":0.8400000000000005},{"rt":1018,"stimulus":"bees-with-color/bee-A2SM.svg","response":0,"trial_type":"image-button-response","trial_index":123,"time_elapsed":456313,"internal_node_id":"0.0-4.0-0.58","subject_id":"60a2dc206ce94a429c60a885","study_id":"60edd13110225f80f9f3709b","session_id":"6196c1f2740bdcc0c6a24763","condition":"contingent","relevant_dimensions":["antennae","pattern"],"bee_group":{"antennae":"B","wings":"X","pattern":"S","legs":"X"},"action":"harvest","summary":"good-harvest","bonus":0.8400000000000005},{"rt":958,"stimulus":"\n                    <p><b>Action: <em>harvest</em></b></p>\n                    <p>This is the bee that you just saw.</p>\n                    <img src=\"bees-with-color/bee-A2SM.svg\" width=\"200\">\n                    <p><span class=\"greenText\"><b>Successful harvest!</b></span><br>Your pay has increased by $0.02. Your bonus pay is now $0.84.</p>\n            ","response":0,"trial_type":"html-button-response","trial_index":124,"time_elapsed":457272,"internal_node_id":"0.0-4.0-1.58","subject_id":"60a2dc206ce94a429c60a885","study_id":"60edd13110225f80f9f3709b","session_id":"6196c1f2740bdcc0c6a24763","condition":"contingent","relevant_dimensions":["antennae","pattern"],"bee_group":{"antennae":"B","wings":"X","pattern":"S","legs":"X"},"bonus":0.8400000000000005},{"rt":807,"stimulus":"bees-with-color/bee-B1SM.svg","response":1,"trial_type":"image-button-response","trial_index":125,"time_elapsed":458080,"internal_node_id":"0.0-4.0-0.59","subject_id":"60a2dc206ce94a429c60a885","study_id":"60edd13110225f80f9f3709b","session_id":"6196c1f2740bdcc0c6a24763","condition":"contingent","relevant_dimensions":["antennae","pattern"],"bee_group":{"antennae":"B","wings":"X","pattern":"S","legs":"X"},"action":"avoid","summary":"good-avoid","bonus":0.8400000000000005},{"rt":751,"stimulus":"\n                    <p><b>Action: <em>avoid</em></b></p>\n                    <p>This is the bee that you just saw.</p>\n                    <img src=\"bees-with-color/bee-B1SM.svg\" width=\"200\">\n                    <p><br>Your bonus pay is unchanged, and remains at $0.84.</p>\n            ","response":0,"trial_type":"html-button-response","trial_index":126,"time_elapsed":458832,"internal_node_id":"0.0-4.0-1.59","subject_id":"60a2dc206ce94a429c60a885","study_id":"60edd13110225f80f9f3709b","session_id":"6196c1f2740bdcc0c6a24763","condition":"contingent","relevant_dimensions":["antennae","pattern"],"bee_group":{"antennae":"B","wings":"X","pattern":"S","legs":"X"},"bonus":0.8400000000000005},{"rt":1076,"stimulus":"bees-with-color/bee-A2DF.svg","response":0,"trial_type":"image-button-response","trial_index":127,"time_elapsed":459910,"internal_node_id":"0.0-4.0-0.60","subject_id":"60a2dc206ce94a429c60a885","study_id":"60edd13110225f80f9f3709b","session_id":"6196c1f2740bdcc0c6a24763","condition":"contingent","relevant_dimensions":["antennae","pattern"],"bee_group":{"antennae":"B","wings":"X","pattern":"S","legs":"X"},"action":"harvest","summary":"good-harvest","bonus":0.8400000000000005},{"rt":667,"stimulus":"\n                    <p><b>Action: <em>harvest</em></b></p>\n                    <p>This is the bee that you just saw.</p>\n                    <img src=\"bees-with-color/bee-A2DF.svg\" width=\"200\">\n                    <p><span class=\"greenText\"><b>Successful harvest!</b></span><br>Your pay has increased by $0.02. Your bonus pay is now $0.86.</p>\n            ","response":0,"trial_type":"html-button-response","trial_index":128,"time_elapsed":460578,"internal_node_id":"0.0-4.0-1.60","subject_id":"60a2dc206ce94a429c60a885","study_id":"60edd13110225f80f9f3709b","session_id":"6196c1f2740bdcc0c6a24763","condition":"contingent","relevant_dimensions":["antennae","pattern"],"bee_group":{"antennae":"B","wings":"X","pattern":"S","legs":"X"},"bonus":0.8400000000000005},{"rt":1208,"stimulus":"bees-with-color/bee-B1SF.svg","response":1,"trial_type":"image-button-response","trial_index":129,"time_elapsed":461788,"internal_node_id":"0.0-4.0-0.61","subject_id":"60a2dc206ce94a429c60a885","study_id":"60edd13110225f80f9f3709b","session_id":"6196c1f2740bdcc0c6a24763","condition":"contingent","relevant_dimensions":["antennae","pattern"],"bee_group":{"antennae":"B","wings":"X","pattern":"S","legs":"X"},"action":"avoid","summary":"good-avoid","bonus":0.8400000000000005},{"rt":519,"stimulus":"\n                    <p><b>Action: <em>avoid</em></b></p>\n                    <p>This is the bee that you just saw.</p>\n                    <img src=\"bees-with-color/bee-B1SF.svg\" width=\"200\">\n                    <p><br>Your bonus pay is unchanged, and remains at $0.86.</p>\n            ","response":0,"trial_type":"html-button-response","trial_index":130,"time_elapsed":462307,"internal_node_id":"0.0-4.0-1.61","subject_id":"60a2dc206ce94a429c60a885","study_id":"60edd13110225f80f9f3709b","session_id":"6196c1f2740bdcc0c6a24763","condition":"contingent","relevant_dimensions":["antennae","pattern"],"bee_group":{"antennae":"B","wings":"X","pattern":"S","legs":"X"},"bonus":0.8400000000000005},{"rt":1321,"stimulus":"bees-with-color/bee-A1DF.svg","response":0,"trial_type":"image-button-response","trial_index":131,"time_elapsed":463630,"internal_node_id":"0.0-4.0-0.62","subject_id":"60a2dc206ce94a429c60a885","study_id":"60edd13110225f80f9f3709b","session_id":"6196c1f2740bdcc0c6a24763","condition":"contingent","relevant_dimensions":["antennae","pattern"],"bee_group":{"antennae":"B","wings":"X","pattern":"S","legs":"X"},"action":"harvest","summary":"good-harvest","bonus":0.8400000000000005},{"rt":665,"stimulus":"\n                    <p><b>Action: <em>harvest</em></b></p>\n                    <p>This is the bee that you just saw.</p>\n                    <img src=\"bees-with-color/bee-A1DF.svg\" width=\"200\">\n                    <p><span class=\"greenText\"><b>Successful harvest!</b></span><br>Your pay has increased by $0.02. Your bonus pay is now $0.88.</p>\n            ","response":0,"trial_type":"html-button-response","trial_index":132,"time_elapsed":464297,"internal_node_id":"0.0-4.0-1.62","subject_id":"60a2dc206ce94a429c60a885","study_id":"60edd13110225f80f9f3709b","session_id":"6196c1f2740bdcc0c6a24763","condition":"contingent","relevant_dimensions":["antennae","pattern"],"bee_group":{"antennae":"B","wings":"X","pattern":"S","legs":"X"},"bonus":0.8400000000000005},{"rt":994,"stimulus":"bees-with-color/bee-A1SM.svg","response":0,"trial_type":"image-button-response","trial_index":133,"time_elapsed":465292,"internal_node_id":"0.0-4.0-0.63","subject_id":"60a2dc206ce94a429c60a885","study_id":"60edd13110225f80f9f3709b","session_id":"6196c1f2740bdcc0c6a24763","condition":"contingent","relevant_dimensions":["antennae","pattern"],"bee_group":{"antennae":"B","wings":"X","pattern":"S","legs":"X"},"action":"harvest","summary":"good-harvest","bonus":0.8400000000000005},{"rt":707,"stimulus":"\n                    <p><b>Action: <em>harvest</em></b></p>\n                    <p>This is the bee that you just saw.</p>\n                    <img src=\"bees-with-color/bee-A1SM.svg\" width=\"200\">\n                    <p><span class=\"greenText\"><b>Successful harvest!</b></span><br>Your pay has increased by $0.02. Your bonus pay is now $0.90.</p>\n            ","response":0,"trial_type":"html-button-response","trial_index":134,"time_elapsed":466000,"internal_node_id":"0.0-4.0-1.63","subject_id":"60a2dc206ce94a429c60a885","study_id":"60edd13110225f80f9f3709b","session_id":"6196c1f2740bdcc0c6a24763","condition":"contingent","relevant_dimensions":["antennae","pattern"],"bee_group":{"antennae":"B","wings":"X","pattern":"S","legs":"X"},"bonus":0.8400000000000005},{"rt":8924,"stimulus":"You have completed the first part of this experiment.<br><br>You will now begin a shorter second part, in which you will receive no feedback.<br>The same rules regarding bonus pay apply.<br><br>Press any key to begin.","response":" ","trial_type":"html-keyboard-response","trial_index":135,"time_elapsed":474926,"internal_node_id":"0.0-5.0","subject_id":"60a2dc206ce94a429c60a885","study_id":"60edd13110225f80f9f3709b","session_id":"6196c1f2740bdcc0c6a24763","condition":"contingent","relevant_dimensions":["antennae","pattern"],"bee_group":{"antennae":"B","wings":"X","pattern":"S","legs":"X"},"bonus":0.8400000000000005},{"rt":6200,"stimulus":"bees-with-color/bee-A2SM.svg","response":1,"trial_type":"image-button-response","trial_index":136,"time_elapsed":481128,"internal_node_id":"0.0-6.0-0.0","subject_id":"60a2dc206ce94a429c60a885","study_id":"60edd13110225f80f9f3709b","session_id":"6196c1f2740bdcc0c6a24763","condition":"contingent","relevant_dimensions":["antennae","pattern"],"bee_group":{"antennae":"B","wings":"X","pattern":"S","legs":"X"},"bonus":0.8400000000000005},{"rt":1517,"stimulus":"bees-with-color/bee-A2SF.svg","response":1,"trial_type":"image-button-response","trial_index":137,"time_elapsed":482647,"internal_node_id":"0.0-6.0-0.1","subject_id":"60a2dc206ce94a429c60a885","study_id":"60edd13110225f80f9f3709b","session_id":"6196c1f2740bdcc0c6a24763","condition":"contingent","relevant_dimensions":["antennae","pattern"],"bee_group":{"antennae":"B","wings":"X","pattern":"S","legs":"X"},"bonus":0.8400000000000005},{"rt":444,"stimulus":"bees-with-color/bee-A2DM.svg","response":1,"trial_type":"image-button-response","trial_index":138,"time_elapsed":483092,"internal_node_id":"0.0-6.0-0.2","subject_id":"60a2dc206ce94a429c60a885","study_id":"60edd13110225f80f9f3709b","session_id":"6196c1f2740bdcc0c6a24763","condition":"contingent","relevant_dimensions":["antennae","pattern"],"bee_group":{"antennae":"B","wings":"X","pattern":"S","legs":"X"},"bonus":0.8400000000000005},{"rt":1042,"stimulus":"bees-with-color/bee-B2SF.svg","response":0,"trial_type":"image-button-response","trial_index":139,"time_elapsed":484135,"internal_node_id":"0.0-6.0-0.3","subject_id":"60a2dc206ce94a429c60a885","study_id":"60edd13110225f80f9f3709b","session_id":"6196c1f2740bdcc0c6a24763","condition":"contingent","relevant_dimensions":["antennae","pattern"],"bee_group":{"antennae":"B","wings":"X","pattern":"S","legs":"X"},"bonus":0.8400000000000005},{"rt":596,"stimulus":"bees-with-color/bee-B1SF.svg","response":1,"trial_type":"image-button-response","trial_index":140,"time_elapsed":484730,"internal_node_id":"0.0-6.0-0.4","subject_id":"60a2dc206ce94a429c60a885","study_id":"60edd13110225f80f9f3709b","session_id":"6196c1f2740bdcc0c6a24763","condition":"contingent","relevant_dimensions":["antennae","pattern"],"bee_group":{"antennae":"B","wings":"X","pattern":"S","legs":"X"},"bonus":0.8400000000000005},{"rt":4214,"stimulus":"bees-with-color/bee-A2DF.svg","response":1,"trial_type":"image-button-response","trial_index":141,"time_elapsed":488944,"internal_node_id":"0.0-6.0-0.5","subject_id":"60a2dc206ce94a429c60a885","study_id":"60edd13110225f80f9f3709b","session_id":"6196c1f2740bdcc0c6a24763","condition":"contingent","relevant_dimensions":["antennae","pattern"],"bee_group":{"antennae":"B","wings":"X","pattern":"S","legs":"X"},"bonus":0.8400000000000005},{"rt":1545,"stimulus":"bees-with-color/bee-A1DF.svg","response":1,"trial_type":"image-button-response","trial_index":142,"time_elapsed":490490,"internal_node_id":"0.0-6.0-0.6","subject_id":"60a2dc206ce94a429c60a885","study_id":"60edd13110225f80f9f3709b","session_id":"6196c1f2740bdcc0c6a24763","condition":"contingent","relevant_dimensions":["antennae","pattern"],"bee_group":{"antennae":"B","wings":"X","pattern":"S","legs":"X"},"bonus":0.8400000000000005},{"rt":4480,"stimulus":"bees-with-color/bee-B1DF.svg","response":1,"trial_type":"image-button-response","trial_index":143,"time_elapsed":494972,"internal_node_id":"0.0-6.0-0.7","subject_id":"60a2dc206ce94a429c60a885","study_id":"60edd13110225f80f9f3709b","session_id":"6196c1f2740bdcc0c6a24763","condition":"contingent","relevant_dimensions":["antennae","pattern"],"bee_group":{"antennae":"B","wings":"X","pattern":"S","legs":"X"},"bonus":0.8400000000000005},{"rt":1012,"stimulus":"bees-with-color/bee-A1DM.svg","response":1,"trial_type":"image-button-response","trial_index":144,"time_elapsed":495986,"internal_node_id":"0.0-6.0-0.8","subject_id":"60a2dc206ce94a429c60a885","study_id":"60edd13110225f80f9f3709b","session_id":"6196c1f2740bdcc0c6a24763","condition":"contingent","relevant_dimensions":["antennae","pattern"],"bee_group":{"antennae":"B","wings":"X","pattern":"S","legs":"X"},"bonus":0.8400000000000005},{"rt":1450,"stimulus":"bees-with-color/bee-B2SM.svg","response":1,"trial_type":"image-button-response","trial_index":145,"time_elapsed":497438,"internal_node_id":"0.0-6.0-0.9","subject_id":"60a2dc206ce94a429c60a885","study_id":"60edd13110225f80f9f3709b","session_id":"6196c1f2740bdcc0c6a24763","condition":"contingent","relevant_dimensions":["antennae","pattern"],"bee_group":{"antennae":"B","wings":"X","pattern":"S","legs":"X"},"bonus":0.8400000000000005},{"rt":2052,"stimulus":"bees-with-color/bee-A1SM.svg","response":1,"trial_type":"image-button-response","trial_index":146,"time_elapsed":499490,"internal_node_id":"0.0-6.0-0.10","subject_id":"60a2dc206ce94a429c60a885","study_id":"60edd13110225f80f9f3709b","session_id":"6196c1f2740bdcc0c6a24763","condition":"contingent","relevant_dimensions":["antennae","pattern"],"bee_group":{"antennae":"B","wings":"X","pattern":"S","legs":"X"},"bonus":0.8400000000000005},{"rt":1136,"stimulus":"bees-with-color/bee-B2DM.svg","response":1,"trial_type":"image-button-response","trial_index":147,"time_elapsed":500626,"internal_node_id":"0.0-6.0-0.11","subject_id":"60a2dc206ce94a429c60a885","study_id":"60edd13110225f80f9f3709b","session_id":"6196c1f2740bdcc0c6a24763","condition":"contingent","relevant_dimensions":["antennae","pattern"],"bee_group":{"antennae":"B","wings":"X","pattern":"S","legs":"X"},"bonus":0.8400000000000005},{"rt":7662,"stimulus":"bees-with-color/bee-A1SF.svg","response":1,"trial_type":"image-button-response","trial_index":148,"time_elapsed":508288,"internal_node_id":"0.0-6.0-0.12","subject_id":"60a2dc206ce94a429c60a885","study_id":"60edd13110225f80f9f3709b","session_id":"6196c1f2740bdcc0c6a24763","condition":"contingent","relevant_dimensions":["antennae","pattern"],"bee_group":{"antennae":"B","wings":"X","pattern":"S","legs":"X"},"bonus":0.8400000000000005},{"rt":981,"stimulus":"bees-with-color/bee-B1DM.svg","response":1,"trial_type":"image-button-response","trial_index":149,"time_elapsed":509272,"internal_node_id":"0.0-6.0-0.13","subject_id":"60a2dc206ce94a429c60a885","study_id":"60edd13110225f80f9f3709b","session_id":"6196c1f2740bdcc0c6a24763","condition":"contingent","relevant_dimensions":["antennae","pattern"],"bee_group":{"antennae":"B","wings":"X","pattern":"S","legs":"X"},"bonus":0.8400000000000005},{"rt":1375,"stimulus":"bees-with-color/bee-B2DF.svg","response":0,"trial_type":"image-button-response","trial_index":150,"time_elapsed":510648,"internal_node_id":"0.0-6.0-0.14","subject_id":"60a2dc206ce94a429c60a885","study_id":"60edd13110225f80f9f3709b","session_id":"6196c1f2740bdcc0c6a24763","condition":"contingent","relevant_dimensions":["antennae","pattern"],"bee_group":{"antennae":"B","wings":"X","pattern":"S","legs":"X"},"bonus":0.8400000000000005},{"rt":597,"stimulus":"bees-with-color/bee-B1SM.svg","response":1,"trial_type":"image-button-response","trial_index":151,"time_elapsed":511246,"internal_node_id":"0.0-6.0-0.15","subject_id":"60a2dc206ce94a429c60a885","study_id":"60edd13110225f80f9f3709b","session_id":"6196c1f2740bdcc0c6a24763","condition":"contingent","relevant_dimensions":["antennae","pattern"],"bee_group":{"antennae":"B","wings":"X","pattern":"S","legs":"X"},"bonus":0.8400000000000005},{"rt":458,"stimulus":"bees-with-color/bee-A2SF.svg","response":1,"trial_type":"image-button-response","trial_index":152,"time_elapsed":511706,"internal_node_id":"0.0-6.0-0.16","subject_id":"60a2dc206ce94a429c60a885","study_id":"60edd13110225f80f9f3709b","session_id":"6196c1f2740bdcc0c6a24763","condition":"contingent","relevant_dimensions":["antennae","pattern"],"bee_group":{"antennae":"B","wings":"X","pattern":"S","legs":"X"},"bonus":0.8400000000000005},{"rt":448,"stimulus":"bees-with-color/bee-A2DM.svg","response":1,"trial_type":"image-button-response","trial_index":153,"time_elapsed":512157,"internal_node_id":"0.0-6.0-0.17","subject_id":"60a2dc206ce94a429c60a885","study_id":"60edd13110225f80f9f3709b","session_id":"6196c1f2740bdcc0c6a24763","condition":"contingent","relevant_dimensions":["antennae","pattern"],"bee_group":{"antennae":"B","wings":"X","pattern":"S","legs":"X"},"bonus":0.8400000000000005},{"rt":646,"stimulus":"bees-with-color/bee-A1DF.svg","response":1,"trial_type":"image-button-response","trial_index":154,"time_elapsed":512802,"internal_node_id":"0.0-6.0-0.18","subject_id":"60a2dc206ce94a429c60a885","study_id":"60edd13110225f80f9f3709b","session_id":"6196c1f2740bdcc0c6a24763","condition":"contingent","relevant_dimensions":["antennae","pattern"],"bee_group":{"antennae":"B","wings":"X","pattern":"S","legs":"X"},"bonus":0.8400000000000005},{"rt":1314,"stimulus":"bees-with-color/bee-A1DM.svg","response":0,"trial_type":"image-button-response","trial_index":155,"time_elapsed":514119,"internal_node_id":"0.0-6.0-0.19","subject_id":"60a2dc206ce94a429c60a885","study_id":"60edd13110225f80f9f3709b","session_id":"6196c1f2740bdcc0c6a24763","condition":"contingent","relevant_dimensions":["antennae","pattern"],"bee_group":{"antennae":"B","wings":"X","pattern":"S","legs":"X"},"bonus":0.8400000000000005},{"rt":615,"stimulus":"bees-with-color/bee-B2SM.svg","response":1,"trial_type":"image-button-response","trial_index":156,"time_elapsed":514734,"internal_node_id":"0.0-6.0-0.20","subject_id":"60a2dc206ce94a429c60a885","study_id":"60edd13110225f80f9f3709b","session_id":"6196c1f2740bdcc0c6a24763","condition":"contingent","relevant_dimensions":["antennae","pattern"],"bee_group":{"antennae":"B","wings":"X","pattern":"S","legs":"X"},"bonus":0.8400000000000005},{"rt":1942,"stimulus":"bees-with-color/bee-A2SM.svg","response":1,"trial_type":"image-button-response","trial_index":157,"time_elapsed":516676,"internal_node_id":"0.0-6.0-0.21","subject_id":"60a2dc206ce94a429c60a885","study_id":"60edd13110225f80f9f3709b","session_id":"6196c1f2740bdcc0c6a24763","condition":"contingent","relevant_dimensions":["antennae","pattern"],"bee_group":{"antennae":"B","wings":"X","pattern":"S","legs":"X"},"bonus":0.8400000000000005},{"rt":772,"stimulus":"bees-with-color/bee-B1SF.svg","response":1,"trial_type":"image-button-response","trial_index":158,"time_elapsed":517449,"internal_node_id":"0.0-6.0-0.22","subject_id":"60a2dc206ce94a429c60a885","study_id":"60edd13110225f80f9f3709b","session_id":"6196c1f2740bdcc0c6a24763","condition":"contingent","relevant_dimensions":["antennae","pattern"],"bee_group":{"antennae":"B","wings":"X","pattern":"S","legs":"X"},"bonus":0.8400000000000005},{"rt":621,"stimulus":"bees-with-color/bee-B2DF.svg","response":1,"trial_type":"image-button-response","trial_index":159,"time_elapsed":518073,"internal_node_id":"0.0-6.0-0.23","subject_id":"60a2dc206ce94a429c60a885","study_id":"60edd13110225f80f9f3709b","session_id":"6196c1f2740bdcc0c6a24763","condition":"contingent","relevant_dimensions":["antennae","pattern"],"bee_group":{"antennae":"B","wings":"X","pattern":"S","legs":"X"},"bonus":0.8400000000000005},{"rt":673,"stimulus":"bees-with-color/bee-B1DM.svg","response":1,"trial_type":"image-button-response","trial_index":160,"time_elapsed":518746,"internal_node_id":"0.0-6.0-0.24","subject_id":"60a2dc206ce94a429c60a885","study_id":"60edd13110225f80f9f3709b","session_id":"6196c1f2740bdcc0c6a24763","condition":"contingent","relevant_dimensions":["antennae","pattern"],"bee_group":{"antennae":"B","wings":"X","pattern":"S","legs":"X"},"bonus":0.8400000000000005},{"rt":865,"stimulus":"bees-with-color/bee-B1SM.svg","response":1,"trial_type":"image-button-response","trial_index":161,"time_elapsed":519612,"internal_node_id":"0.0-6.0-0.25","subject_id":"60a2dc206ce94a429c60a885","study_id":"60edd13110225f80f9f3709b","session_id":"6196c1f2740bdcc0c6a24763","condition":"contingent","relevant_dimensions":["antennae","pattern"],"bee_group":{"antennae":"B","wings":"X","pattern":"S","legs":"X"},"bonus":0.8400000000000005},{"rt":352,"stimulus":"bees-with-color/bee-A1SF.svg","response":1,"trial_type":"image-button-response","trial_index":162,"time_elapsed":519965,"internal_node_id":"0.0-6.0-0.26","subject_id":"60a2dc206ce94a429c60a885","study_id":"60edd13110225f80f9f3709b","session_id":"6196c1f2740bdcc0c6a24763","condition":"contingent","relevant_dimensions":["antennae","pattern"],"bee_group":{"antennae":"B","wings":"X","pattern":"S","legs":"X"},"bonus":0.8400000000000005},{"rt":413,"stimulus":"bees-with-color/bee-A2DF.svg","response":1,"trial_type":"image-button-response","trial_index":163,"time_elapsed":520377,"internal_node_id":"0.0-6.0-0.27","subject_id":"60a2dc206ce94a429c60a885","study_id":"60edd13110225f80f9f3709b","session_id":"6196c1f2740bdcc0c6a24763","condition":"contingent","relevant_dimensions":["antennae","pattern"],"bee_group":{"antennae":"B","wings":"X","pattern":"S","legs":"X"},"bonus":0.8400000000000005},{"rt":497,"stimulus":"bees-with-color/bee-B1DF.svg","response":1,"trial_type":"image-button-response","trial_index":164,"time_elapsed":520876,"internal_node_id":"0.0-6.0-0.28","subject_id":"60a2dc206ce94a429c60a885","study_id":"60edd13110225f80f9f3709b","session_id":"6196c1f2740bdcc0c6a24763","condition":"contingent","relevant_dimensions":["antennae","pattern"],"bee_group":{"antennae":"B","wings":"X","pattern":"S","legs":"X"},"bonus":0.8400000000000005},{"rt":459,"stimulus":"bees-with-color/bee-A1SM.svg","response":1,"trial_type":"image-button-response","trial_index":165,"time_elapsed":521336,"internal_node_id":"0.0-6.0-0.29","subject_id":"60a2dc206ce94a429c60a885","study_id":"60edd13110225f80f9f3709b","session_id":"6196c1f2740bdcc0c6a24763","condition":"contingent","relevant_dimensions":["antennae","pattern"],"bee_group":{"antennae":"B","wings":"X","pattern":"S","legs":"X"},"bonus":0.8400000000000005},{"rt":767,"stimulus":"bees-with-color/bee-B2DM.svg","response":1,"trial_type":"image-button-response","trial_index":166,"time_elapsed":522105,"internal_node_id":"0.0-6.0-0.30","subject_id":"60a2dc206ce94a429c60a885","study_id":"60edd13110225f80f9f3709b","session_id":"6196c1f2740bdcc0c6a24763","condition":"contingent","relevant_dimensions":["antennae","pattern"],"bee_group":{"antennae":"B","wings":"X","pattern":"S","legs":"X"},"bonus":0.8400000000000005},{"rt":313,"stimulus":"bees-with-color/bee-B2SF.svg","response":1,"trial_type":"image-button-response","trial_index":167,"time_elapsed":522420,"internal_node_id":"0.0-6.0-0.31","subject_id":"60a2dc206ce94a429c60a885","study_id":"60edd13110225f80f9f3709b","session_id":"6196c1f2740bdcc0c6a24763","condition":"contingent","relevant_dimensions":["antennae","pattern"],"bee_group":{"antennae":"B","wings":"X","pattern":"S","legs":"X"},"bonus":0.8400000000000005},{"rt":5609,"stimulus":"You started with $2.50 of base pay.<br><br>\n            You made $0.84 in bonus pay,\n            for a total of <b>$3.34</b>.","response":0,"trial_type":"html-button-response","trial_index":168,"time_elapsed":528030,"internal_node_id":"0.0-7.0-0.0","subject_id":"60a2dc206ce94a429c60a885","study_id":"60edd13110225f80f9f3709b","session_id":"6196c1f2740bdcc0c6a24763","condition":"contingent","relevant_dimensions":["antennae","pattern"],"bee_group":{"antennae":"B","wings":"X","pattern":"S","legs":"X"},"bonus":0.8400000000000005},{"rt":15362,"response":{"percent-dangerous-bees":"45% "},"trial_type":"survey-text","trial_in