[{"success":true,"trial_type":"fullscreen","trial_index":0,"time_elapsed":48167,"internal_node_id":"0.0-0.0","subject_id":"607458a3355910967d2a8b74","study_id":"60edd13110225f80f9f3709b","session_id":"6196c1f685ed32eb50a3099f","condition":"full-information","relevant_dimensions":["pattern","legs"],"bee_group":{"antennae":"X","wings":"X","pattern":"D","legs":"M"},"bonus":1.0800000000000007},{"success":true,"timeout":false,"failed_images":[],"failed_audio":[],"failed_video":[],"trial_type":"preload","trial_index":1,"time_elapsed":50197,"internal_node_id":"0.0-1.0","subject_id":"607458a3355910967d2a8b74","study_id":"60edd13110225f80f9f3709b","session_id":"6196c1f685ed32eb50a3099f","condition":"full-information","relevant_dimensions":["pattern","legs"],"bee_group":{"antennae":"X","wings":"X","pattern":"D","legs":"M"},"bonus":1.0800000000000007},{"rt":1304,"stimulus":"Welcome! Press any key to begin.","response":" ","trial_type":"html-keyboard-response","trial_index":2,"time_elapsed":51502,"internal_node_id":"0.0-2.0","subject_id":"607458a3355910967d2a8b74","study_id":"60edd13110225f80f9f3709b","session_id":"6196c1f685ed32eb50a3099f","condition":"full-information","relevant_dimensions":["pattern","legs"],"bee_group":{"antennae":"X","wings":"X","pattern":"D","legs":"M"},"bonus":1.0800000000000007},{"view_history":[{"page_index":0,"viewing_time":3927.600000023842},{"page_index":1,"viewing_time":7119.899999976158},{"page_index":2,"viewing_time":9520},{"page_index":3,"viewing_time":9207.800000011921},{"page_index":4,"viewing_time":4232.100000023842},{"page_index":5,"viewing_time":6072},{"page_index":6,"viewing_time":8360},{"page_index":7,"viewing_time":3232},{"page_index":8,"viewing_time":1568},{"page_index":9,"viewing_time":2392},{"page_index":10,"viewing_time":1552.0999999642372},{"page_index":11,"viewing_time":4311.800000011921},{"page_index":12,"viewing_time":4032.100000023842},{"page_index":13,"viewing_time":1159.8999999761581},{"page_index":14,"viewing_time":1232.1000000238419}],"rt":67919.60000002384,"trial_type":"instructions","trial_index":3,"time_elapsed":119422,"internal_node_id":"0.0-3.0-0.0","subject_id":"607458a3355910967d2a8b74","study_id":"60edd13110225f80f9f3709b","session_id":"6196c1f685ed32eb50a3099f","condition":"full-information","relevant_dimensions":["pattern","legs"],"bee_group":{"antennae":"X","wings":"X","pattern":"D","legs":"M"},"bonus":1.0800000000000007},{"rt":10477.899999976158,"response":{"Q0":["Two or six legs","Stripes or spots on body","Single or double wings","Antennae or no antennae"]},"question_order":[0],"trial_type":"survey-multi-select","trial_index":4,"time_elapsed":129902,"internal_node_id":"0.0-3.0-1.0","subject_id":"607458a3355910967d2a8b74","study_id":"60edd13110225f80f9f3709b","session_id":"6196c1f685ed32eb50a3099f","condition":"full-information","relevant_dimensions":["pattern","legs"],"bee_group":{"antennae":"X","wings":"X","pattern":"D","legs":"M"},"correct":true,"bonus":1.0800000000000007},{"rt":12493.100000023842,"response":{"Q1":"No.","Q2":"Based on the four features of the bee.","Q3":"You learn if it was friendly or dangerous, but do not alter your bonus."},"question_order":[0,1,2],"trial_type":"survey-multi-choice","trial_index":5,"time_elapsed":142398,"internal_node_id":"0.0-3.0-2.0","subject_id":"607458a3355910967d2a8b74","study_id":"60edd13110225f80f9f3709b","session_id":"6196c1f685ed32eb50a3099f","condition":"full-information","relevant_dimensions":["pattern","legs"],"bee_group":{"antennae":"X","wings":"X","pattern":"D","legs":"M"},"correct":true,"bonus":1.0800000000000007},{"rt":2116.800000011921,"stimulus":"<p>Congrats, you got everything right<br>When you're ready, click the button below to continue to the experiment.</p>","response":0,"trial_type":"html-button-response","trial_index":6,"time_elapsed":144518,"internal_node_id":"0.0-3.0-3.0","subject_id":"607458a3355910967d2a8b74","study_id":"60edd13110225f80f9f3709b","session_id":"6196c1f685ed32eb50a3099f","condition":"full-information","relevant_dimensions":["pattern","legs"],"bee_group":{"antennae":"X","wings":"X","pattern":"D","legs":"M"},"bonus":1.0800000000000007},{"rt":4366.300000011921,"stimulus":"bees-with-color/bee-A1DM.svg","response":1,"trial_type":"image-button-response","trial_index":7,"time_elapsed":148886,"internal_node_id":"0.0-4.0-0.0","subject_id":"607458a3355910967d2a8b74","study_id":"60edd13110225f80f9f3709b","session_id":"6196c1f685ed32eb50a3099f","condition":"full-information","relevant_dimensions":["pattern","legs"],"bee_group":{"antennae":"X","wings":"X","pattern":"D","legs":"M"},"action":"avoid","summary":"good-avoid","bonus":1.0800000000000007},{"rt":5238.300000011921,"stimulus":"\n                    <p><b>Action: <em>avoid</em></b></p>\n                    <p>This is the bee that you just saw.</p>\n                    <img src=\"bees-with-color/bee-A1DM.svg\" width=\"200\">\n                    <p><span class=\"greenText\">Good choice!</span>  This bee would have stung you.<br>Your bonus pay is unchanged, and remains at $0.54.</p>\n            ","response":0,"trial_type":"html-button-response","trial_index":8,"time_elapsed":154126,"internal_node_id":"0.0-4.0-1.0","subject_id":"607458a3355910967d2a8b74","study_id":"60edd13110225f80f9f3709b","session_id":"6196c1f685ed32eb50a3099f","condition":"full-information","relevant_dimensions":["pattern","legs"],"bee_group":{"antennae":"X","wings":"X","pattern":"D","legs":"M"},"bonus":1.0800000000000007},{"rt":1790.7000000476837,"stimulus":"bees-with-color/bee-A2DF.svg","response":1,"trial_type":"image-button-response","trial_index":9,"time_elapsed":155918,"internal_node_id":"0.0-4.0-0.1","subject_id":"607458a3355910967d2a8b74","study_id":"60edd13110225f80f9f3709b","session_id":"6196c1f685ed32eb50a3099f","condition":"full-information","relevant_dimensions":["pattern","legs"],"bee_group":{"antennae":"X","wings":"X","pattern":"D","legs":"M"},"action":"avoid","summary":"bad-avoid","bonus":1.0800000000000007},{"rt":5406.800000011921,"stimulus":"\n                    <p><b>Action: <em>avoid</em></b></p>\n                    <p>This is the bee that you just saw.</p>\n                    <img src=\"bees-with-color/bee-A2DF.svg\" width=\"200\">\n                    <p><span class=\"redText\">Bad choice,</span> the bee was friendly.<br>Your bonus pay is unchanged, and remains at $0.54.</p>\n            ","response":0,"trial_type":"html-button-response","trial_index":10,"time_elapsed":161326,"internal_node_id":"0.0-4.0-1.1","subject_id":"607458a3355910967d2a8b74","study_id":"60edd13110225f80f9f3709b","session_id":"6196c1f685ed32eb50a3099f","condition":"full-information","relevant_dimensions":["pattern","legs"],"bee_group":{"antennae":"X","wings":"X","pattern":"D","legs":"M"},"bonus":1.0800000000000007},{"rt":1502.5,"stimulus":"bees-with-color/bee-A1SF.svg","response":0,"trial_type":"image-button-response","trial_index":11,"time_elapsed":162830,"internal_node_id":"0.0-4.0-0.2","subject_id":"607458a3355910967d2a8b74","study_id":"60edd13110225f80f9f3709b","session_id":"6196c1f685ed32eb50a3099f","condition":"full-information","relevant_dimensions":["pattern","legs"],"bee_group":{"antennae":"X","wings":"X","pattern":"D","legs":"M"},"action":"harvest","summary":"good-harvest","bonus":1.0800000000000007},{"rt":2990.800000011921,"stimulus":"\n                    <p><b>Action: <em>harvest</em></b></p>\n                    <p>This is the bee that you just saw.</p>\n                    <img src=\"bees-with-color/bee-A1SF.svg\" width=\"200\">\n                    <p><span class=\"greenText\"><b>Successful harvest!</b></span><br>Your pay has increased by $0.02. Your bonus pay is now $0.56.</p>\n            ","response":0,"trial_type":"html-button-response","trial_index":12,"time_elapsed":165822,"internal_node_id":"0.0-4.0-1.2","subject_id":"607458a3355910967d2a8b74","study_id":"60edd13110225f80f9f3709b","session_id":"6196c1f685ed32eb50a3099f","condition":"full-information","relevant_dimensions":["pattern","legs"],"bee_group":{"antennae":"X","wings":"X","pattern":"D","legs":"M"},"bonus":1.0800000000000007},{"rt":990.8999999761581,"stimulus":"bees-with-color/bee-A1SM.svg","response":0,"trial_type":"image-button-response","trial_index":13,"time_elapsed":166814,"internal_node_id":"0.0-4.0-0.3","subject_id":"607458a3355910967d2a8b74","study_id":"60edd13110225f80f9f3709b","session_id":"6196c1f685ed32eb50a3099f","condition":"full-information","relevant_dimensions":["pattern","legs"],"bee_group":{"antennae":"X","wings":"X","pattern":"D","legs":"M"},"action":"harvest","summary":"good-harvest","bonus":1.0800000000000007},{"rt":1926.6000000238419,"stimulus":"\n                    <p><b>Action: <em>harvest</em></b></p>\n                    <p>This is the bee that you just saw.</p>\n                    <img src=\"bees-with-color/bee-A1SM.svg\" width=\"200\">\n                    <p><span class=\"greenText\"><b>Successful harvest!</b></span><br>Your pay has increased by $0.02. Your bonus pay is now $0.58.</p>\n            ","response":0,"trial_type":"html-button-response","trial_index":14,"time_elapsed":168742,"internal_node_id":"0.0-4.0-1.3","subject_id":"607458a3355910967d2a8b74","study_id":"60edd13110225f80f9f3709b","session_id":"6196c1f685ed32eb50a3099f","condition":"full-information","relevant_dimensions":["pattern","legs"],"bee_group":{"antennae":"X","wings":"X","pattern":"D","legs":"M"},"bonus":1.0800000000000007},{"rt":1062.699999988079,"stimulus":"bees-with-color/bee-A2SF.svg","response":0,"trial_type":"image-button-response","trial_index":15,"time_elapsed":169806,"internal_node_id":"0.0-4.0-0.4","subject_id":"607458a3355910967d2a8b74","study_id":"60edd13110225f80f9f3709b","session_id":"6196c1f685ed32eb50a3099f","condition":"full-information","relevant_dimensions":["pattern","legs"],"bee_group":{"antennae":"X","wings":"X","pattern":"D","legs":"M"},"action":"harvest","summary":"good-harvest","bonus":1.0800000000000007},{"rt":1222.8999999761581,"stimulus":"\n                    <p><b>Action: <em>harvest</em></b></p>\n                    <p>This is the bee that you just saw.</p>\n                    <img src=\"bees-with-color/bee-A2SF.svg\" width=\"200\">\n                    <p><span class=\"greenText\"><b>Successful harvest!</b></span><br>Your pay has increased by $0.02. Your bonus pay is now $0.60.</p>\n            ","response":0,"trial_type":"html-button-response","trial_index":16,"time_elapsed":171030,"internal_node_id":"0.0-4.0-1.4","subject_id":"607458a3355910967d2a8b74","study_id":"60edd13110225f80f9f3709b","session_id":"6196c1f685ed32eb50a3099f","condition":"full-information","relevant_dimensions":["pattern","legs"],"bee_group":{"antennae":"X","wings":"X","pattern":"D","legs":"M"},"bonus":1.0800000000000007},{"rt":1470.8999999761581,"stimulus":"bees-with-color/bee-B1SF.svg","response":0,"trial_type":"image-button-response","trial_index":17,"time_elapsed":172501,"internal_node_id":"0.0-4.0-0.5","subject_id":"607458a3355910967d2a8b74","study_id":"60edd13110225f80f9f3709b","session_id":"6196c1f685ed32eb50a3099f","condition":"full-information","relevant_dimensions":["pattern","legs"],"bee_group":{"antennae":"X","wings":"X","pattern":"D","legs":"M"},"action":"harvest","summary":"good-harvest","bonus":1.0800000000000007},{"rt":1303.1000000238419,"stimulus":"\n                    <p><b>Action: <em>harvest</em></b></p>\n                    <p>This is the bee that you just saw.</p>\n                    <img src=\"bees-with-color/bee-B1SF.svg\" width=\"200\">\n                    <p><span class=\"greenText\"><b>Successful harvest!</b></span><br>Your pay has increased by $0.02. Your bonus pay is now $0.62.</p>\n            ","response":0,"trial_type":"html-button-response","trial_index":18,"time_elapsed":173806,"internal_node_id":"0.0-4.0-1.5","subject_id":"607458a3355910967d2a8b74","study_id":"60edd13110225f80f9f3709b","session_id":"6196c1f685ed32eb50a3099f","condition":"full-information","relevant_dimensions":["pattern","legs"],"bee_group":{"antennae":"X","wings":"X","pattern":"D","legs":"M"},"bonus":1.0800000000000007},{"rt":1198.800000011921,"stimulus":"bees-with-color/bee-B2SF.svg","response":0,"trial_type":"image-button-response","trial_index":19,"time_elapsed":175005,"internal_node_id":"0.0-4.0-0.6","subject_id":"607458a3355910967d2a8b74","study_id":"60edd13110225f80f9f3709b","session_id":"6196c1f685ed32eb50a3099f","condition":"full-information","relevant_dimensions":["pattern","legs"],"bee_group":{"antennae":"X","wings":"X","pattern":"D","legs":"M"},"action":"harvest","summary":"good-harvest","bonus":1.0800000000000007},{"rt":1559.1000000238419,"stimulus":"\n                    <p><b>Action: <em>harvest</em></b></p>\n                    <p>This is the bee that you just saw.</p>\n                    <img src=\"bees-with-color/bee-B2SF.svg\" width=\"200\">\n                    <p><span class=\"greenText\"><b>Successful harvest!</b></span><br>Your pay has increased by $0.02. Your bonus pay is now $0.64.</p>\n            ","response":0,"trial_type":"html-button-response","trial_index":20,"time_elapsed":176565,"internal_node_id":"0.0-4.0-1.6","subject_id":"607458a3355910967d2a8b74","study_id":"60edd13110225f80f9f3709b","session_id":"6196c1f685ed32eb50a3099f","condition":"full-information","relevant_dimensions":["pattern","legs"],"bee_group":{"antennae":"X","wings":"X","pattern":"D","legs":"M"},"bonus":1.0800000000000007},{"rt":991.1000000238419,"stimulus":"bees-with-color/bee-B1DM.svg","response":1,"trial_type":"image-button-response","trial_index":21,"time_elapsed":177557,"internal_node_id":"0.0-4.0-0.7","subject_id":"607458a3355910967d2a8b74","study_id":"60edd13110225f80f9f3709b","session_id":"6196c1f685ed32eb50a3099f","condition":"full-information","relevant_dimensions":["pattern","legs"],"bee_group":{"antennae":"X","wings":"X","pattern":"D","legs":"M"},"action":"avoid","summary":"good-avoid","bonus":1.0800000000000007},{"rt":1479.1000000238419,"stimulus":"\n                    <p><b>Action: <em>avoid</em></b></p>\n                    <p>This is the bee that you just saw.</p>\n                    <img src=\"bees-with-color/bee-B1DM.svg\" width=\"200\">\n                    <p><span class=\"greenText\">Good choice!</span>  This bee would have stung you.<br>Your bonus pay is unchanged, and remains at $0.64.</p>\n            ","response":0,"trial_type":"html-button-response","trial_index":22,"time_elapsed":179037,"internal_node_id":"0.0-4.0-1.7","subject_id":"607458a3355910967d2a8b74","study_id":"60edd13110225f80f9f3709b","session_id":"6196c1f685ed32eb50a3099f","condition":"full-information","relevant_dimensions":["pattern","legs"],"bee_group":{"antennae":"X","wings":"X","pattern":"D","legs":"M"},"bonus":1.0800000000000007},{"rt":878.9000000357628,"stimulus":"bees-with-color/bee-B1DF.svg","response":1,"trial_type":"image-button-response","trial_index":23,"time_elapsed":179917,"internal_node_id":"0.0-4.0-0.8","subject_id":"607458a3355910967d2a8b74","study_id":"60edd13110225f80f9f3709b","session_id":"6196c1f685ed32eb50a3099f","condition":"full-information","relevant_dimensions":["pattern","legs"],"bee_group":{"antennae":"X","wings":"X","pattern":"D","legs":"M"},"action":"avoid","summary":"bad-avoid","bonus":1.0800000000000007},{"rt":1543,"stimulus":"\n                    <p><b>Action: <em>avoid</em></b></p>\n                    <p>This is the bee that you just saw.</p>\n                    <img src=\"bees-with-color/bee-B1DF.svg\" width=\"200\">\n                    <p><span class=\"redText\">Bad choice,</span> the bee was friendly.<br>Your bonus pay is unchanged, and remains at $0.64.</p>\n            ","response":0,"trial_type":"html-button-response","trial_index":24,"time_elapsed":181461,"internal_node_id":"0.0-4.0-1.8","subject_id":"607458a3355910967d2a8b74","study_id":"60edd13110225f80f9f3709b","session_id":"6196c1f685ed32eb50a3099f","condition":"full-information","relevant_dimensions":["pattern","legs"],"bee_group":{"antennae":"X","wings":"X","pattern":"D","legs":"M"},"bonus":1.0800000000000007},{"rt":1639.199999988079,"stimulus":"bees-with-color/bee-B1SM.svg","response":0,"trial_type":"image-button-response","trial_index":25,"time_elapsed":183101,"internal_node_id":"0.0-4.0-0.9","subject_id":"607458a3355910967d2a8b74","study_id":"60edd13110225f80f9f3709b","session_id":"6196c1f685ed32eb50a3099f","condition":"full-information","relevant_dimensions":["pattern","legs"],"bee_group":{"antennae":"X","wings":"X","pattern":"D","legs":"M"},"action":"harvest","summary":"good-harvest","bonus":1.0800000000000007},{"rt":1103.1000000238419,"stimulus":"\n                    <p><b>Action: <em>harvest</em></b></p>\n                    <p>This is the bee that you just saw.</p>\n                    <img src=\"bees-with-color/bee-B1SM.svg\" width=\"200\">\n                    <p><span class=\"greenText\"><b>Successful harvest!</b></span><br>Your pay has increased by $0.02. Your bonus pay is now $0.66.</p>\n            ","response":0,"trial_type":"html-button-response","trial_index":26,"time_elapsed":184205,"internal_node_id":"0.0-4.0-1.9","subject_id":"607458a3355910967d2a8b74","study_id":"60edd13110225f80f9f3709b","session_id":"6196c1f685ed32eb50a3099f","condition":"full-information","relevant_dimensions":["pattern","legs"],"bee_group":{"antennae":"X","wings":"X","pattern":"D","legs":"M"},"bonus":1.0800000000000007},{"rt":1559.199999988079,"stimulus":"bees-with-color/bee-B2DM.svg","response":1,"trial_type":"image-button-response","trial_index":27,"time_elapsed":185765,"internal_node_id":"0.0-4.0-0.10","subject_id":"607458a3355910967d2a8b74","study_id":"60edd13110225f80f9f3709b","session_id":"6196c1f685ed32eb50a3099f","condition":"full-information","relevant_dimensions":["pattern","legs"],"bee_group":{"antennae":"X","wings":"X","pattern":"D","legs":"M"},"action":"avoid","summary":"good-avoid","bonus":1.0800000000000007},{"rt":1487.1000000238419,"stimulus":"\n                    <p><b>Action: <em>avoid</em></b></p>\n                    <p>This is the bee that you just saw.</p>\n                    <img src=\"bees-with-color/bee-B2DM.svg\" width=\"200\">\n                    <p><span class=\"greenText\">Good choice!</span>  This bee would have stung you.<br>Your bonus pay is unchanged, and remains at $0.66.</p>\n            ","response":0,"trial_type":"html-button-response","trial_index":28,"time_elapsed":187253,"internal_node_id":"0.0-4.0-1.10","subject_id":"607458a3355910967d2a8b74","study_id":"60edd13110225f80f9f3709b","session_id":"6196c1f685ed32eb50a3099f","condition":"full-information","relevant_dimensions":["pattern","legs"],"bee_group":{"antennae":"X","wings":"X","pattern":"D","legs":"M"},"bonus":1.0800000000000007},{"rt":1134.800000011921,"stimulus":"bees-with-color/bee-A2SM.svg","response":0,"trial_type":"image-button-response","trial_index":29,"time_elapsed":188389,"internal_node_id":"0.0-4.0-0.11","subject_id":"607458a3355910967d2a8b74","study_id":"60edd13110225f80f9f3709b","session_id":"6196c1f685ed32eb50a3099f","condition":"full-information","relevant_dimensions":["pattern","legs"],"bee_group":{"antennae":"X","wings":"X","pattern":"D","legs":"M"},"action":"harvest","summary":"good-harvest","bonus":1.0800000000000007},{"rt":1351.1000000238419,"stimulus":"\n                    <p><b>Action: <em>harvest</em></b></p>\n                    <p>This is the bee that you just saw.</p>\n                    <img src=\"bees-with-color/bee-A2SM.svg\" width=\"200\">\n                    <p><span class=\"greenText\"><b>Successful harvest!</b></span><br>Your pay has increased by $0.02. Your bonus pay is now $0.68.</p>\n            ","response":0,"trial_type":"html-button-response","trial_index":30,"time_elapsed":189741,"internal_node_id":"0.0-4.0-1.11","subject_id":"607458a3355910967d2a8b74","study_id":"60edd13110225f80f9f3709b","session_id":"6196c1f685ed32eb50a3099f","condition":"full-information","relevant_dimensions":["pattern","legs"],"bee_group":{"antennae":"X","wings":"X","pattern":"D","legs":"M"},"bonus":1.0800000000000007},{"rt":1159.0999999642372,"stimulus":"bees-with-color/bee-A2DM.svg","response":1,"trial_type":"image-button-response","trial_index":31,"time_elapsed":190901,"internal_node_id":"0.0-4.0-0.12","subject_id":"607458a3355910967d2a8b74","study_id":"60edd13110225f80f9f3709b","session_id":"6196c1f685ed32eb50a3099f","condition":"full-information","relevant_dimensions":["pattern","legs"],"bee_group":{"antennae":"X","wings":"X","pattern":"D","legs":"M"},"action":"avoid","summary":"good-avoid","bonus":1.0800000000000007},{"rt":1055,"stimulus":"\n                    <p><b>Action: <em>avoid</em></b></p>\n                    <p>This is the bee that you just saw.</p>\n                    <img src=\"bees-with-color/bee-A2DM.svg\" width=\"200\">\n                    <p><span class=\"greenText\">Good choice!</span>  This bee would have stung you.<br>Your bonus pay is unchanged, and remains at $0.68.</p>\n            ","response":0,"trial_type":"html-button-response","trial_index":32,"time_elapsed":191957,"internal_node_id":"0.0-4.0-1.12","subject_id":"607458a3355910967d2a8b74","study_id":"60edd13110225f80f9f3709b","session_id":"6196c1f685ed32eb50a3099f","condition":"full-information","relevant_dimensions":["pattern","legs"],"bee_group":{"antennae":"X","wings":"X","pattern":"D","legs":"M"},"bonus":1.0800000000000007},{"rt":1663.300000011921,"stimulus":"bees-with-color/bee-B2DF.svg","response":1,"trial_type":"image-button-response","trial_index":33,"time_elapsed":193621,"internal_node_id":"0.0-4.0-0.13","subject_id":"607458a3355910967d2a8b74","study_id":"60edd13110225f80f9f3709b","session_id":"6196c1f685ed32eb50a3099f","condition":"full-information","relevant_dimensions":["pattern","legs"],"bee_group":{"antennae":"X","wings":"X","pattern":"D","legs":"M"},"action":"avoid","summary":"bad-avoid","bonus":1.0800000000000007},{"rt":1839,"stimulus":"\n                    <p><b>Action: <em>avoid</em></b></p>\n                    <p>This is the bee that you just saw.</p>\n                    <img src=\"bees-with-color/bee-B2DF.svg\" width=\"200\">\n                    <p><span class=\"redText\">Bad choice,</span> the bee was friendly.<br>Your bonus pay is unchanged, and remains at $0.68.</p>\n            ","response":0,"trial_type":"html-button-response","trial_index":34,"time_elapsed":195461,"internal_node_id":"0.0-4.0-1.13","subject_id":"607458a3355910967d2a8b74","study_id":"60edd13110225f80f9f3709b","session_id":"6196c1f685ed32eb50a3099f","condition":"full-information","relevant_dimensions":["pattern","legs"],"bee_group":{"antennae":"X","wings":"X","pattern":"D","legs":"M"},"bonus":1.0800000000000007},{"rt":1478.699999988079,"stimulus":"bees-with-color/bee-B2SM.svg","response":0,"trial_type":"image-button-response","trial_index":35,"time_elapsed":196941,"internal_node_id":"0.0-4.0-0.14","subject_id":"607458a3355910967d2a8b74","study_id":"60edd13110225f80f9f3709b","session_id":"6196c1f685ed32eb50a3099f","condition":"full-information","relevant_dimensions":["pattern","legs"],"bee_group":{"antennae":"X","wings":"X","pattern":"D","legs":"M"},"action":"harvest","summary":"good-harvest","bonus":1.0800000000000007},{"rt":879.1000000238419,"stimulus":"\n                    <p><b>Action: <em>harvest</em></b></p>\n                    <p>This is the bee that you just saw.</p>\n                    <img src=\"bees-with-color/bee-B2SM.svg\" width=\"200\">\n                    <p><span class=\"greenText\"><b>Successful harvest!</b></span><br>Your pay has increased by $0.02. Your bonus pay is now $0.70.</p>\n            ","response":0,"trial_type":"html-button-response","trial_index":36,"time_elapsed":197821,"internal_node_id":"0.0-4.0-1.14","subject_id":"607458a3355910967d2a8b74","study_id":"60edd13110225f80f9f3709b","session_id":"6196c1f685ed32eb50a3099f","condition":"full-information","relevant_dimensions":["pattern","legs"],"bee_group":{"antennae":"X","wings":"X","pattern":"D","legs":"M"},"bonus":1.0800000000000007},{"rt":1095.199999988079,"stimulus":"bees-with-color/bee-A1DF.svg","response":1,"trial_type":"image-button-response","trial_index":37,"time_elapsed":198917,"internal_node_id":"0.0-4.0-0.15","subject_id":"607458a3355910967d2a8b74","study_id":"60edd13110225f80f9f3709b","session_id":"6196c1f685ed32eb50a3099f","condition":"full-information","relevant_dimensions":["pattern","legs"],"bee_group":{"antennae":"X","wings":"X","pattern":"D","legs":"M"},"action":"avoid","summary":"bad-avoid","bonus":1.0800000000000007},{"rt":3015.100000023842,"stimulus":"\n                    <p><b>Action: <em>avoid</em></b></p>\n                    <p>This is the bee that you just saw.</p>\n                    <img src=\"bees-with-color/bee-A1DF.svg\" width=\"200\">\n                    <p><span class=\"redText\">Bad choice,</span> the bee was friendly.<br>Your bonus pay is unchanged, and remains at $0.70.</p>\n            ","response":0,"trial_type":"html-button-response","trial_index":38,"time_elapsed":201933,"internal_node_id":"0.0-4.0-1.15","subject_id":"607458a3355910967d2a8b74","study_id":"60edd13110225f80f9f3709b","session_id":"6196c1f685ed32eb50a3099f","condition":"full-information","relevant_dimensions":["pattern","legs"],"bee_group":{"antennae":"X","wings":"X","pattern":"D","legs":"M"},"bonus":1.0800000000000007},{"rt":1678.8999999761581,"stimulus":"bees-with-color/bee-B2DM.svg","response":1,"trial_type":"image-button-response","trial_index":39,"time_elapsed":203613,"internal_node_id":"0.0-4.0-0.16","subject_id":"607458a3355910967d2a8b74","study_id":"60edd13110225f80f9f3709b","session_id":"6196c1f685ed32eb50a3099f","condition":"full-information","relevant_dimensions":["pattern","legs"],"bee_group":{"antennae":"X","wings":"X","pattern":"D","legs":"M"},"action":"avoid","summary":"good-avoid","bonus":1.0800000000000007},{"rt":1095,"stimulus":"\n                    <p><b>Action: <em>avoid</em></b></p>\n                    <p>This is the bee that you just saw.</p>\n                    <img src=\"bees-with-color/bee-B2DM.svg\" width=\"200\">\n                    <p><span class=\"greenText\">Good choice!</span>  This bee would have stung you.<br>Your bonus pay is unchanged, and remains at $0.70.</p>\n            ","response":0,"trial_type":"html-button-response","trial_index":40,"time_elapsed":204709,"internal_node_id":"0.0-4.0-1.16","subject_id":"607458a3355910967d2a8b74","study_id":"60edd13110225f80f9f3709b","session_id":"6196c1f685ed32eb50a3099f","condition":"full-information","relevant_dimensions":["pattern","legs"],"bee_group":{"antennae":"X","wings":"X","pattern":"D","legs":"M"},"bonus":1.0800000000000007},{"rt":2806.7999999523163,"stimulus":"bees-with-color/bee-A1SF.svg","response":0,"trial_type":"image-button-response","trial_index":41,"time_elapsed":207517,"internal_node_id":"0.0-4.0-0.17","subject_id":"607458a3355910967d2a8b74","study_id":"60edd13110225f80f9f3709b","session_id":"6196c1f685ed32eb50a3099f","condition":"full-information","relevant_dimensions":["pattern","legs"],"bee_group":{"antennae":"X","wings":"X","pattern":"D","legs":"M"},"action":"harvest","summary":"good-harvest","bonus":1.0800000000000007},{"rt":1063.199999988079,"stimulus":"\n                    <p><b>Action: <em>harvest</em></b></p>\n                    <p>This is the bee that you just saw.</p>\n                    <img src=\"bees-with-color/bee-A1SF.svg\" width=\"200\">\n                    <p><span class=\"greenText\"><b>Successful harvest!</b></span><br>Your pay has increased by $0.02. Your bonus pay is now $0.72.</p>\n            ","response":0,"trial_type":"html-button-response","trial_index":42,"time_elapsed":208581,"internal_node_id":"0.0-4.0-1.17","subject_id":"607458a3355910967d2a8b74","study_id":"60edd13110225f80f9f3709b","session_id":"6196c1f685ed32eb50a3099f","condition":"full-information","relevant_dimensions":["pattern","legs"],"bee_group":{"antennae":"X","wings":"X","pattern":"D","legs":"M"},"bonus":1.0800000000000007},{"rt":2095.300000011921,"stimulus":"bees-with-color/bee-B2SF.svg","response":0,"trial_type":"image-button-response","trial_index":43,"time_elapsed":210677,"internal_node_id":"0.0-4.0-0.18","subject_id":"607458a3355910967d2a8b74","study_id":"60edd13110225f80f9f3709b","session_id":"6196c1f685ed32eb50a3099f","condition":"full-information","relevant_dimensions":["pattern","legs"],"bee_group":{"antennae":"X","wings":"X","pattern":"D","legs":"M"},"action":"harvest","summary":"good-harvest","bonus":1.0800000000000007},{"rt":847.1999999880791,"stimulus":"\n                    <p><b>Action: <em>harvest</em></b></p>\n                    <p>This is the bee that you just saw.</p>\n                    <img src=\"bees-with-color/bee-B2SF.svg\" width=\"200\">\n                    <p><span class=\"greenText\"><b>Successful harvest!</b></span><br>Your pay has increased by $0.02. Your bonus pay is now $0.74.</p>\n            ","response":0,"trial_type":"html-button-response","trial_index":44,"time_elapsed":211525,"internal_node_id":"0.0-4.0-1.18","subject_id":"607458a3355910967d2a8b74","study_id":"60edd13110225f80f9f3709b","session_id":"6196c1f685ed32eb50a3099f","condition":"full-information","relevant_dimensions":["pattern","legs"],"bee_group":{"antennae":"X","wings":"X","pattern":"D","legs":"M"},"bonus":1.0800000000000007},{"rt":1103.1000000238419,"stimulus":"bees-with-color/bee-A1DF.svg","response":1,"trial_type":"image-button-response","trial_index":45,"time_elapsed":212629,"internal_node_id":"0.0-4.0-0.19","subject_id":"607458a3355910967d2a8b74","study_id":"60edd13110225f80f9f3709b","session_id":"6196c1f685ed32eb50a3099f","condition":"full-information","relevant_dimensions":["pattern","legs"],"bee_group":{"antennae":"X","wings":"X","pattern":"D","legs":"M"},"action":"avoid","summary":"bad-avoid","bonus":1.0800000000000007},{"rt":927,"stimulus":"\n                    <p><b>Action: <em>avoid</em></b></p>\n                    <p>This is the bee that you just saw.</p>\n                    <img src=\"bees-with-color/bee-A1DF.svg\" width=\"200\">\n                    <p><span class=\"redText\">Bad choice,</span> the bee was friendly.<br>Your bonus pay is unchanged, and remains at $0.74.</p>\n            ","response":0,"trial_type":"html-button-response","trial_index":46,"time_elapsed":213557,"internal_node_id":"0.0-4.0-1.19","subject_id":"607458a3355910967d2a8b74","study_id":"60edd13110225f80f9f3709b","session_id":"6196c1f685ed32eb50a3099f","condition":"full-information","relevant_dimensions":["pattern","legs"],"bee_group":{"antennae":"X","wings":"X","pattern":"D","legs":"M"},"bonus":1.0800000000000007},{"rt":1679.199999988079,"stimulus":"bees-with-color/bee-B1DF.svg","response":1,"trial_type":"image-button-response","trial_index":47,"time_elapsed":215237,"internal_node_id":"0.0-4.0-0.20","subject_id":"607458a3355910967d2a8b74","study_id":"60edd13110225f80f9f3709b","session_id":"6196c1f685ed32eb50a3099f","condition":"full-information","relevant_dimensions":["pattern","legs"],"bee_group":{"antennae":"X","wings":"X","pattern":"D","legs":"M"},"action":"avoid","summary":"bad-avoid","bonus":1.0800000000000007},{"rt":935.0999999642372,"stimulus":"\n                    <p><b>Action: <em>avoid</em></b></p>\n                    <p>This is the bee that you just saw.</p>\n                    <img src=\"bees-with-color/bee-B1DF.svg\" width=\"200\">\n                    <p><span class=\"redText\">Bad choice,</span> the bee was friendly.<br>Your bonus pay is unchanged, and remains at $0.74.</p>\n            ","response":0,"trial_type":"html-button-response","trial_index":48,"time_elapsed":216173,"internal_node_id":"0.0-4.0-1.20","subject_id":"607458a3355910967d2a8b74","study_id":"60edd13110225f80f9f3709b","session_id":"6196c1f685ed32eb50a3099f","condition":"full-information","relevant_dimensions":["pattern","legs"],"bee_group":{"antennae":"X","wings":"X","pattern":"D","legs":"M"},"bonus":1.0800000000000007},{"rt":1439.5,"stimulus":"bees-with-color/bee-B1SM.svg","response":0,"trial_type":"image-button-response","trial_index":49,"time_elapsed":217614,"internal_node_id":"0.0-4.0-0.21","subject_id":"607458a3355910967d2a8b74","study_id":"60edd13110225f80f9f3709b","session_id":"6196c1f685ed32eb50a3099f","condition":"full-information","relevant_dimensions":["pattern","legs"],"bee_group":{"antennae":"X","wings":"X","pattern":"D","legs":"M"},"action":"harvest","summary":"good-harvest","bonus":1.0800000000000007},{"rt":678.7999999523163,"stimulus":"\n                    <p><b>Action: <em>harvest</em></b></p>\n                    <p>This is the bee that you just saw.</p>\n                    <img src=\"bees-with-color/bee-B1SM.svg\" width=\"200\">\n                    <p><span class=\"greenText\"><b>Successful harvest!</b></span><br>Your pay has increased by $0.02. Your bonus pay is now $0.76.</p>\n            ","response":0,"trial_type":"html-button-response","trial_index":50,"time_elapsed":218293,"internal_node_id":"0.0-4.0-1.21","subject_id":"607458a3355910967d2a8b74","study_id":"60edd13110225f80f9f3709b","session_id":"6196c1f685ed32eb50a3099f","condition":"full-information","relevant_dimensions":["pattern","legs"],"bee_group":{"antennae":"X","wings":"X","pattern":"D","legs":"M"},"bonus":1.0800000000000007},{"rt":1695.0999999642372,"stimulus":"bees-with-color/bee-A1DM.svg","response":0,"trial_type":"image-button-response","trial_index":51,"time_elapsed":219989,"internal_node_id":"0.0-4.0-0.22","subject_id":"607458a3355910967d2a8b74","study_id":"60edd13110225f80f9f3709b","session_id":"6196c1f685ed32eb50a3099f","condition":"full-information","relevant_dimensions":["pattern","legs"],"bee_group":{"antennae":"X","wings":"X","pattern":"D","legs":"M"},"action":"harvest","summary":"bad-harvest","bonus":1.0800000000000007},{"rt":1319.0999999642372,"stimulus":"\n                    <p><b>Action: <em>harvest</em></b></p>\n                    <p>This is the bee that you just saw.</p>\n                    <img src=\"bees-with-color/bee-A1DM.svg\" width=\"200\">\n                    <p><span class=\"redText\">Bad choice, the bee was angry.</span><br><b>You have been stung!</b><br>Your pay has been decreased by $0.10. Your bonus pay is now $0.66.</p>\n            ","response":0,"trial_type":"html-button-response","trial_index":52,"time_elapsed":221309,"internal_node_id":"0.0-4.0-1.22","subject_id":"607458a3355910967d2a8b74","study_id":"60edd13110225f80f9f3709b","session_id":"6196c1f685ed32eb50a3099f","condition":"full-information","relevant_dimensions":["pattern","legs"],"bee_group":{"antennae":"X","wings":"X","pattern":"D","legs":"M"},"bonus":1.0800000000000007},{"rt":1526.8999999761581,"stimulus":"bees-with-color/bee-B2DF.svg","response":1,"trial_type":"image-button-response","trial_index":53,"time_elapsed":222837,"internal_node_id":"0.0-4.0-0.23","subject_id":"607458a3355910967d2a8b74","study_id":"60edd13110225f80f9f3709b","session_id":"6196c1f685ed32eb50a3099f","condition":"full-information","relevant_dimensions":["pattern","legs"],"bee_group":{"antennae":"X","wings":"X","pattern":"D","legs":"M"},"action":"avoid","summary":"bad-avoid","bonus":1.0800000000000007},{"rt":895.0999999642372,"stimulus":"\n                    <p><b>Action: <em>avoid</em></b></p>\n                    <p>This is the bee that you just saw.</p>\n                    <img src=\"bees-with-color/bee-B2DF.svg\" width=\"200\">\n                    <p><span class=\"redText\">Bad choice,</span> the bee was friendly.<br>Your bonus pay is unchanged, and remains at $0.66.</p>\n            ","response":0,"trial_type":"html-button-response","trial_index":54,"time_elapsed":223733,"internal_node_id":"0.0-4.0-1.23","subject_id":"607458a3355910967d2a8b74","study_id":"60edd13110225f80f9f3709b","session_id":"6196c1f685ed32eb50a3099f","condition":"full-information","relevant_dimensions":["pattern","legs"],"bee_group":{"antennae":"X","wings":"X","pattern":"D","legs":"M"},"bonus":1.0800000000000007},{"rt":2423.300000011921,"stimulus":"bees-with-color/bee-A2DM.svg","response":1,"trial_type":"image-button-response","trial_index":55,"time_elapsed":226157,"internal_node_id":"0.0-4.0-0.24","subject_id":"607458a3355910967d2a8b74","study_id":"60edd13110225f80f9f3709b","session_id":"6196c1f685ed32eb50a3099f","condition":"full-information","relevant_dimensions":["pattern","legs"],"bee_group":{"antennae":"X","wings":"X","pattern":"D","legs":"M"},"action":"avoid","summary":"good-avoid","bonus":1.0800000000000007},{"rt":639,"stimulus":"\n                    <p><b>Action: <em>avoid</em></b></p>\n                    <p>This is the bee that you just saw.</p>\n                    <img src=\"bees-with-color/bee-A2DM.svg\" width=\"200\">\n                    <p><span class=\"greenText\">Good choice!</span>  This bee would have stung you.<br>Your bonus pay is unchanged, and remains at $0.66.</p>\n            ","response":0,"trial_type":"html-button-response","trial_index":56,"time_elapsed":226797,"internal_node_id":"0.0-4.0-1.24","subject_id":"607458a3355910967d2a8b74","study_id":"60edd13110225f80f9f3709b","session_id":"6196c1f685ed32eb50a3099f","condition":"full-information","relevant_dimensions":["pattern","legs"],"bee_group":{"antennae":"X","wings":"X","pattern":"D","legs":"M"},"bonus":1.0800000000000007},{"rt":1975.300000011921,"stimulus":"bees-with-color/bee-A2DF.svg","response":1,"trial_type":"image-button-response","trial_index":57,"time_elapsed":228773,"internal_node_id":"0.0-4.0-0.25","subject_id":"607458a3355910967d2a8b74","study_id":"60edd13110225f80f9f3709b","session_id":"6196c1f685ed32eb50a3099f","condition":"full-information","relevant_dimensions":["pattern","legs"],"bee_group":{"antennae":"X","wings":"X","pattern":"D","legs":"M"},"action":"avoid","summary":"bad-avoid","bonus":1.0800000000000007},{"rt":774.7999999523163,"stimulus":"\n                    <p><b>Action: <em>avoid</em></b></p>\n                    <p>This is the bee that you just saw.</p>\n                    <img src=\"bees-with-color/bee-A2DF.svg\" width=\"200\">\n                    <p><span class=\"redText\">Bad choice,</span> the bee was friendly.<br>Your bonus pay is unchanged, and remains at $0.66.</p>\n            ","response":0,"trial_type":"html-button-response","trial_index":58,"time_elapsed":229549,"internal_node_id":"0.0-4.0-1.25","subject_id":"607458a3355910967d2a8b74","study_id":"60edd13110225f80f9f3709b","session_id":"6196c1f685ed32eb50a3099f","condition":"full-information","relevant_dimensions":["pattern","legs"],"bee_group":{"antennae":"X","wings":"X","pattern":"D","legs":"M"},"bonus":1.0800000000000007},{"rt":999.2000000476837,"stimulus":"bees-with-color/bee-B1SF.svg","response":0,"trial_type":"image-button-response","trial_index":59,"time_elapsed":230549,"internal_node_id":"0.0-4.0-0.26","subject_id":"607458a3355910967d2a8b74","study_id":"60edd13110225f80f9f3709b","session_id":"6196c1f685ed32eb50a3099f","condition":"full-information","relevant_dimensions":["pattern","legs"],"bee_group":{"antennae":"X","wings":"X","pattern":"D","legs":"M"},"action":"harvest","summary":"good-harvest","bonus":1.0800000000000007},{"rt":838.8999999761581,"stimulus":"\n                    <p><b>Action: <em>harvest</em></b></p>\n                    <p>This is the bee that you just saw.</p>\n                    <img src=\"bees-with-color/bee-B1SF.svg\" width=\"200\">\n                    <p><span class=\"greenText\"><b>Successful harvest!</b></span><br>Your pay has increased by $0.02. Your bonus pay is now $0.68.</p>\n            ","response":0,"trial_type":"html-button-response","trial_index":60,"time_elapsed":231389,"internal_node_id":"0.0-4.0-1.26","subject_id":"607458a3355910967d2a8b74","study_id":"60edd13110225f80f9f3709b","session_id":"6196c1f685ed32eb50a3099f","condition":"full-information","relevant_dimensions":["pattern","legs"],"bee_group":{"antennae":"X","wings":"X","pattern":"D","legs":"M"},"bonus":1.0800000000000007},{"rt":1679.0999999642372,"stimulus":"bees-with-color/bee-B1DM.svg","response":0,"trial_type":"image-button-response","trial_index":61,"time_elapsed":233069,"internal_node_id":"0.0-4.0-0.27","subject_id":"607458a3355910967d2a8b74","study_id":"60edd13110225f80f9f3709b","session_id":"6196c1f685ed32eb50a3099f","condition":"full-information","relevant_dimensions":["pattern","legs"],"bee_group":{"antennae":"X","wings":"X","pattern":"D","legs":"M"},"action":"harvest","summary":"bad-harvest","bonus":1.0800000000000007},{"rt":751,"stimulus":"\n                    <p><b>Action: <em>harvest</em></b></p>\n                    <p>This is the bee that you just saw.</p>\n                    <img src=\"bees-with-color/bee-B1DM.svg\" width=\"200\">\n                    <p><span class=\"redText\">Bad choice, the bee was angry.</span><br><b>You have been stung!</b><br>Your pay has been decreased by $0.10. Your bonus pay is now $0.58.</p>\n            ","response":0,"trial_type":"html-button-response","trial_index":62,"time_elapsed":233821,"internal_node_id":"0.0-4.0-1.27","subject_id":"607458a3355910967d2a8b74","study_id":"60edd13110225f80f9f3709b","session_id":"6196c1f685ed32eb50a3099f","condition":"full-information","relevant_dimensions":["pattern","legs"],"bee_group":{"antennae":"X","wings":"X","pattern":"D","legs":"M"},"bonus":1.0800000000000007},{"rt":1191.300000011921,"stimulus":"bees-with-color/bee-A2SM.svg","response":0,"trial_type":"image-button-response","trial_index":63,"time_elapsed":235013,"internal_node_id":"0.0-4.0-0.28","subject_id":"607458a3355910967d2a8b74","study_id":"60edd13110225f80f9f3709b","session_id":"6196c1f685ed32eb50a3099f","condition":"full-information","relevant_dimensions":["pattern","legs"],"bee_group":{"antennae":"X","wings":"X","pattern":"D","legs":"M"},"action":"harvest","summary":"good-harvest","bonus":1.0800000000000007},{"rt":991.1999999880791,"stimulus":"\n                    <p><b>Action: <em>harvest</em></b></p>\n                    <p>This is the bee that you just saw.</p>\n                    <img src=\"bees-with-color/bee-A2SM.svg\" width=\"200\">\n                    <p><span class=\"greenText\"><b>Successful harvest!</b></span><br>Your pay has increased by $0.02. Your bonus pay is now $0.60.</p>\n            ","response":0,"trial_type":"html-button-response","trial_index":64,"time_elapsed":236005,"internal_node_id":"0.0-4.0-1.28","subject_id":"607458a3355910967d2a8b74","study_id":"60edd13110225f80f9f3709b","session_id":"6196c1f685ed32eb50a3099f","condition":"full-information","relevant_dimensions":["pattern","legs"],"bee_group":{"antennae":"X","wings":"X","pattern":"D","legs":"M"},"bonus":1.0800000000000007},{"rt":1415.0999999642372,"stimulus":"bees-with-color/bee-A1SM.svg","response":0,"trial_type":"image-button-response","trial_index":65,"time_elapsed":237421,"internal_node_id":"0.0-4.0-0.29","subject_id":"607458a3355910967d2a8b74","study_id":"60edd13110225f80f9f3709b","session_id":"6196c1f685ed32eb50a3099f","condition":"full-information","relevant_dimensions":["pattern","legs"],"bee_group":{"antennae":"X","wings":"X","pattern":"D","legs":"M"},"action":"harvest","summary":"good-harvest","bonus":1.0800000000000007},{"rt":647.1999999880791,"stimulus":"\n                    <p><b>Action: <em>harvest</em></b></p>\n                    <p>This is the bee that you just saw.</p>\n                    <img src=\"bees-with-color/bee-A1SM.svg\" width=\"200\">\n                    <p><span class=\"greenText\"><b>Successful harvest!</b></span><br>Your pay has increased by $0.02. Your bonus pay is now $0.62.</p>\n            ","response":0,"trial_type":"html-button-response","trial_index":66,"time_elapsed":238069,"internal_node_id":"0.0-4.0-1.29","subject_id":"607458a3355910967d2a8b74","study_id":"60edd13110225f80f9f3709b","session_id":"6196c1f685ed32eb50a3099f","condition":"full-information","relevant_dimensions":["pattern","legs"],"bee_group":{"antennae":"X","wings":"X","pattern":"D","legs":"M"},"bonus":1.0800000000000007},{"rt":991.0999999642372,"stimulus":"bees-with-color/bee-B2SM.svg","response":0,"trial_type":"image-button-response","trial_index":67,"time_elapsed":239061,"internal_node_id":"0.0-4.0-0.30","subject_id":"607458a3355910967d2a8b74","study_id":"60edd13110225f80f9f3709b","session_id":"6196c1f685ed32eb50a3099f","condition":"full-information","relevant_dimensions":["pattern","legs"],"bee_group":{"antennae":"X","wings":"X","pattern":"D","legs":"M"},"action":"harvest","summary":"good-harvest","bonus":1.0800000000000007},{"rt":575.1999999880791,"stimulus":"\n                    <p><b>Action: <em>harvest</em></b></p>\n                    <p>This is the bee that you just saw.</p>\n                    <img src=\"bees-with-color/bee-B2SM.svg\" width=\"200\">\n                    <p><span class=\"greenText\"><b>Successful harvest!</b></span><br>Your pay has increased by $0.02. Your bonus pay is now $0.64.</p>\n            ","response":0,"trial_type":"html-button-response","trial_index":68,"time_elapsed":239637,"internal_node_id":"0.0-4.0-1.30","subject_id":"607458a3355910967d2a8b74","study_id":"60edd13110225f80f9f3709b","session_id":"6196c1f685ed32eb50a3099f","condition":"full-information","relevant_dimensions":["pattern","legs"],"bee_group":{"antennae":"X","wings":"X","pattern":"D","legs":"M"},"bonus":1.0800000000000007},{"rt":4959.199999988079,"stimulus":"bees-with-color/bee-A2SF.svg","response":0,"trial_type":"image-button-response","trial_index":69,"time_elapsed":244597,"internal_node_id":"0.0-4.0-0.31","subject_id":"607458a3355910967d2a8b74","study_id":"60edd13110225f80f9f3709b","session_id":"6196c1f685ed32eb50a3099f","condition":"full-information","relevant_dimensions":["pattern","legs"],"bee_group":{"antennae":"X","wings":"X","pattern":"D","legs":"M"},"action":"harvest","summary":"good-harvest","bonus":1.0800000000000007},{"rt":1063.199999988079,"stimulus":"\n                    <p><b>Action: <em>harvest</em></b></p>\n                    <p>This is the bee that you just saw.</p>\n                    <img src=\"bees-with-color/bee-A2SF.svg\" width=\"200\">\n                    <p><span class=\"greenText\"><b>Successful harvest!</b></span><br>Your pay has increased by $0.02. Your bonus pay is now $0.66.</p>\n            ","response":0,"trial_type":"html-button-response","trial_index":70,"time_elapsed":245661,"internal_node_id":"0.0-4.0-1.31","subject_id":"607458a3355910967d2a8b74","study_id":"60edd13110225f80f9f3709b","session_id":"6196c1f685ed32eb50a3099f","condition":"full-information","relevant_dimensions":["pattern","legs"],"bee_group":{"antennae":"X","wings":"X","pattern":"D","legs":"M"},"bonus":1.0800000000000007},{"rt":1142.8999999761581,"stimulus":"bees-with-color/bee-A2SF.svg","response":0,"trial_type":"image-button-response","trial_index":71,"time_elapsed":246805,"internal_node_id":"0.0-4.0-0.32","subject_id":"607458a3355910967d2a8b74","study_id":"60edd13110225f80f9f3709b","session_id":"6196c1f685ed32eb50a3099f","condition":"full-information","relevant_dimensions":["pattern","legs"],"bee_group":{"antennae":"X","wings":"X","pattern":"D","legs":"M"},"action":"harvest","summary":"good-harvest","bonus":1.0800000000000007},{"rt":615,"stimulus":"\n                    <p><b>Action: <em>harvest</em></b></p>\n                    <p>This is the bee that you just saw.</p>\n                    <img src=\"bees-with-color/bee-A2SF.svg\" width=\"200\">\n                    <p><span class=\"greenText\"><b>Successful harvest!</b></span><br>Your pay has increased by $0.02. Your bonus pay is now $0.68.</p>\n            ","response":0,"trial_type":"html-button-response","trial_index":72,"time_elapsed":247421,"internal_node_id":"0.0-4.0-1.32","subject_id":"607458a3355910967d2a8b74","study_id":"60edd13110225f80f9f3709b","session_id":"6196c1f685ed32eb50a3099f","condition":"full-information","relevant_dimensions":["pattern","legs"],"bee_group":{"antennae":"X","wings":"X","pattern":"D","legs":"M"},"bonus":1.0800000000000007},{"rt":1783.300000011921,"stimulus":"bees-with-color/bee-B1DF.svg","response":1,"trial_type":"image-button-response","trial_index":73,"time_elapsed":249205,"internal_node_id":"0.0-4.0-0.33","subject_id":"607458a3355910967d2a8b74","study_id":"60edd13110225f80f9f3709b","session_id":"6196c1f685ed32eb50a3099f","condition":"full-information","relevant_dimensions":["pattern","legs"],"bee_group":{"antennae":"X","wings":"X","pattern":"D","legs":"M"},"action":"avoid","summary":"bad-avoid","bonus":1.0800000000000007},{"rt":623,"stimulus":"\n                    <p><b>Action: <em>avoid</em></b></p>\n                    <p>This is the bee that you just saw.</p>\n                    <img src=\"bees-with-color/bee-B1DF.svg\" width=\"200\">\n                    <p><span class=\"redText\">Bad choice,</span> the bee was friendly.<br>Your bonus pay is unchanged, and remains at $0.68.</p>\n            ","response":0,"trial_type":"html-button-response","trial_index":74,"time_elapsed":249829,"internal_node_id":"0.0-4.0-1.33","subject_id":"607458a3355910967d2a8b74","study_id":"60edd13110225f80f9f3709b","session_id":"6196c1f685ed32eb50a3099f","condition":"full-information","relevant_dimensions":["pattern","legs"],"bee_group":{"antennae":"X","wings":"X","pattern":"D","legs":"M"},"bonus":1.0800000000000007},{"rt":983,"stimulus":"bees-with-color/bee-A1DM.svg","response":1,"trial_type":"image-button-response","trial_index":75,"time_elapsed":250813,"internal_node_id":"0.0-4.0-0.34","subject_id":"607458a3355910967d2a8b74","study_id":"60edd13110225f80f9f3709b","session_id":"6196c1f685ed32eb50a3099f","condition":"full-information","relevant_dimensions":["pattern","legs"],"bee_group":{"antennae":"X","wings":"X","pattern":"D","legs":"M"},"action":"avoid","summary":"good-avoid","bonus":1.0800000000000007},{"rt":551.0999999642372,"stimulus":"\n                    <p><b>Action: <em>avoid</em></b></p>\n                    <p>This is the bee that you just saw.</p>\n                    <img src=\"bees-with-color/bee-A1DM.svg\" width=\"200\">\n                    <p><span class=\"greenText\">Good choice!</span>  This bee would have stung you.<br>Your bonus pay is unchanged, and remains at $0.68.</p>\n            ","response":0,"trial_type":"html-button-response","trial_index":76,"time_elapsed":251365,"internal_node_id":"0.0-4.0-1.34","subject_id":"607458a3355910967d2a8b74","study_id":"60edd13110225f80f9f3709b","session_id":"6196c1f685ed32eb50a3099f","condition":"full-information","relevant_dimensions":["pattern","legs"],"bee_group":{"antennae":"X","wings":"X","pattern":"D","legs":"M"},"bonus":1.0800000000000007},{"rt":887.0999999642372,"stimulus":"bees-with-color/bee-B2SF.svg","response":0,"trial_type":"image-button-response","trial_index":77,"time_elapsed":252253,"internal_node_id":"0.0-4.0-0.35","subject_id":"607458a3355910967d2a8b74","study_id":"60edd13110225f80f9f3709b","session_id":"6196c1f685ed32eb50a3099f","condition":"full-information","relevant_dimensions":["pattern","legs"],"bee_group":{"antennae":"X","wings":"X","pattern":"D","legs":"M"},"action":"harvest","summary":"good-harvest","bonus":1.0800000000000007},{"rt":647.0999999642372,"stimulus":"\n                    <p><b>Action: <em>harvest</em></b></p>\n                    <p>This is the bee that you just saw.</p>\n                    <img src=\"bees-with-color/bee-B2SF.svg\" width=\"200\">\n                    <p><span class=\"greenText\"><b>Successful harvest!</b></span><br>Your pay has increased by $0.02. Your bonus pay is now $0.70.</p>\n            ","response":0,"trial_type":"html-button-response","trial_index":78,"time_elapsed":252901,"internal_node_id":"0.0-4.0-1.35","subject_id":"607458a3355910967d2a8b74","study_id":"60edd13110225f80f9f3709b","session_id":"6196c1f685ed32eb50a3099f","condition":"full-information","relevant_dimensions":["pattern","legs"],"bee_group":{"antennae":"X","wings":"X","pattern":"D","legs":"M"},"bonus":1.0800000000000007},{"rt":927.1999999880791,"stimulus":"bees-with-color/bee-B2SM.svg","response":0,"trial_type":"image-button-response","trial_index":79,"time_elapsed":253829,"internal_node_id":"0.0-4.0-0.36","subject_id":"607458a3355910967d2a8b74","study_id":"60edd13110225f80f9f3709b","session_id":"6196c1f685ed32eb50a3099f","condition":"full-information","relevant_dimensions":["pattern","legs"],"bee_group":{"antennae":"X","wings":"X","pattern":"D","legs":"M"},"action":"harvest","summary":"good-harvest","bonus":1.0800000000000007},{"rt":559.0999999642372,"stimulus":"\n                    <p><b>Action: <em>harvest</em></b></p>\n                    <p>This is the bee that you just saw.</p>\n                    <img src=\"bees-with-color/bee-B2SM.svg\" width=\"200\">\n                    <p><span class=\"greenText\"><b>Successful harvest!</b></span><br>Your pay has increased by $0.02. Your bonus pay is now $0.72.</p>\n            ","response":0,"trial_type":"html-button-response","trial_index":80,"time_elapsed":254389,"internal_node_id":"0.0-4.0-1.36","subject_id":"607458a3355910967d2a8b74","study_id":"60edd13110225f80f9f3709b","session_id":"6196c1f685ed32eb50a3099f","condition":"full-information","relevant_dimensions":["pattern","legs"],"bee_group":{"antennae":"X","wings":"X","pattern":"D","legs":"M"},"bonus":1.0800000000000007},{"rt":1543.0999999642372,"stimulus":"bees-with-color/bee-A2DM.svg","response":1,"trial_type":"image-button-response","trial_index":81,"time_elapsed":255933,"internal_node_id":"0.0-4.0-0.37","subject_id":"607458a3355910967d2a8b74","study_id":"60edd13110225f80f9f3709b","session_id":"6196c1f685ed32eb50a3099f","condition":"full-information","relevant_dimensions":["pattern","legs"],"bee_group":{"antennae":"X","wings":"X","pattern":"D","legs":"M"},"action":"avoid","summary":"good-avoid","bonus":1.0800000000000007},{"rt":567,"stimulus":"\n                    <p><b>Action: <em>avoid</em></b></p>\n                    <p>This is the bee that you just saw.</p>\n                    <img src=\"bees-with-color/bee-A2DM.svg\" width=\"200\">\n                    <p><span class=\"greenText\">Good choice!</span>  This bee would have stung you.<br>Your bonus pay is unchanged, and remains at $0.72.</p>\n            ","response":0,"trial_type":"html-button-response","trial_index":82,"time_elapsed":256501,"internal_node_id":"0.0-4.0-1.37","subject_id":"607458a3355910967d2a8b74","study_id":"60edd13110225f80f9f3709b","session_id":"6196c1f685ed32eb50a3099f","condition":"full-information","relevant_dimensions":["pattern","legs"],"bee_group":{"antennae":"X","wings":"X","pattern":"D","legs":"M"},"bonus":1.0800000000000007},{"rt":1911.199999988079,"stimulus":"bees-with-color/bee-B2DF.svg","response":1,"trial_type":"image-button-response","trial_index":83,"time_elapsed":258413,"internal_node_id":"0.0-4.0-0.38","subject_id":"607458a3355910967d2a8b74","study_id":"60edd13110225f80f9f3709b","session_id":"6196c1f685ed32eb50a3099f","condition":"full-information","relevant_dimensions":["pattern","legs"],"bee_group":{"antennae":"X","wings":"X","pattern":"D","legs":"M"},"action":"avoid","summary":"bad-avoid","bonus":1.0800000000000007},{"rt":623,"stimulus":"\n                    <p><b>Action: <em>avoid</em></b></p>\n                    <p>This is the bee that you just saw.</p>\n                    <img src=\"bees-with-color/bee-B2DF.svg\" width=\"200\">\n                    <p><span class=\"redText\">Bad choice,</span> the bee was friendly.<br>Your bonus pay is unchanged, and remains at $0.72.</p>\n            ","response":0,"trial_type":"html-button-response","trial_index":84,"time_elapsed":259037,"internal_node_id":"0.0-4.0-1.38","subject_id":"607458a3355910967d2a8b74","study_id":"60edd13110225f80f9f3709b","session_id":"6196c1f685ed32eb50a3099f","condition":"full-information","relevant_dimensions":["pattern","legs"],"bee_group":{"antennae":"X","wings":"X","pattern":"D","legs":"M"},"bonus":1.0800000000000007},{"rt":1246.7999999523163,"stimulus":"bees-with-color/bee-A1DF.svg","response":0,"trial_type":"image-button-response","trial_index":85,"time_elapsed":260285,"internal_node_id":"0.0-4.0-0.39","subject_id":"607458a3355910967d2a8b74","study_id":"60edd13110225f80f9f3709b","session_id":"6196c1f685ed32eb50a3099f","condition":"full-information","relevant_dimensions":["pattern","legs"],"bee_group":{"antennae":"X","wings":"X","pattern":"D","legs":"M"},"action":"harvest","summary":"good-harvest","bonus":1.0800000000000007},{"rt":719.1999999880791,"stimulus":"\n                    <p><b>Action: <em>harvest</em></b></p>\n                    <p>This is the bee that you just saw.</p>\n                    <img src=\"bees-with-color/bee-A1DF.svg\" width=\"200\">\n                    <p><span class=\"greenText\"><b>Successful harvest!</b></span><br>Your pay has increased by $0.02. Your bonus pay is now $0.74.</p>\n            ","response":0,"trial_type":"html-button-response","trial_index":86,"time_elapsed":261005,"internal_node_id":"0.0-4.0-1.39","subject_id":"607458a3355910967d2a8b74","study_id":"60edd13110225f80f9f3709b","session_id":"6196c1f685ed32eb50a3099f","condition":"full-information","relevant_dimensions":["pattern","legs"],"bee_group":{"antennae":"X","wings":"X","pattern":"D","legs":"M"},"bonus":1.0800000000000007},{"rt":1535.2999999523163,"stimulus":"bees-with-color/bee-B2DM.svg","response":1,"trial_type":"image-button-response","trial_index":87,"time_elapsed":262541,"internal_node_id":"0.0-4.0-0.40","subject_id":"607458a3355910967d2a8b74","study_id":"60edd13110225f80f9f3709b","session_id":"6196c1f685ed32eb50a3099f","condition":"full-information","relevant_dimensions":["pattern","legs"],"bee_group":{"antennae":"X","wings":"X","pattern":"D","legs":"M"},"action":"avoid","summary":"good-avoid","bonus":1.0800000000000007},{"rt":671.0999999642372,"stimulus":"\n                    <p><b>Action: <em>avoid</em></b></p>\n                    <p>This is the bee that you just saw.</p>\n                    <img src=\"bees-with-color/bee-B2DM.svg\" width=\"200\">\n                    <p><span class=\"greenText\">Good choice!</span>  This bee would have stung you.<br>Your bonus pay is unchanged, and remains at $0.74.</p>\n            ","response":0,"trial_type":"html-button-response","trial_index":88,"time_elapsed":263213,"internal_node_id":"0.0-4.0-1.40","subject_id":"607458a3355910967d2a8b74","study_id":"60edd13110225f80f9f3709b","session_id":"6196c1f685ed32eb50a3099f","condition":"full-information","relevant_dimensions":["pattern","legs"],"bee_group":{"antennae":"X","wings":"X","pattern":"D","legs":"M"},"bonus":1.0800000000000007},{"rt":2103.2999999523163,"stimulus":"bees-with-color/bee-B1DM.svg","response":0,"trial_type":"image-button-response","trial_index":89,"time_elapsed":265317,"internal_node_id":"0.0-4.0-0.41","subject_id":"607458a3355910967d2a8b74","study_id":"60edd13110225f80f9f3709b","session_id":"6196c1f685ed32eb50a3099f","condition":"full-information","relevant_dimensions":["pattern","legs"],"bee_group":{"antennae":"X","wings":"X","pattern":"D","legs":"M"},"action":"harvest","summary":"bad-harvest","bonus":1.0800000000000007},{"rt":591.3000000119209,"stimulus":"\n                    <p><b>Action: <em>harvest</em></b></p>\n                    <p>This is the bee that you just saw.</p>\n                    <img src=\"bees-with-color/bee-B1DM.svg\" width=\"200\">\n                    <p><span class=\"redText\">Bad choice, the bee was angry.</span><br><b>You have been stung!</b><br>Your pay has been decreased by $0.10. Your bonus pay is now $0.64.</p>\n            ","response":0,"trial_type":"html-button-response","trial_index":90,"time_elapsed":265909,"internal_node_id":"0.0-4.0-1.41","subject_id":"607458a3355910967d2a8b74","study_id":"60edd13110225f80f9f3709b","session_id":"6196c1f685ed32eb50a3099f","condition":"full-information","relevant_dimensions":["pattern","legs"],"bee_group":{"antennae":"X","wings":"X","pattern":"D","legs":"M"},"bonus":1.0800000000000007},{"rt":1055.300000011921,"stimulus":"bees-with-color/bee-B1SM.svg","response":0,"trial_type":"image-button-response","trial_index":91,"time_elapsed":266965,"internal_node_id":"0.0-4.0-0.42","subject_id":"607458a3355910967d2a8b74","study_id":"60edd13110225f80f9f3709b","session_id":"6196c1f685ed32eb50a3099f","condition":"full-information","relevant_dimensions":["pattern","legs"],"bee_group":{"antennae":"X","wings":"X","pattern":"D","legs":"M"},"action":"harvest","summary":"good-harvest","bonus":1.0800000000000007},{"rt":639.0999999642372,"stimulus":"\n                    <p><b>Action: <em>harvest</em></b></p>\n                    <p>This is the bee that you just saw.</p>\n                    <img src=\"bees-with-color/bee-B1SM.svg\" width=\"200\">\n                    <p><span class=\"greenText\"><b>Successful harvest!</b></span><br>Your pay has increased by $0.02. Your bonus pay is now $0.66.</p>\n            ","response":0,"trial_type":"html-button-response","trial_index":92,"time_elapsed":267605,"internal_node_id":"0.0-4.0-1.42","subject_id":"607458a3355910967d2a8b74","study_id":"60edd13110225f80f9f3709b","session_id":"6196c1f685ed32eb50a3099f","condition":"full-information","relevant_dimensions":["pattern","legs"],"bee_group":{"antennae":"X","wings":"X","pattern":"D","legs":"M"},"bonus":1.0800000000000007},{"rt":983.1999999880791,"stimulus":"bees-with-color/bee-A2SM.svg","response":0,"trial_type":"image-button-response","trial_index":93,"time_elapsed":268589,"internal_node_id":"0.0-4.0-0.43","subject_id":"607458a3355910967d2a8b74","study_id":"60edd13110225f80f9f3709b","session_id":"6196c1f685ed32eb50a3099f","condition":"full-information","relevant_dimensions":["pattern","legs"],"bee_group":{"antennae":"X","wings":"X","pattern":"D","legs":"M"},"action":"harvest","summary":"good-harvest","bonus":1.0800000000000007},{"rt":519.1000000238419,"stimulus":"\n                    <p><b>Action: <em>harvest</em></b></p>\n                    <p>This is the bee that you just saw.</p>\n                    <img src=\"bees-with-color/bee-A2SM.svg\" width=\"200\">\n                    <p><span class=\"greenText\"><b>Successful harvest!</b></span><br>Your pay has increased by $0.02. Your bonus pay is now $0.68.</p>\n            ","response":0,"trial_type":"html-button-response","trial_index":94,"time_elapsed":269109,"internal_node_id":"0.0-4.0-1.43","subject_id":"607458a3355910967d2a8b74","study_id":"60edd13110225f80f9f3709b","session_id":"6196c1f685ed32eb50a3099f","condition":"full-information","relevant_dimensions":["pattern","legs"],"bee_group":{"antennae":"X","wings":"X","pattern":"D","legs":"M"},"bonus":1.0800000000000007},{"rt":1879.199999988079,"stimulus":"bees-with-color/bee-A1SF.svg","response":0,"trial_type":"image-button-response","trial_index":95,"time_elapsed":270989,"internal_node_id":"0.0-4.0-0.44","subject_id":"607458a3355910967d2a8b74","study_id":"60edd13110225f80f9f3709b","session_id":"6196c1f685ed32eb50a3099f","condition":"full-information","relevant_dimensions":["pattern","legs"],"bee_group":{"antennae":"X","wings":"X","pattern":"D","legs":"M"},"action":"harvest","summary":"good-harvest","bonus":1.0800000000000007},{"rt":543.0999999642372,"stimulus":"\n                    <p><b>Action: <em>harvest</em></b></p>\n                    <p>This is the bee that you just saw.</p>\n                    <img src=\"bees-with-color/bee-A1SF.svg\" width=\"200\">\n                    <p><span class=\"greenText\"><b>Successful harvest!</b></span><br>Your pay has increased by $0.02. Your bonus pay is now $0.70.</p>\n            ","response":0,"trial_type":"html-button-response","trial_index":96,"time_elapsed":271533,"internal_node_id":"0.0-4.0-1.44","subject_id":"607458a3355910967d2a8b74","study_id":"60edd13110225f80f9f3709b","session_id":"6196c1f685ed32eb50a3099f","condition":"full-information","relevant_dimensions":["pattern","legs"],"bee_group":{"antennae":"X","wings":"X","pattern":"D","legs":"M"},"bonus":1.0800000000000007},{"rt":943.1999999880791,"stimulus":"bees-with-color/bee-A1SM.svg","response":0,"trial_type":"image-button-response","trial_index":97,"time_elapsed":272477,"internal_node_id":"0.0-4.0-0.45","subject_id":"607458a3355910967d2a8b74","study_id":"60edd13110225f80f9f3709b","session_id":"6196c1f685ed32eb50a3099f","condition":"full-information","relevant_dimensions":["pattern","legs"],"bee_group":{"antennae":"X","wings":"X","pattern":"D","legs":"M"},"action":"harvest","summary":"good-harvest","bonus":1.0800000000000007},{"rt":654.8999999761581,"stimulus":"\n                    <p><b>Action: <em>harvest</em></b></p>\n                    <p>This is the bee that you just saw.</p>\n                    <img src=\"bees-with-color/bee-A1SM.svg\" width=\"200\">\n                    <p><span class=\"greenText\"><b>Successful harvest!</b></span><br>Your pay has increased by $0.02. Your bonus pay is now $0.72.</p>\n            ","response":0,"trial_type":"html-button-response","trial_index":98,"time_elapsed":273133,"internal_node_id":"0.0-4.0-1.45","subject_id":"607458a3355910967d2a8b74","study_id":"60edd13110225f80f9f3709b","session_id":"6196c1f685ed32eb50a3099f","condition":"full-information","relevant_dimensions":["pattern","legs"],"bee_group":{"antennae":"X","wings":"X","pattern":"D","legs":"M"},"bonus":1.0800000000000007},{"rt":1303.199999988079,"stimulus":"bees-with-color/bee-B1SF.svg","response":1,"trial_type":"image-button-response","trial_index":99,"time_elapsed":274437,"internal_node_id":"0.0-4.0-0.46","subject_id":"607458a3355910967d2a8b74","study_id":"60edd13110225f80f9f3709b","session_id":"6196c1f685ed32eb50a3099f","condition":"full-information","relevant_dimensions":["pattern","legs"],"bee_group":{"antennae":"X","wings":"X","pattern":"D","legs":"M"},"action":"avoid","summary":"bad-avoid","bonus":1.0800000000000007},{"rt":719,"stimulus":"\n                    <p><b>Action: <em>avoid</em></b></p>\n                    <p>This is the bee that you just saw.</p>\n                    <img src=\"bees-with-color/bee-B1SF.svg\" width=\"200\">\n                    <p><span class=\"redText\">Bad choice,</span> the bee was friendly.<br>Your bonus pay is unchanged, and remains at $0.72.</p>\n            ","response":0,"trial_type":"html-button-response","trial_index":100,"time_elapsed":275157,"internal_node_id":"0.0-4.0-1.46","subject_id":"607458a3355910967d2a8b74","study_id":"60edd13110225f80f9f3709b","session_id":"6196c1f685ed32eb50a3099f","condition":"full-information","relevant_dimensions":["pattern","legs"],"bee_group":{"antennae":"X","wings":"X","pattern":"D","legs":"M"},"bonus":1.0800000000000007},{"rt":2023,"stimulus":"bees-with-color/bee-A2DF.svg","response":0,"trial_type":"image-button-response","trial_index":101,"time_elapsed":277181,"internal_node_id":"0.0-4.0-0.47","subject_id":"607458a3355910967d2a8b74","study_id":"60edd13110225f80f9f3709b","session_id":"6196c1f685ed32eb50a3099f","condition":"full-information","relevant_dimensions":["pattern","legs"],"bee_group":{"antennae":"X","wings":"X","pattern":"D","legs":"M"},"action":"harvest","summary":"good-harvest","bonus":1.0800000000000007},{"rt":647.0999999642372,"stimulus":"\n                    <p><b>Action: <em>harvest</em></b></p>\n                    <p>This is the bee that you just saw.</p>\n                    <img src=\"bees-with-color/bee-A2DF.svg\" width=\"200\">\n                    <p><span class=\"greenText\"><b>Successful harvest!</b></span><br>Your pay has increased by $0.02. Your bonus pay is now $0.74.</p>\n            ","response":0,"trial_type":"html-button-response","trial_index":102,"time_elapsed":277829,"internal_node_id":"0.0-4.0-1.47","subject_id":"607458a3355910967d2a8b74","study_id":"60edd13110225f80f9f3709b","session_id":"6196c1f685ed32eb50a3099f","condition":"full-information","relevant_dimensions":["pattern","legs"],"bee_group":{"antennae":"X","wings":"X","pattern":"D","legs":"M"},"bonus":1.0800000000000007},{"rt":1215.0999999642372,"stimulus":"bees-with-color/bee-B1SF.svg","response":1,"trial_type":"image-button-response","trial_index":103,"time_elapsed":279045,"internal_node_id":"0.0-4.0-0.48","subject_id":"607458a3355910967d2a8b74","study_id":"60edd13110225f80f9f3709b","session_id":"6196c1f685ed32eb50a3099f","condition":"full-information","relevant_dimensions":["pattern","legs"],"bee_group":{"antennae":"X","wings":"X","pattern":"D","legs":"M"},"action":"avoid","summary":"bad-avoid","bonus":1.0800000000000007},{"rt":599,"stimulus":"\n                    <p><b>Action: <em>avoid</em></b></p>\n                    <p>This is the bee that you just saw.</p>\n                    <img src=\"bees-with-color/bee-B1SF.svg\" width=\"200\">\n                    <p><span class=\"redText\">Bad choice,</span> the bee was friendly.<br>Your bonus pay is unchanged, and remains at $0.74.</p>\n            ","response":0,"trial_type":"html-button-response","trial_index":104,"time_elapsed":279645,"internal_node_id":"0.0-4.0-1.48","subject_id":"607458a3355910967d2a8b74","study_id":"60edd13110225f80f9f3709b","session_id":"6196c1f685ed32eb50a3099f","condition":"full-information","relevant_dimensions":["pattern","legs"],"bee_group":{"antennae":"X","wings":"X","pattern":"D","legs":"M"},"bonus":1.0800000000000007},{"rt":1031.0999999642372,"stimulus":"bees-with-color/bee-B1SM.svg","response":0,"trial_type":"image-button-response","trial_index":105,"time_elapsed":280677,"internal_node_id":"0.0-4.0-0.49","subject_id":"607458a3355910967d2a8b74","study_id":"60edd13110225f80f9f3709b","session_id":"6196c1f685ed32eb50a3099f","condition":"full-information","relevant_dimensions":["pattern","legs"],"bee_group":{"antennae":"X","wings":"X","pattern":"D","legs":"M"},"action":"harvest","summary":"good-harvest","bonus":1.0800000000000007},{"rt":662.8999999761581,"stimulus":"\n                    <p><b>Action: <em>harvest</em></b></p>\n                    <p>This is the bee that you just saw.</p>\n                    <img src=\"bees-with-color/bee-B1SM.svg\" width=\"200\">\n                    <p><span class=\"greenText\"><b>Successful harvest!</b></span><br>Your pay has increased by $0.02. Your bonus pay is now $0.76.</p>\n            ","response":0,"trial_type":"html-button-response","trial_index":106,"time_elapsed":281341,"internal_node_id":"0.0-4.0-1.49","subject_id":"607458a3355910967d2a8b74","study_id":"60edd13110225f80f9f3709b","session_id":"6196c1f685ed32eb50a3099f","condition":"full-information","relevant_dimensions":["pattern","legs"],"bee_group":{"antennae":"X","wings":"X","pattern":"D","legs":"M"},"bonus":1.0800000000000007},{"rt":2879.099999964237,"stimulus":"bees-with-color/bee-A2DM.svg","response":1,"trial_type":"image-button-response","trial_index":107,"time_elapsed":284221,"internal_node_id":"0.0-4.0-0.50","subject_id":"607458a3355910967d2a8b74","study_id":"60edd13110225f80f9f3709b","session_id":"6196c1f685ed32eb50a3099f","condition":"full-information","relevant_dimensions":["pattern","legs"],"bee_group":{"antennae":"X","wings":"X","pattern":"D","legs":"M"},"action":"avoid","summary":"good-avoid","bonus":1.0800000000000007},{"rt":655.0999999642372,"stimulus":"\n                    <p><b>Action: <em>avoid</em></b></p>\n                    <p>This is the bee that you just saw.</p>\n                    <img src=\"bees-with-color/bee-A2DM.svg\" width=\"200\">\n                    <p><span class=\"greenText\">Good choice!</span>  This bee would have stung you.<br>Your bonus pay is unchanged, and remains at $0.76.</p>\n            ","response":0,"trial_type":"html-button-response","trial_index":108,"time_elapsed":284877,"internal_node_id":"0.0-4.0-1.50","subject_id":"607458a3355910967d2a8b74","study_id":"60edd13110225f80f9f3709b","session_id":"6196c1f685ed32eb50a3099f","condition":"full-information","relevant_dimensions":["pattern","legs"],"bee_group":{"antennae":"X","wings":"X","pattern":"D","legs":"M"},"bonus":1.0800000000000007},{"rt":903,"stimulus":"bees-with-color/bee-B2SF.svg","response":0,"trial_type":"image-button-response","trial_index":109,"time_elapsed":285781,"internal_node_id":"0.0-4.0-0.51","subject_id":"607458a3355910967d2a8b74","study_id":"60edd13110225f80f9f3709b","session_id":"6196c1f685ed32eb50a3099f","condition":"full-information","relevant_dimensions":["pattern","legs"],"bee_group":{"antennae":"X","wings":"X","pattern":"D","legs":"M"},"action":"harvest","summary":"good-harvest","bonus":1.0800000000000007},{"rt":775,"stimulus":"\n                    <p><b>Action: <em>harvest</em></b></p>\n                    <p>This is the bee that you just saw.</p>\n                    <img src=\"bees-with-color/bee-B2SF.svg\" width=\"200\">\n                    <p><span class=\"greenText\"><b>Successful harvest!</b></span><br>Your pay has increased by $0.02. Your bonus pay is now $0.78.</p>\n            ","response":0,"trial_type":"html-button-response","trial_index":110,"time_elapsed":286557,"internal_node_id":"0.0-4.0-1.51","subject_id":"607458a3355910967d2a8b74","study_id":"60edd13110225f80f9f3709b","session_id":"6196c1f685ed32eb50a3099f","condition":"full-information","relevant_dimensions":["pattern","legs"],"bee_group":{"antennae":"X","wings":"X","pattern":"D","legs":"M"},"bonus":1.0800000000000007},{"rt":1407.300000011921,"stimulus":"bees-with-color/bee-B2DF.svg","response":1,"trial_type":"image-button-response","trial_index":111,"time_elapsed":287965,"internal_node_id":"0.0-4.0-0.52","subject_id":"607458a3355910967d2a8b74","study_id":"60edd13110225f80f9f3709b","session_id":"6196c1f685ed32eb50a3099f","condition":"full-information","relevant_dimensions":["pattern","legs"],"bee_group":{"antennae":"X","wings":"X","pattern":"D","legs":"M"},"action":"avoid","summary":"bad-avoid","bonus":1.0800000000000007},{"rt":526.9000000357628,"stimulus":"\n                    <p><b>Action: <em>avoid</em></b></p>\n                    <p>This is the bee that you just saw.</p>\n                    <img src=\"bees-with-color/bee-B2DF.svg\" width=\"200\">\n                    <p><span class=\"redText\">Bad choice,</span> the bee was friendly.<br>Your bonus pay is unchanged, and remains at $0.78.</p>\n            ","response":0,"trial_type":"html-button-response","trial_index":112,"time_elapsed":288493,"internal_node_id":"0.0-4.0-1.52","subject_id":"607458a3355910967d2a8b74","study_id":"60edd13110225f80f9f3709b","session_id":"6196c1f685ed32eb50a3099f","condition":"full-information","relevant_dimensions":["pattern","legs"],"bee_group":{"antennae":"X","wings":"X","pattern":"D","legs":"M"},"bonus":1.0800000000000007},{"rt":983.0999999642372,"stimulus":"bees-with-color/bee-A2SF.svg","response":0,"trial_type":"image-button-response","trial_index":113,"time_elapsed":289477,"internal_node_id":"0.0-4.0-0.53","subject_id":"607458a3355910967d2a8b74","study_id":"60edd13110225f80f9f3709b","session_id":"6196c1f685ed32eb50a3099f","condition":"full-information","relevant_dimensions":["pattern","legs"],"bee_group":{"antennae":"X","wings":"X","pattern":"D","legs":"M"},"action":"harvest","summary":"good-harvest","bonus":1.0800000000000007},{"rt":631.1999999880791,"stimulus":"\n                    <p><b>Action: <em>harvest</em></b></p>\n                    <p>This is the bee that you just saw.</p>\n                    <img src=\"bees-with-color/bee-A2SF.svg\" width=\"200\">\n                    <p><span class=\"greenText\"><b>Successful harvest!</b></span><br>Your pay has increased by $0.02. Your bonus pay is now $0.80.</p>\n            ","response":0,"trial_type":"html-button-response","trial_index":114,"time_elapsed":290109,"internal_node_id":"0.0-4.0-1.53","subject_id":"607458a3355910967d2a8b74","study_id":"60edd13110225f80f9f3709b","session_id":"6196c1f685ed32eb50a3099f","condition":"full-information","relevant_dimensions":["pattern","legs"],"bee_group":{"antennae":"X","wings":"X","pattern":"D","legs":"M"},"bonus":1.0800000000000007},{"rt":823.2999999523163,"stimulus":"bees-with-color/bee-A1SM.svg","response":0,"trial_type":"image-button-response","trial_index":115,"time_elapsed":290933,"internal_node_id":"0.0-4.0-0.54","subject_id":"607458a3355910967d2a8b74","study_id":"60edd13110225f80f9f3709b","session_id":"6196c1f685ed32eb50a3099f","condition":"full-information","relevant_dimensions":["pattern","legs"],"bee_group":{"antennae":"X","wings":"X","pattern":"D","legs":"M"},"action":"harvest","summary":"good-harvest","bonus":1.0800000000000007},{"rt":703.3000000119209,"stimulus":"\n                    <p><b>Action: <em>harvest</em></b></p>\n                    <p>This is the bee that you just saw.</p>\n                    <img src=\"bees-with-color/bee-A1SM.svg\" width=\"200\">\n                    <p><span class=\"greenText\"><b>Successful harvest!</b></span><br>Your pay has increased by $0.02. Your bonus pay is now $0.82.</p>\n            ","response":0,"trial_type":"html-button-response","trial_index":116,"time_elapsed":291637,"internal_node_id":"0.0-4.0-1.54","subject_id":"607458a3355910967d2a8b74","study_id":"60edd13110225f80f9f3709b","session_id":"6196c1f685ed32eb50a3099f","condition":"full-information","relevant_dimensions":["pattern","legs"],"bee_group":{"antennae":"X","wings":"X","pattern":"D","legs":"M"},"bonus":1.0800000000000007},{"rt":2119.199999988079,"stimulus":"bees-with-color/bee-A1DM.svg","response":1,"trial_type":"image-button-response","trial_index":117,"time_elapsed":293757,"internal_node_id":"0.0-4.0-0.55","subject_id":"607458a3355910967d2a8b74","study_id":"60edd13110225f80f9f3709b","session_id":"6196c1f685ed32eb50a3099f","condition":"full-information","relevant_dimensions":["pattern","legs"],"bee_group":{"antennae":"X","wings":"X","pattern":"D","legs":"M"},"action":"avoid","summary":"good-avoid","bonus":1.0800000000000007},{"rt":615,"stimulus":"\n                    <p><b>Action: <em>avoid</em></b></p>\n                    <p>This is the bee that you just saw.</p>\n                    <img src=\"bees-with-color/bee-A1DM.svg\" width=\"200\">\n                    <p><span class=\"greenText\">Good choice!</span>  This bee would have stung you.<br>Your bonus pay is unchanged, and remains at $0.82.</p>\n            ","response":0,"trial_type":"html-button-response","trial_index":118,"time_elapsed":294373,"internal_node_id":"0.0-4.0-1.55","subject_id":"607458a3355910967d2a8b74","study_id":"60edd13110225f80f9f3709b","session_id":"6196c1f685ed32eb50a3099f","condition":"full-information","relevant_dimensions":["pattern","legs"],"bee_group":{"antennae":"X","wings":"X","pattern":"D","legs":"M"},"bonus":1.0800000000000007},{"rt":959.1999999880791,"stimulus":"bees-with-color/bee-B2SM.svg","response":0,"trial_type":"image-button-response","trial_index":119,"time_elapsed":295333,"internal_node_id":"0.0-4.0-0.56","subject_id":"607458a3355910967d2a8b74","study_id":"60edd13110225f80f9f3709b","session_id":"6196c1f685ed32eb50a3099f","condition":"full-information","relevant_dimensions":["pattern","legs"],"bee_group":{"antennae":"X","wings":"X","pattern":"D","legs":"M"},"action":"harvest","summary":"good-harvest","bonus":1.0800000000000007},{"rt":527.1999999880791,"stimulus":"\n                    <p><b>Action: <em>harvest</em></b></p>\n                    <p>This is the bee that you just saw.</p>\n                    <img src=\"bees-with-color/bee-B2SM.svg\" width=\"200\">\n                    <p><span class=\"greenText\"><b>Successful harvest!</b></span><br>Your pay has increased by $0.02. Your bonus pay is now $0.84.</p>\n            ","response":0,"trial_type":"html-button-response","trial_index":120,"time_elapsed":295861,"internal_node_id":"0.0-4.0-1.56","subject_id":"607458a3355910967d2a8b74","study_id":"60edd13110225f80f9f3709b","session_id":"6196c1f685ed32eb50a3099f","condition":"full-information","relevant_dimensions":["pattern","legs"],"bee_group":{"antennae":"X","wings":"X","pattern":"D","legs":"M"},"bonus":1.0800000000000007},{"rt":1183.300000011921,"stimulus":"bees-with-color/bee-B2DM.svg","response":1,"trial_type":"image-button-response","trial_index":121,"time_elapsed":297046,"internal_node_id":"0.0-4.0-0.57","subject_id":"607458a3355910967d2a8b74","study_id":"60edd13110225f80f9f3709b","session_id":"6196c1f685ed32eb50a3099f","condition":"full-information","relevant_dimensions":["pattern","legs"],"bee_group":{"antennae":"X","wings":"X","pattern":"D","legs":"M"},"action":"avoid","summary":"good-avoid","bonus":1.0800000000000007},{"rt":574.9000000357628,"stimulus":"\n                    <p><b>Action: <em>avoid</em></b></p>\n                    <p>This is the bee that you just saw.</p>\n                    <img src=\"bees-with-color/bee-B2DM.svg\" width=\"200\">\n                    <p><span class=\"greenText\">Good choice!</span>  This bee would have stung you.<br>Your bonus pay is unchanged, and remains at $0.84.</p>\n            ","response":0,"trial_type":"html-button-response","trial_index":122,"time_elapsed":297621,"internal_node_id":"0.0-4.0-1.57","subject_id":"607458a3355910967d2a8b74","study_id":"60edd13110225f80f9f3709b","session_id":"6196c1f685ed32eb50a3099f","condition":"full-information","relevant_dimensions":["pattern","legs"],"bee_group":{"antennae":"X","wings":"X","pattern":"D","legs":"M"},"bonus":1.0800000000000007},{"rt":1023.2999999523163,"stimulus":"bees-with-color/bee-A1DF.svg","response":0,"trial_type":"image-button-response","trial_index":123,"time_elapsed":298645,"internal_node_id":"0.0-4.0-0.58","subject_id":"607458a3355910967d2a8b74","study_id":"60edd13110225f80f9f3709b","session_id":"6196c1f685ed32eb50a3099f","condition":"full-information","relevant_dimensions":["pattern","legs"],"bee_group":{"antennae":"X","wings":"X","pattern":"D","legs":"M"},"action":"harvest","summary":"good-harvest","bonus":1.0800000000000007},{"rt":639.0999999642372,"stimulus":"\n                    <p><b>Action: <em>harvest</em></b></p>\n                    <p>This is the bee that you just saw.</p>\n                    <img src=\"bees-with-color/bee-A1DF.svg\" width=\"200\">\n                    <p><span class=\"greenText\"><b>Successful harvest!</b></span><br>Your pay has increased by $0.02. Your bonus pay is now $0.86.</p>\n            ","response":0,"trial_type":"html-button-response","trial_index":124,"time_elapsed":299285,"internal_node_id":"0.0-4.0-1.58","subject_id":"607458a3355910967d2a8b74","study_id":"60edd13110225f80f9f3709b","session_id":"6196c1f685ed32eb50a3099f","condition":"full-information","relevant_dimensions":["pattern","legs"],"bee_group":{"antennae":"X","wings":"X","pattern":"D","legs":"M"},"bonus":1.0800000000000007},{"rt":2031.2999999523163,"stimulus":"bees-with-color/bee-A2SM.svg","response":0,"trial_type":"image-button-response","trial_index":125,"time_elapsed":301317,"internal_node_id":"0.0-4.0-0.59","subject_id":"607458a3355910967d2a8b74","study_id":"60edd13110225f80f9f3709b","session_id":"6196c1f685ed32eb50a3099f","condition":"full-information","relevant_dimensions":["pattern","legs"],"bee_group":{"antennae":"X","wings":"X","pattern":"D","legs":"M"},"action":"harvest","summary":"good-harvest","bonus":1.0800000000000007},{"rt":558.8999999761581,"stimulus":"\n                    <p><b>Action: <em>harvest</em></b></p>\n                    <p>This is the bee that you just saw.</p>\n                    <img src=\"bees-with-color/bee-A2SM.svg\" width=\"200\">\n                    <p><span class=\"greenText\"><b>Successful harvest!</b></span><br>Your pay has increased by $0.02. Your bonus pay is now $0.88.</p>\n            ","response":0,"trial_type":"html-button-response","trial_index":126,"time_elapsed":301877,"internal_node_id":"0.0-4.0-1.59","subject_id":"607458a3355910967d2a8b74","study_id":"60edd13110225f80f9f3709b","session_id":"6196c1f685ed32eb50a3099f","condition":"full-information","relevant_dimensions":["pattern","legs"],"bee_group":{"antennae":"X","wings":"X","pattern":"D","legs":"M"},"bonus":1.0800000000000007},{"rt":1071.1000000238419,"stimulus":"bees-with-color/bee-B1DM.svg","response":1,"trial_type":"image-button-response","trial_index":127,"time_elapsed":302949,"internal_node_id":"0.0-4.0-0.60","subject_id":"607458a3355910967d2a8b74","study_id":"60edd13110225f80f9f3709b","session_id":"6196c1f685ed32eb50a3099f","condition":"full-information","relevant_dimensions":["pattern","legs"],"bee_group":{"antennae":"X","wings":"X","pattern":"D","legs":"M"},"action":"avoid","summary":"good-avoid","bonus":1.0800000000000007},{"rt":543.0999999642372,"stimulus":"\n                    <p><b>Action: <em>avoid</em></b></p>\n                    <p>This is the bee that you just saw.</p>\n                    <img src=\"bees-with-color/bee-B1DM.svg\" width=\"200\">\n                    <p><span class=\"greenText\">Good choice!</span>  This bee would have stung you.<br>Your bonus pay is unchanged, and remains at $0.88.</p>\n            ","response":0,"trial_type":"html-button-response","trial_index":128,"time_elapsed":303494,"internal_node_id":"0.0-4.0-1.60","subject_id":"607458a3355910967d2a8b74","study_id":"60edd13110225f80f9f3709b","session_id":"6196c1f685ed32eb50a3099f","condition":"full-information","relevant_dimensions":["pattern","legs"],"bee_group":{"antennae":"X","wings":"X","pattern":"D","legs":"M"},"bonus":1.0800000000000007},{"rt":983.1000000238419,"stimulus":"bees-with-color/bee-A1SF.svg","response":0,"trial_type":"image-button-response","trial_index":129,"time_elapsed":304478,"internal_node_id":"0.0-4.0-0.61","subject_id":"607458a3355910967d2a8b74","study_id":"60edd13110225f80f9f3709b","session_id":"6196c1f685ed32eb50a3099f","condition":"full-information","relevant_dimensions":["pattern","legs"],"bee_group":{"antennae":"X","wings":"X","pattern":"D","legs":"M"},"action":"harvest","summary":"good-harvest","bonus":1.0800000000000007},{"rt":686.8999999761581,"stimulus":"\n                    <p><b>Action: <em>harvest</em></b></p>\n                    <p>This is the bee that you just saw.</p>\n                    <img src=\"bees-with-color/bee-A1SF.svg\" width=\"200\">\n                    <p><span class=\"greenText\"><b>Successful harvest!</b></span><br>Your pay has increased by $0.02. Your bonus pay is now $0.90.</p>\n            ","response":0,"trial_type":"html-button-response","trial_index":130,"time_elapsed":305165,"internal_node_id":"0.0-4.0-1.61","subject_id":"607458a3355910967d2a8b74","study_id":"60edd13110225f80f9f3709b","session_id":"6196c1f685ed32eb50a3099f","condition":"full-information","relevant_dimensions":["pattern","legs"],"bee_group":{"antennae":"X","wings":"X","pattern":"D","legs":"M"},"bonus":1.0800000000000007},{"rt":1295,"stimulus":"bees-with-color/bee-B1DF.svg","response":1,"trial_type":"image-button-response","trial_index":131,"time_elapsed":306461,"internal_node_id":"0.0-4.0-0.62","subject_id":"607458a3355910967d2a8b74","study_id":"60edd13110225f80f9f3709b","session_id":"6196c1f685ed32eb50a3099f","condition":"full-information","relevant_dimensions":["pattern","legs"],"bee_group":{"antennae":"X","wings":"X","pattern":"D","legs":"M"},"action":"avoid","summary":"bad-avoid","bonus":1.0800000000000007},{"rt":511,"stimulus":"\n                    <p><b>Action: <em>avoid</em></b></p>\n                    <p>This is the bee that you just saw.</p>\n                    <img src=\"bees-with-color/bee-B1DF.svg\" width=\"200\">\n                    <p><span class=\"redText\">Bad choice,</span> the bee was friendly.<br>Your bonus pay is unchanged, and remains at $0.90.</p>\n            ","response":0,"trial_type":"html-button-response","trial_index":132,"time_elapsed":306973,"internal_node_id":"0.0-4.0-1.62","subject_id":"607458a3355910967d2a8b74","study_id":"60edd13110225f80f9f3709b","session_id":"6196c1f685ed32eb50a3099f","condition":"full-information","relevant_dimensions":["pattern","legs"],"bee_group":{"antennae":"X","wings":"X","pattern":"D","legs":"M"},"bonus":1.0800000000000007},{"rt":1791.0999999642372,"stimulus":"bees-with-color/bee-A2DF.svg","response":1,"trial_type":"image-button-response","trial_index":133,"time_elapsed":308765,"internal_node_id":"0.0-4.0-0.63","subject_id":"607458a3355910967d2a8b74","study_id":"60edd13110225f80f9f3709b","session_id":"6196c1f685ed32eb50a3099f","condition":"full-information","relevant_dimensions":["pattern","legs"],"bee_group":{"antennae":"X","wings":"X","pattern":"D","legs":"M"},"action":"avoid","summary":"bad-avoid","bonus":1.0800000000000007},{"rt":663,"stimulus":"\n                    <p><b>Action: <em>avoid</em></b></p>\n                    <p>This is the bee that you just saw.</p>\n                    <img src=\"bees-with-color/bee-A2DF.svg\" width=\"200\">\n                    <p><span class=\"redText\">Bad choice,</span> the bee was friendly.<br>Your bonus pay is unchanged, and remains at $0.90.</p>\n            ","response":0,"trial_type":"html-button-response","trial_index":134,"time_elapsed":309429,"internal_node_id":"0.0-4.0-1.63","subject_id":"607458a3355910967d2a8b74","study_id":"60edd13110225f80f9f3709b","session_id":"6196c1f685ed32eb50a3099f","condition":"full-information","relevant_dimensions":["pattern","legs"],"bee_group":{"antennae":"X","wings":"X","pattern":"D","legs":"M"},"bonus":1.0800000000000007},{"rt":5563.600000023842,"stimulus":"You have completed the first part of this experiment.<br><br>You will now begin a shorter second part, in which you will receive no feedback.<br>The same rules regarding bonus pay apply.<br><br>Press any key to begin.","response":" ","trial_type":"html-keyboard-response","trial_index":135,"time_elapsed":314994,"internal_node_id":"0.0-5.0","subject_id":"607458a3355910967d2a8b74","study_id":"60edd13110225f80f9f3709b","session_id":"6196c1f685ed32eb50a3099f","condition":"full-information","relevant_dimensions":["pattern","legs"],"bee_group":{"antennae":"X","wings":"X","pattern":"D","legs":"M"},"bonus":1.0800000000000007},{"rt":3742.5,"stimulus":"bees-with-color/bee-A2DM.svg","response":1,"trial_type":"image-button-response","trial_index":136,"time_elapsed":318741,"internal_node_id":"0.0-6.0-0.0","subject_id":"607458a3355910967d2a8b74","study_id":"60edd13110225f80f9f3709b","session_id":"6196c1f685ed32eb50a3099f","condition":"full-information","relevant_dimensions":["pattern","legs"],"bee_group":{"antennae":"X","wings":"X","pattern":"D","legs":"M"},"bonus":1.0800000000000007},{"rt":8422.400000035763,"stimulus":"bees-with-color/bee-B2DF.svg","response":1,"trial_type":"image-button-response","trial_index":137,"time_elapsed":327165,"internal_node_id":"0.0-6.0-0.1","subject_id":"607458a3355910967d2a8b74","study_id":"60edd13110225f80f9f3709b","session_id":"6196c1f685ed32eb50a3099f","condition":"full-information","relevant_dimensions":["pattern","legs"],"bee_group":{"antennae":"X","wings":"X","pattern":"D","legs":"M"},"bonus":1.0800000000000007},{"rt":1150.5,"stimulus":"bees-with-color/bee-A2DF.svg","response":1,"trial_type":"image-button-response","trial_index":138,"time_elapsed":328317,"internal_node_id":"0.0-6.0-0.2","subject_id":"607458a3355910967d2a8b74","study_id":"60edd13110225f80f9f3709b","session_id":"6196c1f685ed32eb50a3099f","condition":"full-information","relevant_dimensions":["pattern","legs"],"bee_group":{"antennae":"X","wings":"X","pattern":"D","legs":"M"},"bonus":1.0800000000000007},{"rt":1030.7999999523163,"stimulus":"bees-with-color/bee-A2SM.svg","response":0,"trial_type":"image-button-response","trial_index":139,"time_elapsed":329350,"internal_node_id":"0.0-6.0-0.3","subject_id":"607458a3355910967d2a8b74","study_id":"60edd13110225f80f9f3709b","session_id":"6196c1f685ed32eb50a3099f","condition":"full-information","relevant_dimensions":["pattern","legs"],"bee_group":{"antennae":"X","wings":"X","pattern":"D","legs":"M"},"bonus":1.0800000000000007},{"rt":1294.5,"stimulus":"bees-with-color/bee-A1DF.svg","response":0,"trial_type":"image-button-response","trial_index":140,"time_elapsed":330645,"internal_node_id":"0.0-6.0-0.4","subject_id":"607458a3355910967d2a8b74","study_id":"60edd13110225f80f9f3709b","session_id":"6196c1f685ed32eb50a3099f","condition":"full-information","relevant_dimensions":["pattern","legs"],"bee_group":{"antennae":"X","wings":"X","pattern":"D","legs":"M"},"bonus":1.0800000000000007},{"rt":1398.8999999761581,"stimulus":"bees-with-color/bee-B1SM.svg","response":0,"trial_type":"image-button-response","trial_index":141,"time_elapsed":332045,"internal_node_id":"0.0-6.0-0.5","subject_id":"607458a3355910967d2a8b74","study_id":"60edd13110225f80f9f3709b","session_id":"6196c1f685ed32eb50a3099f","condition":"full-information","relevant_dimensions":["pattern","legs"],"bee_group":{"antennae":"X","wings":"X","pattern":"D","legs":"M"},"bonus":1.0800000000000007},{"rt":982.5999999642372,"stimulus":"bees-with-color/bee-B2DM.svg","response":1,"trial_type":"image-button-response","trial_index":142,"time_elapsed":333029,"internal_node_id":"0.0-6.0-0.6","subject_id":"607458a3355910967d2a8b74","study_id":"60edd13110225f80f9f3709b","session_id":"6196c1f685ed32eb50a3099f","condition":"full-information","relevant_dimensions":["pattern","legs"],"bee_group":{"antennae":"X","wings":"X","pattern":"D","legs":"M"},"bonus":1.0800000000000007},{"rt":918.6999999880791,"stimulus":"bees-with-color/bee-A2SF.svg","response":0,"trial_type":"image-button-response","trial_index":143,"time_elapsed":333949,"internal_node_id":"0.0-6.0-0.7","subject_id":"607458a3355910967d2a8b74","study_id":"60edd13110225f80f9f3709b","session_id":"6196c1f685ed32eb50a3099f","condition":"full-information","relevant_dimensions":["pattern","legs"],"bee_group":{"antennae":"X","wings":"X","pattern":"D","legs":"M"},"bonus":1.0800000000000007},{"rt":902.6000000238419,"stimulus":"bees-with-color/bee-A1SF.svg","response":0,"trial_type":"image-button-response","trial_index":144,"time_elapsed":334853,"internal_node_id":"0.0-6.0-0.8","subject_id":"607458a3355910967d2a8b74","study_id":"60edd13110225f80f9f3709b","session_id":"6196c1f685ed32eb50a3099f","condition":"full-information","relevant_dimensions":["pattern","legs"],"bee_group":{"antennae":"X","wings":"X","pattern":"D","legs":"M"},"bonus":1.0800000000000007},{"rt":1342.699999988079,"stimulus":"bees-with-color/bee-B1SF.svg","response":1,"trial_type":"image-button-response","trial_index":145,"time_elapsed":336197,"internal_node_id":"0.0-6.0-0.9","subject_id":"607458a3355910967d2a8b74","study_id":"60edd13110225f80f9f3709b","session_id":"6196c1f685ed32eb50a3099f","condition":"full-information","relevant_dimensions":["pattern","legs"],"bee_group":{"antennae":"X","wings":"X","pattern":"D","legs":"M"},"bonus":1.0800000000000007},{"rt":1222.699999988079,"stimulus":"bees-with-color/bee-B2SF.svg","response":1,"trial_type":"image-button-response","trial_index":146,"time_elapsed":337421,"internal_node_id":"0.0-6.0-0.10","subject_id":"607458a3355910967d2a8b74","study_id":"60edd13110225f80f9f3709b","session_id":"6196c1f685ed32eb50a3099f","condition":"full-information","relevant_dimensions":["pattern","legs"],"bee_group":{"antennae":"X","wings":"X","pattern":"D","legs":"M"},"bonus":1.0800000000000007},{"rt":1303,"stimulus":"bees-with-color/bee-A1DM.svg","response":1,"trial_type":"image-button-response","trial_index":147,"time_elapsed":338725,"internal_node_id":"0.0-6.0-0.11","subject_id":"607458a3355910967d2a8b74","study_id":"60edd13110225f80f9f3709b","session_id":"6196c1f685ed32eb50a3099f","condition":"full-information","relevant_dimensions":["pattern","legs"],"bee_group":{"antennae":"X","wings":"X","pattern":"D","legs":"M"},"bonus":1.0800000000000007},{"rt":1550.5999999642372,"stimulus":"bees-with-color/bee-A1SM.svg","response":0,"trial_type":"image-button-response","trial_index":148,"time_elapsed":340277,"internal_node_id":"0.0-6.0-0.12","subject_id":"607458a3355910967d2a8b74","study_id":"60edd13110225f80f9f3709b","session_id":"6196c1f685ed32eb50a3099f","condition":"full-information","relevant_dimensions":["pattern","legs"],"bee_group":{"antennae":"X","wings":"X","pattern":"D","legs":"M"},"bonus":1.0800000000000007},{"rt":2198.7999999523163,"stimulus":"bees-with-color/bee-B1DF.svg","response":0,"trial_type":"image-button-response","trial_index":149,"time_elapsed":342477,"internal_node_id":"0.0-6.0-0.13","subject_id":"607458a3355910967d2a8b74","study_id":"60edd13110225f80f9f3709b","session_id":"6196c1f685ed32eb50a3099f","condition":"full-information","relevant_dimensions":["pattern","legs"],"bee_group":{"antennae":"X","wings":"X","pattern":"D","legs":"M"},"bonus":1.0800000000000007},{"rt":1222.4000000357628,"stimulus":"bees-with-color/bee-B2SM.svg","response":0,"trial_type":"image-button-response","trial_index":150,"time_elapsed":343701,"internal_node_id":"0.0-6.0-0.14","subject_id":"607458a3355910967d2a8b74","study_id":"60edd13110225f80f9f3709b","session_id":"6196c1f685ed32eb50a3099f","condition":"full-information","relevant_dimensions":["pattern","legs"],"bee_group":{"antennae":"X","wings":"X","pattern":"D","legs":"M"},"bonus":1.0800000000000007},{"rt":902.8999999761581,"stimulus":"bees-with-color/bee-B1DM.svg","response":1,"trial_type":"image-button-response","trial_index":151,"time_elapsed":344605,"internal_node_id":"0.0-6.0-0.15","subject_id":"607458a3355910967d2a8b74","study_id":"60edd13110225f80f9f3709b","session_id":"6196c1f685ed32eb50a3099f","condition":"full-information","relevant_dimensions":["pattern","legs"],"bee_group":{"antennae":"X","wings":"X","pattern":"D","legs":"M"},"bonus":1.0800000000000007},{"rt":1094.800000011921,"stimulus":"bees-with-color/bee-A1DM.svg","response":1,"trial_type":"image-button-response","trial_index":152,"time_elapsed":345701,"internal_node_id":"0.0-6.0-0.16","subject_id":"607458a3355910967d2a8b74","study_id":"60edd13110225f80f9f3709b","session_id":"6196c1f685ed32eb50a3099f","condition":"full-information","relevant_dimensions":["pattern","legs"],"bee_group":{"antennae":"X","wings":"X","pattern":"D","legs":"M"},"bonus":1.0800000000000007},{"rt":1294.9000000357628,"stimulus":"bees-with-color/bee-A2DF.svg","response":1,"trial_type":"image-button-response","trial_index":153,"time_elapsed":346997,"internal_node_id":"0.0-6.0-0.17","subject_id":"607458a3355910967d2a8b74","study_id":"60edd13110225f80f9f3709b","session_id":"6196c1f685ed32eb50a3099f","condition":"full-information","relevant_dimensions":["pattern","legs"],"bee_group":{"antennae":"X","wings":"X","pattern":"D","legs":"M"},"bonus":1.0800000000000007},{"rt":879,"stimulus":"bees-with-color/bee-A2SM.svg","response":0,"trial_type":"image-button-response","trial_index":154,"time_elapsed":347877,"internal_node_id":"0.0-6.0-0.18","subject_id":"607458a3355910967d2a8b74","study_id":"60edd13110225f80f9f3709b","session_id":"6196c1f685ed32eb50a3099f","condition":"full-information","relevant_dimensions":["pattern","legs"],"bee_group":{"antennae":"X","wings":"X","pattern":"D","legs":"M"},"bonus":1.0800000000000007},{"rt":863,"stimulus":"bees-with-color/bee-A2DM.svg","response":1,"trial_type":"image-button-response","trial_index":155,"time_elapsed":348741,"internal_node_id":"0.0-6.0-0.19","subject_id":"607458a3355910967d2a8b74","study_id":"60edd13110225f80f9f3709b","session_id":"6196c1f685ed32eb50a3099f","condition":"full-information","relevant_dimensions":["pattern","legs"],"bee_group":{"antennae":"X","wings":"X","pattern":"D","legs":"M"},"bonus":1.0800000000000007},{"rt":2031.0999999642372,"stimulus":"bees-with-color/bee-B1SF.svg","response":1,"trial_type":"image-button-response","trial_index":156,"time_elapsed":350773,"internal_node_id":"0.0-6.0-0.20","subject_id":"607458a3355910967d2a8b74","study_id":"60edd13110225f80f9f3709b","session_id":"6196c1f685ed32eb50a3099f","condition":"full-information","relevant_dimensions":["pattern","legs"],"bee_group":{"antennae":"X","wings":"X","pattern":"D","legs":"M"},"bonus":1.0800000000000007},{"rt":1054.9000000357628,"stimulus":"bees-with-color/bee-A1SM.svg","response":0,"trial_type":"image-button-response","trial_index":157,"time_elapsed":351829,"internal_node_id":"0.0-6.0-0.21","subject_id":"607458a3355910967d2a8b74","study_id":"60edd13110225f80f9f3709b","session_id":"6196c1f685ed32eb50a3099f","condition":"full-information","relevant_dimensions":["pattern","legs"],"bee_group":{"antennae":"X","wings":"X","pattern":"D","legs":"M"},"bonus":1.0800000000000007},{"rt":1326.9000000357628,"stimulus":"bees-with-color/bee-A1SF.svg","response":1,"trial_type":"image-button-response","trial