[{"success":true,"trial_type":"fullscreen","trial_index":0,"time_elapsed":62806,"internal_node_id":"0.0-0.0","subject_id":"5f10d13957b4763f401690e5","study_id":"6197b3f67c2b5cd3b6d9596a","session_id":"619bef061022530dce95b3f4","condition":"contingent","relevant_dimensions":["antennae","wings"],"bee_group":{"antennae":"A","wings":"1","pattern":"X","legs":"X"},"bonus":1.260000000000001},{"success":true,"timeout":false,"failed_images":[],"failed_audio":[],"failed_video":[],"trial_type":"preload","trial_index":1,"time_elapsed":66955,"internal_node_id":"0.0-1.0","subject_id":"5f10d13957b4763f401690e5","study_id":"6197b3f67c2b5cd3b6d9596a","session_id":"619bef061022530dce95b3f4","condition":"contingent","relevant_dimensions":["antennae","wings"],"bee_group":{"antennae":"A","wings":"1","pattern":"X","legs":"X"},"bonus":1.260000000000001},{"rt":9448.800000011921,"stimulus":"Welcome! Press any key to begin.","response":"l","trial_type":"html-keyboard-response","trial_index":2,"time_elapsed":76407,"internal_node_id":"0.0-2.0","subject_id":"5f10d13957b4763f401690e5","study_id":"6197b3f67c2b5cd3b6d9596a","session_id":"619bef061022530dce95b3f4","condition":"contingent","relevant_dimensions":["antennae","wings"],"bee_group":{"antennae":"A","wings":"1","pattern":"X","legs":"X"},"bonus":1.260000000000001},{"view_history":[{"page_index":0,"viewing_time":5677.400000035763},{"page_index":1,"viewing_time":15346.899999976158},{"page_index":2,"viewing_time":25995.5},{"page_index":3,"viewing_time":17517},{"page_index":4,"viewing_time":6068.899999976158},{"page_index":5,"viewing_time":13299},{"page_index":6,"viewing_time":15872.100000023842},{"page_index":7,"viewing_time":9649.899999976158},{"page_index":8,"viewing_time":8662.200000047684},{"page_index":9,"viewing_time":4258},{"page_index":10,"viewing_time":5761.899999976158},{"page_index":11,"viewing_time":15132.100000023842},{"page_index":12,"viewing_time":17335.599999964237},{"page_index":13,"viewing_time":1872.199999988079},{"page_index":14,"viewing_time":2775.7000000476837}],"rt":165225.40000003576,"trial_type":"instructions","trial_index":3,"time_elapsed":241633,"internal_node_id":"0.0-3.0-0.0","subject_id":"5f10d13957b4763f401690e5","study_id":"6197b3f67c2b5cd3b6d9596a","session_id":"619bef061022530dce95b3f4","condition":"contingent","relevant_dimensions":["antennae","wings"],"bee_group":{"antennae":"A","wings":"1","pattern":"X","legs":"X"},"bonus":1.260000000000001},{"rt":16868.399999976158,"response":{"Q0":["Two or six legs","Stripes or spots on body","Single or double wings","Antennae or no antennae"]},"question_order":[0],"trial_type":"survey-multi-select","trial_index":4,"time_elapsed":258507,"internal_node_id":"0.0-3.0-1.0","subject_id":"5f10d13957b4763f401690e5","study_id":"6197b3f67c2b5cd3b6d9596a","session_id":"619bef061022530dce95b3f4","condition":"contingent","relevant_dimensions":["antennae","wings"],"bee_group":{"antennae":"A","wings":"1","pattern":"X","legs":"X"},"correct":true,"bonus":1.260000000000001},{"rt":29395.5,"response":{"Q1":"No.","Q2":"Based on the four features of the bee.","Q3":"You do not learn if it was friendly or dangerous, and do not alter your bonus."},"question_order":[0,1,2],"trial_type":"survey-multi-choice","trial_index":5,"time_elapsed":287909,"internal_node_id":"0.0-3.0-2.0","subject_id":"5f10d13957b4763f401690e5","study_id":"6197b3f67c2b5cd3b6d9596a","session_id":"619bef061022530dce95b3f4","condition":"contingent","relevant_dimensions":["antennae","wings"],"bee_group":{"antennae":"A","wings":"1","pattern":"X","legs":"X"},"correct":true,"bonus":1.260000000000001},{"rt":3778.099999964237,"stimulus":"<p>Congrats, you got everything right<br>When you're ready, click the button below to continue to the experiment.</p>","response":0,"trial_type":"html-button-response","trial_index":6,"time_elapsed":291694,"internal_node_id":"0.0-3.0-3.0","subject_id":"5f10d13957b4763f401690e5","study_id":"6197b3f67c2b5cd3b6d9596a","session_id":"619bef061022530dce95b3f4","condition":"contingent","relevant_dimensions":["antennae","wings"],"bee_group":{"antennae":"A","wings":"1","pattern":"X","legs":"X"},"bonus":1.260000000000001},{"rt":8012.199999988079,"stimulus":"bees-with-color/bee-A1DF.svg","response":0,"trial_type":"image-button-response","trial_index":7,"time_elapsed":299716,"internal_node_id":"0.0-4.0-0.0","subject_id":"5f10d13957b4763f401690e5","study_id":"6197b3f67c2b5cd3b6d9596a","session_id":"619bef061022530dce95b3f4","condition":"contingent","relevant_dimensions":["antennae","wings"],"bee_group":{"antennae":"A","wings":"1","pattern":"X","legs":"X"},"action":"harvest","summary":"bad-harvest","bonus":1.260000000000001},{"rt":8660.699999988079,"stimulus":"\n                    <p><b>Action: <em>harvest</em></b></p>\n                    <p>This is the bee that you just saw.</p>\n                    <img src=\"bees-with-color/bee-A1DF.svg\" width=\"200\">\n                    <p><span class=\"redText\">Bad choice, the bee was angry.</span><br><b>You have been stung!</b><br>Your pay has been decreased by $0.10. Your bonus pay is now $0.44.</p>\n            ","response":0,"trial_type":"html-button-response","trial_index":8,"time_elapsed":308392,"internal_node_id":"0.0-4.0-1.0","subject_id":"5f10d13957b4763f401690e5","study_id":"6197b3f67c2b5cd3b6d9596a","session_id":"619bef061022530dce95b3f4","condition":"contingent","relevant_dimensions":["antennae","wings"],"bee_group":{"antennae":"A","wings":"1","pattern":"X","legs":"X"},"bonus":1.260000000000001},{"rt":3854.199999988079,"stimulus":"bees-with-color/bee-B2SF.svg","response":0,"trial_type":"image-button-response","trial_index":9,"time_elapsed":312254,"internal_node_id":"0.0-4.0-0.1","subject_id":"5f10d13957b4763f401690e5","study_id":"6197b3f67c2b5cd3b6d9596a","session_id":"619bef061022530dce95b3f4","condition":"contingent","relevant_dimensions":["antennae","wings"],"bee_group":{"antennae":"A","wings":"1","pattern":"X","legs":"X"},"action":"harvest","summary":"good-harvest","bonus":1.260000000000001},{"rt":10264.5,"stimulus":"\n                    <p><b>Action: <em>harvest</em></b></p>\n                    <p>This is the bee that you just saw.</p>\n                    <img src=\"bees-with-color/bee-B2SF.svg\" width=\"200\">\n                    <p><span class=\"greenText\"><b>Successful harvest!</b></span><br>Your pay has increased by $0.02. Your bonus pay is now $0.46.</p>\n            ","response":0,"trial_type":"html-button-response","trial_index":10,"time_elapsed":322524,"internal_node_id":"0.0-4.0-1.1","subject_id":"5f10d13957b4763f401690e5","study_id":"6197b3f67c2b5cd3b6d9596a","session_id":"619bef061022530dce95b3f4","condition":"contingent","relevant_dimensions":["antennae","wings"],"bee_group":{"antennae":"A","wings":"1","pattern":"X","legs":"X"},"bonus":1.260000000000001},{"rt":3257.400000035763,"stimulus":"bees-with-color/bee-B2DF.svg","response":1,"trial_type":"image-button-response","trial_index":11,"time_elapsed":325788,"internal_node_id":"0.0-4.0-0.2","subject_id":"5f10d13957b4763f401690e5","study_id":"6197b3f67c2b5cd3b6d9596a","session_id":"619bef061022530dce95b3f4","condition":"contingent","relevant_dimensions":["antennae","wings"],"bee_group":{"antennae":"A","wings":"1","pattern":"X","legs":"X"},"action":"avoid","summary":"bad-avoid","bonus":1.260000000000001},{"rt":8905.199999988079,"stimulus":"\n                    <p><b>Action: <em>avoid</em></b></p>\n                    <p>This is the bee that you just saw.</p>\n                    <img src=\"bees-with-color/bee-B2DF.svg\" width=\"200\">\n                    <p><br>Your bonus pay is unchanged, and remains at $0.46.</p>\n            ","response":0,"trial_type":"html-button-response","trial_index":12,"time_elapsed":334698,"internal_node_id":"0.0-4.0-1.2","subject_id":"5f10d13957b4763f401690e5","study_id":"6197b3f67c2b5cd3b6d9596a","session_id":"619bef061022530dce95b3f4","condition":"contingent","relevant_dimensions":["antennae","wings"],"bee_group":{"antennae":"A","wings":"1","pattern":"X","legs":"X"},"bonus":1.260000000000001},{"rt":4256.399999976158,"stimulus":"bees-with-color/bee-B2DM.svg","response":1,"trial_type":"image-button-response","trial_index":13,"time_elapsed":338960,"internal_node_id":"0.0-4.0-0.3","subject_id":"5f10d13957b4763f401690e5","study_id":"6197b3f67c2b5cd3b6d9596a","session_id":"619bef061022530dce95b3f4","condition":"contingent","relevant_dimensions":["antennae","wings"],"bee_group":{"antennae":"A","wings":"1","pattern":"X","legs":"X"},"action":"avoid","summary":"bad-avoid","bonus":1.260000000000001},{"rt":5193,"stimulus":"\n                    <p><b>Action: <em>avoid</em></b></p>\n                    <p>This is the bee that you just saw.</p>\n                    <img src=\"bees-with-color/bee-B2DM.svg\" width=\"200\">\n                    <p><br>Your bonus pay is unchanged, and remains at $0.46.</p>\n            ","response":0,"trial_type":"html-button-response","trial_index":14,"time_elapsed":344158,"internal_node_id":"0.0-4.0-1.3","subject_id":"5f10d13957b4763f401690e5","study_id":"6197b3f67c2b5cd3b6d9596a","session_id":"619bef061022530dce95b3f4","condition":"contingent","relevant_dimensions":["antennae","wings"],"bee_group":{"antennae":"A","wings":"1","pattern":"X","legs":"X"},"bonus":1.260000000000001},{"rt":2693.699999988079,"stimulus":"bees-with-color/bee-A2DF.svg","response":1,"trial_type":"image-button-response","trial_index":15,"time_elapsed":346858,"internal_node_id":"0.0-4.0-0.4","subject_id":"5f10d13957b4763f401690e5","study_id":"6197b3f67c2b5cd3b6d9596a","session_id":"619bef061022530dce95b3f4","condition":"contingent","relevant_dimensions":["antennae","wings"],"bee_group":{"antennae":"A","wings":"1","pattern":"X","legs":"X"},"action":"avoid","summary":"bad-avoid","bonus":1.260000000000001},{"rt":3086.199999988079,"stimulus":"\n                    <p><b>Action: <em>avoid</em></b></p>\n                    <p>This is the bee that you just saw.</p>\n                    <img src=\"bees-with-color/bee-A2DF.svg\" width=\"200\">\n                    <p><br>Your bonus pay is unchanged, and remains at $0.46.</p>\n            ","response":0,"trial_type":"html-button-response","trial_index":16,"time_elapsed":349950,"internal_node_id":"0.0-4.0-1.4","subject_id":"5f10d13957b4763f401690e5","study_id":"6197b3f67c2b5cd3b6d9596a","session_id":"619bef061022530dce95b3f4","condition":"contingent","relevant_dimensions":["antennae","wings"],"bee_group":{"antennae":"A","wings":"1","pattern":"X","legs":"X"},"bonus":1.260000000000001},{"rt":2325.5,"stimulus":"bees-with-color/bee-A1SM.svg","response":0,"trial_type":"image-button-response","trial_index":17,"time_elapsed":352281,"internal_node_id":"0.0-4.0-0.5","subject_id":"5f10d13957b4763f401690e5","study_id":"6197b3f67c2b5cd3b6d9596a","session_id":"619bef061022530dce95b3f4","condition":"contingent","relevant_dimensions":["antennae","wings"],"bee_group":{"antennae":"A","wings":"1","pattern":"X","legs":"X"},"action":"harvest","summary":"bad-harvest","bonus":1.260000000000001},{"rt":13654.199999988079,"stimulus":"\n                    <p><b>Action: <em>harvest</em></b></p>\n                    <p>This is the bee that you just saw.</p>\n                    <img src=\"bees-with-color/bee-A1SM.svg\" width=\"200\">\n                    <p><span class=\"redText\">Bad choice, the bee was angry.</span><br><b>You have been stung!</b><br>Your pay has been decreased by $0.10. Your bonus pay is now $0.36.</p>\n            ","response":0,"trial_type":"html-button-response","trial_index":18,"time_elapsed":365935,"internal_node_id":"0.0-4.0-1.5","subject_id":"5f10d13957b4763f401690e5","study_id":"6197b3f67c2b5cd3b6d9596a","session_id":"619bef061022530dce95b3f4","condition":"contingent","relevant_dimensions":["antennae","wings"],"bee_group":{"antennae":"A","wings":"1","pattern":"X","legs":"X"},"bonus":1.260000000000001},{"rt":2678.199999988079,"stimulus":"bees-with-color/bee-B1SF.svg","response":1,"trial_type":"image-button-response","trial_index":19,"time_elapsed":368619,"internal_node_id":"0.0-4.0-0.6","subject_id":"5f10d13957b4763f401690e5","study_id":"6197b3f67c2b5cd3b6d9596a","session_id":"619bef061022530dce95b3f4","condition":"contingent","relevant_dimensions":["antennae","wings"],"bee_group":{"antennae":"A","wings":"1","pattern":"X","legs":"X"},"action":"avoid","summary":"bad-avoid","bonus":1.260000000000001},{"rt":3208.099999964237,"stimulus":"\n                    <p><b>Action: <em>avoid</em></b></p>\n                    <p>This is the bee that you just saw.</p>\n                    <img src=\"bees-with-color/bee-B1SF.svg\" width=\"200\">\n                    <p><br>Your bonus pay is unchanged, and remains at $0.36.</p>\n            ","response":0,"trial_type":"html-button-response","trial_index":20,"time_elapsed":371831,"internal_node_id":"0.0-4.0-1.6","subject_id":"5f10d13957b4763f401690e5","study_id":"6197b3f67c2b5cd3b6d9596a","session_id":"619bef061022530dce95b3f4","condition":"contingent","relevant_dimensions":["antennae","wings"],"bee_group":{"antennae":"A","wings":"1","pattern":"X","legs":"X"},"bonus":1.260000000000001},{"rt":2691.800000011921,"stimulus":"bees-with-color/bee-B2SM.svg","response":0,"trial_type":"image-button-response","trial_index":21,"time_elapsed":374531,"internal_node_id":"0.0-4.0-0.7","subject_id":"5f10d13957b4763f401690e5","study_id":"6197b3f67c2b5cd3b6d9596a","session_id":"619bef061022530dce95b3f4","condition":"contingent","relevant_dimensions":["antennae","wings"],"bee_group":{"antennae":"A","wings":"1","pattern":"X","legs":"X"},"action":"harvest","summary":"good-harvest","bonus":1.260000000000001},{"rt":3273.899999976158,"stimulus":"\n                    <p><b>Action: <em>harvest</em></b></p>\n                    <p>This is the bee that you just saw.</p>\n                    <img src=\"bees-with-color/bee-B2SM.svg\" width=\"200\">\n                    <p><span class=\"greenText\"><b>Successful harvest!</b></span><br>Your pay has increased by $0.02. Your bonus pay is now $0.38.</p>\n            ","response":0,"trial_type":"html-button-response","trial_index":22,"time_elapsed":377809,"internal_node_id":"0.0-4.0-1.7","subject_id":"5f10d13957b4763f401690e5","study_id":"6197b3f67c2b5cd3b6d9596a","session_id":"619bef061022530dce95b3f4","condition":"contingent","relevant_dimensions":["antennae","wings"],"bee_group":{"antennae":"A","wings":"1","pattern":"X","legs":"X"},"bonus":1.260000000000001},{"rt":2961.699999988079,"stimulus":"bees-with-color/bee-A2SF.svg","response":0,"trial_type":"image-button-response","trial_index":23,"time_elapsed":380777,"internal_node_id":"0.0-4.0-0.8","subject_id":"5f10d13957b4763f401690e5","study_id":"6197b3f67c2b5cd3b6d9596a","session_id":"619bef061022530dce95b3f4","condition":"contingent","relevant_dimensions":["antennae","wings"],"bee_group":{"antennae":"A","wings":"1","pattern":"X","legs":"X"},"action":"harvest","summary":"good-harvest","bonus":1.260000000000001},{"rt":5241.800000011921,"stimulus":"\n                    <p><b>Action: <em>harvest</em></b></p>\n                    <p>This is the bee that you just saw.</p>\n                    <img src=\"bees-with-color/bee-A2SF.svg\" width=\"200\">\n                    <p><span class=\"greenText\"><b>Successful harvest!</b></span><br>Your pay has increased by $0.02. Your bonus pay is now $0.40.</p>\n            ","response":0,"trial_type":"html-button-response","trial_index":24,"time_elapsed":386023,"internal_node_id":"0.0-4.0-1.8","subject_id":"5f10d13957b4763f401690e5","study_id":"6197b3f67c2b5cd3b6d9596a","session_id":"619bef061022530dce95b3f4","condition":"contingent","relevant_dimensions":["antennae","wings"],"bee_group":{"antennae":"A","wings":"1","pattern":"X","legs":"X"},"bonus":1.260000000000001},{"rt":7700.199999988079,"stimulus":"bees-with-color/bee-B1SM.svg","response":0,"trial_type":"image-button-response","trial_index":25,"time_elapsed":393730,"internal_node_id":"0.0-4.0-0.9","subject_id":"5f10d13957b4763f401690e5","study_id":"6197b3f67c2b5cd3b6d9596a","session_id":"619bef061022530dce95b3f4","condition":"contingent","relevant_dimensions":["antennae","wings"],"bee_group":{"antennae":"A","wings":"1","pattern":"X","legs":"X"},"action":"harvest","summary":"good-harvest","bonus":1.260000000000001},{"rt":10760.199999988079,"stimulus":"\n                    <p><b>Action: <em>harvest</em></b></p>\n                    <p>This is the bee that you just saw.</p>\n                    <img src=\"bees-with-color/bee-B1SM.svg\" width=\"200\">\n                    <p><span class=\"greenText\"><b>Successful harvest!</b></span><br>Your pay has increased by $0.02. Your bonus pay is now $0.42.</p>\n            ","response":0,"trial_type":"html-button-response","trial_index":26,"time_elapsed":404495,"internal_node_id":"0.0-4.0-1.9","subject_id":"5f10d13957b4763f401690e5","study_id":"6197b3f67c2b5cd3b6d9596a","session_id":"619bef061022530dce95b3f4","condition":"contingent","relevant_dimensions":["antennae","wings"],"bee_group":{"antennae":"A","wings":"1","pattern":"X","legs":"X"},"bonus":1.260000000000001},{"rt":6674.899999976158,"stimulus":"bees-with-color/bee-A1SF.svg","response":1,"trial_type":"image-button-response","trial_index":27,"time_elapsed":411177,"internal_node_id":"0.0-4.0-0.10","subject_id":"5f10d13957b4763f401690e5","study_id":"6197b3f67c2b5cd3b6d9596a","session_id":"619bef061022530dce95b3f4","condition":"contingent","relevant_dimensions":["antennae","wings"],"bee_group":{"antennae":"A","wings":"1","pattern":"X","legs":"X"},"action":"avoid","summary":"good-avoid","bonus":1.260000000000001},{"rt":3049.100000023842,"stimulus":"\n                    <p><b>Action: <em>avoid</em></b></p>\n                    <p>This is the bee that you just saw.</p>\n                    <img src=\"bees-with-color/bee-A1SF.svg\" width=\"200\">\n                    <p><br>Your bonus pay is unchanged, and remains at $0.42.</p>\n            ","response":0,"trial_type":"html-button-response","trial_index":28,"time_elapsed":414231,"internal_node_id":"0.0-4.0-1.10","subject_id":"5f10d13957b4763f401690e5","study_id":"6197b3f67c2b5cd3b6d9596a","session_id":"619bef061022530dce95b3f4","condition":"contingent","relevant_dimensions":["antennae","wings"],"bee_group":{"antennae":"A","wings":"1","pattern":"X","legs":"X"},"bonus":1.260000000000001},{"rt":5246.399999976158,"stimulus":"bees-with-color/bee-A2SM.svg","response":0,"trial_type":"image-button-response","trial_index":29,"time_elapsed":419483,"internal_node_id":"0.0-4.0-0.11","subject_id":"5f10d13957b4763f401690e5","study_id":"6197b3f67c2b5cd3b6d9596a","session_id":"619bef061022530dce95b3f4","condition":"contingent","relevant_dimensions":["antennae","wings"],"bee_group":{"antennae":"A","wings":"1","pattern":"X","legs":"X"},"action":"harvest","summary":"good-harvest","bonus":1.260000000000001},{"rt":4009.2999999523163,"stimulus":"\n                    <p><b>Action: <em>harvest</em></b></p>\n                    <p>This is the bee that you just saw.</p>\n                    <img src=\"bees-with-color/bee-A2SM.svg\" width=\"200\">\n                    <p><span class=\"greenText\"><b>Successful harvest!</b></span><br>Your pay has increased by $0.02. Your bonus pay is now $0.44.</p>\n            ","response":0,"trial_type":"html-button-response","trial_index":30,"time_elapsed":423497,"internal_node_id":"0.0-4.0-1.11","subject_id":"5f10d13957b4763f401690e5","study_id":"6197b3f67c2b5cd3b6d9596a","session_id":"619bef061022530dce95b3f4","condition":"contingent","relevant_dimensions":["antennae","wings"],"bee_group":{"antennae":"A","wings":"1","pattern":"X","legs":"X"},"bonus":1.260000000000001},{"rt":4646.5,"stimulus":"bees-with-color/bee-A2DM.svg","response":0,"trial_type":"image-button-response","trial_index":31,"time_elapsed":428154,"internal_node_id":"0.0-4.0-0.12","subject_id":"5f10d13957b4763f401690e5","study_id":"6197b3f67c2b5cd3b6d9596a","session_id":"619bef061022530dce95b3f4","condition":"contingent","relevant_dimensions":["antennae","wings"],"bee_group":{"antennae":"A","wings":"1","pattern":"X","legs":"X"},"action":"harvest","summary":"good-harvest","bonus":1.260000000000001},{"rt":7817.5,"stimulus":"\n                    <p><b>Action: <em>harvest</em></b></p>\n                    <p>This is the bee that you just saw.</p>\n                    <img src=\"bees-with-color/bee-A2DM.svg\" width=\"200\">\n                    <p><span class=\"greenText\"><b>Successful harvest!</b></span><br>Your pay has increased by $0.02. Your bonus pay is now $0.46.</p>\n            ","response":0,"trial_type":"html-button-response","trial_index":32,"time_elapsed":435976,"internal_node_id":"0.0-4.0-1.12","subject_id":"5f10d13957b4763f401690e5","study_id":"6197b3f67c2b5cd3b6d9596a","session_id":"619bef061022530dce95b3f4","condition":"contingent","relevant_dimensions":["antennae","wings"],"bee_group":{"antennae":"A","wings":"1","pattern":"X","legs":"X"},"bonus":1.260000000000001},{"rt":4347.699999988079,"stimulus":"bees-with-color/bee-B1DM.svg","response":1,"trial_type":"image-button-response","trial_index":33,"time_elapsed":440330,"internal_node_id":"0.0-4.0-0.13","subject_id":"5f10d13957b4763f401690e5","study_id":"6197b3f67c2b5cd3b6d9596a","session_id":"619bef061022530dce95b3f4","condition":"contingent","relevant_dimensions":["antennae","wings"],"bee_group":{"antennae":"A","wings":"1","pattern":"X","legs":"X"},"action":"avoid","summary":"bad-avoid","bonus":1.260000000000001},{"rt":3864.399999976158,"stimulus":"\n                    <p><b>Action: <em>avoid</em></b></p>\n                    <p>This is the bee that you just saw.</p>\n                    <img src=\"bees-with-color/bee-B1DM.svg\" width=\"200\">\n                    <p><br>Your bonus pay is unchanged, and remains at $0.46.</p>\n            ","response":0,"trial_type":"html-button-response","trial_index":34,"time_elapsed":444198,"internal_node_id":"0.0-4.0-1.13","subject_id":"5f10d13957b4763f401690e5","study_id":"6197b3f67c2b5cd3b6d9596a","session_id":"619bef061022530dce95b3f4","condition":"contingent","relevant_dimensions":["antennae","wings"],"bee_group":{"antennae":"A","wings":"1","pattern":"X","legs":"X"},"bonus":1.260000000000001},{"rt":6474,"stimulus":"bees-with-color/bee-A1DM.svg","response":1,"trial_type":"image-button-response","trial_index":35,"time_elapsed":450677,"internal_node_id":"0.0-4.0-0.14","subject_id":"5f10d13957b4763f401690e5","study_id":"6197b3f67c2b5cd3b6d9596a","session_id":"619bef061022530dce95b3f4","condition":"contingent","relevant_dimensions":["antennae","wings"],"bee_group":{"antennae":"A","wings":"1","pattern":"X","legs":"X"},"action":"avoid","summary":"good-avoid","bonus":1.260000000000001},{"rt":1827,"stimulus":"\n                    <p><b>Action: <em>avoid</em></b></p>\n                    <p>This is the bee that you just saw.</p>\n                    <img src=\"bees-with-color/bee-A1DM.svg\" width=\"200\">\n                    <p><br>Your bonus pay is unchanged, and remains at $0.46.</p>\n            ","response":0,"trial_type":"html-button-response","trial_index":36,"time_elapsed":452508,"internal_node_id":"0.0-4.0-1.14","subject_id":"5f10d13957b4763f401690e5","study_id":"6197b3f67c2b5cd3b6d9596a","session_id":"619bef061022530dce95b3f4","condition":"contingent","relevant_dimensions":["antennae","wings"],"bee_group":{"antennae":"A","wings":"1","pattern":"X","legs":"X"},"bonus":1.260000000000001},{"rt":5035.900000035763,"stimulus":"bees-with-color/bee-B1DF.svg","response":1,"trial_type":"image-button-response","trial_index":37,"time_elapsed":457550,"internal_node_id":"0.0-4.0-0.15","subject_id":"5f10d13957b4763f401690e5","study_id":"6197b3f67c2b5cd3b6d9596a","session_id":"619bef061022530dce95b3f4","condition":"contingent","relevant_dimensions":["antennae","wings"],"bee_group":{"antennae":"A","wings":"1","pattern":"X","legs":"X"},"action":"avoid","summary":"bad-avoid","bonus":1.260000000000001},{"rt":1472.199999988079,"stimulus":"\n                    <p><b>Action: <em>avoid</em></b></p>\n                    <p>This is the bee that you just saw.</p>\n                    <img src=\"bees-with-color/bee-B1DF.svg\" width=\"200\">\n                    <p><br>Your bonus pay is unchanged, and remains at $0.46.</p>\n            ","response":0,"trial_type":"html-button-response","trial_index":38,"time_elapsed":459026,"internal_node_id":"0.0-4.0-1.15","subject_id":"5f10d13957b4763f401690e5","study_id":"6197b3f67c2b5cd3b6d9596a","session_id":"619bef061022530dce95b3f4","condition":"contingent","relevant_dimensions":["antennae","wings"],"bee_group":{"antennae":"A","wings":"1","pattern":"X","legs":"X"},"bonus":1.260000000000001},{"rt":3794.800000011921,"stimulus":"bees-with-color/bee-A1SF.svg","response":1,"trial_type":"image-button-response","trial_index":39,"time_elapsed":462828,"internal_node_id":"0.0-4.0-0.16","subject_id":"5f10d13957b4763f401690e5","study_id":"6197b3f67c2b5cd3b6d9596a","session_id":"619bef061022530dce95b3f4","condition":"contingent","relevant_dimensions":["antennae","wings"],"bee_group":{"antennae":"A","wings":"1","pattern":"X","legs":"X"},"action":"avoid","summary":"good-avoid","bonus":1.260000000000001},{"rt":1326.199999988079,"stimulus":"\n                    <p><b>Action: <em>avoid</em></b></p>\n                    <p>This is the bee that you just saw.</p>\n                    <img src=\"bees-with-color/bee-A1SF.svg\" width=\"200\">\n                    <p><br>Your bonus pay is unchanged, and remains at $0.46.</p>\n            ","response":0,"trial_type":"html-button-response","trial_index":40,"time_elapsed":464160,"internal_node_id":"0.0-4.0-1.16","subject_id":"5f10d13957b4763f401690e5","study_id":"6197b3f67c2b5cd3b6d9596a","session_id":"619bef061022530dce95b3f4","condition":"contingent","relevant_dimensions":["antennae","wings"],"bee_group":{"antennae":"A","wings":"1","pattern":"X","legs":"X"},"bonus":1.260000000000001},{"rt":1822.800000011921,"stimulus":"bees-with-color/bee-B1DF.svg","response":1,"trial_type":"image-button-response","trial_index":41,"time_elapsed":465988,"internal_node_id":"0.0-4.0-0.17","subject_id":"5f10d13957b4763f401690e5","study_id":"6197b3f67c2b5cd3b6d9596a","session_id":"619bef061022530dce95b3f4","condition":"contingent","relevant_dimensions":["antennae","wings"],"bee_group":{"antennae":"A","wings":"1","pattern":"X","legs":"X"},"action":"avoid","summary":"bad-avoid","bonus":1.260000000000001},{"rt":1271.699999988079,"stimulus":"\n                    <p><b>Action: <em>avoid</em></b></p>\n                    <p>This is the bee that you just saw.</p>\n                    <img src=\"bees-with-color/bee-B1DF.svg\" width=\"200\">\n                    <p><br>Your bonus pay is unchanged, and remains at $0.46.</p>\n            ","response":0,"trial_type":"html-button-response","trial_index":42,"time_elapsed":467264,"internal_node_id":"0.0-4.0-1.17","subject_id":"5f10d13957b4763f401690e5","study_id":"6197b3f67c2b5cd3b6d9596a","session_id":"619bef061022530dce95b3f4","condition":"contingent","relevant_dimensions":["antennae","wings"],"bee_group":{"antennae":"A","wings":"1","pattern":"X","legs":"X"},"bonus":1.260000000000001},{"rt":3600.399999976158,"stimulus":"bees-with-color/bee-A1SM.svg","response":1,"trial_type":"image-button-response","trial_index":43,"time_elapsed":470870,"internal_node_id":"0.0-4.0-0.18","subject_id":"5f10d13957b4763f401690e5","study_id":"6197b3f67c2b5cd3b6d9596a","session_id":"619bef061022530dce95b3f4","condition":"contingent","relevant_dimensions":["antennae","wings"],"bee_group":{"antennae":"A","wings":"1","pattern":"X","legs":"X"},"action":"avoid","summary":"good-avoid","bonus":1.260000000000001},{"rt":5388.599999964237,"stimulus":"\n                    <p><b>Action: <em>avoid</em></b></p>\n                    <p>This is the bee that you just saw.</p>\n                    <img src=\"bees-with-color/bee-A1SM.svg\" width=\"200\">\n                    <p><br>Your bonus pay is unchanged, and remains at $0.46.</p>\n            ","response":0,"trial_type":"html-button-response","trial_index":44,"time_elapsed":476264,"internal_node_id":"0.0-4.0-1.18","subject_id":"5f10d13957b4763f401690e5","study_id":"6197b3f67c2b5cd3b6d9596a","session_id":"619bef061022530dce95b3f4","condition":"contingent","relevant_dimensions":["antennae","wings"],"bee_group":{"antennae":"A","wings":"1","pattern":"X","legs":"X"},"bonus":1.260000000000001},{"rt":2194.599999964237,"stimulus":"bees-with-color/bee-B2SF.svg","response":0,"trial_type":"image-button-response","trial_index":45,"time_elapsed":478464,"internal_node_id":"0.0-4.0-0.19","subject_id":"5f10d13957b4763f401690e5","study_id":"6197b3f67c2b5cd3b6d9596a","session_id":"619bef061022530dce95b3f4","condition":"contingent","relevant_dimensions":["antennae","wings"],"bee_group":{"antennae":"A","wings":"1","pattern":"X","legs":"X"},"action":"harvest","summary":"good-harvest","bonus":1.260000000000001},{"rt":3607.800000011921,"stimulus":"\n                    <p><b>Action: <em>harvest</em></b></p>\n                    <p>This is the bee that you just saw.</p>\n                    <img src=\"bees-with-color/bee-B2SF.svg\" width=\"200\">\n                    <p><span class=\"greenText\"><b>Successful harvest!</b></span><br>Your pay has increased by $0.02. Your bonus pay is now $0.48.</p>\n            ","response":0,"trial_type":"html-button-response","trial_index":46,"time_elapsed":482076,"internal_node_id":"0.0-4.0-1.19","subject_id":"5f10d13957b4763f401690e5","study_id":"6197b3f67c2b5cd3b6d9596a","session_id":"619bef061022530dce95b3f4","condition":"contingent","relevant_dimensions":["antennae","wings"],"bee_group":{"antennae":"A","wings":"1","pattern":"X","legs":"X"},"bonus":1.260000000000001},{"rt":3200.800000011921,"stimulus":"bees-with-color/bee-A2DF.svg","response":0,"trial_type":"image-button-response","trial_index":47,"time_elapsed":485282,"internal_node_id":"0.0-4.0-0.20","subject_id":"5f10d13957b4763f401690e5","study_id":"6197b3f67c2b5cd3b6d9596a","session_id":"619bef061022530dce95b3f4","condition":"contingent","relevant_dimensions":["antennae","wings"],"bee_group":{"antennae":"A","wings":"1","pattern":"X","legs":"X"},"action":"harvest","summary":"good-harvest","bonus":1.260000000000001},{"rt":1734.8999999761581,"stimulus":"\n                    <p><b>Action: <em>harvest</em></b></p>\n                    <p>This is the bee that you just saw.</p>\n                    <img src=\"bees-with-color/bee-A2DF.svg\" width=\"200\">\n                    <p><span class=\"greenText\"><b>Successful harvest!</b></span><br>Your pay has increased by $0.02. Your bonus pay is now $0.50.</p>\n            ","response":0,"trial_type":"html-button-response","trial_index":48,"time_elapsed":487022,"internal_node_id":"0.0-4.0-1.20","subject_id":"5f10d13957b4763f401690e5","study_id":"6197b3f67c2b5cd3b6d9596a","session_id":"619bef061022530dce95b3f4","condition":"contingent","relevant_dimensions":["antennae","wings"],"bee_group":{"antennae":"A","wings":"1","pattern":"X","legs":"X"},"bonus":1.260000000000001},{"rt":2536.899999976158,"stimulus":"bees-with-color/bee-A2SF.svg","response":0,"trial_type":"image-button-response","trial_index":49,"time_elapsed":489566,"internal_node_id":"0.0-4.0-0.21","subject_id":"5f10d13957b4763f401690e5","study_id":"6197b3f67c2b5cd3b6d9596a","session_id":"619bef061022530dce95b3f4","condition":"contingent","relevant_dimensions":["antennae","wings"],"bee_group":{"antennae":"A","wings":"1","pattern":"X","legs":"X"},"action":"harvest","summary":"good-harvest","bonus":1.260000000000001},{"rt":1531.3999999761581,"stimulus":"\n                    <p><b>Action: <em>harvest</em></b></p>\n                    <p>This is the bee that you just saw.</p>\n                    <img src=\"bees-with-color/bee-A2SF.svg\" width=\"200\">\n                    <p><span class=\"greenText\"><b>Successful harvest!</b></span><br>Your pay has increased by $0.02. Your bonus pay is now $0.52.</p>\n            ","response":0,"trial_type":"html-button-response","trial_index":50,"time_elapsed":491102,"internal_node_id":"0.0-4.0-1.21","subject_id":"5f10d13957b4763f401690e5","study_id":"6197b3f67c2b5cd3b6d9596a","session_id":"619bef061022530dce95b3f4","condition":"contingent","relevant_dimensions":["antennae","wings"],"bee_group":{"antennae":"A","wings":"1","pattern":"X","legs":"X"},"bonus":1.260000000000001},{"rt":3257.199999988079,"stimulus":"bees-with-color/bee-A2SM.svg","response":0,"trial_type":"image-button-response","trial_index":51,"time_elapsed":494364,"internal_node_id":"0.0-4.0-0.22","subject_id":"5f10d13957b4763f401690e5","study_id":"6197b3f67c2b5cd3b6d9596a","session_id":"619bef061022530dce95b3f4","condition":"contingent","relevant_dimensions":["antennae","wings"],"bee_group":{"antennae":"A","wings":"1","pattern":"X","legs":"X"},"action":"harvest","summary":"good-harvest","bonus":1.260000000000001},{"rt":1332.199999988079,"stimulus":"\n                    <p><b>Action: <em>harvest</em></b></p>\n                    <p>This is the bee that you just saw.</p>\n                    <img src=\"bees-with-color/bee-A2SM.svg\" width=\"200\">\n                    <p><span class=\"greenText\"><b>Successful harvest!</b></span><br>Your pay has increased by $0.02. Your bonus pay is now $0.54.</p>\n            ","response":0,"trial_type":"html-button-response","trial_index":52,"time_elapsed":495700,"internal_node_id":"0.0-4.0-1.22","subject_id":"5f10d13957b4763f401690e5","study_id":"6197b3f67c2b5cd3b6d9596a","session_id":"619bef061022530dce95b3f4","condition":"contingent","relevant_dimensions":["antennae","wings"],"bee_group":{"antennae":"A","wings":"1","pattern":"X","legs":"X"},"bonus":1.260000000000001},{"rt":3555.800000011921,"stimulus":"bees-with-color/bee-B2DM.svg","response":0,"trial_type":"image-button-response","trial_index":53,"time_elapsed":499260,"internal_node_id":"0.0-4.0-0.23","subject_id":"5f10d13957b4763f401690e5","study_id":"6197b3f67c2b5cd3b6d9596a","session_id":"619bef061022530dce95b3f4","condition":"contingent","relevant_dimensions":["antennae","wings"],"bee_group":{"antennae":"A","wings":"1","pattern":"X","legs":"X"},"action":"harvest","summary":"good-harvest","bonus":1.260000000000001},{"rt":1825.0999999642372,"stimulus":"\n                    <p><b>Action: <em>harvest</em></b></p>\n                    <p>This is the bee that you just saw.</p>\n                    <img src=\"bees-with-color/bee-B2DM.svg\" width=\"200\">\n                    <p><span class=\"greenText\"><b>Successful harvest!</b></span><br>Your pay has increased by $0.02. Your bonus pay is now $0.56.</p>\n            ","response":0,"trial_type":"html-button-response","trial_index":54,"time_elapsed":501092,"internal_node_id":"0.0-4.0-1.23","subject_id":"5f10d13957b4763f401690e5","study_id":"6197b3f67c2b5cd3b6d9596a","session_id":"619bef061022530dce95b3f4","condition":"contingent","relevant_dimensions":["antennae","wings"],"bee_group":{"antennae":"A","wings":"1","pattern":"X","legs":"X"},"bonus":1.260000000000001},{"rt":3413,"stimulus":"bees-with-color/bee-A2DM.svg","response":0,"trial_type":"image-button-response","trial_index":55,"time_elapsed":504510,"internal_node_id":"0.0-4.0-0.24","subject_id":"5f10d13957b4763f401690e5","study_id":"6197b3f67c2b5cd3b6d9596a","session_id":"619bef061022530dce95b3f4","condition":"contingent","relevant_dimensions":["antennae","wings"],"bee_group":{"antennae":"A","wings":"1","pattern":"X","legs":"X"},"action":"harvest","summary":"good-harvest","bonus":1.260000000000001},{"rt":1940.199999988079,"stimulus":"\n                    <p><b>Action: <em>harvest</em></b></p>\n                    <p>This is the bee that you just saw.</p>\n                    <img src=\"bees-with-color/bee-A2DM.svg\" width=\"200\">\n                    <p><span class=\"greenText\"><b>Successful harvest!</b></span><br>Your pay has increased by $0.02. Your bonus pay is now $0.58.</p>\n            ","response":0,"trial_type":"html-button-response","trial_index":56,"time_elapsed":506454,"internal_node_id":"0.0-4.0-1.24","subject_id":"5f10d13957b4763f401690e5","study_id":"6197b3f67c2b5cd3b6d9596a","session_id":"619bef061022530dce95b3f4","condition":"contingent","relevant_dimensions":["antennae","wings"],"bee_group":{"antennae":"A","wings":"1","pattern":"X","legs":"X"},"bonus":1.260000000000001},{"rt":2385.400000035763,"stimulus":"bees-with-color/bee-B1SM.svg","response":1,"trial_type":"image-button-response","trial_index":57,"time_elapsed":508844,"internal_node_id":"0.0-4.0-0.25","subject_id":"5f10d13957b4763f401690e5","study_id":"6197b3f67c2b5cd3b6d9596a","session_id":"619bef061022530dce95b3f4","condition":"contingent","relevant_dimensions":["antennae","wings"],"bee_group":{"antennae":"A","wings":"1","pattern":"X","legs":"X"},"action":"avoid","summary":"bad-avoid","bonus":1.260000000000001},{"rt":1523.800000011921,"stimulus":"\n                    <p><b>Action: <em>avoid</em></b></p>\n                    <p>This is the bee that you just saw.</p>\n                    <img src=\"bees-with-color/bee-B1SM.svg\" width=\"200\">\n                    <p><br>Your bonus pay is unchanged, and remains at $0.58.</p>\n            ","response":0,"trial_type":"html-button-response","trial_index":58,"time_elapsed":510372,"internal_node_id":"0.0-4.0-1.25","subject_id":"5f10d13957b4763f401690e5","study_id":"6197b3f67c2b5cd3b6d9596a","session_id":"619bef061022530dce95b3f4","condition":"contingent","relevant_dimensions":["antennae","wings"],"bee_group":{"antennae":"A","wings":"1","pattern":"X","legs":"X"},"bonus":1.260000000000001},{"rt":2115.5,"stimulus":"bees-with-color/bee-A1DF.svg","response":1,"trial_type":"image-button-response","trial_index":59,"time_elapsed":512492,"internal_node_id":"0.0-4.0-0.26","subject_id":"5f10d13957b4763f401690e5","study_id":"6197b3f67c2b5cd3b6d9596a","session_id":"619bef061022530dce95b3f4","condition":"contingent","relevant_dimensions":["antennae","wings"],"bee_group":{"antennae":"A","wings":"1","pattern":"X","legs":"X"},"action":"avoid","summary":"good-avoid","bonus":1.260000000000001},{"rt":1255.7999999523163,"stimulus":"\n                    <p><b>Action: <em>avoid</em></b></p>\n                    <p>This is the bee that you just saw.</p>\n                    <img src=\"bees-with-color/bee-A1DF.svg\" width=\"200\">\n                    <p><br>Your bonus pay is unchanged, and remains at $0.58.</p>\n            ","response":0,"trial_type":"html-button-response","trial_index":60,"time_elapsed":513752,"internal_node_id":"0.0-4.0-1.26","subject_id":"5f10d13957b4763f401690e5","study_id":"6197b3f67c2b5cd3b6d9596a","session_id":"619bef061022530dce95b3f4","condition":"contingent","relevant_dimensions":["antennae","wings"],"bee_group":{"antennae":"A","wings":"1","pattern":"X","legs":"X"},"bonus":1.260000000000001},{"rt":1748.2999999523163,"stimulus":"bees-with-color/bee-B1DM.svg","response":1,"trial_type":"image-button-response","trial_index":61,"time_elapsed":515506,"internal_node_id":"0.0-4.0-0.27","subject_id":"5f10d13957b4763f401690e5","study_id":"6197b3f67c2b5cd3b6d9596a","session_id":"619bef061022530dce95b3f4","condition":"contingent","relevant_dimensions":["antennae","wings"],"bee_group":{"antennae":"A","wings":"1","pattern":"X","legs":"X"},"action":"avoid","summary":"bad-avoid","bonus":1.260000000000001},{"rt":1228.199999988079,"stimulus":"\n                    <p><b>Action: <em>avoid</em></b></p>\n                    <p>This is the bee that you just saw.</p>\n                    <img src=\"bees-with-color/bee-B1DM.svg\" width=\"200\">\n                    <p><br>Your bonus pay is unchanged, and remains at $0.58.</p>\n            ","response":0,"trial_type":"html-button-response","trial_index":62,"time_elapsed":516738,"internal_node_id":"0.0-4.0-1.27","subject_id":"5f10d13957b4763f401690e5","study_id":"6197b3f67c2b5cd3b6d9596a","session_id":"619bef061022530dce95b3f4","condition":"contingent","relevant_dimensions":["antennae","wings"],"bee_group":{"antennae":"A","wings":"1","pattern":"X","legs":"X"},"bonus":1.260000000000001},{"rt":2965.899999976158,"stimulus":"bees-with-color/bee-B2DF.svg","response":0,"trial_type":"image-button-response","trial_index":63,"time_elapsed":519710,"internal_node_id":"0.0-4.0-0.28","subject_id":"5f10d13957b4763f401690e5","study_id":"6197b3f67c2b5cd3b6d9596a","session_id":"619bef061022530dce95b3f4","condition":"contingent","relevant_dimensions":["antennae","wings"],"bee_group":{"antennae":"A","wings":"1","pattern":"X","legs":"X"},"action":"harvest","summary":"good-harvest","bonus":1.260000000000001},{"rt":1900,"stimulus":"\n                    <p><b>Action: <em>harvest</em></b></p>\n                    <p>This is the bee that you just saw.</p>\n                    <img src=\"bees-with-color/bee-B2DF.svg\" width=\"200\">\n                    <p><span class=\"greenText\"><b>Successful harvest!</b></span><br>Your pay has increased by $0.02. Your bonus pay is now $0.60.</p>\n            ","response":0,"trial_type":"html-button-response","trial_index":64,"time_elapsed":521614,"internal_node_id":"0.0-4.0-1.28","subject_id":"5f10d13957b4763f401690e5","study_id":"6197b3f67c2b5cd3b6d9596a","session_id":"619bef061022530dce95b3f4","condition":"contingent","relevant_dimensions":["antennae","wings"],"bee_group":{"antennae":"A","wings":"1","pattern":"X","legs":"X"},"bonus":1.260000000000001},{"rt":4469.300000011921,"stimulus":"bees-with-color/bee-B2SM.svg","response":0,"trial_type":"image-button-response","trial_index":65,"time_elapsed":526088,"internal_node_id":"0.0-4.0-0.29","subject_id":"5f10d13957b4763f401690e5","study_id":"6197b3f67c2b5cd3b6d9596a","session_id":"619bef061022530dce95b3f4","condition":"contingent","relevant_dimensions":["antennae","wings"],"bee_group":{"antennae":"A","wings":"1","pattern":"X","legs":"X"},"action":"harvest","summary":"good-harvest","bonus":1.260000000000001},{"rt":1274.699999988079,"stimulus":"\n                    <p><b>Action: <em>harvest</em></b></p>\n                    <p>This is the bee that you just saw.</p>\n                    <img src=\"bees-with-color/bee-B2SM.svg\" width=\"200\">\n                    <p><span class=\"greenText\"><b>Successful harvest!</b></span><br>Your pay has increased by $0.02. Your bonus pay is now $0.62.</p>\n            ","response":0,"trial_type":"html-button-response","trial_index":66,"time_elapsed":527367,"internal_node_id":"0.0-4.0-1.29","subject_id":"5f10d13957b4763f401690e5","study_id":"6197b3f67c2b5cd3b6d9596a","session_id":"619bef061022530dce95b3f4","condition":"contingent","relevant_dimensions":["antennae","wings"],"bee_group":{"antennae":"A","wings":"1","pattern":"X","legs":"X"},"bonus":1.260000000000001},{"rt":1735.699999988079,"stimulus":"bees-with-color/bee-A1DM.svg","response":1,"trial_type":"image-button-response","trial_index":67,"time_elapsed":529108,"internal_node_id":"0.0-4.0-0.30","subject_id":"5f10d13957b4763f401690e5","study_id":"6197b3f67c2b5cd3b6d9596a","session_id":"619bef061022530dce95b3f4","condition":"contingent","relevant_dimensions":["antennae","wings"],"bee_group":{"antennae":"A","wings":"1","pattern":"X","legs":"X"},"action":"avoid","summary":"good-avoid","bonus":1.260000000000001},{"rt":2419.600000023842,"stimulus":"\n                    <p><b>Action: <em>avoid</em></b></p>\n                    <p>This is the bee that you just saw.</p>\n                    <img src=\"bees-with-color/bee-A1DM.svg\" width=\"200\">\n                    <p><br>Your bonus pay is unchanged, and remains at $0.62.</p>\n            ","response":0,"trial_type":"html-button-response","trial_index":68,"time_elapsed":531534,"internal_node_id":"0.0-4.0-1.30","subject_id":"5f10d13957b4763f401690e5","study_id":"6197b3f67c2b5cd3b6d9596a","session_id":"619bef061022530dce95b3f4","condition":"contingent","relevant_dimensions":["antennae","wings"],"bee_group":{"antennae":"A","wings":"1","pattern":"X","legs":"X"},"bonus":1.260000000000001},{"rt":1803.3999999761581,"stimulus":"bees-with-color/bee-B1SF.svg","response":1,"trial_type":"image-button-response","trial_index":69,"time_elapsed":533342,"internal_node_id":"0.0-4.0-0.31","subject_id":"5f10d13957b4763f401690e5","study_id":"6197b3f67c2b5cd3b6d9596a","session_id":"619bef061022530dce95b3f4","condition":"contingent","relevant_dimensions":["antennae","wings"],"bee_group":{"antennae":"A","wings":"1","pattern":"X","legs":"X"},"action":"avoid","summary":"bad-avoid","bonus":1.260000000000001},{"rt":1898.699999988079,"stimulus":"\n                    <p><b>Action: <em>avoid</em></b></p>\n                    <p>This is the bee that you just saw.</p>\n                    <img src=\"bees-with-color/bee-B1SF.svg\" width=\"200\">\n                    <p><br>Your bonus pay is unchanged, and remains at $0.62.</p>\n            ","response":0,"trial_type":"html-button-response","trial_index":70,"time_elapsed":535246,"internal_node_id":"0.0-4.0-1.31","subject_id":"5f10d13957b4763f401690e5","study_id":"6197b3f67c2b5cd3b6d9596a","session_id":"619bef061022530dce95b3f4","condition":"contingent","relevant_dimensions":["antennae","wings"],"bee_group":{"antennae":"A","wings":"1","pattern":"X","legs":"X"},"bonus":1.260000000000001},{"rt":2545.5,"stimulus":"bees-with-color/bee-A1SM.svg","response":1,"trial_type":"image-button-response","trial_index":71,"time_elapsed":537797,"internal_node_id":"0.0-4.0-0.32","subject_id":"5f10d13957b4763f401690e5","study_id":"6197b3f67c2b5cd3b6d9596a","session_id":"619bef061022530dce95b3f4","condition":"contingent","relevant_dimensions":["antennae","wings"],"bee_group":{"antennae":"A","wings":"1","pattern":"X","legs":"X"},"action":"avoid","summary":"good-avoid","bonus":1.260000000000001},{"rt":1283.3999999761581,"stimulus":"\n                    <p><b>Action: <em>avoid</em></b></p>\n                    <p>This is the bee that you just saw.</p>\n                    <img src=\"bees-with-color/bee-A1SM.svg\" width=\"200\">\n                    <p><br>Your bonus pay is unchanged, and remains at $0.62.</p>\n            ","response":0,"trial_type":"html-button-response","trial_index":72,"time_elapsed":539084,"internal_node_id":"0.0-4.0-1.32","subject_id":"5f10d13957b4763f401690e5","study_id":"6197b3f67c2b5cd3b6d9596a","session_id":"619bef061022530dce95b3f4","condition":"contingent","relevant_dimensions":["antennae","wings"],"bee_group":{"antennae":"A","wings":"1","pattern":"X","legs":"X"},"bonus":1.260000000000001},{"rt":2675.199999988079,"stimulus":"bees-with-color/bee-B2SM.svg","response":0,"trial_type":"image-button-response","trial_index":73,"time_elapsed":541764,"internal_node_id":"0.0-4.0-0.33","subject_id":"5f10d13957b4763f401690e5","study_id":"6197b3f67c2b5cd3b6d9596a","session_id":"619bef061022530dce95b3f4","condition":"contingent","relevant_dimensions":["antennae","wings"],"bee_group":{"antennae":"A","wings":"1","pattern":"X","legs":"X"},"action":"harvest","summary":"good-harvest","bonus":1.260000000000001},{"rt":1305.5,"stimulus":"\n                    <p><b>Action: <em>harvest</em></b></p>\n                    <p>This is the bee that you just saw.</p>\n                    <img src=\"bees-with-color/bee-B2SM.svg\" width=\"200\">\n                    <p><span class=\"greenText\"><b>Successful harvest!</b></span><br>Your pay has increased by $0.02. Your bonus pay is now $0.64.</p>\n            ","response":0,"trial_type":"html-button-response","trial_index":74,"time_elapsed":543076,"internal_node_id":"0.0-4.0-1.33","subject_id":"5f10d13957b4763f401690e5","study_id":"6197b3f67c2b5cd3b6d9596a","session_id":"619bef061022530dce95b3f4","condition":"contingent","relevant_dimensions":["antennae","wings"],"bee_group":{"antennae":"A","wings":"1","pattern":"X","legs":"X"},"bonus":1.260000000000001},{"rt":1411.0999999642372,"stimulus":"bees-with-color/bee-A1SF.svg","response":1,"trial_type":"image-button-response","trial_index":75,"time_elapsed":544486,"internal_node_id":"0.0-4.0-0.34","subject_id":"5f10d13957b4763f401690e5","study_id":"6197b3f67c2b5cd3b6d9596a","session_id":"619bef061022530dce95b3f4","condition":"contingent","relevant_dimensions":["antennae","wings"],"bee_group":{"antennae":"A","wings":"1","pattern":"X","legs":"X"},"action":"avoid","summary":"good-avoid","bonus":1.260000000000001},{"rt":2261.2999999523163,"stimulus":"\n                    <p><b>Action: <em>avoid</em></b></p>\n                    <p>This is the bee that you just saw.</p>\n                    <img src=\"bees-with-color/bee-A1SF.svg\" width=\"200\">\n                    <p><br>Your bonus pay is unchanged, and remains at $0.64.</p>\n            ","response":0,"trial_type":"html-button-response","trial_index":76,"time_elapsed":546751,"internal_node_id":"0.0-4.0-1.34","subject_id":"5f10d13957b4763f401690e5","study_id":"6197b3f67c2b5cd3b6d9596a","session_id":"619bef061022530dce95b3f4","condition":"contingent","relevant_dimensions":["antennae","wings"],"bee_group":{"antennae":"A","wings":"1","pattern":"X","legs":"X"},"bonus":1.260000000000001},{"rt":2939.399999976158,"stimulus":"bees-with-color/bee-B2DM.svg","response":0,"trial_type":"image-button-response","trial_index":77,"time_elapsed":549695,"internal_node_id":"0.0-4.0-0.35","subject_id":"5f10d13957b4763f401690e5","study_id":"6197b3f67c2b5cd3b6d9596a","session_id":"619bef061022530dce95b3f4","condition":"contingent","relevant_dimensions":["antennae","wings"],"bee_group":{"antennae":"A","wings":"1","pattern":"X","legs":"X"},"action":"harvest","summary":"good-harvest","bonus":1.260000000000001},{"rt":1231.199999988079,"stimulus":"\n                    <p><b>Action: <em>harvest</em></b></p>\n                    <p>This is the bee that you just saw.</p>\n                    <img src=\"bees-with-color/bee-B2DM.svg\" width=\"200\">\n                    <p><span class=\"greenText\"><b>Successful harvest!</b></span><br>Your pay has increased by $0.02. Your bonus pay is now $0.66.</p>\n            ","response":0,"trial_type":"html-button-response","trial_index":78,"time_elapsed":550933,"internal_node_id":"0.0-4.0-1.35","subject_id":"5f10d13957b4763f401690e5","study_id":"6197b3f67c2b5cd3b6d9596a","session_id":"619bef061022530dce95b3f4","condition":"contingent","relevant_dimensions":["antennae","wings"],"bee_group":{"antennae":"A","wings":"1","pattern":"X","legs":"X"},"bonus":1.260000000000001},{"rt":2742.600000023842,"stimulus":"bees-with-color/bee-A2DM.svg","response":0,"trial_type":"image-button-response","trial_index":79,"time_elapsed":553680,"internal_node_id":"0.0-4.0-0.36","subject_id":"5f10d13957b4763f401690e5","study_id":"6197b3f67c2b5cd3b6d9596a","session_id":"619bef061022530dce95b3f4","condition":"contingent","relevant_dimensions":["antennae","wings"],"bee_group":{"antennae":"A","wings":"1","pattern":"X","legs":"X"},"action":"harvest","summary":"good-harvest","bonus":1.260000000000001},{"rt":1157.2999999523163,"stimulus":"\n                    <p><b>Action: <em>harvest</em></b></p>\n                    <p>This is the bee that you just saw.</p>\n                    <img src=\"bees-with-color/bee-A2DM.svg\" width=\"200\">\n                    <p><span class=\"greenText\"><b>Successful harvest!</b></span><br>Your pay has increased by $0.02. Your bonus pay is now $0.68.</p>\n            ","response":0,"trial_type":"html-button-response","trial_index":80,"time_elapsed":554845,"internal_node_id":"0.0-4.0-1.36","subject_id":"5f10d13957b4763f401690e5","study_id":"6197b3f67c2b5cd3b6d9596a","session_id":"619bef061022530dce95b3f4","condition":"contingent","relevant_dimensions":["antennae","wings"],"bee_group":{"antennae":"A","wings":"1","pattern":"X","legs":"X"},"bonus":1.260000000000001},{"rt":1481.8999999761581,"stimulus":"bees-with-color/bee-B1SM.svg","response":1,"trial_type":"image-button-response","trial_index":81,"time_elapsed":556334,"internal_node_id":"0.0-4.0-0.37","subject_id":"5f10d13957b4763f401690e5","study_id":"6197b3f67c2b5cd3b6d9596a","session_id":"619bef061022530dce95b3f4","condition":"contingent","relevant_dimensions":["antennae","wings"],"bee_group":{"antennae":"A","wings":"1","pattern":"X","legs":"X"},"action":"avoid","summary":"bad-avoid","bonus":1.260000000000001},{"rt":1466.4000000357628,"stimulus":"\n                    <p><b>Action: <em>avoid</em></b></p>\n                    <p>This is the bee that you just saw.</p>\n                    <img src=\"bees-with-color/bee-B1SM.svg\" width=\"200\">\n                    <p><br>Your bonus pay is unchanged, and remains at $0.68.</p>\n            ","response":0,"trial_type":"html-button-response","trial_index":82,"time_elapsed":557805,"internal_node_id":"0.0-4.0-1.37","subject_id":"5f10d13957b4763f401690e5","study_id":"6197b3f67c2b5cd3b6d9596a","session_id":"619bef061022530dce95b3f4","condition":"contingent","relevant_dimensions":["antennae","wings"],"bee_group":{"antennae":"A","wings":"1","pattern":"X","legs":"X"},"bonus":1.260000000000001},{"rt":1497,"stimulus":"bees-with-color/bee-A2DF.svg","response":0,"trial_type":"image-button-response","trial_index":83,"time_elapsed":559305,"internal_node_id":"0.0-4.0-0.38","subject_id":"5f10d13957b4763f401690e5","study_id":"6197b3f67c2b5cd3b6d9596a","session_id":"619bef061022530dce95b3f4","condition":"contingent","relevant_dimensions":["antennae","wings"],"bee_group":{"antennae":"A","wings":"1","pattern":"X","legs":"X"},"action":"harvest","summary":"good-harvest","bonus":1.260000000000001},{"rt":3838.699999988079,"stimulus":"\n                    <p><b>Action: <em>harvest</em></b></p>\n                    <p>This is the bee that you just saw.</p>\n                    <img src=\"bees-with-color/bee-A2DF.svg\" width=\"200\">\n                    <p><span class=\"greenText\"><b>Successful harvest!</b></span><br>Your pay has increased by $0.02. Your bonus pay is now $0.70.</p>\n            ","response":0,"trial_type":"html-button-response","trial_index":84,"time_elapsed":563148,"internal_node_id":"0.0-4.0-1.38","subject_id":"5f10d13957b4763f401690e5","study_id":"6197b3f67c2b5cd3b6d9596a","session_id":"619bef061022530dce95b3f4","condition":"contingent","relevant_dimensions":["antennae","wings"],"bee_group":{"antennae":"A","wings":"1","pattern":"X","legs":"X"},"bonus":1.260000000000001},{"rt":5826.299999952316,"stimulus":"bees-with-color/bee-A2SM.svg","response":0,"trial_type":"image-button-response","trial_index":85,"time_elapsed":568979,"internal_node_id":"0.0-4.0-0.39","subject_id":"5f10d13957b4763f401690e5","study_id":"6197b3f67c2b5cd3b6d9596a","session_id":"619bef061022530dce95b3f4","condition":"contingent","relevant_dimensions":["antennae","wings"],"bee_group":{"antennae":"A","wings":"1","pattern":"X","legs":"X"},"action":"harvest","summary":"good-harvest","bonus":1.260000000000001},{"rt":1042.2999999523163,"stimulus":"\n                    <p><b>Action: <em>harvest</em></b></p>\n                    <p>This is the bee that you just saw.</p>\n                    <img src=\"bees-with-color/bee-A2SM.svg\" width=\"200\">\n                    <p><span class=\"greenText\"><b>Successful harvest!</b></span><br>Your pay has increased by $0.02. Your bonus pay is now $0.72.</p>\n            ","response":0,"trial_type":"html-button-response","trial_index":86,"time_elapsed":570025,"internal_node_id":"0.0-4.0-1.39","subject_id":"5f10d13957b4763f401690e5","study_id":"6197b3f67c2b5cd3b6d9596a","session_id":"619bef061022530dce95b3f4","condition":"contingent","relevant_dimensions":["antennae","wings"],"bee_group":{"antennae":"A","wings":"1","pattern":"X","legs":"X"},"bonus":1.260000000000001},{"rt":2303.2999999523163,"stimulus":"bees-with-color/bee-B1DM.svg","response":1,"trial_type":"image-button-response","trial_index":87,"time_elapsed":572333,"internal_node_id":"0.0-4.0-0.40","subject_id":"5f10d13957b4763f401690e5","study_id":"6197b3f67c2b5cd3b6d9596a","session_id":"619bef061022530dce95b3f4","condition":"contingent","relevant_dimensions":["antennae","wings"],"bee_group":{"antennae":"A","wings":"1","pattern":"X","legs":"X"},"action":"avoid","summary":"bad-avoid","bonus":1.260000000000001},{"rt":1692,"stimulus":"\n                    <p><b>Action: <em>avoid</em></b></p>\n                    <p>This is the bee that you just saw.</p>\n                    <img src=\"bees-with-color/bee-B1DM.svg\" width=\"200\">\n                    <p><br>Your bonus pay is unchanged, and remains at $0.72.</p>\n            ","response":0,"trial_type":"html-button-response","trial_index":88,"time_elapsed":574029,"internal_node_id":"0.0-4.0-1.40","subject_id":"5f10d13957b4763f401690e5","study_id":"6197b3f67c2b5cd3b6d9596a","session_id":"619bef061022530dce95b3f4","condition":"contingent","relevant_dimensions":["antennae","wings"],"bee_group":{"antennae":"A","wings":"1","pattern":"X","legs":"X"},"bonus":1.260000000000001},{"rt":1511.199999988079,"stimulus":"bees-with-color/bee-B1SF.svg","response":1,"trial_type":"image-button-response","trial_index":89,"time_elapsed":575546,"internal_node_id":"0.0-4.0-0.41","subject_id":"5f10d13957b4763f401690e5","study_id":"6197b3f67c2b5cd3b6d9596a","session_id":"619bef061022530dce95b3f4","condition":"contingent","relevant_dimensions":["antennae","wings"],"bee_group":{"antennae":"A","wings":"1","pattern":"X","legs":"X"},"action":"avoid","summary":"bad-avoid","bonus":1.260000000000001},{"rt":1155.8999999761581,"stimulus":"\n                    <p><b>Action: <em>avoid</em></b></p>\n                    <p>This is the bee that you just saw.</p>\n                    <img src=\"bees-with-color/bee-B1SF.svg\" width=\"200\">\n                    <p><br>Your bonus pay is unchanged, and remains at $0.72.</p>\n            ","response":0,"trial_type":"html-button-response","trial_index":90,"time_elapsed":576705,"internal_node_id":"0.0-4.0-1.41","subject_id":"5f10d13957b4763f401690e5","study_id":"6197b3f67c2b5cd3b6d9596a","session_id":"619bef061022530dce95b3f4","condition":"contingent","relevant_dimensions":["antennae","wings"],"bee_group":{"antennae":"A","wings":"1","pattern":"X","legs":"X"},"bonus":1.260000000000001},{"rt":1894.5,"stimulus":"bees-with-color/bee-B2SF.svg","response":0,"trial_type":"image-button-response","trial_index":91,"time_elapsed":578606,"internal_node_id":"0.0-4.0-0.42","subject_id":"5f10d13957b4763f401690e5","study_id":"6197b3f67c2b5cd3b6d9596a","session_id":"619bef061022530dce95b3f4","condition":"contingent","relevant_dimensions":["antennae","wings"],"bee_group":{"antennae":"A","wings":"1","pattern":"X","legs":"X"},"action":"harvest","summary":"good-harvest","bonus":1.260000000000001},{"rt":1214.5999999642372,"stimulus":"\n                    <p><b>Action: <em>harvest</em></b></p>\n                    <p>This is the bee that you just saw.</p>\n                    <img src=\"bees-with-color/bee-B2SF.svg\" width=\"200\">\n                    <p><span class=\"greenText\"><b>Successful harvest!</b></span><br>Your pay has increased by $0.02. Your bonus pay is now $0.74.</p>\n            ","response":0,"trial_type":"html-button-response","trial_index":92,"time_elapsed":579823,"internal_node_id":"0.0-4.0-1.42","subject_id":"5f10d13957b4763f401690e5","study_id":"6197b3f67c2b5cd3b6d9596a","session_id":"619bef061022530dce95b3f4","condition":"contingent","relevant_dimensions":["antennae","wings"],"bee_group":{"antennae":"A","wings":"1","pattern":"X","legs":"X"},"bonus":1.260000000000001},{"rt":1687.699999988079,"stimulus":"bees-with-color/bee-A2SF.svg","response":0,"trial_type":"image-button-response","trial_index":93,"time_elapsed":581516,"internal_node_id":"0.0-4.0-0.43","subject_id":"5f10d13957b4763f401690e5","study_id":"6197b3f67c2b5cd3b6d9596a","session_id":"619bef061022530dce95b3f4","condition":"contingent","relevant_dimensions":["antennae","wings"],"bee_group":{"antennae":"A","wings":"1","pattern":"X","legs":"X"},"action":"harvest","summary":"good-harvest","bonus":1.260000000000001},{"rt":956,"stimulus":"\n                    <p><b>Action: <em>harvest</em></b></p>\n                    <p>This is the bee that you just saw.</p>\n                    <img src=\"bees-with-color/bee-A2SF.svg\" width=\"200\">\n                    <p><span class=\"greenText\"><b>Successful harvest!</b></span><br>Your pay has increased by $0.02. Your bonus pay is now $0.76.</p>\n            ","response":0,"trial_type":"html-button-response","trial_index":94,"time_elapsed":582476,"internal_node_id":"0.0-4.0-1.43","subject_id":"5f10d13957b4763f401690e5","study_id":"6197b3f67c2b5cd3b6d9596a","session_id":"619bef061022530dce95b3f4","condition":"contingent","relevant_dimensions":["antennae","wings"],"bee_group":{"antennae":"A","wings":"1","pattern":"X","legs":"X"},"bonus":1.260000000000001},{"rt":1566.300000011921,"stimulus":"bees-with-color/bee-A1DF.svg","response":1,"trial_type":"image-button-response","trial_index":95,"time_elapsed":584048,"internal_node_id":"0.0-4.0-0.44","subject_id":"5f10d13957b4763f401690e5","study_id":"6197b3f67c2b5cd3b6d9596a","session_id":"619bef061022530dce95b3f4","condition":"contingent","relevant_dimensions":["antennae","wings"],"bee_group":{"antennae":"A","wings":"1","pattern":"X","legs":"X"},"action":"avoid","summary":"good-avoid","bonus":1.260000000000001},{"rt":1505.3999999761581,"stimulus":"\n                    <p><b>Action: <em>avoid</em></b></p>\n                    <p>This is the bee that you just saw.</p>\n                    <img src=\"bees-with-color/bee-A1DF.svg\" width=\"200\">\n                    <p><br>Your bonus pay is unchanged, and remains at $0.76.</p>\n            ","response":0,"trial_type":"html-button-response","trial_index":96,"time_elapsed":585558,"internal_node_id":"0.0-4.0-1.44","subject_id":"5f10d13957b4763f401690e5","study_id":"6197b3f67c2b5cd3b6d9596a","session_id":"619bef061022530dce95b3f4","condition":"contingent","relevant_dimensions":["antennae","wings"],"bee_group":{"antennae":"A","wings":"1","pattern":"X","legs":"X"},"bonus":1.260000000000001},{"rt":1491,"stimulus":"bees-with-color/bee-A1DM.svg","response":1,"trial_type":"image-button-response","trial_index":97,"time_elapsed":587054,"internal_node_id":"0.0-4.0-0.45","subject_id":"5f10d13957b4763f401690e5","study_id":"6197b3f67c2b5cd3b6d9596a","session_id":"619bef061022530dce95b3f4","condition":"contingent","relevant_dimensions":["antennae","wings"],"bee_group":{"antennae":"A","wings":"1","pattern":"X","legs":"X"},"action":"avoid","summary":"good-avoid","bonus":1.260000000000001},{"rt":1131.0999999642372,"stimulus":"\n                    <p><b>Action: <em>avoid</em></b></p>\n                    <p>This is the bee that you just saw.</p>\n                    <img src=\"bees-with-color/bee-A1DM.svg\" width=\"200\">\n                    <p><br>Your bonus pay is unchanged, and remains at $0.76.</p>\n            ","response":0,"trial_type":"html-button-response","trial_index":98,"time_elapsed":588190,"internal_node_id":"0.0-4.0-1.45","subject_id":"5f10d13957b4763f401690e5","study_id":"6197b3f67c2b5cd3b6d9596a","session_id":"619bef061022530dce95b3f4","condition":"contingent","relevant_dimensions":["antennae","wings"],"bee_group":{"antennae":"A","wings":"1","pattern":"X","legs":"X"},"bonus":1.260000000000001},{"rt":1988.3999999761581,"stimulus":"bees-with-color/bee-B2DF.svg","response":0,"trial_type":"image-button-response","trial_index":99,"time_elapsed":590183,"internal_node_id":"0.0-4.0-0.46","subject_id":"5f10d13957b4763f401690e5","study_id":"6197b3f67c2b5cd3b6d9596a","session_id":"619bef061022530dce95b3f4","condition":"contingent","relevant_dimensions":["antennae","wings"],"bee_group":{"antennae":"A","wings":"1","pattern":"X","legs":"X"},"action":"harvest","summary":"good-harvest","bonus":1.260000000000001},{"rt":1321.5999999642372,"stimulus":"\n                    <p><b>Action: <em>harvest</em></b></p>\n                    <p>This is the bee that you just saw.</p>\n                    <img src=\"bees-with-color/bee-B2DF.svg\" width=\"200\">\n                    <p><span class=\"greenText\"><b>Successful harvest!</b></span><br>Your pay has increased by $0.02. Your bonus pay is now $0.78.</p>\n            ","response":0,"trial_type":"html-button-response","trial_index":100,"time_elapsed":591510,"internal_node_id":"0.0-4.0-1.46","subject_id":"5f10d13957b4763f401690e5","study_id":"6197b3f67c2b5cd3b6d9596a","session_id":"619bef061022530dce95b3f4","condition":"contingent","relevant_dimensions":["antennae","wings"],"bee_group":{"antennae":"A","wings":"1","pattern":"X","legs":"X"},"bonus":1.260000000000001},{"rt":1473.5999999642372,"stimulus":"bees-with-color/bee-B1DF.svg","response":1,"trial_type":"image-button-response","trial_index":101,"time_elapsed":592988,"internal_node_id":"0.0-4.0-0.47","subject_id":"5f10d13957b4763f401690e5","study_id":"6197b3f67c2b5cd3b6d9596a","session_id":"619bef061022530dce95b3f4","condition":"contingent","relevant_dimensions":["antennae","wings"],"bee_group":{"antennae":"A","wings":"1","pattern":"X","legs":"X"},"action":"avoid","summary":"bad-avoid","bonus":1.260000000000001},{"rt":1291.699999988079,"stimulus":"\n                    <p><b>Action: <em>avoid</em></b></p>\n                    <p>This is the bee that you just saw.</p>\n                    <img src=\"bees-with-color/bee-B1DF.svg\" width=\"200\">\n                    <p><br>Your bonus pay is unchanged, and remains at $0.78.</p>\n            ","response":0,"trial_type":"html-button-response","trial_index":102,"time_elapsed":594284,"internal_node_id":"0.0-4.0-1.47","subject_id":"5f10d13957b4763f401690e5","study_id":"6197b3f67c2b5cd3b6d9596a","session_id":"619bef061022530dce95b3f4","condition":"contingent","relevant_dimensions":["antennae","wings"],"bee_group":{"antennae":"A","wings":"1","pattern":"X","legs":"X"},"bonus":1.260000000000001},{"rt":2179.5,"stimulus":"bees-with-color/bee-A1DM.svg","response":1,"trial_type":"image-button-response","trial_index":103,"time_elapsed":596469,"internal_node_id":"0.0-4.0-0.48","subject_id":"5f10d13957b4763f401690e5","study_id":"6197b3f67c2b5cd3b6d9596a","session_id":"619bef061022530dce95b3f4","condition":"contingent","relevant_dimensions":["antennae","wings"],"bee_group":{"antennae":"A","wings":"1","pattern":"X","legs":"X"},"action":"avoid","summary":"good-avoid","bonus":1.260000000000001},{"rt":1029.9000000357628,"stimulus":"\n                    <p><b>Action: <em>avoid</em></b></p>\n                    <p>This is the bee that you just saw.</p>\n                    <img src=\"bees-with-color/bee-A1DM.svg\" width=\"200\">\n                    <p><br>Your bonus pay is unchanged, and remains at $0.78.</p>\n            ","response":0,"trial_type":"html-button-response","trial_index":104,"time_elapsed":597503,"internal_node_id":"0.0-4.0-1.48","subject_id":"5f10d13957b4763f401690e5","study_id":"6197b3f67c2b5cd3b6d9596a","session_id":"619bef061022530dce95b3f4","condition":"contingent","relevant_dimensions":["antennae","wings"],"bee_group":{"antennae":"A","wings":"1","pattern":"X","legs":"X"},"bonus":1.260000000000001},{"rt":1487.7999999523163,"stimulus":"bees-with-color/bee-B1DF.svg","response":1,"trial_type":"image-button-response","trial_index":105,"time_elapsed":598995,"internal_node_id":"0.0-4.0-0.49","subject_id":"5f10d13957b4763f401690e5","study_id":"6197b3f67c2b5cd3b6d9596a","session_id":"619bef061022530dce95b3f4","condition":"contingent","relevant_dimensions":["antennae","wings"],"bee_group":{"antennae":"A","wings":"1","pattern":"X","legs":"X"},"action":"avoid","summary":"bad-avoid","bonus":1.260000000000001},{"rt":1196.5,"stimulus":"\n                    <p><b>Action: <em>avoid</em></b></p>\n                    <p>This is the bee that you just saw.</p>\n                    <img src=\"bees-with-color/bee-B1DF.svg\" width=\"200\">\n                    <p><br>Your bonus pay is unchanged, and remains at $0.78.</p>\n            ","response":0,"trial_type":"html-button-response","trial_index":106,"time_elapsed":600195,"internal_node_id":"0.0-4.0-1.49","subject_id":"5f10d13957b4763f401690e5","study_id":"6197b3f67c2b5cd3b6d9596a","session_id":"619bef061022530dce95b3f4","condition":"contingent","relevant_dimensions":["antennae","wings"],"bee_group":{"antennae":"A","wings":"1","pattern":"X","legs":"X"},"bonus":1.260000000000001},{"rt":3786.099999964237,"stimulus":"bees-with-color/bee-B2DM.svg","response":0,"trial_type":"image-button-response","trial_index":107,"time_elapsed":603991,"internal_node_id":"0.0-4.0-0.50","subject_id":"5f10d13957b4763f401690e5","study_id":"6197b3f67c2b5cd3b6d9596a","session_id":"619bef061022530dce95b3f4","condition":"contingent","relevant_dimensions":["antennae","wings"],"bee_group":{"antennae":"A","wings":"1","pattern":"X","legs":"X"},"action":"harvest","summary":"good-harvest","bonus":1.260000000000001},{"rt":1288.300000011921,"stimulus":"\n                    <p><b>Action: <em>harvest</em></b></p>\n                    <p>This is the bee that you just saw.</p>\n                    <img src=\"bees-with-color/bee-B2DM.svg\" width=\"200\">\n                    <p><span class=\"greenText\"><b>Successful harvest!</b></span><br>Your pay has increased by $0.02. Your bonus pay is now $0.80.</p>\n            ","response":0,"trial_type":"html-button-response","trial_index":108,"time_elapsed":605284,"internal_node_id":"0.0-4.0-1.50","subject_id":"5f10d13957b4763f401690e5","study_id":"6197b3f67c2b5cd3b6d9596a","session_id":"619bef061022530dce95b3f4","condition":"contingent","relevant_dimensions":["antennae","wings"],"bee_group":{"antennae":"A","wings":"1","pattern":"X","legs":"X"},"bonus":1.260000000000001},{"rt":1908.5,"stimulus":"bees-with-color/bee-B1SM.svg","response":1,"trial_type":"image-button-response","trial_index":109,"time_elapsed":607197,"internal_node_id":"0.0-4.0-0.51","subject_id":"5f10d13957b4763f401690e5","study_id":"6197b3f67c2b5cd3b6d9596a","session_id":"619bef061022530dce95b3f4","condition":"contingent","relevant_dimensions":["antennae","wings"],"bee_group":{"antennae":"A","wings":"1","pattern":"X","legs":"X"},"action":"avoid","summary":"bad-avoid","bonus":1.260000000000001},{"rt":1246.6000000238419,"stimulus":"\n                    <p><b>Action: <em>avoid</em></b></p>\n                    <p>This is the bee that you just saw.</p>\n                    <img src=\"bees-with-color/bee-B1SM.svg\" width=\"200\">\n                    <p><br>Your bonus pay is unchanged, and remains at $0.80.</p>\n            ","response":0,"trial_type":"html-button-response","trial_index":110,"time_elapsed":608448,"internal_node_id":"0.0-4.0-1.51","subject_id":"5f10d13957b4763f401690e5","study_id":"6197b3f67c2b5cd3b6d9596a","session_id":"619bef061022530dce95b3f4","condition":"contingent","relevant_dimensions":["antennae","wings"],"bee_group":{"antennae":"A","wings":"1","pattern":"X","legs":"X"},"bonus":1.260000000000001},{"rt":1585.6000000238419,"stimulus":"bees-with-color/bee-B1DM.svg","response":1,"trial_type":"image-button-response","trial_index":111,"time_elapsed":610037,"internal_node_id":"0.0-4.0-0.52","subject_id":"5f10d13957b4763f401690e5","study_id":"6197b3f67c2b5cd3b6d9596a","session_id":"619bef061022530dce95b3f4","condition":"contingent","relevant_dimensions":["antennae","wings"],"bee_group":{"antennae":"A","wings":"1","pattern":"X","legs":"X"},"action":"avoid","summary":"bad-avoid","bonus":1.260000000000001},{"rt":748.5,"stimulus":"\n                    <p><b>Action: <em>avoid</em></b></p>\n                    <p>This is the bee that you just saw.</p>\n                    <img src=\"bees-with-color/bee-B1DM.svg\" width=\"200\">\n                    <p><br>Your bonus pay is unchanged, and remains at $0.80.</p>\n            ","response":0,"trial_type":"html-button-response","trial_index":112,"time_elapsed":610790,"internal_node_id":"0.0-4.0-1.52","subject_id":"5f10d13957b4763f401690e5","study_id":"6197b3f67c2b5cd3b6d9596a","session_id":"619bef061022530dce95b3f4","condition":"contingent","relevant_dimensions":["antennae","wings"],"bee_group":{"antennae":"A","wings":"1","pattern":"X","legs":"X"},"bonus":1.260000000000001},{"rt":1679.8999999761581,"stimulus":"bees-with-color/bee-A1DF.svg","response":1,"trial_type":"image-button-response","trial_index":113,"time_elapsed":612474,"internal_node_id":"0.0-4.0-0.53","subject_id":"5f10d13957b4763f401690e5","study_id":"6197b3f67c2b5cd3b6d9596a","session_id":"619bef061022530dce95b3f4","condition":"contingent","relevant_dimensions":["antennae","wings"],"bee_group":{"antennae":"A","wings":"1","pattern":"X","legs":"X"},"action":"avoid","summary":"good-avoid","bonus":1.260000000000001},{"rt":1040.300000011921,"stimulus":"\n                    <p><b>Action: <em>avoid</em></b></p>\n                    <p>This is the bee that you just saw.</p>\n                    <img src=\"bees-with-color/bee-A1DF.svg\" width=\"200\">\n                    <p><br>Your bonus pay is unchanged, and remains at $0.80.</p>\n            ","response":0,"trial_type":"html-button-response","trial_index":114,"time_elapsed":613518,"internal_node_id":"0.0-4.0-1.53","subject_id":"5f10d13957b4763f401690e5","study_id":"6197b3f67c2b5cd3b6d9596a","session_id":"619bef061022530dce95b3f4","condition":"contingent","relevant_dimensions":["antennae","wings"],"bee_group":{"antennae":"A","wings":"1","pattern":"X","legs":"X"},"bonus":1.260000000000001},{"rt":1688,"stimulus":"bees-with-color/bee-B2SM.svg","response":0,"trial_type":"image-button-response","trial_index":115,"time_elapsed":615210,"internal_node_id":"0.0-4.0-0.54","subject_id":"5f10d13957b4763f401690e5","study_id":"6197b3f67c2b5cd3b6d9596a","session_id":"619bef061022530dce95b3f4","condition":"contingent","relevant_dimensions":["antennae","wings"],"bee_group":{"antennae":"A","wings":"1","pattern":"X","legs":"X"},"action":"harvest","summary":"good-harvest","bonus":1.260000000000001},{"rt":920.5999999642372,"stimulus":"\n                    <p><b>Action: <em>harvest</em></b></p>\n                    <p>This is the bee that you just saw.</p>\n                    <img src=\"bees-with-color/bee-B2SM.svg\" width=\"200\">\n                    <p><span class=\"greenText\"><b>Successful harvest!</b></span><br>Your pay has increased by $0.02. Your bonus pay is now $0.82.</p>\n            ","response":0,"trial_type":"html-button-response","trial_index":116,"time_elapsed":616135,"internal_node_id":"0.0-4.0-1.54","subject_id":"5f10d13957b4763f401690e5","study_id":"6197b3f67c2b5cd3b6d9596a","session_id":"619bef061022530dce95b3f4","condition":"contingent","relevant_dimensions":["antennae","wings"],"bee_group":{"antennae":"A","wings":"1","pattern":"X","legs":"X"},"bonus":1.260000000000001},{"rt":1624.7999999523163,"stimulus":"bees-with-color/bee-B2DF.svg","response":0,"trial_type":"image-button-response","trial_index":117,"time_elapsed":617764,"internal_node_id":"0.0-4.0-0.55","subject_id":"5f10d13957b4763f401690e5","study_id":"6197b3f67c2b5cd3b6d9596a","session_id":"619bef061022530dce95b3f4","condition":"contingent","relevant_dimensions":["antennae","wings"],"bee_group":{"antennae":"A","wings":"1","pattern":"X","legs":"X"},"action":"harvest","summary":"good-harvest","bonus":1.260000000000001},{"rt":1039.1000000238419,"stimulus":"\n                    <p><b>Action: <em>harvest</em></b></p>\n                    <p>This is the bee that you just saw.</p>\n                    <img src=\"bees-with-color/bee-B2DF.svg\" width=\"200\">\n                    <p><span class=\"greenText\"><b>Successful harvest!</b></span><br>Your pay has increased by $0.02. Your bonus pay is now $0.84.</p>\n            ","response":0,"trial_type":"html-button-response","trial_index":118,"time_elapsed":618808,"internal_node_id":"0.0-4.0-1.55","subject_id":"5f10d13957b4763f401690e5","study_id":"6197b3f67c2b5cd3b6d9596a","session_id":"619bef061022530dce95b3f4","condition":"contingent","relevant_dimensions":["antennae","wings"],"bee_group":{"antennae":"A","wings":"1","pattern":"X","legs":"X"},"bonus":1.260000000000001},{"rt":1587.800000011921,"stimulus":"bees-with-color/bee-B2SF.svg","response":0,"trial_type":"image-button-response","trial_index":119,"time_elapsed":620400,"internal_node_id":"0.0-4.0-0.56","subject_id":"5f10d13957b4763f401690e5","study_id":"6197b3f67c2b5cd3b6d9596a","session_id":"619bef061022530dce95b3f4","condition":"contingent","relevant_dimensions":["antennae","wings"],"bee_group":{"antennae":"A","wings":"1","pattern":"X","legs":"X"},"action":"harvest","summary":"good-harvest","bonus":1.260000000000001},{"rt":1166,"stimulus":"\n                    <p><b>Action: <em>harvest</em></b></p>\n                    <p>This is the bee that you just saw.</p>\n                    <img src=\"bees-with-color/bee-B2SF.svg\" width=\"200\">\n                    <p><span class=\"greenText\"><b>Successful harvest!</b></span><br>Your pay has increased by $0.02. Your bonus pay is now $0.86.</p>\n            ","response":0,"trial_type":"html-button-response","trial_index":120,"time_elapsed":621572,"internal_node_id":"0.0-4.0-1.56","subject_id":"5f10d13957b4763f401690e5","study_id":"6197b3f67c2b5cd3b6d9596a","session_id":"619bef061022530dce95b3f4","condition":"contingent","relevant_dimensions":["antennae","wings"],"bee_group":{"antennae":"A","wings":"1","pattern":"X","legs":"X"},"bonus":1.260000000000001},{"rt":1508.800000011921,"stimulus":"bees-with-color/bee-A1SM.svg","response":1,"trial_type":"image-button-response","trial_index":121,"time_elapsed":623084,"internal_node_id":"0.0-4.0-0.57","subject_id":"5f10d13957b4763f401690e5","study_id":"6197b3f67c2b5cd3b6d9596a","session_id":"619bef061022530dce95b3f4","condition":"contingent","relevant_dimensions":["antennae","wings"],"bee_group":{"antennae":"A","wings":"1","pattern":"X","legs":"X"},"action":"avoid","summary":"good-avoid","bonus":1.260000000000001},{"rt":1089.699999988079,"stimulus":"\n                    <p><b>Action: <em>avoid</em></b></p>\n                    <p>This is the bee that you just saw.</p>\n                    <img src=\"bees-with-color/bee-A1SM.svg\" width=\"200\">\n                    <p><br>Your bonus pay is unchanged, and remains at $0.86.</p>\n            ","response":0,"trial_type":"html-button-response","trial_index":122,"time_elapsed":624180,"internal_node_id":"0.0-4.0-1.57","subject_id":"5f10d13957b4763f401690e5","study_id":"6197b3f67c2b5cd3b6d9596a","session_id":"619bef061022530dce95b3f4","condition":"contingent","relevant_dimensions":["antennae","wings"],"bee_group":{"antennae":"A","wings":"1","pattern":"X","legs":"X"},"bonus":1.260000000000001},{"rt":2542.199999988079,"stimulus":"bees-with-color/bee-B1SF.svg","response":1,"trial_type":"image-button-response","trial_index":123,"time_elapsed":626726,"internal_node_id":"0.0-4.0-0.58","subject_id":"5f10d13957b4763f401690e5","study_id":"6197b3f67c2b5cd3b6d9596a","session_id":"619bef061022530dce95b3f4","condition":"contingent","relevant_dimensions":["antennae","wings"],"bee_group":{"antennae":"A","wings":"1","pattern":"X","legs":"X"},"action":"avoid","summary":"bad-avoid","bonus":1.260000000000001},{"rt":1376.2999999523163,"stimulus":"\n                    <p><b>Action: <em>avoid</em></b></p>\n                    <p>This is the bee that you just saw.</p>\n                    <img src=\"bees-with-color/bee-B1SF.svg\" width=\"200\">\n                    <p><br>Your bonus pay is unchanged, and remains at $0.86.</p>\n            ","response":0,"trial_type":"html-button-response","trial_index":124,"time_elapsed":628107,"internal_node_id":"0.0-4.0-1.58","subject_id":"5f10d13957b4763f401690e5","study_id":"6197b3f67c2b5cd3b6d9596a","session_id":"619bef061022530dce95b3f4","condition":"contingent","relevant_dimensions":["antennae","wings"],"bee_group":{"antennae":"A","wings":"1","pattern":"X","legs":"X"},"bonus":1.260000000000001},{"rt":1245.6000000238419,"stimulus":"bees-with-color/bee-A2SF.svg","response":0,"trial_type":"image-button-response","trial_index":125,"time_elapsed":629358,"internal_node_id":"0.0-4.0-0.59","subject_id":"5f10d13957b4763f401690e5","study_id":"6197b3f67c2b5cd3b6d9596a","session_id":"619bef061022530dce95b3f4","condition":"contingent","relevant_dimensions":["antennae","wings"],"bee_group":{"antennae":"A","wings":"1","pattern":"X","legs":"X"},"action":"harvest","summary":"good-harvest","bonus":1.260000000000001},{"rt":1075.8999999761581,"stimulus":"\n                    <p><b>Action: <em>harvest</em></b></p>\n                    <p>This is the bee that you just saw.</p>\n                    <img src=\"bees-with-color/bee-A2SF.svg\" width=\"200\">\n                    <p><span class=\"greenText\"><b>Successful harvest!</b></span><br>Your pay has increased by $0.02. Your bonus pay is now $0.88.</p>\n            ","response":0,"trial_type":"html-button-response","trial_index":126,"time_elapsed":630438,"internal_node_id":"0.0-4.0-1.59","subject_id":"5f10d13957b4763f401690e5","study_id":"6197b3f67c2b5cd3b6d9596a","session_id":"619bef061022530dce95b3f4","condition":"contingent","relevant_dimensions":["antennae","wings"],"bee_group":{"antennae":"A","wings":"1","pattern":"X","legs":"X"},"bonus":1.260000000000001},{"rt":1330.699999988079,"stimulus":"bees-with-color/bee-A2DM.svg","response":0,"trial_type":"image-button-response","trial_index":127,"time_elapsed":631775,"internal_node_id":"0.0-4.0-0.60","subject_id":"5f10d13957b4763f401690e5","study_id":"6197b3f67c2b5cd3b6d9596a","session_id":"619bef061022530dce95b3f4","condition":"contingent","relevant_dimensions":["antennae","wings"],"bee_group":{"antennae":"A","wings":"1","pattern":"X","legs":"X"},"action":"harvest","summary":"good-harvest","bonus":1.260000000000001},{"rt":1132.300000011921,"stimulus":"\n                    <p><b>Action: <em>harvest</em></b></p>\n                    <p>This is the bee that you just saw.</p>\n                    <img src=\"bees-with-color/bee-A2DM.svg\" width=\"200\">\n                    <p><span class=\"greenText\"><b>Successful harvest!</b></span><br>Your pay has increased by $0.02. Your bonus pay is now $0.90.</p>\n            ","response":0,"trial_type":"html-button-response","trial_index":128,"time_elapsed":632912,"internal_node_id":"0.0-4.0-1.60","subject_id":"5f10d13957b4763f401690e5","study_id":"6197b3f67c2b5cd3b6d9596a","session_id":"619bef061022530dce95b3f4","condition":"contingent","relevant_dimensions":["antennae","wings"],"bee_group":{"antennae":"A","wings":"1","pattern":"X","legs":"X"},"bonus":1.260000000000001},{"rt":1223.3999999761581,"stimulus":"bees-with-color/bee-A1SF.svg","response":1,"trial_type":"image-button-response","trial_index":129,"time_elapsed":634140,"internal_node_id":"0.0-4.0-0.61","subject_id":"5f10d13957b4763f401690e5","study_id":"6197b3f67c2b5cd3b6d9596a","session_id":"619bef061022530dce95b3f4","condition":"contingent","relevant_dimensions":["antennae","wings"],"bee_group":{"antennae":"A","wings":"1","pattern":"X","legs":"X"},"action":"avoid","summary":"good-avoid","bonus":1.260000000000001},{"rt":1226.0999999642372,"stimulus":"\n                    <p><b>Action: <em>avoid</em></b></p>\n                    <p>This is the bee that you just saw.</p>\n                    <img src=\"bees-with-color/bee-A1SF.svg\" width=\"200\">\n                    <p><br>Your bonus pay is unchanged, and remains at $0.90.</p>\n            ","response":0,"trial_type":"html-button-response","trial_index":130,"time_elapsed":635372,"internal_node_id":"0.0-4.0-1.61","subject_id":"5f10d13957b4763f401690e5","study_id":"6197b3f67c2b5cd3b6d9596a","session_id":"619bef061022530dce95b3f4","condition":"contingent","relevant_dimensions":["antennae","wings"],"bee_group":{"antennae":"A","wings":"1","pattern":"X","legs":"X"},"bonus":1.260000000000001},{"rt":2354.899999976158,"stimulus":"bees-with-color/bee-A2SM.svg","response":0,"trial_type":"image-button-response","trial_index":131,"time_elapsed":637732,"internal_node_id":"0.0-4.0-0.62","subject_id":"5f10d13957b4763f401690e5","study_id":"6197b3f67c2b5cd3b6d9596a","session_id":"619bef061022530dce95b3f4","condition":"contingent","relevant_dimensions":["antennae","wings"],"bee_group":{"antennae":"A","wings":"1","pattern":"X","legs":"X"},"action":"harvest","summary":"good-harvest","bonus":1.260000000000001},{"rt":1267.699999988079,"stimulus":"\n                    <p><b>Action: <em>harvest</em></b></p>\n                    <p>This is the bee that you just saw.</p>\n                    <img src=\"bees-with-color/bee-A2SM.svg\" width=\"200\">\n                    <p><span class=\"greenText\"><b>Successful harvest!</b></span><br>Your pay has increased by $0.02. Your bonus pay is now $0.92.</p>\n            ","response":0,"trial_type":"html-button-response","trial_index":132,"time_elapsed":639004,"internal_node_id":"0.0-4.0-1.62","subject_id":"5f10d13957b4763f401690e5","study_id":"6197b3f67c2b5cd3b6d9596a","session_id":"619bef061022530dce95b3f4","condition":"contingent","relevant_dimensions":["antennae","wings"],"bee_group":{"antennae":"A","wings":"1","pattern":"X","legs":"X"},"bonus":1.260000000000001},{"rt":3725.199999988079,"stimulus":"bees-with-color/bee-A2DF.svg","response":0,"trial_type":"image-button-response","trial_index":133,"time_elapsed":642734,"internal_node_id":"0.0-4.0-0.63","subject_id":"5f10d13957b4763f401690e5","study_id":"6197b3f67c2b5cd3b6d9596a","session_id":"619bef061022530dce95b3f4","condition":"contingent","relevant_dimensions":["antennae","wings"],"bee_group":{"antennae":"A","wings":"1","pattern":"X","legs":"X"},"action":"harvest","summary":"good-harvest","bonus":1.260000000000001},{"rt":1346.699999988079,"stimulus":"\n                    <p><b>Action: <em>harvest</em></b></p>\n                    <p>This is the bee that you just saw.</p>\n                    <img src=\"bees-with-color/bee-A2DF.svg\" width=\"200\">\n                    <p><span class=\"greenText\"><b>Successful harvest!</b></span><br>Your pay has increased by $0.02. Your bonus pay is now $0.94.</p>\n            ","response":0,"trial_type":"html-button-response","trial_index":134,"time_elapsed":644086,"internal_node_id":"0.0-4.0-1.63","subject_id":"5f10d13957b4763f401690e5","study_id":"6197b3f67c2b5cd3b6d9596a","session_id":"619bef061022530dce95b3f4","condition":"contingent","relevant_dimensions":["antennae","wings"],"bee_group":{"antennae":"A","wings":"1","pattern":"X","legs":"X"},"bonus":1.260000000000001},{"rt":10730.300000011921,"stimulus":"You have completed the first part of this experiment.<br><br>You will now begin a shorter second part, in which you will receive no feedback.<br>The same rules regarding bonus pay apply.<br><br>Press any key to begin.","response":"s","trial_type":"html-keyboard-response","trial_index":135,"time_elapsed":654821,"internal_node_id":"0.0-5.0","subject_id":"5f10d13957b4763f401690e5","study_id":"6197b3f67c2b5cd3b6d9596a","session_id":"619bef061022530dce95b3f4","condition":"contingent","relevant_dimensions":["antennae","wings"],"bee_group":{"antennae":"A","wings":"1","pattern":"X","legs":"X"},"bonus":1.260000000000001},{"rt":5070.599999964237,"stimulus":"bees-with-color/bee-A2SM.svg","response":0,"trial_type":"image-button-response","trial_index":136,"time_elapsed":659922,"internal_node_id":"0.0-6.0-0.0","subject_id":"5f10d13957b4763f401690e5","study_id":"6197b3f67c2b5cd3b6d9596a","session_id":"619bef061022530dce95b3f4","condition":"contingent","relevant_dimensions":["antennae","wings"],"bee_group":{"antennae":"A","wings":"1","pattern":"X","legs":"X"},"bonus":1.260000000000001},{"rt":2185.5,"stimulus":"bees-with-color/bee-B1DM.svg","response":1,"trial_type":"image-button-response","trial_index":137,"time_elapsed":662114,"internal_node_id":"0.0-6.0-0.1","subject_id":"5f10d13957b4763f401690e5","study_id":"6197b3f67c2b5cd3b6d9596a","session_id":"619bef061022530dce95b3f4","condition":"contingent","relevant_dimensions":["antennae","wings"],"bee_group":{"antennae":"A","wings":"1","pattern":"X","legs":"X"},"bonus":1.260000000000001},{"rt":1480.5,"stimulus":"bees-with-color/bee-B2DM.svg","response":0,"trial_type":"image-button-response","trial_index":138,"time_elapsed":663600,"internal_node_id":"0.0-6.0-0.2","subject_id":"5f10d13957b4763f401690e5","study_id":"6197b3f67c2b5cd3b6d9596a","session_id":"619bef061022530dce95b3f4","condition":"contingent","relevant_dimensions":["antennae","wings"],"bee_group":{"antennae":"A","wings":"1","pattern":"X","legs":"X"},"bonus":1.260000000000001},{"rt":7947.5,"stimulus":"bees-with-color/bee-A2DM.svg","response":0,"trial_type":"image-button-response","trial_index":139,"time_elapsed":671552,"internal_node_id":"0.0-6.0-0.3","subject_id":"5f10d13957b4763f401690e5","study_id":"6197b3f67c2b5cd3b6d9596a","session_id":"619bef061022530dce95b3f4","condition":"contingent","relevant_dimensions":["antennae","wings"],"bee_group":{"antennae":"A","wings":"1","pattern":"X","legs":"X"},"bonus":1.260000000000001},{"rt":1396.300000011921,"stimulus":"bees-with-color/bee-B1SM.svg","response":1,"trial_type":"image-button-response","trial_index":140,"time_elapsed":672957,"internal_node_id":"0.0-6.0-0.4","subject_id":"5f10d13957b4763f401690e5","study_id":"6197b3f67c2b5cd3b6d9596a","session_id":"619bef061022530dce95b3f4","condition":"contingent","relevant_dimensions":["antennae","wings"],"bee_group":{"antennae":"A","wings":"1","pattern":"X","legs":"X"},"bonus":1.260000000000001},{"rt":2004.699999988079,"stimulus":"bees-with-color/bee-A1SM.svg","response":1,"trial_type":"image-button-response","trial_index":141,"time_elapsed":674968,"internal_node_id":"0.0-6.0-0.5","subject_id":"5f10d13957b4763f401690e5","study_id":"6197b3f67c2b5cd3b6d9596a","session_id":"619bef061022530dce95b3f4","condition":"contingent","relevant_dimensions":["antennae","wings"],"bee_group":{"antennae":"A","wings":"1","pattern":"X","legs":"X"},"bonus":1.260000000000001},{"rt":2047.3999999761581,"stimulus":"bees-with-color/bee-A2DF.svg","response":0,"trial_type":"image-button-response","trial_index":142,"time_elapsed":677022,"internal_node_id":"0.0-6.0-0.6","subject_id":"5f10d13957b4763f401690e5","study_id":"6197b3f67c2b5cd3b6d9596a","session_id":"619bef061022530dce95b3f4","condition":"contingent","relevant_dimensions":["antennae","wings"],"bee_group":{"antennae":"A","wings":"1","pattern":"X","legs":"X"},"bonus":1.260000000000001},{"rt":1310.3999999761581,"stimulus":"bees-with-color/bee-A1SF.svg","response":1,"trial_type":"image-button-response","trial_index":143,"time_elapsed":678340,"internal_node_id":"0.0-6.0-0.7","subject_id":"5f10d13957b4763f401690e5","study_id":"6197b3f67c2b5cd3b6d9596a","session_id":"619bef061022530dce95b3f4","condition":"contingent","relevant_dimensions":["antennae","wings"],"bee_group":{"antennae":"A","wings":"1","pattern":"X","legs":"X"},"bonus":1.260000000000001},{"rt":1510.7000000476837,"stimulus":"bees-with-color/bee-B1DF.svg","response":1,"trial_type":"image-button-response","trial_index":144,"time_elapsed":679858,"internal_node_id":"0.0-6.0-0.8","subject_id":"5f10d13957b4763f401690e5","study_id":"6197b3f67c2b5cd3b6d9596a","session_id":"619bef061022530dce95b3f4","condition":"contingent","relevant_dimensions":["antennae","wings"],"bee_group":{"antennae":"A","wings":"1","pattern":"X","legs":"X"},"bonus":1.260000000000001},{"rt":1591.4000000357628,"stimulus":"bees-with-color/bee-B1SF.svg","response":1,"trial_type":"image-button-response","trial_index":145,"time_elapsed":681458,"internal_node_id":"0.0-6.0-0.9","subject_id":"5f10d13957b4763f401690e5","study_id":"6197b3f67c2b5cd3b6d9596a","session_id":"619bef061022530dce95b3f4","condition":"contingent","relevant_dimensions":["antennae","wings"],"bee_group":{"antennae":"A","wings":"1","pattern":"X","legs":"X"},"bonus":1.260000000000001},{"rt":1289,"stimulus":"bees-with-color/bee-B2SF.svg","response":0,"trial_type":"image-button-response","trial_index":146,"time_elapsed":682754,"internal_node_id":"0.0-6.0-0.10","subject_id":"5f10d13957b4763f401690e5","study_id":"6197b3f67c2b5cd3b6d9596a","session_id":"619bef061022530dce95b3f4","condition":"contingent","relevant_dimensions":["antennae","wings"],"bee_group":{"antennae":"A","wings":"1","pattern":"X","legs":"X"},"bonus":1.260000000000001},{"rt":2414.5,"stimulus":"bees-with-color/bee-B2SM.svg","response":0,"trial_type":"image-button-response","trial_index":147,"time_elapsed":685174,"internal_node_id":"0.0-6.0-0.11","subject_id":"5f10d13957b4763f401690e5","study_id":"6197b3f67c2b5cd3b6d9596a","session_id":"619bef061022530dce95b3f4","condition":"contingent","relevant_dimensions":["antennae","wings"],"bee_group":{"antennae":"A","wings":"1","pattern":"X","legs":"X"},"bonus":1.260000000000001},{"rt":2187.600000023842,"stimulus":"bees-with-color/bee-B2DF.svg","response":0,"trial_type":"image-button-response","trial_index":148,"time_elapsed":687368,"internal_node_id":"0.0-6.0-0.12","subject_id":"5f10d13957b4763f401690e5","study_id":"6197b3f67c2b5cd3b6d9596a","session_id":"619bef061022530dce95b3f4","condition":"contingent","relevant_dimensions":["antennae","wings"],"bee_group":{"antennae":"A","wings":"1","pattern":"X","legs":"X"},"bonus":1.260000000000001},{"rt":1746.800000011921,"stimulus":"bees-with-color/bee-A1DM.svg","response":1,"trial_type":"image-button-response","trial_index":149,"time_elapsed":689120,"internal_node_id":"0.0-6.0-0.13","subject_id":"5f10d13957b4763f401690e5","study_id":"6197b3f67c2b5cd3b6d9596a","session_id":"619bef061022530dce95b3f4","condition":"contingent","relevant_dimensions":["antennae","wings"],"bee_group":{"antennae":"A","wings":"1","pattern":"X","legs":"X"},"bonus":1.260000000000001},{"rt":1858.5,"stimulus":"bees-with-color/bee-A2SF.svg","response":0,"trial_type":"image-button-response","trial_index":150,"time_elapsed":690984,"internal_node_id":"0.0-6.0-0.14","subject_id":"5f10d13957b4763f401690e5","study_id":"6197b3f67c2b5cd3b6d9596a","session_id":"619bef061022530dce95b3f4","condition":"contingent","relevant_dimensions":["antennae","wings"],"bee_group":{"antennae":"A","wings":"1","pattern":"X","legs":"X"},"bonus":1.260000000000001},{"rt":1270.7999999523163,"stimulus":"bees-with-color/bee-A1DF.svg","response":1,"trial_type":"image-button-response","trial_index":151,"time_elapsed":692260,"internal_node_id":"0.0-6.0-0.15","subject_id":"5f10d13957b4763f401690e5","study_id":"6197b3f67c2b5cd3b6d9596a","session_id":"619bef061022530dce95b3f4","condition":"contingent","relevant_dimensions":["antennae","wings"],"bee_group":{"antennae":"A","wings":"1","pattern":"X","legs":"X"},"bonus":1.260000000000001},{"rt":1091.8999999761581,"stimulus":"bees-with-color/bee-A1SF.svg","response":1,"trial_type":"image-button-response","trial_index":152,"time_elapsed":693356,"internal_node_id":"0.0-6.0-0.16","subject_id":"5f10d13957b4763f401690e5","study_id":"6197b3f67c2b5cd3b6d9596a","session_id":"619bef061022530dce95b3f4","condition":"contingent","relevant_dimensions":["antennae","wings"],"bee_group":{"antennae":"A","wings":"1","pattern":"X","legs":"X"},"bonus":1.260000000000001},{"rt":2133.900000035763,"stimulus":"bees-with-color/bee-B1SF.svg","response":1,"trial_type":"image-button-response","trial_index":153,"time_elapsed":695494,"internal_node_id":"0.0-6.0-0.17","subject_id":"5f10d13957b4763f401690e5","study_id":"6197b3f67c2b5cd3b6d9596a","session_id":"619bef061022530dce95b3f4","condition":"contingent","relevant_dimensions":["antennae","wings"],"bee_group":{"antennae":"A","wings":"1","pattern":"X","legs":"X"},"bonus":1.260000000000001},{"rt":1220,"stimulus":"bees-with-color/bee-A1SM.svg","response":1,"trial_type":"image-button-response","trial_index":154,"time_elapsed":696719,"internal_node_id":"0.0-6.0-0.18","subject_id":"5f10d13957b4763f401690e5","study_id":"6197b3f67c2b5cd3b6d9596a","session_id":"619bef061022530dce95b3f4","condition":"contingent","relevant_dimensions":["antennae","wings"],"bee_group":{"antennae":"A","wings":"1","pattern":"X","legs":"X"},"bonus":1.260000000000001},{"rt":1370.1000000238419,"stimulus":"bees-with-color/bee-B2DM.svg","response":0,"trial_type":"image-button-response","trial_index":155,"time_elapsed":698094,"internal_node_id":"0.0-6.0-0.19","subject_id":"5f10d13957b4763f401690e5","study_id":"6197b3f67c2b5cd3b6d9596a","session_id":"619bef061022530dce95b3f4","condition":"contingent","relevant_dimensions":["antennae","wings"],"bee_group":{"antennae":"A","wings":"1","pattern":"X","legs":"X"},"bonus":1.260000000000001},{"rt":1751.800000011921,"stimulus":"bees-with-color/bee-A2DF.svg","response":0,"trial_type":"image-button-response","trial_index":156,"time_elapsed":699850,"internal_node_id":"0.0-6.0-0.20","subject_id":"5f10d13957b4763f401690e5","study_id":"6197b3f67c2b5cd3b6d9596a","session_id":"619bef061022530dce95b3f4","condition":"contingent","relevant_dimensions":["antennae","wings"],"bee_group":{"antennae":"A","wings":"1","pattern":"X","legs":"X"},"bonus":1.260000000000001},{"rt":2424,"stimulus":"bees-with-color/bee-B1DF.svg","response":1,"trial_type":"image-button-response","trial_index":157,"time_elapsed":702280,"internal_node_id":"0.0-6.0-0.21","subject_id":"5f10d13957b4763f401690e5","study_id":"6197b3f67c2b5cd3b6d9596a","session_id":"619bef061022530dce95b3f4","condition":"contingent","relevant_dimensions":["antennae","wings"],"bee_group":{"antennae":"A","wings":"1","pattern":"X","legs":"X"},"bonus":1.260000000000001},{"rt":1511.5,"stimulus":"bees-with-color/bee-B2SM.svg","response":0,"trial_type":"image-button-response","trial_index":158,"time_elapsed":703796,"internal_node_id":"0.0-6.0-0.22","subject_id":"5f10d13957b4763f401690e5","study_id":"6197b3f67c2b5cd3b6d9596a","session_id":"619bef061022530dce95b3f4","condition":"contingent","relevant_dimensions":["antennae","wings"],"bee_group":{"antennae":"A","wings":"1","pattern":"X","legs":"X"},"bonus":1.260000000000001},{"rt":779.6999999880791,"stimulus":"bees-with-color/bee-A2SM.svg","response":0,"trial_type":"image-button-response","trial_index":159,"time_elapsed":704580,"internal_node_id":"0.0-6.0-0.23","subject_id":"5f10d13957b4763f401690e5","study_id":"6197b3f67c2b5cd3b6d9596a","session_id":"619bef061022530dce95b3f4","condition":"contingent","relevant_dimensions":["antennae","wings"],"bee_group":{"antennae":"A","wings":"1","pattern":"X","legs":"X"},"bonus":1.260000000000001},{"rt":1151.800000011921,"stimulus":"bees-with-color/bee-B1SM.svg","response":1,"trial_type":"image-button-response","trial_index":160,"time_elapsed":705736,"internal_node_id":"0.0-6.0-0.24","subject_id":"5f10d13957b4763f401690e5","study_id":"6197b3f67c2b5cd3b6d9596a","session_id":"619bef061022530dce95b3f4","condition":"contingent","relevant_dimensions":["antennae","wings"],"bee_group":{"antennae":"A","wings":"1","pattern":"X","legs":"X"},"bonus":1.260000000000001},{"rt":1781.6000000238419,"stimulus":"bees-with-color/bee-B2DF.svg","response":0,"trial_type":"image-button-response","trial_index":161,"time_elapsed":707525,"internal_node_id":"0.0-6.0-0.25","subject_id":"5f10d13957b4763f401690e5","study_id":"6197b3f67c2b5cd3b6d9596a","session_id":"619bef061022530dce95b3f4","condition":"contingent","relevant_dimensions":["antennae","wings"],"bee_group":{"antennae":"A","wings":"1","pattern":"X","legs":"X"},"bonus":1.260000000000001},{"rt":1258.199999988079,"stimulus":"bees-with-color/bee-B1DM.svg","response":1,"trial_type":"image-button-response","trial_index":162,"time_elapsed":708788,"internal_node_id":"0.0-6.0-0.26","subject_id":"5f10d13957b4763f401690e5","study_id":"6197b3f67c2b5cd3b6d9596a","session_id":"619bef061022530dce95b3f4","condition":"contingent","relevant_dimensions":["antennae","wings"],"bee_group":{"antennae":"A","wings":"1","pattern":"X","legs":"X"},"bonus":1.260000000000001},{"rt":861.5999999642372,"stimulus":"bees-with-color/bee-A1DF.svg","response":1,"trial_type":"image-button-response","trial_index":163,"time_elapsed":709656,"internal_node_id":"0.0-6.0-0.27","subject_id":"5f10d13957b4763f401690e5","study_id":"6197b3f67c2b5cd3b6d9596a","session_id":"619bef061022530dce95b3f4","condition":"contingent","relevant_dimensions":["antennae","wings"],"bee_group":{"antennae":"A","wings":"1","pattern":"X","legs":"X"},"bonus":1.260000000000001},{"rt":1200.1000000238419,"stimulus":"bees-with-color/bee-A2DM.svg","response":0,"trial_type":"image-button-response","trial_index":164,"time_elapsed":710862,"internal_node_id":"0.0-6.0-0.28","subject_id":"5f10d13957b4763f401690e5","study_id":"6197b3f67c2b5cd3b6d9596a","session_id":"619bef061022530dce95b3f4","condition":"contingent","relevant_dimensi