[{"success":true,"trial_type":"fullscreen","trial_index":0,"time_elapsed":7887,"internal_node_id":"0.0-0.0","subject_id":"5f75cfbb3e500727c8c97631","study_id":"6197b3f67c2b5cd3b6d9596a","session_id":"619beeeb4e90ffe53368771b","condition":"contingent","relevant_dimensions":["antennae","wings"],"bee_group":{"antennae":"B","wings":"2","pattern":"X","legs":"X"},"bonus":0.02},{"success":true,"timeout":false,"failed_images":[],"failed_audio":[],"failed_video":[],"trial_type":"preload","trial_index":1,"time_elapsed":10465,"internal_node_id":"0.0-1.0","subject_id":"5f75cfbb3e500727c8c97631","study_id":"6197b3f67c2b5cd3b6d9596a","session_id":"619beeeb4e90ffe53368771b","condition":"contingent","relevant_dimensions":["antennae","wings"],"bee_group":{"antennae":"B","wings":"2","pattern":"X","legs":"X"},"bonus":0.02},{"rt":6021.100000023842,"stimulus":"Welcome! Press any key to begin.","response":" ","trial_type":"html-keyboard-response","trial_index":2,"time_elapsed":16488,"internal_node_id":"0.0-2.0","subject_id":"5f75cfbb3e500727c8c97631","study_id":"6197b3f67c2b5cd3b6d9596a","session_id":"619beeeb4e90ffe53368771b","condition":"contingent","relevant_dimensions":["antennae","wings"],"bee_group":{"antennae":"B","wings":"2","pattern":"X","legs":"X"},"bonus":0.02},{"view_history":[{"page_index":0,"viewing_time":3780.9000000953674},{"page_index":1,"viewing_time":17569.299999952316},{"page_index":2,"viewing_time":29464.399999976158},{"page_index":3,"viewing_time":26335.100000023842},{"page_index":4,"viewing_time":7370.100000023842},{"page_index":5,"viewing_time":15109.699999928474},{"page_index":6,"viewing_time":22289.900000095367},{"page_index":7,"viewing_time":15478.799999952316},{"page_index":8,"viewing_time":5094.399999976158},{"page_index":9,"viewing_time":5299.700000047684},{"page_index":10,"viewing_time":3593.7999999523163},{"page_index":11,"viewing_time":14080.899999976158},{"page_index":12,"viewing_time":7637.700000047684},{"page_index":13,"viewing_time":2215},{"page_index":14,"viewing_time":2885.2000000476837}],"rt":178205.40000009537,"trial_type":"instructions","trial_index":3,"time_elapsed":194694,"internal_node_id":"0.0-3.0-0.0","subject_id":"5f75cfbb3e500727c8c97631","study_id":"6197b3f67c2b5cd3b6d9596a","session_id":"619beeeb4e90ffe53368771b","condition":"contingent","relevant_dimensions":["antennae","wings"],"bee_group":{"antennae":"B","wings":"2","pattern":"X","legs":"X"},"bonus":0.02},{"rt":13734.899999976158,"response":{"Q0":["Two or six legs","Stripes or spots on body","Single or double wings","Antennae or no antennae"]},"question_order":[0],"trial_type":"survey-multi-select","trial_index":4,"time_elapsed":208438,"internal_node_id":"0.0-3.0-1.0","subject_id":"5f75cfbb3e500727c8c97631","study_id":"6197b3f67c2b5cd3b6d9596a","session_id":"619beeeb4e90ffe53368771b","condition":"contingent","relevant_dimensions":["antennae","wings"],"bee_group":{"antennae":"B","wings":"2","pattern":"X","legs":"X"},"correct":true,"bonus":0.02},{"rt":28003.899999976158,"response":{"Q1":"No.","Q2":"Based on the four features of the bee.","Q3":"You do not learn if it was friendly or dangerous, and do not alter your bonus."},"question_order":[0,1,2],"trial_type":"survey-multi-choice","trial_index":5,"time_elapsed":236463,"internal_node_id":"0.0-3.0-2.0","subject_id":"5f75cfbb3e500727c8c97631","study_id":"6197b3f67c2b5cd3b6d9596a","session_id":"619beeeb4e90ffe53368771b","condition":"contingent","relevant_dimensions":["antennae","wings"],"bee_group":{"antennae":"B","wings":"2","pattern":"X","legs":"X"},"correct":true,"bonus":0.02},{"rt":2347.7999999523163,"stimulus":"<p>Congrats, you got everything right<br>When you're ready, click the button below to continue to the experiment.</p>","response":0,"trial_type":"html-button-response","trial_index":6,"time_elapsed":238830,"internal_node_id":"0.0-3.0-3.0","subject_id":"5f75cfbb3e500727c8c97631","study_id":"6197b3f67c2b5cd3b6d9596a","session_id":"619beeeb4e90ffe53368771b","condition":"contingent","relevant_dimensions":["antennae","wings"],"bee_group":{"antennae":"B","wings":"2","pattern":"X","legs":"X"},"bonus":0.02},{"rt":9190.899999976158,"stimulus":"bees-with-color/bee-A1DF.svg","response":0,"trial_type":"image-button-response","trial_index":7,"time_elapsed":248035,"internal_node_id":"0.0-4.0-0.0","subject_id":"5f75cfbb3e500727c8c97631","study_id":"6197b3f67c2b5cd3b6d9596a","session_id":"619beeeb4e90ffe53368771b","condition":"contingent","relevant_dimensions":["antennae","wings"],"bee_group":{"antennae":"B","wings":"2","pattern":"X","legs":"X"},"action":"harvest","summary":"good-harvest","bonus":0.02},{"rt":5419,"stimulus":"\n                    <p><b>Action: <em>harvest</em></b></p>\n                    <p>This is the bee that you just saw.</p>\n                    <img src=\"bees-with-color/bee-A1DF.svg\" width=\"200\">\n                    <p><span class=\"greenText\"><b>Successful harvest!</b></span><br>Your pay has increased by $0.02. Your bonus pay is now $0.56.</p>\n            ","response":0,"trial_type":"html-button-response","trial_index":8,"time_elapsed":253464,"internal_node_id":"0.0-4.0-1.0","subject_id":"5f75cfbb3e500727c8c97631","study_id":"6197b3f67c2b5cd3b6d9596a","session_id":"619beeeb4e90ffe53368771b","condition":"contingent","relevant_dimensions":["antennae","wings"],"bee_group":{"antennae":"B","wings":"2","pattern":"X","legs":"X"},"bonus":0.02},{"rt":3917.4000000953674,"stimulus":"bees-with-color/bee-A2SM.svg","response":1,"trial_type":"image-button-response","trial_index":9,"time_elapsed":257386,"internal_node_id":"0.0-4.0-0.1","subject_id":"5f75cfbb3e500727c8c97631","study_id":"6197b3f67c2b5cd3b6d9596a","session_id":"619beeeb4e90ffe53368771b","condition":"contingent","relevant_dimensions":["antennae","wings"],"bee_group":{"antennae":"B","wings":"2","pattern":"X","legs":"X"},"action":"avoid","summary":"bad-avoid","bonus":0.02},{"rt":4161.5,"stimulus":"\n                    <p><b>Action: <em>avoid</em></b></p>\n                    <p>This is the bee that you just saw.</p>\n                    <img src=\"bees-with-color/bee-A2SM.svg\" width=\"200\">\n                    <p><br>Your bonus pay is unchanged, and remains at $0.56.</p>\n            ","response":0,"trial_type":"html-button-response","trial_index":10,"time_elapsed":261555,"internal_node_id":"0.0-4.0-1.1","subject_id":"5f75cfbb3e500727c8c97631","study_id":"6197b3f67c2b5cd3b6d9596a","session_id":"619beeeb4e90ffe53368771b","condition":"contingent","relevant_dimensions":["antennae","wings"],"bee_group":{"antennae":"B","wings":"2","pattern":"X","legs":"X"},"bonus":0.02},{"rt":1590.0999999046326,"stimulus":"bees-with-color/bee-A2DF.svg","response":0,"trial_type":"image-button-response","trial_index":11,"time_elapsed":263152,"internal_node_id":"0.0-4.0-0.2","subject_id":"5f75cfbb3e500727c8c97631","study_id":"6197b3f67c2b5cd3b6d9596a","session_id":"619beeeb4e90ffe53368771b","condition":"contingent","relevant_dimensions":["antennae","wings"],"bee_group":{"antennae":"B","wings":"2","pattern":"X","legs":"X"},"action":"harvest","summary":"good-harvest","bonus":0.02},{"rt":2984.8000000715256,"stimulus":"\n                    <p><b>Action: <em>harvest</em></b></p>\n                    <p>This is the bee that you just saw.</p>\n                    <img src=\"bees-with-color/bee-A2DF.svg\" width=\"200\">\n                    <p><span class=\"greenText\"><b>Successful harvest!</b></span><br>Your pay has increased by $0.02. Your bonus pay is now $0.58.</p>\n            ","response":0,"trial_type":"html-button-response","trial_index":12,"time_elapsed":266142,"internal_node_id":"0.0-4.0-1.2","subject_id":"5f75cfbb3e500727c8c97631","study_id":"6197b3f67c2b5cd3b6d9596a","session_id":"619beeeb4e90ffe53368771b","condition":"contingent","relevant_dimensions":["antennae","wings"],"bee_group":{"antennae":"B","wings":"2","pattern":"X","legs":"X"},"bonus":0.02},{"rt":2045.5,"stimulus":"bees-with-color/bee-B1SM.svg","response":1,"trial_type":"image-button-response","trial_index":13,"time_elapsed":268193,"internal_node_id":"0.0-4.0-0.3","subject_id":"5f75cfbb3e500727c8c97631","study_id":"6197b3f67c2b5cd3b6d9596a","session_id":"619beeeb4e90ffe53368771b","condition":"contingent","relevant_dimensions":["antennae","wings"],"bee_group":{"antennae":"B","wings":"2","pattern":"X","legs":"X"},"action":"avoid","summary":"bad-avoid","bonus":0.02},{"rt":1611.3000000715256,"stimulus":"\n                    <p><b>Action: <em>avoid</em></b></p>\n                    <p>This is the bee that you just saw.</p>\n                    <img src=\"bees-with-color/bee-B1SM.svg\" width=\"200\">\n                    <p><br>Your bonus pay is unchanged, and remains at $0.58.</p>\n            ","response":0,"trial_type":"html-button-response","trial_index":14,"time_elapsed":269809,"internal_node_id":"0.0-4.0-1.3","subject_id":"5f75cfbb3e500727c8c97631","study_id":"6197b3f67c2b5cd3b6d9596a","session_id":"619beeeb4e90ffe53368771b","condition":"contingent","relevant_dimensions":["antennae","wings"],"bee_group":{"antennae":"B","wings":"2","pattern":"X","legs":"X"},"bonus":0.02},{"rt":1513.3999999761581,"stimulus":"bees-with-color/bee-B2SM.svg","response":0,"trial_type":"image-button-response","trial_index":15,"time_elapsed":271329,"internal_node_id":"0.0-4.0-0.4","subject_id":"5f75cfbb3e500727c8c97631","study_id":"6197b3f67c2b5cd3b6d9596a","session_id":"619beeeb4e90ffe53368771b","condition":"contingent","relevant_dimensions":["antennae","wings"],"bee_group":{"antennae":"B","wings":"2","pattern":"X","legs":"X"},"action":"harvest","summary":"bad-harvest","bonus":0.02},{"rt":2673.2000000476837,"stimulus":"\n                    <p><b>Action: <em>harvest</em></b></p>\n                    <p>This is the bee that you just saw.</p>\n                    <img src=\"bees-with-color/bee-B2SM.svg\" width=\"200\">\n                    <p><span class=\"redText\">Bad choice, the bee was angry.</span><br><b>You have been stung!</b><br>Your pay has been decreased by $0.10. Your bonus pay is now $0.48.</p>\n            ","response":0,"trial_type":"html-button-response","trial_index":16,"time_elapsed":274009,"internal_node_id":"0.0-4.0-1.4","subject_id":"5f75cfbb3e500727c8c97631","study_id":"6197b3f67c2b5cd3b6d9596a","session_id":"619beeeb4e90ffe53368771b","condition":"contingent","relevant_dimensions":["antennae","wings"],"bee_group":{"antennae":"B","wings":"2","pattern":"X","legs":"X"},"bonus":0.02},{"rt":1512.1000000238419,"stimulus":"bees-with-color/bee-B1DM.svg","response":0,"trial_type":"image-button-response","trial_index":17,"time_elapsed":275527,"internal_node_id":"0.0-4.0-0.5","subject_id":"5f75cfbb3e500727c8c97631","study_id":"6197b3f67c2b5cd3b6d9596a","session_id":"619beeeb4e90ffe53368771b","condition":"contingent","relevant_dimensions":["antennae","wings"],"bee_group":{"antennae":"B","wings":"2","pattern":"X","legs":"X"},"action":"harvest","summary":"good-harvest","bonus":0.02},{"rt":1249.2000000476837,"stimulus":"\n                    <p><b>Action: <em>harvest</em></b></p>\n                    <p>This is the bee that you just saw.</p>\n                    <img src=\"bees-with-color/bee-B1DM.svg\" width=\"200\">\n                    <p><span class=\"greenText\"><b>Successful harvest!</b></span><br>Your pay has increased by $0.02. Your bonus pay is now $0.50.</p>\n            ","response":0,"trial_type":"html-button-response","trial_index":18,"time_elapsed":276781,"internal_node_id":"0.0-4.0-1.5","subject_id":"5f75cfbb3e500727c8c97631","study_id":"6197b3f67c2b5cd3b6d9596a","session_id":"619beeeb4e90ffe53368771b","condition":"contingent","relevant_dimensions":["antennae","wings"],"bee_group":{"antennae":"B","wings":"2","pattern":"X","legs":"X"},"bonus":0.02},{"rt":1431.2999999523163,"stimulus":"bees-with-color/bee-B2DM.svg","response":0,"trial_type":"image-button-response","trial_index":19,"time_elapsed":278219,"internal_node_id":"0.0-4.0-0.6","subject_id":"5f75cfbb3e500727c8c97631","study_id":"6197b3f67c2b5cd3b6d9596a","session_id":"619beeeb4e90ffe53368771b","condition":"contingent","relevant_dimensions":["antennae","wings"],"bee_group":{"antennae":"B","wings":"2","pattern":"X","legs":"X"},"action":"harvest","summary":"bad-harvest","bonus":0.02},{"rt":2474.1999999284744,"stimulus":"\n                    <p><b>Action: <em>harvest</em></b></p>\n                    <p>This is the bee that you just saw.</p>\n                    <img src=\"bees-with-color/bee-B2DM.svg\" width=\"200\">\n                    <p><span class=\"redText\">Bad choice, the bee was angry.</span><br><b>You have been stung!</b><br>Your pay has been decreased by $0.10. Your bonus pay is now $0.40.</p>\n            ","response":0,"trial_type":"html-button-response","trial_index":20,"time_elapsed":280699,"internal_node_id":"0.0-4.0-1.6","subject_id":"5f75cfbb3e500727c8c97631","study_id":"6197b3f67c2b5cd3b6d9596a","session_id":"619beeeb4e90ffe53368771b","condition":"contingent","relevant_dimensions":["antennae","wings"],"bee_group":{"antennae":"B","wings":"2","pattern":"X","legs":"X"},"bonus":0.02},{"rt":1681,"stimulus":"bees-with-color/bee-B1DF.svg","response":0,"trial_type":"image-button-response","trial_index":21,"time_elapsed":282389,"internal_node_id":"0.0-4.0-0.7","subject_id":"5f75cfbb3e500727c8c97631","study_id":"6197b3f67c2b5cd3b6d9596a","session_id":"619beeeb4e90ffe53368771b","condition":"contingent","relevant_dimensions":["antennae","wings"],"bee_group":{"antennae":"B","wings":"2","pattern":"X","legs":"X"},"action":"harvest","summary":"good-harvest","bonus":0.02},{"rt":1356.1999999284744,"stimulus":"\n                    <p><b>Action: <em>harvest</em></b></p>\n                    <p>This is the bee that you just saw.</p>\n                    <img src=\"bees-with-color/bee-B1DF.svg\" width=\"200\">\n                    <p><span class=\"greenText\"><b>Successful harvest!</b></span><br>Your pay has increased by $0.02. Your bonus pay is now $0.42.</p>\n            ","response":0,"trial_type":"html-button-response","trial_index":22,"time_elapsed":283750,"internal_node_id":"0.0-4.0-1.7","subject_id":"5f75cfbb3e500727c8c97631","study_id":"6197b3f67c2b5cd3b6d9596a","session_id":"619beeeb4e90ffe53368771b","condition":"contingent","relevant_dimensions":["antennae","wings"],"bee_group":{"antennae":"B","wings":"2","pattern":"X","legs":"X"},"bonus":0.02},{"rt":2922.7999999523163,"stimulus":"bees-with-color/bee-A1SM.svg","response":1,"trial_type":"image-button-response","trial_index":23,"time_elapsed":286682,"internal_node_id":"0.0-4.0-0.8","subject_id":"5f75cfbb3e500727c8c97631","study_id":"6197b3f67c2b5cd3b6d9596a","session_id":"619beeeb4e90ffe53368771b","condition":"contingent","relevant_dimensions":["antennae","wings"],"bee_group":{"antennae":"B","wings":"2","pattern":"X","legs":"X"},"action":"avoid","summary":"bad-avoid","bonus":0.02},{"rt":1239.8999999761581,"stimulus":"\n                    <p><b>Action: <em>avoid</em></b></p>\n                    <p>This is the bee that you just saw.</p>\n                    <img src=\"bees-with-color/bee-A1SM.svg\" width=\"200\">\n                    <p><br>Your bonus pay is unchanged, and remains at $0.42.</p>\n            ","response":0,"trial_type":"html-button-response","trial_index":24,"time_elapsed":287930,"internal_node_id":"0.0-4.0-1.8","subject_id":"5f75cfbb3e500727c8c97631","study_id":"6197b3f67c2b5cd3b6d9596a","session_id":"619beeeb4e90ffe53368771b","condition":"contingent","relevant_dimensions":["antennae","wings"],"bee_group":{"antennae":"B","wings":"2","pattern":"X","legs":"X"},"bonus":0.02},{"rt":2689.600000023842,"stimulus":"bees-with-color/bee-A2SF.svg","response":0,"trial_type":"image-button-response","trial_index":25,"time_elapsed":290627,"internal_node_id":"0.0-4.0-0.9","subject_id":"5f75cfbb3e500727c8c97631","study_id":"6197b3f67c2b5cd3b6d9596a","session_id":"619beeeb4e90ffe53368771b","condition":"contingent","relevant_dimensions":["antennae","wings"],"bee_group":{"antennae":"B","wings":"2","pattern":"X","legs":"X"},"action":"harvest","summary":"good-harvest","bonus":0.02},{"rt":2342.0999999046326,"stimulus":"\n                    <p><b>Action: <em>harvest</em></b></p>\n                    <p>This is the bee that you just saw.</p>\n                    <img src=\"bees-with-color/bee-A2SF.svg\" width=\"200\">\n                    <p><span class=\"greenText\"><b>Successful harvest!</b></span><br>Your pay has increased by $0.02. Your bonus pay is now $0.44.</p>\n            ","response":0,"trial_type":"html-button-response","trial_index":26,"time_elapsed":292975,"internal_node_id":"0.0-4.0-1.9","subject_id":"5f75cfbb3e500727c8c97631","study_id":"6197b3f67c2b5cd3b6d9596a","session_id":"619beeeb4e90ffe53368771b","condition":"contingent","relevant_dimensions":["antennae","wings"],"bee_group":{"antennae":"B","wings":"2","pattern":"X","legs":"X"},"bonus":0.02},{"rt":2305.2999999523163,"stimulus":"bees-with-color/bee-B1SF.svg","response":0,"trial_type":"image-button-response","trial_index":27,"time_elapsed":295286,"internal_node_id":"0.0-4.0-0.10","subject_id":"5f75cfbb3e500727c8c97631","study_id":"6197b3f67c2b5cd3b6d9596a","session_id":"619beeeb4e90ffe53368771b","condition":"contingent","relevant_dimensions":["antennae","wings"],"bee_group":{"antennae":"B","wings":"2","pattern":"X","legs":"X"},"action":"harvest","summary":"good-harvest","bonus":0.02},{"rt":2969.2999999523163,"stimulus":"\n                    <p><b>Action: <em>harvest</em></b></p>\n                    <p>This is the bee that you just saw.</p>\n                    <img src=\"bees-with-color/bee-B1SF.svg\" width=\"200\">\n                    <p><span class=\"greenText\"><b>Successful harvest!</b></span><br>Your pay has increased by $0.02. Your bonus pay is now $0.46.</p>\n            ","response":0,"trial_type":"html-button-response","trial_index":28,"time_elapsed":298261,"internal_node_id":"0.0-4.0-1.10","subject_id":"5f75cfbb3e500727c8c97631","study_id":"6197b3f67c2b5cd3b6d9596a","session_id":"619beeeb4e90ffe53368771b","condition":"contingent","relevant_dimensions":["antennae","wings"],"bee_group":{"antennae":"B","wings":"2","pattern":"X","legs":"X"},"bonus":0.02},{"rt":1424.8000000715256,"stimulus":"bees-with-color/bee-A1DM.svg","response":0,"trial_type":"image-button-response","trial_index":29,"time_elapsed":299692,"internal_node_id":"0.0-4.0-0.11","subject_id":"5f75cfbb3e500727c8c97631","study_id":"6197b3f67c2b5cd3b6d9596a","session_id":"619beeeb4e90ffe53368771b","condition":"contingent","relevant_dimensions":["antennae","wings"],"bee_group":{"antennae":"B","wings":"2","pattern":"X","legs":"X"},"action":"harvest","summary":"good-harvest","bonus":0.02},{"rt":1425.1000000238419,"stimulus":"\n                    <p><b>Action: <em>harvest</em></b></p>\n                    <p>This is the bee that you just saw.</p>\n                    <img src=\"bees-with-color/bee-A1DM.svg\" width=\"200\">\n                    <p><span class=\"greenText\"><b>Successful harvest!</b></span><br>Your pay has increased by $0.02. Your bonus pay is now $0.48.</p>\n            ","response":0,"trial_type":"html-button-response","trial_index":30,"time_elapsed":301122,"internal_node_id":"0.0-4.0-1.11","subject_id":"5f75cfbb3e500727c8c97631","study_id":"6197b3f67c2b5cd3b6d9596a","session_id":"619beeeb4e90ffe53368771b","condition":"contingent","relevant_dimensions":["antennae","wings"],"bee_group":{"antennae":"B","wings":"2","pattern":"X","legs":"X"},"bonus":0.02},{"rt":1597.5999999046326,"stimulus":"bees-with-color/bee-A2DM.svg","response":0,"trial_type":"image-button-response","trial_index":31,"time_elapsed":302726,"internal_node_id":"0.0-4.0-0.12","subject_id":"5f75cfbb3e500727c8c97631","study_id":"6197b3f67c2b5cd3b6d9596a","session_id":"619beeeb4e90ffe53368771b","condition":"contingent","relevant_dimensions":["antennae","wings"],"bee_group":{"antennae":"B","wings":"2","pattern":"X","legs":"X"},"action":"harvest","summary":"good-harvest","bonus":0.02},{"rt":1469.7999999523163,"stimulus":"\n                    <p><b>Action: <em>harvest</em></b></p>\n                    <p>This is the bee that you just saw.</p>\n                    <img src=\"bees-with-color/bee-A2DM.svg\" width=\"200\">\n                    <p><span class=\"greenText\"><b>Successful harvest!</b></span><br>Your pay has increased by $0.02. Your bonus pay is now $0.50.</p>\n            ","response":0,"trial_type":"html-button-response","trial_index":32,"time_elapsed":304202,"internal_node_id":"0.0-4.0-1.12","subject_id":"5f75cfbb3e500727c8c97631","study_id":"6197b3f67c2b5cd3b6d9596a","session_id":"619beeeb4e90ffe53368771b","condition":"contingent","relevant_dimensions":["antennae","wings"],"bee_group":{"antennae":"B","wings":"2","pattern":"X","legs":"X"},"bonus":0.02},{"rt":3558.7999999523163,"stimulus":"bees-with-color/bee-A1SF.svg","response":1,"trial_type":"image-button-response","trial_index":33,"time_elapsed":307766,"internal_node_id":"0.0-4.0-0.13","subject_id":"5f75cfbb3e500727c8c97631","study_id":"6197b3f67c2b5cd3b6d9596a","session_id":"619beeeb4e90ffe53368771b","condition":"contingent","relevant_dimensions":["antennae","wings"],"bee_group":{"antennae":"B","wings":"2","pattern":"X","legs":"X"},"action":"avoid","summary":"bad-avoid","bonus":0.02},{"rt":1119.1000000238419,"stimulus":"\n                    <p><b>Action: <em>avoid</em></b></p>\n                    <p>This is the bee that you just saw.</p>\n                    <img src=\"bees-with-color/bee-A1SF.svg\" width=\"200\">\n                    <p><br>Your bonus pay is unchanged, and remains at $0.50.</p>\n            ","response":0,"trial_type":"html-button-response","trial_index":34,"time_elapsed":308892,"internal_node_id":"0.0-4.0-1.13","subject_id":"5f75cfbb3e500727c8c97631","study_id":"6197b3f67c2b5cd3b6d9596a","session_id":"619beeeb4e90ffe53368771b","condition":"contingent","relevant_dimensions":["antennae","wings"],"bee_group":{"antennae":"B","wings":"2","pattern":"X","legs":"X"},"bonus":0.02},{"rt":1648.1999999284744,"stimulus":"bees-with-color/bee-B2SF.svg","response":0,"trial_type":"image-button-response","trial_index":35,"time_elapsed":310548,"internal_node_id":"0.0-4.0-0.14","subject_id":"5f75cfbb3e500727c8c97631","study_id":"6197b3f67c2b5cd3b6d9596a","session_id":"619beeeb4e90ffe53368771b","condition":"contingent","relevant_dimensions":["antennae","wings"],"bee_group":{"antennae":"B","wings":"2","pattern":"X","legs":"X"},"action":"harvest","summary":"bad-harvest","bonus":0.02},{"rt":5437.099999904633,"stimulus":"\n                    <p><b>Action: <em>harvest</em></b></p>\n                    <p>This is the bee that you just saw.</p>\n                    <img src=\"bees-with-color/bee-B2SF.svg\" width=\"200\">\n                    <p><span class=\"redText\">Bad choice, the bee was angry.</span><br><b>You have been stung!</b><br>Your pay has been decreased by $0.10. Your bonus pay is now $0.40.</p>\n            ","response":0,"trial_type":"html-button-response","trial_index":36,"time_elapsed":315992,"internal_node_id":"0.0-4.0-1.14","subject_id":"5f75cfbb3e500727c8c97631","study_id":"6197b3f67c2b5cd3b6d9596a","session_id":"619beeeb4e90ffe53368771b","condition":"contingent","relevant_dimensions":["antennae","wings"],"bee_group":{"antennae":"B","wings":"2","pattern":"X","legs":"X"},"bonus":0.02},{"rt":1492.7000000476837,"stimulus":"bees-with-color/bee-B2DF.svg","response":0,"trial_type":"image-button-response","trial_index":37,"time_elapsed":317491,"internal_node_id":"0.0-4.0-0.15","subject_id":"5f75cfbb3e500727c8c97631","study_id":"6197b3f67c2b5cd3b6d9596a","session_id":"619beeeb4e90ffe53368771b","condition":"contingent","relevant_dimensions":["antennae","wings"],"bee_group":{"antennae":"B","wings":"2","pattern":"X","legs":"X"},"action":"harvest","summary":"bad-harvest","bonus":0.02},{"rt":3113,"stimulus":"\n                    <p><b>Action: <em>harvest</em></b></p>\n                    <p>This is the bee that you just saw.</p>\n                    <img src=\"bees-with-color/bee-B2DF.svg\" width=\"200\">\n                    <p><span class=\"redText\">Bad choice, the bee was angry.</span><br><b>You have been stung!</b><br>Your pay has been decreased by $0.10. Your bonus pay is now $0.30.</p>\n            ","response":0,"trial_type":"html-button-response","trial_index":38,"time_elapsed":320610,"internal_node_id":"0.0-4.0-1.15","subject_id":"5f75cfbb3e500727c8c97631","study_id":"6197b3f67c2b5cd3b6d9596a","session_id":"619beeeb4e90ffe53368771b","condition":"contingent","relevant_dimensions":["antennae","wings"],"bee_group":{"antennae":"B","wings":"2","pattern":"X","legs":"X"},"bonus":0.02},{"rt":1927.7999999523163,"stimulus":"bees-with-color/bee-B1DM.svg","response":0,"trial_type":"image-button-response","trial_index":39,"time_elapsed":322545,"internal_node_id":"0.0-4.0-0.16","subject_id":"5f75cfbb3e500727c8c97631","study_id":"6197b3f67c2b5cd3b6d9596a","session_id":"619beeeb4e90ffe53368771b","condition":"contingent","relevant_dimensions":["antennae","wings"],"bee_group":{"antennae":"B","wings":"2","pattern":"X","legs":"X"},"action":"harvest","summary":"good-harvest","bonus":0.02},{"rt":1341.1999999284744,"stimulus":"\n                    <p><b>Action: <em>harvest</em></b></p>\n                    <p>This is the bee that you just saw.</p>\n                    <img src=\"bees-with-color/bee-B1DM.svg\" width=\"200\">\n                    <p><span class=\"greenText\"><b>Successful harvest!</b></span><br>Your pay has increased by $0.02. Your bonus pay is now $0.32.</p>\n            ","response":0,"trial_type":"html-button-response","trial_index":40,"time_elapsed":323891,"internal_node_id":"0.0-4.0-1.16","subject_id":"5f75cfbb3e500727c8c97631","study_id":"6197b3f67c2b5cd3b6d9596a","session_id":"619beeeb4e90ffe53368771b","condition":"contingent","relevant_dimensions":["antennae","wings"],"bee_group":{"antennae":"B","wings":"2","pattern":"X","legs":"X"},"bonus":0.02},{"rt":1243.1000000238419,"stimulus":"bees-with-color/bee-A1DM.svg","response":0,"trial_type":"image-button-response","trial_index":41,"time_elapsed":325140,"internal_node_id":"0.0-4.0-0.17","subject_id":"5f75cfbb3e500727c8c97631","study_id":"6197b3f67c2b5cd3b6d9596a","session_id":"619beeeb4e90ffe53368771b","condition":"contingent","relevant_dimensions":["antennae","wings"],"bee_group":{"antennae":"B","wings":"2","pattern":"X","legs":"X"},"action":"harvest","summary":"good-harvest","bonus":0.02},{"rt":1409.5,"stimulus":"\n                    <p><b>Action: <em>harvest</em></b></p>\n                    <p>This is the bee that you just saw.</p>\n                    <img src=\"bees-with-color/bee-A1DM.svg\" width=\"200\">\n                    <p><span class=\"greenText\"><b>Successful harvest!</b></span><br>Your pay has increased by $0.02. Your bonus pay is now $0.34.</p>\n            ","response":0,"trial_type":"html-button-response","trial_index":42,"time_elapsed":326555,"internal_node_id":"0.0-4.0-1.17","subject_id":"5f75cfbb3e500727c8c97631","study_id":"6197b3f67c2b5cd3b6d9596a","session_id":"619beeeb4e90ffe53368771b","condition":"contingent","relevant_dimensions":["antennae","wings"],"bee_group":{"antennae":"B","wings":"2","pattern":"X","legs":"X"},"bonus":0.02},{"rt":1734,"stimulus":"bees-with-color/bee-A1SM.svg","response":0,"trial_type":"image-button-response","trial_index":43,"time_elapsed":328294,"internal_node_id":"0.0-4.0-0.18","subject_id":"5f75cfbb3e500727c8c97631","study_id":"6197b3f67c2b5cd3b6d9596a","session_id":"619beeeb4e90ffe53368771b","condition":"contingent","relevant_dimensions":["antennae","wings"],"bee_group":{"antennae":"B","wings":"2","pattern":"X","legs":"X"},"action":"harvest","summary":"good-harvest","bonus":0.02},{"rt":1233.6999999284744,"stimulus":"\n                    <p><b>Action: <em>harvest</em></b></p>\n                    <p>This is the bee that you just saw.</p>\n                    <img src=\"bees-with-color/bee-A1SM.svg\" width=\"200\">\n                    <p><span class=\"greenText\"><b>Successful harvest!</b></span><br>Your pay has increased by $0.02. Your bonus pay is now $0.36.</p>\n            ","response":0,"trial_type":"html-button-response","trial_index":44,"time_elapsed":329535,"internal_node_id":"0.0-4.0-1.18","subject_id":"5f75cfbb3e500727c8c97631","study_id":"6197b3f67c2b5cd3b6d9596a","session_id":"619beeeb4e90ffe53368771b","condition":"contingent","relevant_dimensions":["antennae","wings"],"bee_group":{"antennae":"B","wings":"2","pattern":"X","legs":"X"},"bonus":0.02},{"rt":1966.5999999046326,"stimulus":"bees-with-color/bee-B1SM.svg","response":0,"trial_type":"image-button-response","trial_index":45,"time_elapsed":331509,"internal_node_id":"0.0-4.0-0.19","subject_id":"5f75cfbb3e500727c8c97631","study_id":"6197b3f67c2b5cd3b6d9596a","session_id":"619beeeb4e90ffe53368771b","condition":"contingent","relevant_dimensions":["antennae","wings"],"bee_group":{"antennae":"B","wings":"2","pattern":"X","legs":"X"},"action":"harvest","summary":"good-harvest","bonus":0.02},{"rt":1180.5999999046326,"stimulus":"\n                    <p><b>Action: <em>harvest</em></b></p>\n                    <p>This is the bee that you just saw.</p>\n                    <img src=\"bees-with-color/bee-B1SM.svg\" width=\"200\">\n                    <p><span class=\"greenText\"><b>Successful harvest!</b></span><br>Your pay has increased by $0.02. Your bonus pay is now $0.38.</p>\n            ","response":0,"trial_type":"html-button-response","trial_index":46,"time_elapsed":332695,"internal_node_id":"0.0-4.0-1.19","subject_id":"5f75cfbb3e500727c8c97631","study_id":"6197b3f67c2b5cd3b6d9596a","session_id":"619beeeb4e90ffe53368771b","condition":"contingent","relevant_dimensions":["antennae","wings"],"bee_group":{"antennae":"B","wings":"2","pattern":"X","legs":"X"},"bonus":0.02},{"rt":1547.5999999046326,"stimulus":"bees-with-color/bee-B2DM.svg","response":0,"trial_type":"image-button-response","trial_index":47,"time_elapsed":334250,"internal_node_id":"0.0-4.0-0.20","subject_id":"5f75cfbb3e500727c8c97631","study_id":"6197b3f67c2b5cd3b6d9596a","session_id":"619beeeb4e90ffe53368771b","condition":"contingent","relevant_dimensions":["antennae","wings"],"bee_group":{"antennae":"B","wings":"2","pattern":"X","legs":"X"},"action":"harvest","summary":"bad-harvest","bonus":0.02},{"rt":3169.2000000476837,"stimulus":"\n                    <p><b>Action: <em>harvest</em></b></p>\n                    <p>This is the bee that you just saw.</p>\n                    <img src=\"bees-with-color/bee-B2DM.svg\" width=\"200\">\n                    <p><span class=\"redText\">Bad choice, the bee was angry.</span><br><b>You have been stung!</b><br>Your pay has been decreased by $0.10. Your bonus pay is now $0.28.</p>\n            ","response":0,"trial_type":"html-button-response","trial_index":48,"time_elapsed":337427,"internal_node_id":"0.0-4.0-1.20","subject_id":"5f75cfbb3e500727c8c97631","study_id":"6197b3f67c2b5cd3b6d9596a","session_id":"619beeeb4e90ffe53368771b","condition":"contingent","relevant_dimensions":["antennae","wings"],"bee_group":{"antennae":"B","wings":"2","pattern":"X","legs":"X"},"bonus":0.02},{"rt":1389.1999999284744,"stimulus":"bees-with-color/bee-A2SF.svg","response":0,"trial_type":"image-button-response","trial_index":49,"time_elapsed":338823,"internal_node_id":"0.0-4.0-0.21","subject_id":"5f75cfbb3e500727c8c97631","study_id":"6197b3f67c2b5cd3b6d9596a","session_id":"619beeeb4e90ffe53368771b","condition":"contingent","relevant_dimensions":["antennae","wings"],"bee_group":{"antennae":"B","wings":"2","pattern":"X","legs":"X"},"action":"harvest","summary":"good-harvest","bonus":0.02},{"rt":1235.5999999046326,"stimulus":"\n                    <p><b>Action: <em>harvest</em></b></p>\n                    <p>This is the bee that you just saw.</p>\n                    <img src=\"bees-with-color/bee-A2SF.svg\" width=\"200\">\n                    <p><span class=\"greenText\"><b>Successful harvest!</b></span><br>Your pay has increased by $0.02. Your bonus pay is now $0.30.</p>\n            ","response":0,"trial_type":"html-button-response","trial_index":50,"time_elapsed":340065,"internal_node_id":"0.0-4.0-1.21","subject_id":"5f75cfbb3e500727c8c97631","study_id":"6197b3f67c2b5cd3b6d9596a","session_id":"619beeeb4e90ffe53368771b","condition":"contingent","relevant_dimensions":["antennae","wings"],"bee_group":{"antennae":"B","wings":"2","pattern":"X","legs":"X"},"bonus":0.02},{"rt":1365.2999999523163,"stimulus":"bees-with-color/bee-B2SF.svg","response":0,"trial_type":"image-button-response","trial_index":51,"time_elapsed":341437,"internal_node_id":"0.0-4.0-0.22","subject_id":"5f75cfbb3e500727c8c97631","study_id":"6197b3f67c2b5cd3b6d9596a","session_id":"619beeeb4e90ffe53368771b","condition":"contingent","relevant_dimensions":["antennae","wings"],"bee_group":{"antennae":"B","wings":"2","pattern":"X","legs":"X"},"action":"harvest","summary":"bad-harvest","bonus":0.02},{"rt":3934.0999999046326,"stimulus":"\n                    <p><b>Action: <em>harvest</em></b></p>\n                    <p>This is the bee that you just saw.</p>\n                    <img src=\"bees-with-color/bee-B2SF.svg\" width=\"200\">\n                    <p><span class=\"redText\">Bad choice, the bee was angry.</span><br><b>You have been stung!</b><br>Your pay has been decreased by $0.10. Your bonus pay is now $0.20.</p>\n            ","response":0,"trial_type":"html-button-response","trial_index":52,"time_elapsed":345375,"internal_node_id":"0.0-4.0-1.22","subject_id":"5f75cfbb3e500727c8c97631","study_id":"6197b3f67c2b5cd3b6d9596a","session_id":"619beeeb4e90ffe53368771b","condition":"contingent","relevant_dimensions":["antennae","wings"],"bee_group":{"antennae":"B","wings":"2","pattern":"X","legs":"X"},"bonus":0.02},{"rt":1485.2999999523163,"stimulus":"bees-with-color/bee-A1DF.svg","response":0,"trial_type":"image-button-response","trial_index":53,"time_elapsed":346865,"internal_node_id":"0.0-4.0-0.23","subject_id":"5f75cfbb3e500727c8c97631","study_id":"6197b3f67c2b5cd3b6d9596a","session_id":"619beeeb4e90ffe53368771b","condition":"contingent","relevant_dimensions":["antennae","wings"],"bee_group":{"antennae":"B","wings":"2","pattern":"X","legs":"X"},"action":"harvest","summary":"good-harvest","bonus":0.02},{"rt":1286.1000000238419,"stimulus":"\n                    <p><b>Action: <em>harvest</em></b></p>\n                    <p>This is the bee that you just saw.</p>\n                    <img src=\"bees-with-color/bee-A1DF.svg\" width=\"200\">\n                    <p><span class=\"greenText\"><b>Successful harvest!</b></span><br>Your pay has increased by $0.02. Your bonus pay is now $0.22.</p>\n            ","response":0,"trial_type":"html-button-response","trial_index":54,"time_elapsed":348156,"internal_node_id":"0.0-4.0-1.23","subject_id":"5f75cfbb3e500727c8c97631","study_id":"6197b3f67c2b5cd3b6d9596a","session_id":"619beeeb4e90ffe53368771b","condition":"contingent","relevant_dimensions":["antennae","wings"],"bee_group":{"antennae":"B","wings":"2","pattern":"X","legs":"X"},"bonus":0.02},{"rt":1856,"stimulus":"bees-with-color/bee-A2SM.svg","response":1,"trial_type":"image-button-response","trial_index":55,"time_elapsed":350016,"internal_node_id":"0.0-4.0-0.24","subject_id":"5f75cfbb3e500727c8c97631","study_id":"6197b3f67c2b5cd3b6d9596a","session_id":"619beeeb4e90ffe53368771b","condition":"contingent","relevant_dimensions":["antennae","wings"],"bee_group":{"antennae":"B","wings":"2","pattern":"X","legs":"X"},"action":"avoid","summary":"bad-avoid","bonus":0.02},{"rt":1029.2000000476837,"stimulus":"\n                    <p><b>Action: <em>avoid</em></b></p>\n                    <p>This is the bee that you just saw.</p>\n                    <img src=\"bees-with-color/bee-A2SM.svg\" width=\"200\">\n                    <p><br>Your bonus pay is unchanged, and remains at $0.22.</p>\n            ","response":0,"trial_type":"html-button-response","trial_index":56,"time_elapsed":351051,"internal_node_id":"0.0-4.0-1.24","subject_id":"5f75cfbb3e500727c8c97631","study_id":"6197b3f67c2b5cd3b6d9596a","session_id":"619beeeb4e90ffe53368771b","condition":"contingent","relevant_dimensions":["antennae","wings"],"bee_group":{"antennae":"B","wings":"2","pattern":"X","legs":"X"},"bonus":0.02},{"rt":1603,"stimulus":"bees-with-color/bee-B2SM.svg","response":0,"trial_type":"image-button-response","trial_index":57,"time_elapsed":352656,"internal_node_id":"0.0-4.0-0.25","subject_id":"5f75cfbb3e500727c8c97631","study_id":"6197b3f67c2b5cd3b6d9596a","session_id":"619beeeb4e90ffe53368771b","condition":"contingent","relevant_dimensions":["antennae","wings"],"bee_group":{"antennae":"B","wings":"2","pattern":"X","legs":"X"},"action":"harvest","summary":"bad-harvest","bonus":0.02},{"rt":1385.6999999284744,"stimulus":"\n                    <p><b>Action: <em>harvest</em></b></p>\n                    <p>This is the bee that you just saw.</p>\n                    <img src=\"bees-with-color/bee-B2SM.svg\" width=\"200\">\n                    <p><span class=\"redText\">Bad choice, the bee was angry.</span><br><b>You have been stung!</b><br>Your pay has been decreased by $0.10. Your bonus pay is now $0.12.</p>\n            ","response":0,"trial_type":"html-button-response","trial_index":58,"time_elapsed":354046,"internal_node_id":"0.0-4.0-1.25","subject_id":"5f75cfbb3e500727c8c97631","study_id":"6197b3f67c2b5cd3b6d9596a","session_id":"619beeeb4e90ffe53368771b","condition":"contingent","relevant_dimensions":["antennae","wings"],"bee_group":{"antennae":"B","wings":"2","pattern":"X","legs":"X"},"bonus":0.02},{"rt":1467.2999999523163,"stimulus":"bees-with-color/bee-B1SF.svg","response":0,"trial_type":"image-button-response","trial_index":59,"time_elapsed":355522,"internal_node_id":"0.0-4.0-0.26","subject_id":"5f75cfbb3e500727c8c97631","study_id":"6197b3f67c2b5cd3b6d9596a","session_id":"619beeeb4e90ffe53368771b","condition":"contingent","relevant_dimensions":["antennae","wings"],"bee_group":{"antennae":"B","wings":"2","pattern":"X","legs":"X"},"action":"harvest","summary":"good-harvest","bonus":0.02},{"rt":1258.1999999284744,"stimulus":"\n                    <p><b>Action: <em>harvest</em></b></p>\n                    <p>This is the bee that you just saw.</p>\n                    <img src=\"bees-with-color/bee-B1SF.svg\" width=\"200\">\n                    <p><span class=\"greenText\"><b>Successful harvest!</b></span><br>Your pay has increased by $0.02. Your bonus pay is now $0.14.</p>\n            ","response":0,"trial_type":"html-button-response","trial_index":60,"time_elapsed":356787,"internal_node_id":"0.0-4.0-1.26","subject_id":"5f75cfbb3e500727c8c97631","study_id":"6197b3f67c2b5cd3b6d9596a","session_id":"619beeeb4e90ffe53368771b","condition":"contingent","relevant_dimensions":["antennae","wings"],"bee_group":{"antennae":"B","wings":"2","pattern":"X","legs":"X"},"bonus":0.02},{"rt":1693.6000000238419,"stimulus":"bees-with-color/bee-B1DF.svg","response":0,"trial_type":"image-button-response","trial_index":61,"time_elapsed":358486,"internal_node_id":"0.0-4.0-0.27","subject_id":"5f75cfbb3e500727c8c97631","study_id":"6197b3f67c2b5cd3b6d9596a","session_id":"619beeeb4e90ffe53368771b","condition":"contingent","relevant_dimensions":["antennae","wings"],"bee_group":{"antennae":"B","wings":"2","pattern":"X","legs":"X"},"action":"harvest","summary":"good-harvest","bonus":0.02},{"rt":1102.3999999761581,"stimulus":"\n                    <p><b>Action: <em>harvest</em></b></p>\n                    <p>This is the bee that you just saw.</p>\n                    <img src=\"bees-with-color/bee-B1DF.svg\" width=\"200\">\n                    <p><span class=\"greenText\"><b>Successful harvest!</b></span><br>Your pay has increased by $0.02. Your bonus pay is now $0.16.</p>\n            ","response":0,"trial_type":"html-button-response","trial_index":62,"time_elapsed":359593,"internal_node_id":"0.0-4.0-1.27","subject_id":"5f75cfbb3e500727c8c97631","study_id":"6197b3f67c2b5cd3b6d9596a","session_id":"619beeeb4e90ffe53368771b","condition":"contingent","relevant_dimensions":["antennae","wings"],"bee_group":{"antennae":"B","wings":"2","pattern":"X","legs":"X"},"bonus":0.02},{"rt":2158.2999999523163,"stimulus":"bees-with-color/bee-A2DF.svg","response":0,"trial_type":"image-button-response","trial_index":63,"time_elapsed":361757,"internal_node_id":"0.0-4.0-0.28","subject_id":"5f75cfbb3e500727c8c97631","study_id":"6197b3f67c2b5cd3b6d9596a","session_id":"619beeeb4e90ffe53368771b","condition":"contingent","relevant_dimensions":["antennae","wings"],"bee_group":{"antennae":"B","wings":"2","pattern":"X","legs":"X"},"action":"harvest","summary":"good-harvest","bonus":0.02},{"rt":1235.1999999284744,"stimulus":"\n                    <p><b>Action: <em>harvest</em></b></p>\n                    <p>This is the bee that you just saw.</p>\n                    <img src=\"bees-with-color/bee-A2DF.svg\" width=\"200\">\n                    <p><span class=\"greenText\"><b>Successful harvest!</b></span><br>Your pay has increased by $0.02. Your bonus pay is now $0.18.</p>\n            ","response":0,"trial_type":"html-button-response","trial_index":64,"time_elapsed":362998,"internal_node_id":"0.0-4.0-1.28","subject_id":"5f75cfbb3e500727c8c97631","study_id":"6197b3f67c2b5cd3b6d9596a","session_id":"619beeeb4e90ffe53368771b","condition":"contingent","relevant_dimensions":["antennae","wings"],"bee_group":{"antennae":"B","wings":"2","pattern":"X","legs":"X"},"bonus":0.02},{"rt":1732.3000000715256,"stimulus":"bees-with-color/bee-A1SF.svg","response":1,"trial_type":"image-button-response","trial_index":65,"time_elapsed":364737,"internal_node_id":"0.0-4.0-0.29","subject_id":"5f75cfbb3e500727c8c97631","study_id":"6197b3f67c2b5cd3b6d9596a","session_id":"619beeeb4e90ffe53368771b","condition":"contingent","relevant_dimensions":["antennae","wings"],"bee_group":{"antennae":"B","wings":"2","pattern":"X","legs":"X"},"action":"avoid","summary":"bad-avoid","bonus":0.02},{"rt":1071,"stimulus":"\n                    <p><b>Action: <em>avoid</em></b></p>\n                    <p>This is the bee that you just saw.</p>\n                    <img src=\"bees-with-color/bee-A1SF.svg\" width=\"200\">\n                    <p><br>Your bonus pay is unchanged, and remains at $0.18.</p>\n            ","response":0,"trial_type":"html-button-response","trial_index":66,"time_elapsed":365815,"internal_node_id":"0.0-4.0-1.29","subject_id":"5f75cfbb3e500727c8c97631","study_id":"6197b3f67c2b5cd3b6d9596a","session_id":"619beeeb4e90ffe53368771b","condition":"contingent","relevant_dimensions":["antennae","wings"],"bee_group":{"antennae":"B","wings":"2","pattern":"X","legs":"X"},"bonus":0.02},{"rt":1885.9000000953674,"stimulus":"bees-with-color/bee-B2DF.svg","response":0,"trial_type":"image-button-response","trial_index":67,"time_elapsed":367708,"internal_node_id":"0.0-4.0-0.30","subject_id":"5f75cfbb3e500727c8c97631","study_id":"6197b3f67c2b5cd3b6d9596a","session_id":"619beeeb4e90ffe53368771b","condition":"contingent","relevant_dimensions":["antennae","wings"],"bee_group":{"antennae":"B","wings":"2","pattern":"X","legs":"X"},"action":"harvest","summary":"bad-harvest","bonus":0.02},{"rt":1230.2000000476837,"stimulus":"\n                    <p><b>Action: <em>harvest</em></b></p>\n                    <p>This is the bee that you just saw.</p>\n                    <img src=\"bees-with-color/bee-B2DF.svg\" width=\"200\">\n                    <p><span class=\"redText\">Bad choice, the bee was angry.</span><br><b>You have been stung!</b><br>Your pay has been decreased by $0.10. Your bonus pay is now $0.08.</p>\n            ","response":0,"trial_type":"html-button-response","trial_index":68,"time_elapsed":368944,"internal_node_id":"0.0-4.0-1.30","subject_id":"5f75cfbb3e500727c8c97631","study_id":"6197b3f67c2b5cd3b6d9596a","session_id":"619beeeb4e90ffe53368771b","condition":"contingent","relevant_dimensions":["antennae","wings"],"bee_group":{"antennae":"B","wings":"2","pattern":"X","legs":"X"},"bonus":0.02},{"rt":1157,"stimulus":"bees-with-color/bee-A2DM.svg","response":0,"trial_type":"image-button-response","trial_index":69,"time_elapsed":370105,"internal_node_id":"0.0-4.0-0.31","subject_id":"5f75cfbb3e500727c8c97631","study_id":"6197b3f67c2b5cd3b6d9596a","session_id":"619beeeb4e90ffe53368771b","condition":"contingent","relevant_dimensions":["antennae","wings"],"bee_group":{"antennae":"B","wings":"2","pattern":"X","legs":"X"},"action":"harvest","summary":"good-harvest","bonus":0.02},{"rt":1168,"stimulus":"\n                    <p><b>Action: <em>harvest</em></b></p>\n                    <p>This is the bee that you just saw.</p>\n                    <img src=\"bees-with-color/bee-A2DM.svg\" width=\"200\">\n                    <p><span class=\"greenText\"><b>Successful harvest!</b></span><br>Your pay has increased by $0.02. Your bonus pay is now $0.10.</p>\n            ","response":0,"trial_type":"html-button-response","trial_index":70,"time_elapsed":371279,"internal_node_id":"0.0-4.0-1.31","subject_id":"5f75cfbb3e500727c8c97631","study_id":"6197b3f67c2b5cd3b6d9596a","session_id":"619beeeb4e90ffe53368771b","condition":"contingent","relevant_dimensions":["antennae","wings"],"bee_group":{"antennae":"B","wings":"2","pattern":"X","legs":"X"},"bonus":0.02},{"rt":1397.3999999761581,"stimulus":"bees-with-color/bee-A1SF.svg","response":0,"trial_type":"image-button-response","trial_index":71,"time_elapsed":372686,"internal_node_id":"0.0-4.0-0.32","subject_id":"5f75cfbb3e500727c8c97631","study_id":"6197b3f67c2b5cd3b6d9596a","session_id":"619beeeb4e90ffe53368771b","condition":"contingent","relevant_dimensions":["antennae","wings"],"bee_group":{"antennae":"B","wings":"2","pattern":"X","legs":"X"},"action":"harvest","summary":"good-harvest","bonus":0.02},{"rt":1273,"stimulus":"\n                    <p><b>Action: <em>harvest</em></b></p>\n                    <p>This is the bee that you just saw.</p>\n                    <img src=\"bees-with-color/bee-A1SF.svg\" width=\"200\">\n                    <p><span class=\"greenText\"><b>Successful harvest!</b></span><br>Your pay has increased by $0.02. Your bonus pay is now $0.12.</p>\n            ","response":0,"trial_type":"html-button-response","trial_index":72,"time_elapsed":373965,"internal_node_id":"0.0-4.0-1.32","subject_id":"5f75cfbb3e500727c8c97631","study_id":"6197b3f67c2b5cd3b6d9596a","session_id":"619beeeb4e90ffe53368771b","condition":"contingent","relevant_dimensions":["antennae","wings"],"bee_group":{"antennae":"B","wings":"2","pattern":"X","legs":"X"},"bonus":0.02},{"rt":1824.3999999761581,"stimulus":"bees-with-color/bee-A2SM.svg","response":1,"trial_type":"image-button-response","trial_index":73,"time_elapsed":375796,"internal_node_id":"0.0-4.0-0.33","subject_id":"5f75cfbb3e500727c8c97631","study_id":"6197b3f67c2b5cd3b6d9596a","session_id":"619beeeb4e90ffe53368771b","condition":"contingent","relevant_dimensions":["antennae","wings"],"bee_group":{"antennae":"B","wings":"2","pattern":"X","legs":"X"},"action":"avoid","summary":"bad-avoid","bonus":0.02},{"rt":1048.2999999523163,"stimulus":"\n                    <p><b>Action: <em>avoid</em></b></p>\n                    <p>This is the bee that you just saw.</p>\n                    <img src=\"bees-with-color/bee-A2SM.svg\" width=\"200\">\n                    <p><br>Your bonus pay is unchanged, and remains at $0.12.</p>\n            ","response":0,"trial_type":"html-button-response","trial_index":74,"time_elapsed":376850,"internal_node_id":"0.0-4.0-1.33","subject_id":"5f75cfbb3e500727c8c97631","study_id":"6197b3f67c2b5cd3b6d9596a","session_id":"619beeeb4e90ffe53368771b","condition":"contingent","relevant_dimensions":["antennae","wings"],"bee_group":{"antennae":"B","wings":"2","pattern":"X","legs":"X"},"bonus":0.02},{"rt":1338.0999999046326,"stimulus":"bees-with-color/bee-A2DM.svg","response":0,"trial_type":"image-button-response","trial_index":75,"time_elapsed":378195,"internal_node_id":"0.0-4.0-0.34","subject_id":"5f75cfbb3e500727c8c97631","study_id":"6197b3f67c2b5cd3b6d9596a","session_id":"619beeeb4e90ffe53368771b","condition":"contingent","relevant_dimensions":["antennae","wings"],"bee_group":{"antennae":"B","wings":"2","pattern":"X","legs":"X"},"action":"harvest","summary":"good-harvest","bonus":0.02},{"rt":1190.6999999284744,"stimulus":"\n                    <p><b>Action: <em>harvest</em></b></p>\n                    <p>This is the bee that you just saw.</p>\n                    <img src=\"bees-with-color/bee-A2DM.svg\" width=\"200\">\n                    <p><span class=\"greenText\"><b>Successful harvest!</b></span><br>Your pay has increased by $0.02. Your bonus pay is now $0.14.</p>\n            ","response":0,"trial_type":"html-button-response","trial_index":76,"time_elapsed":379392,"internal_node_id":"0.0-4.0-1.34","subject_id":"5f75cfbb3e500727c8c97631","study_id":"6197b3f67c2b5cd3b6d9596a","session_id":"619beeeb4e90ffe53368771b","condition":"contingent","relevant_dimensions":["antennae","wings"],"bee_group":{"antennae":"B","wings":"2","pattern":"X","legs":"X"},"bonus":0.02},{"rt":1841.3999999761581,"stimulus":"bees-with-color/bee-A2DF.svg","response":0,"trial_type":"image-button-response","trial_index":77,"time_elapsed":381240,"internal_node_id":"0.0-4.0-0.35","subject_id":"5f75cfbb3e500727c8c97631","study_id":"6197b3f67c2b5cd3b6d9596a","session_id":"619beeeb4e90ffe53368771b","condition":"contingent","relevant_dimensions":["antennae","wings"],"bee_group":{"antennae":"B","wings":"2","pattern":"X","legs":"X"},"action":"harvest","summary":"good-harvest","bonus":0.02},{"rt":1131.4000000953674,"stimulus":"\n                    <p><b>Action: <em>harvest</em></b></p>\n                    <p>This is the bee that you just saw.</p>\n                    <img src=\"bees-with-color/bee-A2DF.svg\" width=\"200\">\n                    <p><span class=\"greenText\"><b>Successful harvest!</b></span><br>Your pay has increased by $0.02. Your bonus pay is now $0.16.</p>\n            ","response":0,"trial_type":"html-button-response","trial_index":78,"time_elapsed":382376,"internal_node_id":"0.0-4.0-1.35","subject_id":"5f75cfbb3e500727c8c97631","study_id":"6197b3f67c2b5cd3b6d9596a","session_id":"619beeeb4e90ffe53368771b","condition":"contingent","relevant_dimensions":["antennae","wings"],"bee_group":{"antennae":"B","wings":"2","pattern":"X","legs":"X"},"bonus":0.02},{"rt":3125.5,"stimulus":"bees-with-color/bee-B1SF.svg","response":0,"trial_type":"image-button-response","trial_index":79,"time_elapsed":385507,"internal_node_id":"0.0-4.0-0.36","subject_id":"5f75cfbb3e500727c8c97631","study_id":"6197b3f67c2b5cd3b6d9596a","session_id":"619beeeb4e90ffe53368771b","condition":"contingent","relevant_dimensions":["antennae","wings"],"bee_group":{"antennae":"B","wings":"2","pattern":"X","legs":"X"},"action":"harvest","summary":"good-harvest","bonus":0.02},{"rt":1203.5,"stimulus":"\n                    <p><b>Action: <em>harvest</em></b></p>\n                    <p>This is the bee that you just saw.</p>\n                    <img src=\"bees-with-color/bee-B1SF.svg\" width=\"200\">\n                    <p><span class=\"greenText\"><b>Successful harvest!</b></span><br>Your pay has increased by $0.02. Your bonus pay is now $0.18.</p>\n            ","response":0,"trial_type":"html-button-response","trial_index":80,"time_elapsed":386716,"internal_node_id":"0.0-4.0-1.36","subject_id":"5f75cfbb3e500727c8c97631","study_id":"6197b3f67c2b5cd3b6d9596a","session_id":"619beeeb4e90ffe53368771b","condition":"contingent","relevant_dimensions":["antennae","wings"],"bee_group":{"antennae":"B","wings":"2","pattern":"X","legs":"X"},"bonus":0.02},{"rt":1806.7999999523163,"stimulus":"bees-with-color/bee-A2SF.svg","response":1,"trial_type":"image-button-response","trial_index":81,"time_elapsed":388530,"internal_node_id":"0.0-4.0-0.37","subject_id":"5f75cfbb3e500727c8c97631","study_id":"6197b3f67c2b5cd3b6d9596a","session_id":"619beeeb4e90ffe53368771b","condition":"contingent","relevant_dimensions":["antennae","wings"],"bee_group":{"antennae":"B","wings":"2","pattern":"X","legs":"X"},"action":"avoid","summary":"bad-avoid","bonus":0.02},{"rt":1229.5,"stimulus":"\n                    <p><b>Action: <em>avoid</em></b></p>\n                    <p>This is the bee that you just saw.</p>\n                    <img src=\"bees-with-color/bee-A2SF.svg\" width=\"200\">\n                    <p><br>Your bonus pay is unchanged, and remains at $0.18.</p>\n            ","response":0,"trial_type":"html-button-response","trial_index":82,"time_elapsed":389768,"internal_node_id":"0.0-4.0-1.37","subject_id":"5f75cfbb3e500727c8c97631","study_id":"6197b3f67c2b5cd3b6d9596a","session_id":"619beeeb4e90ffe53368771b","condition":"contingent","relevant_dimensions":["antennae","wings"],"bee_group":{"antennae":"B","wings":"2","pattern":"X","legs":"X"},"bonus":0.02},{"rt":1894.8999999761581,"stimulus":"bees-with-color/bee-B2SM.svg","response":1,"trial_type":"image-button-response","trial_index":83,"time_elapsed":391670,"internal_node_id":"0.0-4.0-0.38","subject_id":"5f75cfbb3e500727c8c97631","study_id":"6197b3f67c2b5cd3b6d9596a","session_id":"619beeeb4e90ffe53368771b","condition":"contingent","relevant_dimensions":["antennae","wings"],"bee_group":{"antennae":"B","wings":"2","pattern":"X","legs":"X"},"action":"avoid","summary":"good-avoid","bonus":0.02},{"rt":997,"stimulus":"\n                    <p><b>Action: <em>avoid</em></b></p>\n                    <p>This is the bee that you just saw.</p>\n                    <img src=\"bees-with-color/bee-B2SM.svg\" width=\"200\">\n                    <p><br>Your bonus pay is unchanged, and remains at $0.18.</p>\n            ","response":0,"trial_type":"html-button-response","trial_index":84,"time_elapsed":392673,"internal_node_id":"0.0-4.0-1.38","subject_id":"5f75cfbb3e500727c8c97631","study_id":"6197b3f67c2b5cd3b6d9596a","session_id":"619beeeb4e90ffe53368771b","condition":"contingent","relevant_dimensions":["antennae","wings"],"bee_group":{"antennae":"B","wings":"2","pattern":"X","legs":"X"},"bonus":0.02},{"rt":1365.5,"stimulus":"bees-with-color/bee-B2DM.svg","response":0,"trial_type":"image-button-response","trial_index":85,"time_elapsed":394043,"internal_node_id":"0.0-4.0-0.39","subject_id":"5f75cfbb3e500727c8c97631","study_id":"6197b3f67c2b5cd3b6d9596a","session_id":"619beeeb4e90ffe53368771b","condition":"contingent","relevant_dimensions":["antennae","wings"],"bee_group":{"antennae":"B","wings":"2","pattern":"X","legs":"X"},"action":"harvest","summary":"bad-harvest","bonus":0.02},{"rt":1310.6000000238419,"stimulus":"\n                    <p><b>Action: <em>harvest</em></b></p>\n                    <p>This is the bee that you just saw.</p>\n                    <img src=\"bees-with-color/bee-B2DM.svg\" width=\"200\">\n                    <p><span class=\"redText\">Bad choice, the bee was angry.</span><br><b>You have been stung!</b><br>Your pay has been decreased by $0.10. Your bonus pay is now $0.08.</p>\n            ","response":0,"trial_type":"html-button-response","trial_index":86,"time_elapsed":395360,"internal_node_id":"0.0-4.0-1.39","subject_id":"5f75cfbb3e500727c8c97631","study_id":"6197b3f67c2b5cd3b6d9596a","session_id":"619beeeb4e90ffe53368771b","condition":"contingent","relevant_dimensions":["antennae","wings"],"bee_group":{"antennae":"B","wings":"2","pattern":"X","legs":"X"},"bonus":0.02},{"rt":1231.7999999523163,"stimulus":"bees-with-color/bee-B1SM.svg","response":0,"trial_type":"image-button-response","trial_index":87,"time_elapsed":396599,"internal_node_id":"0.0-4.0-0.40","subject_id":"5f75cfbb3e500727c8c97631","study_id":"6197b3f67c2b5cd3b6d9596a","session_id":"619beeeb4e90ffe53368771b","condition":"contingent","relevant_dimensions":["antennae","wings"],"bee_group":{"antennae":"B","wings":"2","pattern":"X","legs":"X"},"action":"harvest","summary":"good-harvest","bonus":0.02},{"rt":1264.4000000953674,"stimulus":"\n                    <p><b>Action: <em>harvest</em></b></p>\n                    <p>This is the bee that you just saw.</p>\n                    <img src=\"bees-with-color/bee-B1SM.svg\" width=\"200\">\n                    <p><span class=\"greenText\"><b>Successful harvest!</b></span><br>Your pay has increased by $0.02. Your bonus pay is now $0.10.</p>\n            ","response":0,"trial_type":"html-button-response","trial_index":88,"time_elapsed":397871,"internal_node_id":"0.0-4.0-1.40","subject_id":"5f75cfbb3e500727c8c97631","study_id":"6197b3f67c2b5cd3b6d9596a","session_id":"619beeeb4e90ffe53368771b","condition":"contingent","relevant_dimensions":["antennae","wings"],"bee_group":{"antennae":"B","wings":"2","pattern":"X","legs":"X"},"bonus":0.02},{"rt":1343.8000000715256,"stimulus":"bees-with-color/bee-A1DF.svg","response":0,"trial_type":"image-button-response","trial_index":89,"time_elapsed":399220,"internal_node_id":"0.0-4.0-0.41","subject_id":"5f75cfbb3e500727c8c97631","study_id":"6197b3f67c2b5cd3b6d9596a","session_id":"619beeeb4e90ffe53368771b","condition":"contingent","relevant_dimensions":["antennae","wings"],"bee_group":{"antennae":"B","wings":"2","pattern":"X","legs":"X"},"action":"harvest","summary":"good-harvest","bonus":0.02},{"rt":1118.2000000476837,"stimulus":"\n                    <p><b>Action: <em>harvest</em></b></p>\n                    <p>This is the bee that you just saw.</p>\n                    <img src=\"bees-with-color/bee-A1DF.svg\" width=\"200\">\n                    <p><span class=\"greenText\"><b>Successful harvest!</b></span><br>Your pay has increased by $0.02. Your bonus pay is now $0.12.</p>\n            ","response":0,"trial_type":"html-button-response","trial_index":90,"time_elapsed":400345,"internal_node_id":"0.0-4.0-1.41","subject_id":"5f75cfbb3e500727c8c97631","study_id":"6197b3f67c2b5cd3b6d9596a","session_id":"619beeeb4e90ffe53368771b","condition":"contingent","relevant_dimensions":["antennae","wings"],"bee_group":{"antennae":"B","wings":"2","pattern":"X","legs":"X"},"bonus":0.02},{"rt":1435.1999999284744,"stimulus":"bees-with-color/bee-A1DM.svg","response":0,"trial_type":"image-button-response","trial_index":91,"time_elapsed":401788,"internal_node_id":"0.0-4.0-0.42","subject_id":"5f75cfbb3e500727c8c97631","study_id":"6197b3f67c2b5cd3b6d9596a","session_id":"619beeeb4e90ffe53368771b","condition":"contingent","relevant_dimensions":["antennae","wings"],"bee_group":{"antennae":"B","wings":"2","pattern":"X","legs":"X"},"action":"harvest","summary":"good-harvest","bonus":0.02},{"rt":1315.1999999284744,"stimulus":"\n                    <p><b>Action: <em>harvest</em></b></p>\n                    <p>This is the bee that you just saw.</p>\n                    <img src=\"bees-with-color/bee-A1DM.svg\" width=\"200\">\n                    <p><span class=\"greenText\"><b>Successful harvest!</b></span><br>Your pay has increased by $0.02. Your bonus pay is now $0.14.</p>\n            ","response":0,"trial_type":"html-button-response","trial_index":92,"time_elapsed":403109,"internal_node_id":"0.0-4.0-1.42","subject_id":"5f75cfbb3e500727c8c97631","study_id":"6197b3f67c2b5cd3b6d9596a","session_id":"619beeeb4e90ffe53368771b","condition":"contingent","relevant_dimensions":["antennae","wings"],"bee_group":{"antennae":"B","wings":"2","pattern":"X","legs":"X"},"bonus":0.02},{"rt":1583.3999999761581,"stimulus":"bees-with-color/bee-B1DF.svg","response":0,"trial_type":"image-button-response","trial_index":93,"time_elapsed":404697,"internal_node_id":"0.0-4.0-0.43","subject_id":"5f75cfbb3e500727c8c97631","study_id":"6197b3f67c2b5cd3b6d9596a","session_id":"619beeeb4e90ffe53368771b","condition":"contingent","relevant_dimensions":["antennae","wings"],"bee_group":{"antennae":"B","wings":"2","pattern":"X","legs":"X"},"action":"harvest","summary":"good-harvest","bonus":0.02},{"rt":1167.5999999046326,"stimulus":"\n                    <p><b>Action: <em>harvest</em></b></p>\n                    <p>This is the bee that you just saw.</p>\n                    <img src=\"bees-with-color/bee-B1DF.svg\" width=\"200\">\n                    <p><span class=\"greenText\"><b>Successful harvest!</b></span><br>Your pay has increased by $0.02. Your bonus pay is now $0.16.</p>\n            ","response":0,"trial_type":"html-button-response","trial_index":94,"time_elapsed":405870,"internal_node_id":"0.0-4.0-1.43","subject_id":"5f75cfbb3e500727c8c97631","study_id":"6197b3f67c2b5cd3b6d9596a","session_id":"619beeeb4e90ffe53368771b","condition":"contingent","relevant_dimensions":["antennae","wings"],"bee_group":{"antennae":"B","wings":"2","pattern":"X","legs":"X"},"bonus":0.02},{"rt":2462.2999999523163,"stimulus":"bees-with-color/bee-B2DF.svg","response":0,"trial_type":"image-button-response","trial_index":95,"time_elapsed":408338,"internal_node_id":"0.0-4.0-0.44","subject_id":"5f75cfbb3e500727c8c97631","study_id":"6197b3f67c2b5cd3b6d9596a","session_id":"619beeeb4e90ffe53368771b","condition":"contingent","relevant_dimensions":["antennae","wings"],"bee_group":{"antennae":"B","wings":"2","pattern":"X","legs":"X"},"action":"harvest","summary":"bad-harvest","bonus":0.02},{"rt":1230.7000000476837,"stimulus":"\n                    <p><b>Action: <em>harvest</em></b></p>\n                    <p>This is the bee that you just saw.</p>\n                    <img src=\"bees-with-color/bee-B2DF.svg\" width=\"200\">\n                    <p><span class=\"redText\">Bad choice, the bee was angry.</span><br><b>You have been stung!</b><br>Your pay has been decreased by $0.10. Your bonus pay is now $0.06.</p>\n            ","response":0,"trial_type":"html-button-response","trial_index":96,"time_elapsed":409574,"internal_node_id":"0.0-4.0-1.44","subject_id":"5f75cfbb3e500727c8c97631","study_id":"6197b3f67c2b5cd3b6d9596a","session_id":"619beeeb4e90ffe53368771b","condition":"contingent","relevant_dimensions":["antennae","wings"],"bee_group":{"antennae":"B","wings":"2","pattern":"X","legs":"X"},"bonus":0.02},{"rt":1124,"stimulus":"bees-with-color/bee-B1DM.svg","response":0,"trial_type":"image-button-response","trial_index":97,"time_elapsed":410704,"internal_node_id":"0.0-4.0-0.45","subject_id":"5f75cfbb3e500727c8c97631","study_id":"6197b3f67c2b5cd3b6d9596a","session_id":"619beeeb4e90ffe53368771b","condition":"contingent","relevant_dimensions":["antennae","wings"],"bee_group":{"antennae":"B","wings":"2","pattern":"X","legs":"X"},"action":"harvest","summary":"good-harvest","bonus":0.02},{"rt":1123.1000000238419,"stimulus":"\n                    <p><b>Action: <em>harvest</em></b></p>\n                    <p>This is the bee that you just saw.</p>\n                    <img src=\"bees-with-color/bee-B1DM.svg\" width=\"200\">\n                    <p><span class=\"greenText\"><b>Successful harvest!</b></span><br>Your pay has increased by $0.02. Your bonus pay is now $0.08.</p>\n            ","response":0,"trial_type":"html-button-response","trial_index":98,"time_elapsed":411831,"internal_node_id":"0.0-4.0-1.45","subject_id":"5f75cfbb3e500727c8c97631","study_id":"6197b3f67c2b5cd3b6d9596a","session_id":"619beeeb4e90ffe53368771b","condition":"contingent","relevant_dimensions":["antennae","wings"],"bee_group":{"antennae":"B","wings":"2","pattern":"X","legs":"X"},"bonus":0.02},{"rt":1360.8999999761581,"stimulus":"bees-with-color/bee-B2SF.svg","response":0,"trial_type":"image-button-response","trial_index":99,"time_elapsed":413197,"internal_node_id":"0.0-4.0-0.46","subject_id":"5f75cfbb3e500727c8c97631","study_id":"6197b3f67c2b5cd3b6d9596a","session_id":"619beeeb4e90ffe53368771b","condition":"contingent","relevant_dimensions":["antennae","wings"],"bee_group":{"antennae":"B","wings":"2","pattern":"X","legs":"X"},"action":"harvest","summary":"bad-harvest","bonus":0.02},{"rt":1241.8000000715256,"stimulus":"\n                    <p><b>Action: <em>harvest</em></b></p>\n                    <p>This is the bee that you just saw.</p>\n                    <img src=\"bees-with-color/bee-B2SF.svg\" width=\"200\">\n                    <p><span class=\"redText\">Bad choice, the bee was angry.</span><br><b>You have been stung!</b><br>Your pay has been decreased by $0.10. Your bonus pay is now $0.00.</p>\n            ","response":0,"trial_type":"html-button-response","trial_index":100,"time_elapsed":414444,"internal_node_id":"0.0-4.0-1.46","subject_id":"5f75cfbb3e500727c8c97631","study_id":"6197b3f67c2b5cd3b6d9596a","session_id":"619beeeb4e90ffe53368771b","condition":"contingent","relevant_dimensions":["antennae","wings"],"bee_group":{"antennae":"B","wings":"2","pattern":"X","legs":"X"},"bonus":0.02},{"rt":1313.3999999761581,"stimulus":"bees-with-color/bee-A1SM.svg","response":0,"trial_type":"image-button-response","trial_index":101,"time_elapsed":415762,"internal_node_id":"0.0-4.0-0.47","subject_id":"5f75cfbb3e500727c8c97631","study_id":"6197b3f67c2b5cd3b6d9596a","session_id":"619beeeb4e90ffe53368771b","condition":"contingent","relevant_dimensions":["antennae","wings"],"bee_group":{"antennae":"B","wings":"2","pattern":"X","legs":"X"},"action":"harvest","summary":"good-harvest","bonus":0.02},{"rt":1208.6000000238419,"stimulus":"\n                    <p><b>Action: <em>harvest</em></b></p>\n                    <p>This is the bee that you just saw.</p>\n                    <img src=\"bees-with-color/bee-A1SM.svg\" width=\"200\">\n                    <p><span class=\"greenText\"><b>Successful harvest!</b></span><br>Your pay has increased by $0.02. Your bonus pay is now $0.02.</p>\n            ","response":0,"trial_type":"html-button-response","trial_index":102,"time_elapsed":416976,"internal_node_id":"0.0-4.0-1.47","subject_id":"5f75cfbb3e500727c8c97631","study_id":"6197b3f67c2b5cd3b6d9596a","session_id":"619beeeb4e90ffe53368771b","condition":"contingent","relevant_dimensions":["antennae","wings"],"bee_group":{"antennae":"B","wings":"2","pattern":"X","legs":"X"},"bonus":0.02},{"rt":1739.2999999523163,"stimulus":"bees-with-color/bee-B1SF.svg","response":0,"trial_type":"image-button-response","trial_index":103,"time_elapsed":418720,"internal_node_id":"0.0-4.0-0.48","subject_id":"5f75cfbb3e500727c8c97631","study_id":"6197b3f67c2b5cd3b6d9596a","session_id":"619beeeb4e90ffe53368771b","condition":"contingent","relevant_dimensions":["antennae","wings"],"bee_group":{"antennae":"B","wings":"2","pattern":"X","legs":"X"},"action":"harvest","summary":"good-harvest","bonus":0.02},{"rt":1088.8000000715256,"stimulus":"\n                    <p><b>Action: <em>harvest</em></b></p>\n                    <p>This is the bee that you just saw.</p>\n                    <img src=\"bees-with-color/bee-B1SF.svg\" width=\"200\">\n                    <p><span class=\"greenText\"><b>Successful harvest!</b></span><br>Your pay has increased by $0.02. Your bonus pay is now $0.04.</p>\n            ","response":0,"trial_type":"html-button-response","trial_index":104,"time_elapsed":419813,"internal_node_id":"0.0-4.0-1.48","subject_id":"5f75cfbb3e500727c8c97631","study_id":"6197b3f67c2b5cd3b6d9596a","session_id":"619beeeb4e90ffe53368771b","condition":"contingent","relevant_dimensions":["antennae","wings"],"bee_group":{"antennae":"B","wings":"2","pattern":"X","legs":"X"},"bonus":0.02},{"rt":1454.0999999046326,"stimulus":"bees-with-color/bee-B1SM.svg","response":1,"trial_type":"image-button-response","trial_index":105,"time_elapsed":421274,"internal_node_id":"0.0-4.0-0.49","subject_id":"5f75cfbb3e500727c8c97631","study_id":"6197b3f67c2b5cd3b6d9596a","session_id":"619beeeb4e90ffe53368771b","condition":"contingent","relevant_dimensions":["antennae","wings"],"bee_group":{"antennae":"B","wings":"2","pattern":"X","legs":"X"},"action":"avoid","summary":"bad-avoid","bonus":0.02},{"rt":1029.9000000953674,"stimulus":"\n                    <p><b>Action: <em>avoid</em></b></p>\n                    <p>This is the bee that you just saw.</p>\n                    <img src=\"bees-with-color/bee-B1SM.svg\" width=\"200\">\n                    <p><br>Your bonus pay is unchanged, and remains at $0.04.</p>\n            ","response":0,"trial_type":"html-button-response","trial_index":106,"time_elapsed":422308,"internal_node_id":"0.0-4.0-1.49","subject_id":"5f75cfbb3e500727c8c97631","study_id":"6197b3f67c2b5cd3b6d9596a","session_id":"619beeeb4e90ffe53368771b","condition":"contingent","relevant_dimensions":["antennae","wings"],"bee_group":{"antennae":"B","wings":"2","pattern":"X","legs":"X"},"bonus":0.02},{"rt":1173.1000000238419,"stimulus":"bees-with-color/bee-A1DF.svg","response":0,"trial_type":"image-button-response","trial_index":107,"time_elapsed":423486,"internal_node_id":"0.0-4.0-0.50","subject_id":"5f75cfbb3e500727c8c97631","study_id":"6197b3f67c2b5cd3b6d9596a","session_id":"619beeeb4e90ffe53368771b","condition":"contingent","relevant_dimensions":["antennae","wings"],"bee_group":{"antennae":"B","wings":"2","pattern":"X","legs":"X"},"action":"harvest","summary":"good-harvest","bonus":0.02},{"rt":1234.8000000715256,"stimulus":"\n                    <p><b>Action: <em>harvest</em></b></p>\n                    <p>This is the bee that you just saw.</p>\n                    <img src=\"bees-with-color/bee-A1DF.svg\" width=\"200\">\n                    <p><span class=\"greenText\"><b>Successful harvest!</b></span><br>Your pay has increased by $0.02. Your bonus pay is now $0.06.</p>\n            ","response":0,"trial_type":"html-button-response","trial_index":108,"time_elapsed":424726,"internal_node_id":"0.0-4.0-1.50","subject_id":"5f75cfbb3e500727c8c97631","study_id":"6197b3f67c2b5cd3b6d9596a","session_id":"619beeeb4e90ffe53368771b","condition":"contingent","relevant_dimensions":["antennae","wings"],"bee_group":{"antennae":"B","wings":"2","pattern":"X","legs":"X"},"bonus":0.02},{"rt":1411.6000000238419,"stimulus":"bees-with-color/bee-A2SM.svg","response":1,"trial_type":"image-button-response","trial_index":109,"time_elapsed":426143,"internal_node_id":"0.0-4.0-0.51","subject_id":"5f75cfbb3e500727c8c97631","study_id":"6197b3f67c2b5cd3b6d9596a","session_id":"619beeeb4e90ffe53368771b","condition":"contingent","relevant_dimensions":["antennae","wings"],"bee_group":{"antennae":"B","wings":"2","pattern":"X","legs":"X"},"action":"avoid","summary":"bad-avoid","bonus":0.02},{"rt":1061.1000000238419,"stimulus":"\n                    <p><b>Action: <em>avoid</em></b></p>\n                    <p>This is the bee that you just saw.</p>\n                    <img src=\"bees-with-color/bee-A2SM.svg\" width=\"200\">\n                    <p><br>Your bonus pay is unchanged, and remains at $0.06.</p>\n            ","response":0,"trial_type":"html-button-response","trial_index":110,"time_elapsed":427209,"internal_node_id":"0.0-4.0-1.51","subject_id":"5f75cfbb3e500727c8c97631","study_id":"6197b3f67c2b5cd3b6d9596a","session_id":"619beeeb4e90ffe53368771b","condition":"contingent","relevant_dimensions":["antennae","wings"],"bee_group":{"antennae":"B","wings":"2","pattern":"X","legs":"X"},"bonus":0.02},{"rt":1448.7000000476837,"stimulus":"bees-with-color/bee-A1SM.svg","response":1,"trial_type":"image-button-response","trial_index":111,"time_elapsed":428663,"internal_node_id":"0.0-4.0-0.52","subject_id":"5f75cfbb3e500727c8c97631","study_id":"6197b3f67c2b5cd3b6d9596a","session_id":"619beeeb4e90ffe53368771b","condition":"contingent","relevant_dimensions":["antennae","wings"],"bee_group":{"antennae":"B","wings":"2","pattern":"X","legs":"X"},"action":"avoid","summary":"bad-avoid","bonus":0.02},{"rt":996.6000000238419,"stimulus":"\n                    <p><b>Action: <em>avoid</em></b></p>\n                    <p>This is the bee that you just saw.</p>\n                    <img src=\"bees-with-color/bee-A1SM.svg\" width=\"200\">\n                    <p><br>Your bonus pay is unchanged, and remains at $0.06.</p>\n            ","response":0,"trial_type":"html-button-response","trial_index":112,"time_elapsed":429664,"internal_node_id":"0.0-4.0-1.52","subject_id":"5f75cfbb3e500727c8c97631","study_id":"6197b3f67c2b5cd3b6d9596a","session_id":"619beeeb4e90ffe53368771b","condition":"contingent","relevant_dimensions":["antennae","wings"],"bee_group":{"antennae":"B","wings":"2","pattern":"X","legs":"X"},"bonus":0.02},{"rt":1249.3999999761581,"stimulus":"bees-with-color/bee-B2DF.svg","response":0,"trial_type":"image-button-response","trial_index":113,"time_elapsed":430921,"internal_node_id":"0.0-4.0-0.53","subject_id":"5f75cfbb3e500727c8c97631","study_id":"6197b3f67c2b5cd3b6d9596a","session_id":"619beeeb4e90ffe53368771b","condition":"contingent","relevant_dimensions":["antennae","wings"],"bee_group":{"antennae":"B","wings":"2","pattern":"X","legs":"X"},"action":"harvest","summary":"bad-harvest","bonus":0.02},{"rt":1326.8999999761581,"stimulus":"\n                    <p><b>Action: <em>harvest</em></b></p>\n                    <p>This is the bee that you just saw.</p>\n                    <img src=\"bees-with-color/bee-B2DF.svg\" width=\"200\">\n                    <p><span class=\"redText\">Bad choice, the bee was angry.</span><br><b>You have been stung!</b><br>Your pay has been decreased by $0.10. Your bonus pay is now $0.00.</p>\n            ","response":0,"trial_type":"html-button-response","trial_index":114,"time_elapsed":432253,"internal_node_id":"0.0-4.0-1.53","subject_id":"5f75cfbb3e500727c8c97631","study_id":"6197b3f67c2b5cd3b6d9596a","session_id":"619beeeb4e90ffe53368771b","condition":"contingent","relevant_dimensions":["antennae","wings"],"bee_group":{"antennae":"B","wings":"2","pattern":"X","legs":"X"},"bonus":0.02},{"rt":1175.0999999046326,"stimulus":"bees-with-color/bee-A2DF.svg","response":0,"trial_type":"image-button-response","trial_index":115,"time_elapsed":433432,"internal_node_id":"0.0-4.0-0.54","subject_id":"5f75cfbb3e500727c8c97631","study_id":"6197b3f67c2b5cd3b6d9596a","session_id":"619beeeb4e90ffe53368771b","condition":"contingent","relevant_dimensions":["antennae","wings"],"bee_group":{"antennae":"B","wings":"2","pattern":"X","legs":"X"},"action":"harvest","summary":"good-harvest","bonus":0.02},{"rt":1017.2999999523163,"stimulus":"\n                    <p><b>Action: <em>harvest</em></b></p>\n                    <p>This is the bee that you just saw.</p>\n                    <img src=\"bees-with-color/bee-A2DF.svg\" width=\"200\">\n                    <p><span class=\"greenText\"><b>Successful harvest!</b></span><br>Your pay has increased by $0.02. Your bonus pay is now $0.02.</p>\n            ","response":0,"trial_type":"html-button-response","trial_index":116,"time_elapsed":434456,"internal_node_id":"0.0-4.0-1.54","subject_id":"5f75cfbb3e500727c8c97631","study_id":"6197b3f67c2b5cd3b6d9596a","session_id":"619beeeb4e90ffe53368771b","condition":"contingent","relevant_dimensions":["antennae","wings"],"bee_group":{"antennae":"B","wings":"2","pattern":"X","legs":"X"},"bonus":0.02},{"rt":2252.899999976158,"stimulus":"bees-with-color/bee-B2DM.svg","response":0,"trial_type":"image-button-response","trial_index":117,"time_elapsed":436714,"internal_node_id":"0.0-4.0-0.55","subject_id":"5f75cfbb3e500727c8c97631","study_id":"6197b3f67c2b5cd3b6d9596a","session_id":"619beeeb4e90ffe53368771b","condition":"contingent","relevant_dimensions":["antennae","wings"],"bee_group":{"antennae":"B","wings":"2","pattern":"X","legs":"X"},"action":"harvest","summary":"bad-harvest","bonus":0.02},{"rt":1214.1000000238419,"stimulus":"\n                    <p><b>Action: <em>harvest</em></b></p>\n                    <p>This is the bee that you just saw.</p>\n                    <img src=\"bees-with-color/bee-B2DM.svg\" width=\"200\">\n                    <p><span class=\"redText\">Bad choice, the bee was angry.</span><br><b>You have been stung!</b><br>Your pay has been decreased by $0.10. Your bonus pay is now $0.00.</p>\n            ","response":0,"trial_type":"html-button-response","trial_index":118,"time_elapsed":437937,"internal_node_id":"0.0-4.0-1.55","subject_id":"5f75cfbb3e500727c8c97631","study_id":"6197b3f67c2b5cd3b6d9596a","session_id":"619beeeb4e90ffe53368771b","condition":"contingent","relevant_dimensions":["antennae","wings"],"bee_group":{"antennae":"B","wings":"2","pattern":"X","legs":"X"},"bonus":0.02},{"rt":1193.5,"stimulus":"bees-with-color/bee-B2SF.svg","response":0,"trial_type":"image-button-response","trial_index":119,"time_elapsed":439136,"internal_node_id":"0.0-4.0-0.56","subject_id":"5f75cfbb3e500727c8c97631","study_id":"6197b3f67c2b5cd3b6d9596a","session_id":"619beeeb4e90ffe53368771b","condition":"contingent","relevant_dimensions":["antennae","wings"],"bee_group":{"antennae":"B","wings":"2","pattern":"X","legs":"X"},"action":"harvest","summary":"bad-harvest","bonus":0.02},{"rt":1190.1000000238419,"stimulus":"\n                    <p><b>Action: <em>harvest</em></b></p>\n                    <p>This is the bee that you just saw.</p>\n                    <img src=\"bees-with-color/bee-B2SF.svg\" width=\"200\">\n                    <p><span class=\"redText\">Bad choice, the bee was angry.</span><br><b>You have been stung!</b><br>Your pay has been decreased by $0.10. Your bonus pay is now $0.00.</p>\n            ","response":0,"trial_type":"html-button-response","trial_index":120,"time_elapsed":440332,"internal_node_id":"0.0-4.0-1.56","subject_id":"5f75cfbb3e500727c8c97631","study_id":"6197b3f67c2b5cd3b6d9596a","session_id":"619beeeb4e90ffe53368771b","condition":"contingent","relevant_dimensions":["antennae","wings"],"bee_group":{"antennae":"B","wings":"2","pattern":"X","legs":"X"},"bonus":0.02},{"rt":1148.6999999284744,"stimulus":"bees-with-color/bee-B1DF.svg","response":0,"trial_type":"image-button-response","trial_index":121,"time_elapsed":441487,"internal_node_id":"0.0-4.0-0.57","subject_id":"5f75cfbb3e500727c8c97631","study_id":"6197b3f67c2b5cd3b6d9596a","session_id":"619beeeb4e90ffe53368771b","condition":"contingent","relevant_dimensions":["antennae","wings"],"bee_group":{"antennae":"B","wings":"2","pattern":"X","legs":"X"},"action":"harvest","summary":"good-harvest","bonus":0.02},{"rt":1119.5,"stimulus":"\n                    <p><b>Action: <em>harvest</em></b></p>\n                    <p>This is the bee that you just saw.</p>\n                    <img src=\"bees-with-color/bee-B1DF.svg\" width=\"200\">\n                    <p><span class=\"greenText\"><b>Successful harvest!</b></span><br>Your pay has increased by $0.02. Your bonus pay is now $0.02.</p>\n            ","response":0,"trial_type":"html-button-response","trial_index":122,"time_elapsed":442612,"internal_node_id":"0.0-4.0-1.57","subject_id":"5f75cfbb3e500727c8c97631","study_id":"6197b3f67c2b5cd3b6d9596a","session_id":"619beeeb4e90ffe53368771b","condition":"contingent","relevant_dimensions":["antennae","wings"],"bee_group":{"antennae":"B","wings":"2","pattern":"X","legs":"X"},"bonus":0.02},{"rt":2323.7999999523163,"stimulus":"bees-with-color/bee-A1DM.svg","response":0,"trial_type":"image-button-response","trial_index":123,"time_elapsed":444941,"internal_node_id":"0.0-4.0-0.58","subject_id":"5f75cfbb3e500727c8c97631","study_id":"6197b3f67c2b5cd3b6d9596a","session_id":"619beeeb4e90ffe53368771b","condition":"contingent","relevant_dimensions":["antennae","wings"],"bee_group":{"antennae":"B","wings":"2","pattern":"X","legs":"X"},"action":"harvest","summary":"good-harvest","bonus":0.02},{"rt":1159.0999999046326,"stimulus":"\n                    <p><b>Action: <em>harvest</em></b></p>\n                    <p>This is the bee that you just saw.</p>\n                    <img src=\"bees-with-color/bee-A1DM.svg\" width=\"200\">\n                    <p><span class=\"greenText\"><b>Successful harvest!</b></span><br>Your pay has increased by $0.02. Your bonus pay is now $0.04.</p>\n            ","response":0,"trial_type":"html-button-response","trial_index":124,"time_elapsed":446105,"internal_node_id":"0.0-4.0-1.58","subject_id":"5f75cfbb3e500727c8c97631","study_id":"6197b3f67c2b5cd3b6d9596a","session_id":"619beeeb4e90ffe53368771b","condition":"contingent","relevant_dimensions":["antennae","wings"],"bee_group":{"antennae":"B","wings":"2","pattern":"X","legs":"X"},"bonus":0.02},{"rt":1639,"stimulus":"bees-with-color/bee-A1SF.svg","response":0,"trial_type":"image-button-response","trial_index":125,"time_elapsed":447750,"internal_node_id":"0.0-4.0-0.59","subject_id":"5f75cfbb3e500727c8c97631","study_id":"6197b3f67c2b5cd3b6d9596a","session_id":"619beeeb4e90ffe53368771b","condition":"contingent","relevant_dimensions":["antennae","wings"],"bee_group":{"antennae":"B","wings":"2","pattern":"X","legs":"X"},"action":"harvest","summary":"good-harvest","bonus":0.02},{"rt":1214.2000000476837,"stimulus":"\n                    <p><b>Action: <em>harvest</em></b></p>\n                    <p>This is the bee that you just saw.</p>\n                    <img src=\"bees-with-color/bee-A1SF.svg\" width=\"200\">\n                    <p><span class=\"greenText\"><b>Successful harvest!</b></span><br>Your pay has increased by $0.02. Your bonus pay is now $0.06.</p>\n            ","response":0,"trial_type":"html-button-response","trial_index":126,"time_elapsed":448970,"internal_node_id":"0.0-4.0-1.59","subject_id":"5f75cfbb3e500727c8c97631","study_id":"6197b3f67c2b5cd3b6d9596a","session_id":"619beeeb4e90ffe53368771b","condition":"contingent","relevant_dimensions":["antennae","wings"],"bee_group":{"antennae":"B","wings":"2","pattern":"X","legs":"X"},"bonus":0.02},{"rt":3168.7999999523163,"stimulus":"bees-with-color/bee-B2SM.svg","response":0,"trial_type":"image-button-response","trial_index":127,"time_elapsed":452145,"internal_node_id":"0.0-4.0-0.60","subject_id":"5f75cfbb3e500727c8c97631","study_id":"6197b3f67c2b5cd3b6d9596a","session_id":"619beeeb4e90ffe53368771b","condition":"contingent","relevant_dimensions":["antennae","wings"],"bee_group":{"antennae":"B","wings":"2","pattern":"X","legs":"X"},"action":"harvest","summary":"bad-harvest","bonus":0.02},{"rt":1813.7000000476837,"stimulus":"\n                    <p><b>Action: <em>harvest</em></b></p>\n                    <p>This is the bee that you just saw.</p>\n                    <img src=\"bees-with-color/bee-B2SM.svg\" width=\"200\">\n                    <p><span class=\"redText\">Bad choice, the bee was angry.</span><br><b>You have been stung!</b><br>Your pay has been decreased by $0.10. Your bonus pay is now $0.00.</p>\n            ","response":0,"trial_type":"html-button-response","trial_index":128,"time_elapsed":453965,"internal_node_id":"0.0-4.0-1.60","subject_id":"5f75cfbb3e500727c8c97631","study_id":"6197b3f67c2b5cd3b6d9596a","session_id":"619beeeb4e90ffe53368771b","condition":"contingent","relevant_dimensions":["antennae","wings"],"bee_group":{"antennae":"B","wings":"2","pattern":"X","legs":"X"},"bonus":0.02},{"rt":1343.6000000238419,"stimulus":"bees-with-color/bee-A2SF.svg","response":0,"trial_type":"image-button-response","trial_index":129,"time_elapsed":455317,"internal_node_id":"0.0-4.0-0.61","subject_id":"5f75cfbb3e500727c8c97631","study_id":"6197b3f67c2b5cd3b6d9596a","session_id":"619beeeb4e90ffe53368771b","condition":"contingent","relevant_dimensions":["antennae","wings"],"bee_group":{"antennae":"B","wings":"2","pattern":"X","legs":"X"},"action":"harvest","summary":"good-harvest","bonus":0.02},{"rt":1208.8999999761581,"stimulus":"\n                    <p><b>Action: <em>harvest</em></b></p>\n                    <p>This is the bee that you just saw.</p>\n                    <img src=\"bees-with-color/bee-A2SF.svg\" width=\"200\">\n                    <p><span class=\"greenText\"><b>Successful harvest!</b></span><br>Your pay has increased by $0.02. Your bonus pay is now $0.02.</p>\n            ","response":0,"trial_type":"html-button-response","trial_index":130,"time_elapsed":456532,"internal_node_id":"0.0-4.0-1.61","subject_id":"5f75cfbb3e500727c8c97631","study_id":"6197b3f67c2b5cd3b6d9596a","session_id":"619beeeb4e90ffe53368771b","condition":"contingent","relevant_dimensions":["antennae","wings"],"bee_group":{"antennae":"B","wings":"2","pattern":"X","legs":"X"},"bonus":0.02},{"rt":1215.2000000476837,"stimulus":"bees-with-color/bee-B1DM.svg","response":0,"trial_type":"image-button-response","trial_index":131,"time_elapsed":457754,"internal_node_id":"0.0-4.0-0.62","subject_id":"5f75cfbb3e500727c8c97631","study_id":"6197b3f67c2b5cd3b6d9596a","session_id":"619beeeb4e90ffe53368771b","condition":"contingent","relevant_dimensions":["antennae","wings"],"bee_group":{"antennae":"B","wings":"2","pattern":"X","legs":"X"},"action":"harvest","summary":"good-harvest","bonus":0.02},{"rt":1172.2000000476837,"stimulus":"\n                    <p><b>Action: <em>harvest</em></b></p>\n                    <p>This is the bee that you just saw.</p>\n                    <img src=\"bees-with-color/bee-B1DM.svg\" width=\"200\">\n                    <p><span class=\"greenText\"><b>Successful harvest!</b></span><br>Your pay has increased by $0.02. Your bonus pay is now $0.04.</p>\n            ","response":0,"trial_type":"html-button-response","trial_index":132,"time_elapsed":458932,"internal_node_id":"0.0-4.0-1.62","subject_id":"5f75cfbb3e500727c8c97631","study_id":"6197b3f67c2b5cd3b6d9596a","session_id":"619beeeb4e90ffe53368771b","condition":"contingent","relevant_dimensions":["antennae","wings"],"bee_group":{"antennae":"B","wings":"2","pattern":"X","legs":"X"},"bonus":0.02},{"rt":1897.8000000715256,"stimulus":"bees-with-color/bee-A2DM.svg","response":0,"trial_type":"image-button-response","trial_index":133,"time_elapsed":460836,"internal_node_id":"0.0-4.0-0.63","subject_id":"5f75cfbb3e500727c8c97631","study_id":"6197b3f67c2b5cd3b6d9596a","session_id":"619beeeb4e90ffe53368771b","condition":"contingent","relevant_dimensions":["antennae","wings"],"bee_group":{"antennae":"B","wings":"2","pattern":"X","legs":"X"},"action":"harvest","summary":"good-harvest","bonus":0.02},{"rt":1412.1999999284744,"stimulus":"\n                    <p><b>Action: <em>harvest</em></b></p>\n                    <p>This is the bee that you just saw.</p>\n                    <img src=\"bees-with-color/bee-A2DM.svg\" width=\"200\">\n                    <p><span class=\"greenText\"><b>Successful harvest!</b></span><br>Your pay has increased by $0.02. Your bonus pay is now $0.06.</p>\n            ","response":0,"trial_type":"html-button-response","trial_index":134,"time_elapsed":462255,"internal_node_id":"0.0-4.0-1.63","subject_id":"5f75cfbb3e500727c8c97631","study_id":"6197b3f67c2b5cd3b6d9596a","session_id":"619beeeb4e90ffe53368771b","condition":"contingent","relevant_dimensions":["antennae","wings"],"bee_group":{"antennae":"B","wings":"2","pattern":"X","legs":"X"},"bonus":0.02},{"rt":7023.5,"stimulus":"You have completed the first part of this experiment.<br><br>You will now begin a shorter second part, in which you will receive no feedback.<br>The same rules regarding bonus pay apply.<br><br>Press any key to begin.","response":" ","trial_type":"html-keyboard-response","trial_index":135,"time_elapsed":469284,"internal_node_id":"0.0-5.0","subject_id":"5f75cfbb3e500727c8c97631","study_id":"6197b3f67c2b5cd3b6d9596a","session_id":"619beeeb4e90ffe53368771b","condition":"contingent","relevant_dimensions":["antennae","wings"],"bee_group":{"antennae":"B","wings":"2","pattern":"X","legs":"X"},"bonus":0.02},{"rt":1631.8000000715256,"stimulus":"bees-with-color/bee-A1DM.svg","response":0,"trial_type":"image-button-response","trial_index":136,"time_elapsed":470958,"internal_node_id":"0.0-6.0-0.0","subject_id":"5f75cfbb3e500727c8c97631","study_id":"6197b3f67c2b5cd3b6d9596a","session_id":"619beeeb4e90ffe53368771b","condition":"contingent","relevant_dimensions":["antennae","wings"],"bee_group":{"antennae":"B","wings":"2","pattern":"X","legs":"X"},"bonus":0.02},{"rt":3313.600000023842,"stimulus":"bees-with-color/bee-B2SF.svg","response":0,"trial_type":"image-button-response","trial_index":137,"time_elapsed":474280,"internal_node_id":"0.0-6.0-0.1","subject_id":"5f75cfbb3e500727c8c97631","study_id":"6197b3f67c2b5cd3b6d9596a","session_id":"619beeeb4e90ffe53368771b","condition":"contingent","relevant_dimensions":["antennae","wings"],"bee_group":{"antennae":"B","wings":"2","pattern":"X","legs":"X"},"bonus":0.02},{"rt":1181.6000000238419,"stimulus":"bees-with-color/bee-B1DF.svg","response":0,"trial_type":"image-button-response","trial_index":138,"time_elapsed":475471,"internal_node_id":"0.0-6.0-0.2","subject_id":"5f75cfbb3e500727c8c97631","study_id":"6197b3f67c2b5cd3b6d9596a","session_id":"619beeeb4e90ffe53368771b","condition":"contingent","relevant_dimensions":["antennae","wings"],"bee_group":{"antennae":"B","wings":"2","pattern":"X","legs":"X"},"bonus":0.02},{"rt":1395,"stimulus":"bees-with-color/bee-A1DF.svg","response":0,"trial_type":"image-button-response","trial_index":139,"time_elapsed":476873,"internal_node_id":"0.0-6.0-0.3","subject_id":"5f75cfbb3e500727c8c97631","study_id":"6197b3f67c2b5cd3b6d9596a","session_id":"619beeeb4e90ffe53368771b","condition":"contingent","relevant_dimensions":["antennae","wings"],"bee_group":{"antennae":"B","wings":"2","pattern":"X","legs":"X"},"bonus":0.02},{"rt":1253.5,"stimulus":"bees-with-color/bee-A2SF.svg","response":1,"trial_type":"image-button-response","trial_index":140,"time_elapsed":478130,"internal_node_id":"0.0-6.0-0.4","subject_id":"5f75cfbb3e500727c8c97631","study_id":"6197b3f67c2b5cd3b6d9596a","session_id":"619beeeb4e90ffe53368771b","condition":"contingent","relevant_dimensions":["antennae","wings"],"bee_group":{"antennae":"B","wings":"2","pattern":"X","legs":"X"},"bonus":0.02},{"rt":1615.7000000476837,"stimulus":"bees-with-color/bee-A2DM.svg","response":1,"trial_type":"image-button-response","trial_index":141,"time_elapsed":479754,"internal_node_id":"0.0-6.0-0.5","subject_id":"5f75cfbb3e500727c8c97631","study_id":"6197b3f67c2b5cd3b6d9596a","session_id":"619beeeb4e90ffe53368771b","condition":"contingent","relevant_dimensions":["antennae","wings"],"bee_group":{"antennae":"B","wings":"2","pattern":"X","legs":"X"},"bonus":0.02},{"rt":2305.7000000476837,"stimulus":"bees-with-color/bee-B1DM.svg","response":1,"trial_type":"image-button-response","trial_index":142,"time_elapsed":482067,"internal_node_id":"0.0-6.0-0.6","subject_id":"5f75cfbb3e500727c8c97631","study_id":"6197b3f67c2b5cd3b6d9596a","session_id":"619beeeb4e90ffe53368771b","condition":"contingent","relevant_dimensions":["antennae","wings"],"bee_group":{"antennae":"B","wings":"2","pattern":"X","legs":"X"},"bonus":0.02},{"rt":1238.7999999523163,"stimulus":"bees-with-color/bee-B2DF.svg","response":0,"trial_type":"image-button-response","trial_index":143,"time_elapsed":483311,"internal_node_id":"0.0-6.0-0.7","subject_id":"5f75cfbb3e500727c8c97631","study_id":"6197b3f67c2b5cd3b6d9596a","session_id":"619beeeb4e90ffe53368771b","condition":"contingent","relevant_dimensions":["antennae","wings"],"bee_group":{"antennae":"B","wings":"2","pattern":"X","legs":"X"},"bonus":0.02},{"rt":1515.7000000476837,"stimulus":"bees-with-color/bee-B2SM.svg","response":1,"trial_type":"image-button-response","trial_index":144,"time_elapsed":484835,"internal_node_id":"0.0-6.0-0.8","subject_id":"5f75cfbb3e500727c8c97631","study_id":"6197b3f67c2b5cd3b6d9596a","session_id":"619beeeb4e90ffe53368771b","condition":"contingent","relevant_dimensions":["antennae","wings"],"bee_group":{"antennae":"B","wings":"2","pattern":"X","legs":"X"},"bonus":0.02},{"rt":1043.6000000238419,"stimulus":"bees-with-color/bee-A2DF.svg","response":0,"trial_type":"image-button-response","trial_index":145,"time_elapsed":485886,"internal_node_id":"0.0-6.0-0.9","subject_id":"5f75cfbb3e500727c8c97631","study_id":"6197b3f67c2b5cd3b6d9596a","session_id":"619beeeb4e90ffe53368771b","condition":"contingent","relevant_dimensions":["antennae","wings"],"bee_group":{"antennae":"B","wings":"2","pattern":"X","legs":"X"},"bonus":0.02},{"rt":1719.8999999761581,"stimulus":"bees-with-color/bee-B1SF.svg","response":1,"trial_type":"image-button-response","trial_index":146,"time_elapsed":487612,"internal_node_id":"0.0-6.0-0.10","subject_id":"5f75cfbb3e500727c8c97631","study_id":"6197b3f67c2b5cd3b6d9596a","session_id":"619beeeb4e90ffe53368771b","condition":"contingent","relevant_dimensions":["antennae","wings"],"bee_group":{"antennae":"B","wings":"2","pattern":"X","legs":"X"},"bonus":0.02},{"rt":1415.0999999046326,"stimulus":"bees-with-color/bee-B1SM.svg","response":1,"trial_type":"image-button-response","trial_index":147,"time_elapsed":489036,"internal_node_id":"0.0-6.0-0.11","subject_id":"5f75cfbb3e500727c8c97631","study_id":"6197b3f67c2b5cd3b6d9596a","session_id":"619beeeb4e90ffe53368771b","condition":"contingent","relevant_dimensions":["antennae","wings"],"bee_group":{"antennae":"B","wings":"2","pattern":"X","legs":"X"},"bonus":0.02},{"rt":1306.5,"stimulus":"bees-with-color/bee-A1SF.svg","response":0,"trial_type":"image-button-response","trial_index":148,"time_elapsed":490349,"internal_node_id":"0.0-6.0-0.12","subject_id":"5f75cfbb3e500727c8c97631","study_id":"6197b3f67c2b5cd3b6d9596a","session_id":"619beeeb4e90ffe53368771b","condition":"contingent","relevant_dimensions":["antennae","wings"],"bee_group":{"antennae":"B","wings":"2","pattern":"X","legs":"X"},"bonus":0.02},{"rt":1383.5999999046326,"stimulus":"bees-with-color/bee-A1SM.svg","response":1,"trial_type":"image-button-response","trial_index":149,"time_elapsed":491741,"internal_node_id":"0.0-6.0-0.13","subject_id":"5f75cfbb3e500727c8c97631","study_id":"6197b3f67c2b5cd3b6d9596a","session_id":"619beeeb4e90ffe53368771b","condition":"contingent","relevant_dimensions":["antennae","wings"],"bee_group":{"antennae":"B","wings":"2","pattern":"X","legs":"X"},"bonus":0.02},{"rt":1216.5,"stimulus":"bees-with-color/bee-B2DM.svg","response":0,"trial_type":"image-button-response","trial_index":150,"time_elapsed":492966,"internal_node_id":"0.0-6.0-0.14","subject_id":"5f75cfbb3e500727c8c97631","study_id":"6197b3f67c2b5cd3b6d9596a","session_id":"619beeeb4e90ffe53368771b","condition":"contingent","relevant_dimensions":["antennae","wings"],"bee_group":{"antennae":"B","wings":"2","pattern":"X","legs":"X"},"bonus":0.02},{"rt":1438.8000000715256,"stimulus":"bees-with-color/bee-A2SM.svg","response":1,"trial_type":"image-button-response","trial_index":151,"time_elapsed":494413,"internal_node_id":"0.0-6.0-0.15","subject_id":"5f75cfbb3e500727c8c97631","study_id":"6197b3f67c2b5cd3b6d9596a","session_id":"619beeeb4e90ffe53368771b","condition":"contingent","relevant_dimensions":["antennae","wings"],"bee_group":{"antennae":"B","wings":"2","pattern":"X","legs":"X"},"bonus":0.02},{"rt":1324.2000000476837,"stimulus":"bees-with-color/bee-B2DF.svg","response":0,"trial_type":"image-button-response","trial_index":152,"time_elapsed":495743,"internal_node_id":"0.0-6.0-0.16","subject_id":"5f75cfbb3e500727c8c97631","study_id":"6197b3f67c2b5cd3b6d9596a","session_id":"619beeeb4e90ffe53368771b","condition":"contingent","relevant_dimensions":["antennae","wings"],"bee_group":{"antennae":"B","wings":"2","pattern":"X","legs":"X"},"bonus":0.02},{"rt":2033.3999999761581,"stimulus":"bees-with-color/bee-B1DF.svg","response":0,"trial_type":"image-button-response","trial_index":153,"time_elapsed":497782,"internal_node_id":"0.0-6.0-0.17","subject_id":"5f75cfbb3e500727c8c97631","study_id":"6197b3f67c2b5cd3b6d9596a","session_id":"619beeeb4e90ffe53368771b","condition":"contingent","relevant_dimensions":["antennae","wings"],"bee_group":{"antennae":"B","wings":"2","pattern":"X","legs":"X"},"bonus":0.02},{"rt":1607.2999999523163,"stimulus":"bees-with-color/bee-A2SF.svg","response":1,"trial_type":"image-button-response","trial_index":154,"time_elapsed":499397,"internal_node_id":"0.0-6.0-0.18","subject_id":"5f75cfbb3e500727c8c97631","study_id":"6197b3f67c2b5cd3b6d9596a","session_id":"619beeeb4e90ffe53368771b","condition":"contingent","relevant_dimensions":["antennae","wings"],"bee_group":{"antennae":"B","wings":"2","pattern":"X","legs":"X"},"bonus":0.02},{"rt":1165.1000000238419,"stimulus":"bees-with-color/bee-B2DM.svg","response":0,"trial_type":"image-button-response","trial_index":155,"time_elapsed":500570,"internal_node_id":"0.0-6.0-0.19","subject_id":"5f75cfbb3e500727c8c97631","study_id":"6197b3f67c2b5cd3b6d9596a","session_id":"619beeeb4e90ffe53368771b","condition":"contingent","relevant_dimensions":["antennae","wings"],"bee_group":{"antennae":"B","wings":"2","pattern":"X","legs":"X"},"bonus":0.02},{"rt":2472.100000023842,"stimulus":"bees-with-color/bee-B1SM.svg","response":1,"trial_type":"image-button-response","trial_index":156,"time_elapsed":503047,"internal_node_id":"0.0-6.0-0.20","subject_id":"5f75cfbb3e500727c8c97631","study_id":"6197b3f67c2b5cd3b6d9596a","session_id":"619beeeb4e90ffe53368771b","condition":"contingent","relevant_dimensions":["antennae","wings"],"bee_group":{"antennae":"B","wings":"2","pattern":"X","legs":"X"},"bonus":0.02},{"rt":1086.2999999523163,"stimulus":"bees-with-color/bee-A2SM.svg","response":0,"trial_type":"image-button-response","trial_index":157,"time_elapsed":504140,"internal_node_id":"0.0-6.0-0.21","subject_id":"5f75cfbb3e500727c8c97631","study_id":"6197b3f67c2b5cd3b6d9596a","session_id":"619beeeb4e90ffe53368771b","condition":"contingent","relevant_dimensions":["antennae","wings"],"bee_group":{"antennae":"B","wings":"2","pattern":"X","legs":"X"},"bonus":0.02},{"rt":885.7999999523163,"stimulus":"bees-with-color/bee-A2DM.svg","response":0,"trial_type":"image-button-response","trial_index":158,"time_elapsed":505031,"internal_node_id":"0.0-6.0-0.22","subject_id":"5f75cfbb3e500727c8c97631","study_id":"6197b3f67c2b5cd3b6d9596a","session_id":"619beeeb4e90ffe53368771b","condition":"contingent","relevant_dimensions":["antennae","wings"],"bee_group":{"antennae":"B","wings":"2","pattern":"X","legs":"X"},"bonus":0.02},{"rt":1232.7999999523163,"stimulus":"bees-with-color/bee-A1DF.svg","response":0,"trial_type":"image-button-response","trial_index":159,"time_elapsed":506270,"internal_node_id":"0.0-6.0-0.23","subject_id":"5f75cfbb3e500727c8c97631","study_id":"6197b3f67c2b5cd3b6d9596a","session_id":"619beeeb4e90ffe53368771b","condition":"contingent","relevant_dimensions":["antennae","wings"],"bee_group":{"antennae":"B","wings":"2","pattern":"X","legs":"X"},"bonus":0.02},{"rt":1464.6999999284744,"stimulus":"bees-with-color/bee-A1SF.svg","response":1,"trial_type":"image-button-response","trial_index":160,"time_elapsed":507740,"internal_node_id":"0.0-6.0-0.24","subject_id":"5f75cfbb3e500727c8c97631","study_id":"6197b3f67c2b5cd3b6d9596a","session_id":"619beeeb4e90ffe53368771b","condition":"contingent","relevant_dimensions":["antennae","wings"],"bee_group":{"antennae":"B","wings":"2","pattern":"X","legs":"X"},"bonus":0.02},{"rt":1119.6999999284744,"stimulus":"bees-with-color/bee-B1SF.svg","response":0,"trial_type":"image-button-response","trial_index":161,"time_elapsed":508865,"internal_node_id":"0.0-6.0-0.25","subject_id":"5f75cfbb3e500727c8c97631","study_id":"6197b3f67c2b5cd3b6d9596a","session_id":"619beeeb4e90ffe53368771b","condition":"contingent","relevant_dimensions":["antennae","wings"],"bee_group":{"antennae":"B","wings":"2","pattern":"X","legs":"X"},"bonus":0.02},{"rt":3059.899999976158,"stimulus":"bees-with-color/bee-B1DM.svg","response":0,"trial_type":"image-button-response","trial_index":162,"time_elapsed":511931,"internal_node_id":"0.0-6.0-0.26","subject_id":"5f75cfbb3e500727c8c97631","study_id":"6197b3f67c2b5cd3b6d9596a","session_id":"619beeeb4e90ffe53368771b","condition":"contingent","relevant_dimensions":["antennae","wings"],"bee_group":{"antennae":"B","wings":"2","pattern":"X","legs":"X"},"bonus":0.02},{"rt":2079.899999976158,"stimulus":"bees-with-color/bee-A1DM.svg","response":1,"trial_type":"image-button-response","trial_index":163,"time_elapsed":514016,"internal_node_id":"0.0-6.0-0.27","subject_id":"5f75cfbb3e500727c8c97631","study_id":"6197b3f67c2b5cd3b6d9596a","session_id":"619beeeb4e90ffe53368771b","condition":"contingent","relevant_dimensions":["antennae","wings"],"bee_group":{"antennae":"B","wings":"2","pattern":"X","legs":"X"},"bonus":0.02},{"rt":2317.3000000715256,"stimulus":"bees-with-color/bee-B2SM.svg","response":1,"trial_type":"image-button-response","trial_index":164,"time_elapsed":516339,"internal_node_id":"0.0-6.0-0.28","subject_id":"5f75cfbb3e500727c8c97631","study_id":"6197b3f67c2b5cd3b6d9596a","session_id":"619beeeb4e90