[{"success":true,"trial_type":"fullscreen","trial_index":0,"time_elapsed":10235,"internal_node_id":"0.0-0.0","subject_id":"60c913bb22635561f43ebf3a","study_id":"6197b3f67c2b5cd3b6d9596a","session_id":"6197b9ee2b0510aa5def88db","condition":"contingent","relevant_dimensions":["wings","legs"],"bee_group":{"antennae":"X","wings":"2","pattern":"X","legs":"F"},"bonus":1.4200000000000008},{"success":true,"timeout":false,"failed_images":[],"failed_audio":[],"failed_video":[],"trial_type":"preload","trial_index":1,"time_elapsed":13174,"internal_node_id":"0.0-1.0","subject_id":"60c913bb22635561f43ebf3a","study_id":"6197b3f67c2b5cd3b6d9596a","session_id":"6197b9ee2b0510aa5def88db","condition":"contingent","relevant_dimensions":["wings","legs"],"bee_group":{"antennae":"X","wings":"2","pattern":"X","legs":"F"},"bonus":1.4200000000000008},{"rt":2899.5,"stimulus":"Welcome! Press any key to begin.","response":"n","trial_type":"html-keyboard-response","trial_index":2,"time_elapsed":16075,"internal_node_id":"0.0-2.0","subject_id":"60c913bb22635561f43ebf3a","study_id":"6197b3f67c2b5cd3b6d9596a","session_id":"6197b9ee2b0510aa5def88db","condition":"contingent","relevant_dimensions":["wings","legs"],"bee_group":{"antennae":"X","wings":"2","pattern":"X","legs":"F"},"bonus":1.4200000000000008},{"view_history":[{"page_index":0,"viewing_time":2278.0999999996275},{"page_index":1,"viewing_time":4070},{"page_index":2,"viewing_time":4102},{"page_index":3,"viewing_time":6608},{"page_index":4,"viewing_time":4275.799999998882},{"page_index":5,"viewing_time":3910.10000000149},{"page_index":6,"viewing_time":6714.0999999996275},{"page_index":7,"viewing_time":6373.9000000003725},{"page_index":8,"viewing_time":2780},{"page_index":9,"viewing_time":2728.0999999996275},{"page_index":10,"viewing_time":2789.9000000003725},{"page_index":11,"viewing_time":29531.89999999851},{"page_index":12,"viewing_time":5162.10000000149},{"page_index":13,"viewing_time":974},{"page_index":14,"viewing_time":1217.8999999985099}],"rt":83516.29999999888,"trial_type":"instructions","trial_index":3,"time_elapsed":99592,"internal_node_id":"0.0-3.0-0.0","subject_id":"60c913bb22635561f43ebf3a","study_id":"6197b3f67c2b5cd3b6d9596a","session_id":"6197b9ee2b0510aa5def88db","condition":"contingent","relevant_dimensions":["wings","legs"],"bee_group":{"antennae":"X","wings":"2","pattern":"X","legs":"F"},"bonus":1.4200000000000008},{"rt":28860.599999999627,"response":{"Q0":["Two or six legs","Stripes or spots on body","Single or double wings","Antennae or no antennae"]},"question_order":[0],"trial_type":"survey-multi-select","trial_index":4,"time_elapsed":128459,"internal_node_id":"0.0-3.0-1.0","subject_id":"60c913bb22635561f43ebf3a","study_id":"6197b3f67c2b5cd3b6d9596a","session_id":"6197b9ee2b0510aa5def88db","condition":"contingent","relevant_dimensions":["wings","legs"],"bee_group":{"antennae":"X","wings":"2","pattern":"X","legs":"F"},"correct":true,"bonus":1.4200000000000008},{"rt":13618.10000000149,"response":{"Q1":"No.","Q2":"Based on the four features of the bee.","Q3":"You do not learn if it was friendly or dangerous, and do not alter your bonus."},"question_order":[0,1,2],"trial_type":"survey-multi-choice","trial_index":5,"time_elapsed":142081,"internal_node_id":"0.0-3.0-2.0","subject_id":"60c913bb22635561f43ebf3a","study_id":"6197b3f67c2b5cd3b6d9596a","session_id":"6197b9ee2b0510aa5def88db","condition":"contingent","relevant_dimensions":["wings","legs"],"bee_group":{"antennae":"X","wings":"2","pattern":"X","legs":"F"},"correct":true,"bonus":1.4200000000000008},{"rt":1816.800000000745,"stimulus":"<p>Congrats, you got everything right<br>When you're ready, click the button below to continue to the experiment.</p>","response":0,"trial_type":"html-button-response","trial_index":6,"time_elapsed":143900,"internal_node_id":"0.0-3.0-3.0","subject_id":"60c913bb22635561f43ebf3a","study_id":"6197b3f67c2b5cd3b6d9596a","session_id":"6197b9ee2b0510aa5def88db","condition":"contingent","relevant_dimensions":["wings","legs"],"bee_group":{"antennae":"X","wings":"2","pattern":"X","legs":"F"},"bonus":1.4200000000000008},{"rt":3559,"stimulus":"bees-with-color/bee-B2DM.svg","response":0,"trial_type":"image-button-response","trial_index":7,"time_elapsed":147462,"internal_node_id":"0.0-4.0-0.0","subject_id":"60c913bb22635561f43ebf3a","study_id":"6197b3f67c2b5cd3b6d9596a","session_id":"6197b9ee2b0510aa5def88db","condition":"contingent","relevant_dimensions":["wings","legs"],"bee_group":{"antennae":"X","wings":"2","pattern":"X","legs":"F"},"action":"harvest","summary":"good-harvest","bonus":1.4200000000000008},{"rt":4959.299999998882,"stimulus":"\n                    <p><b>Action: <em>harvest</em></b></p>\n                    <p>This is the bee that you just saw.</p>\n                    <img src=\"bees-with-color/bee-B2DM.svg\" width=\"200\">\n                    <p><span class=\"greenText\"><b>Successful harvest!</b></span><br>Your pay has increased by $0.02. Your bonus pay is now $0.56.</p>\n            ","response":0,"trial_type":"html-button-response","trial_index":8,"time_elapsed":152424,"internal_node_id":"0.0-4.0-1.0","subject_id":"60c913bb22635561f43ebf3a","study_id":"6197b3f67c2b5cd3b6d9596a","session_id":"6197b9ee2b0510aa5def88db","condition":"contingent","relevant_dimensions":["wings","legs"],"bee_group":{"antennae":"X","wings":"2","pattern":"X","legs":"F"},"bonus":1.4200000000000008},{"rt":1519.6000000014901,"stimulus":"bees-with-color/bee-A2DF.svg","response":0,"trial_type":"image-button-response","trial_index":9,"time_elapsed":153946,"internal_node_id":"0.0-4.0-0.1","subject_id":"60c913bb22635561f43ebf3a","study_id":"6197b3f67c2b5cd3b6d9596a","session_id":"6197b9ee2b0510aa5def88db","condition":"contingent","relevant_dimensions":["wings","legs"],"bee_group":{"antennae":"X","wings":"2","pattern":"X","legs":"F"},"action":"harvest","summary":"bad-harvest","bonus":1.4200000000000008},{"rt":12164,"stimulus":"\n                    <p><b>Action: <em>harvest</em></b></p>\n                    <p>This is the bee that you just saw.</p>\n                    <img src=\"bees-with-color/bee-A2DF.svg\" width=\"200\">\n                    <p><span class=\"redText\">Bad choice, the bee was angry.</span><br><b>You have been stung!</b><br>Your pay has been decreased by $0.10. Your bonus pay is now $0.46.</p>\n            ","response":0,"trial_type":"html-button-response","trial_index":10,"time_elapsed":166112,"internal_node_id":"0.0-4.0-1.1","subject_id":"60c913bb22635561f43ebf3a","study_id":"6197b3f67c2b5cd3b6d9596a","session_id":"6197b9ee2b0510aa5def88db","condition":"contingent","relevant_dimensions":["wings","legs"],"bee_group":{"antennae":"X","wings":"2","pattern":"X","legs":"F"},"bonus":1.4200000000000008},{"rt":1563.5,"stimulus":"bees-with-color/bee-A2DM.svg","response":1,"trial_type":"image-button-response","trial_index":11,"time_elapsed":167678,"internal_node_id":"0.0-4.0-0.2","subject_id":"60c913bb22635561f43ebf3a","study_id":"6197b3f67c2b5cd3b6d9596a","session_id":"6197b9ee2b0510aa5def88db","condition":"contingent","relevant_dimensions":["wings","legs"],"bee_group":{"antennae":"X","wings":"2","pattern":"X","legs":"F"},"action":"avoid","summary":"bad-avoid","bonus":1.4200000000000008},{"rt":1556.2999999988824,"stimulus":"\n                    <p><b>Action: <em>avoid</em></b></p>\n                    <p>This is the bee that you just saw.</p>\n                    <img src=\"bees-with-color/bee-A2DM.svg\" width=\"200\">\n                    <p><br>Your bonus pay is unchanged, and remains at $0.46.</p>\n            ","response":0,"trial_type":"html-button-response","trial_index":12,"time_elapsed":169236,"internal_node_id":"0.0-4.0-1.2","subject_id":"60c913bb22635561f43ebf3a","study_id":"6197b3f67c2b5cd3b6d9596a","session_id":"6197b9ee2b0510aa5def88db","condition":"contingent","relevant_dimensions":["wings","legs"],"bee_group":{"antennae":"X","wings":"2","pattern":"X","legs":"F"},"bonus":1.4200000000000008},{"rt":978.1999999992549,"stimulus":"bees-with-color/bee-A1DM.svg","response":0,"trial_type":"image-button-response","trial_index":13,"time_elapsed":170216,"internal_node_id":"0.0-4.0-0.3","subject_id":"60c913bb22635561f43ebf3a","study_id":"6197b3f67c2b5cd3b6d9596a","session_id":"6197b9ee2b0510aa5def88db","condition":"contingent","relevant_dimensions":["wings","legs"],"bee_group":{"antennae":"X","wings":"2","pattern":"X","legs":"F"},"action":"harvest","summary":"good-harvest","bonus":1.4200000000000008},{"rt":833.7999999988824,"stimulus":"\n                    <p><b>Action: <em>harvest</em></b></p>\n                    <p>This is the bee that you just saw.</p>\n                    <img src=\"bees-with-color/bee-A1DM.svg\" width=\"200\">\n                    <p><span class=\"greenText\"><b>Successful harvest!</b></span><br>Your pay has increased by $0.02. Your bonus pay is now $0.48.</p>\n            ","response":0,"trial_type":"html-button-response","trial_index":14,"time_elapsed":171052,"internal_node_id":"0.0-4.0-1.3","subject_id":"60c913bb22635561f43ebf3a","study_id":"6197b3f67c2b5cd3b6d9596a","session_id":"6197b9ee2b0510aa5def88db","condition":"contingent","relevant_dimensions":["wings","legs"],"bee_group":{"antennae":"X","wings":"2","pattern":"X","legs":"F"},"bonus":1.4200000000000008},{"rt":864.5,"stimulus":"bees-with-color/bee-B1SF.svg","response":0,"trial_type":"image-button-response","trial_index":15,"time_elapsed":171918,"internal_node_id":"0.0-4.0-0.4","subject_id":"60c913bb22635561f43ebf3a","study_id":"6197b3f67c2b5cd3b6d9596a","session_id":"6197b9ee2b0510aa5def88db","condition":"contingent","relevant_dimensions":["wings","legs"],"bee_group":{"antennae":"X","wings":"2","pattern":"X","legs":"F"},"action":"harvest","summary":"good-harvest","bonus":1.4200000000000008},{"rt":632,"stimulus":"\n                    <p><b>Action: <em>harvest</em></b></p>\n                    <p>This is the bee that you just saw.</p>\n                    <img src=\"bees-with-color/bee-B1SF.svg\" width=\"200\">\n                    <p><span class=\"greenText\"><b>Successful harvest!</b></span><br>Your pay has increased by $0.02. Your bonus pay is now $0.50.</p>\n            ","response":0,"trial_type":"html-button-response","trial_index":16,"time_elapsed":172552,"internal_node_id":"0.0-4.0-1.4","subject_id":"60c913bb22635561f43ebf3a","study_id":"6197b3f67c2b5cd3b6d9596a","session_id":"6197b9ee2b0510aa5def88db","condition":"contingent","relevant_dimensions":["wings","legs"],"bee_group":{"antennae":"X","wings":"2","pattern":"X","legs":"F"},"bonus":1.4200000000000008},{"rt":642.3999999985099,"stimulus":"bees-with-color/bee-B1DF.svg","response":0,"trial_type":"image-button-response","trial_index":17,"time_elapsed":173196,"internal_node_id":"0.0-4.0-0.5","subject_id":"60c913bb22635561f43ebf3a","study_id":"6197b3f67c2b5cd3b6d9596a","session_id":"6197b9ee2b0510aa5def88db","condition":"contingent","relevant_dimensions":["wings","legs"],"bee_group":{"antennae":"X","wings":"2","pattern":"X","legs":"F"},"action":"harvest","summary":"good-harvest","bonus":1.4200000000000008},{"rt":526.1000000014901,"stimulus":"\n                    <p><b>Action: <em>harvest</em></b></p>\n                    <p>This is the bee that you just saw.</p>\n                    <img src=\"bees-with-color/bee-B1DF.svg\" width=\"200\">\n                    <p><span class=\"greenText\"><b>Successful harvest!</b></span><br>Your pay has increased by $0.02. Your bonus pay is now $0.52.</p>\n            ","response":0,"trial_type":"html-button-response","trial_index":18,"time_elapsed":173724,"internal_node_id":"0.0-4.0-1.5","subject_id":"60c913bb22635561f43ebf3a","study_id":"6197b3f67c2b5cd3b6d9596a","session_id":"6197b9ee2b0510aa5def88db","condition":"contingent","relevant_dimensions":["wings","legs"],"bee_group":{"antennae":"X","wings":"2","pattern":"X","legs":"F"},"bonus":1.4200000000000008},{"rt":530.3000000007451,"stimulus":"bees-with-color/bee-A1DF.svg","response":0,"trial_type":"image-button-response","trial_index":19,"time_elapsed":174256,"internal_node_id":"0.0-4.0-0.6","subject_id":"60c913bb22635561f43ebf3a","study_id":"6197b3f67c2b5cd3b6d9596a","session_id":"6197b9ee2b0510aa5def88db","condition":"contingent","relevant_dimensions":["wings","legs"],"bee_group":{"antennae":"X","wings":"2","pattern":"X","legs":"F"},"action":"harvest","summary":"good-harvest","bonus":1.4200000000000008},{"rt":517.8999999985099,"stimulus":"\n                    <p><b>Action: <em>harvest</em></b></p>\n                    <p>This is the bee that you just saw.</p>\n                    <img src=\"bees-with-color/bee-A1DF.svg\" width=\"200\">\n                    <p><span class=\"greenText\"><b>Successful harvest!</b></span><br>Your pay has increased by $0.02. Your bonus pay is now $0.54.</p>\n            ","response":0,"trial_type":"html-button-response","trial_index":20,"time_elapsed":174776,"internal_node_id":"0.0-4.0-1.6","subject_id":"60c913bb22635561f43ebf3a","study_id":"6197b3f67c2b5cd3b6d9596a","session_id":"6197b9ee2b0510aa5def88db","condition":"contingent","relevant_dimensions":["wings","legs"],"bee_group":{"antennae":"X","wings":"2","pattern":"X","legs":"F"},"bonus":1.4200000000000008},{"rt":1000.6000000014901,"stimulus":"bees-with-color/bee-A2SF.svg","response":1,"trial_type":"image-button-response","trial_index":21,"time_elapsed":175778,"internal_node_id":"0.0-4.0-0.7","subject_id":"60c913bb22635561f43ebf3a","study_id":"6197b3f67c2b5cd3b6d9596a","session_id":"6197b9ee2b0510aa5def88db","condition":"contingent","relevant_dimensions":["wings","legs"],"bee_group":{"antennae":"X","wings":"2","pattern":"X","legs":"F"},"action":"avoid","summary":"good-avoid","bonus":1.4200000000000008},{"rt":892.1999999992549,"stimulus":"\n                    <p><b>Action: <em>avoid</em></b></p>\n                    <p>This is the bee that you just saw.</p>\n                    <img src=\"bees-with-color/bee-A2SF.svg\" width=\"200\">\n                    <p><br>Your bonus pay is unchanged, and remains at $0.54.</p>\n            ","response":0,"trial_type":"html-button-response","trial_index":22,"time_elapsed":176672,"internal_node_id":"0.0-4.0-1.7","subject_id":"60c913bb22635561f43ebf3a","study_id":"6197b3f67c2b5cd3b6d9596a","session_id":"6197b9ee2b0510aa5def88db","condition":"contingent","relevant_dimensions":["wings","legs"],"bee_group":{"antennae":"X","wings":"2","pattern":"X","legs":"F"},"bonus":1.4200000000000008},{"rt":958.2999999988824,"stimulus":"bees-with-color/bee-B2SM.svg","response":1,"trial_type":"image-button-response","trial_index":23,"time_elapsed":177632,"internal_node_id":"0.0-4.0-0.8","subject_id":"60c913bb22635561f43ebf3a","study_id":"6197b3f67c2b5cd3b6d9596a","session_id":"6197b9ee2b0510aa5def88db","condition":"contingent","relevant_dimensions":["wings","legs"],"bee_group":{"antennae":"X","wings":"2","pattern":"X","legs":"F"},"action":"avoid","summary":"bad-avoid","bonus":1.4200000000000008},{"rt":520.3999999985099,"stimulus":"\n                    <p><b>Action: <em>avoid</em></b></p>\n                    <p>This is the bee that you just saw.</p>\n                    <img src=\"bees-with-color/bee-B2SM.svg\" width=\"200\">\n                    <p><br>Your bonus pay is unchanged, and remains at $0.54.</p>\n            ","response":0,"trial_type":"html-button-response","trial_index":24,"time_elapsed":178154,"internal_node_id":"0.0-4.0-1.8","subject_id":"60c913bb22635561f43ebf3a","study_id":"6197b3f67c2b5cd3b6d9596a","session_id":"6197b9ee2b0510aa5def88db","condition":"contingent","relevant_dimensions":["wings","legs"],"bee_group":{"antennae":"X","wings":"2","pattern":"X","legs":"F"},"bonus":1.4200000000000008},{"rt":992.5,"stimulus":"bees-with-color/bee-B2SF.svg","response":1,"trial_type":"image-button-response","trial_index":25,"time_elapsed":179148,"internal_node_id":"0.0-4.0-0.9","subject_id":"60c913bb22635561f43ebf3a","study_id":"6197b3f67c2b5cd3b6d9596a","session_id":"6197b9ee2b0510aa5def88db","condition":"contingent","relevant_dimensions":["wings","legs"],"bee_group":{"antennae":"X","wings":"2","pattern":"X","legs":"F"},"action":"avoid","summary":"good-avoid","bonus":1.4200000000000008},{"rt":620.5,"stimulus":"\n                    <p><b>Action: <em>avoid</em></b></p>\n                    <p>This is the bee that you just saw.</p>\n                    <img src=\"bees-with-color/bee-B2SF.svg\" width=\"200\">\n                    <p><br>Your bonus pay is unchanged, and remains at $0.54.</p>\n            ","response":0,"trial_type":"html-button-response","trial_index":26,"time_elapsed":179770,"internal_node_id":"0.0-4.0-1.9","subject_id":"60c913bb22635561f43ebf3a","study_id":"6197b3f67c2b5cd3b6d9596a","session_id":"6197b9ee2b0510aa5def88db","condition":"contingent","relevant_dimensions":["wings","legs"],"bee_group":{"antennae":"X","wings":"2","pattern":"X","legs":"F"},"bonus":1.4200000000000008},{"rt":730.5999999996275,"stimulus":"bees-with-color/bee-B1SM.svg","response":0,"trial_type":"image-button-response","trial_index":27,"time_elapsed":180502,"internal_node_id":"0.0-4.0-0.10","subject_id":"60c913bb22635561f43ebf3a","study_id":"6197b3f67c2b5cd3b6d9596a","session_id":"6197b9ee2b0510aa5def88db","condition":"contingent","relevant_dimensions":["wings","legs"],"bee_group":{"antennae":"X","wings":"2","pattern":"X","legs":"F"},"action":"harvest","summary":"good-harvest","bonus":1.4200000000000008},{"rt":664.5,"stimulus":"\n                    <p><b>Action: <em>harvest</em></b></p>\n                    <p>This is the bee that you just saw.</p>\n                    <img src=\"bees-with-color/bee-B1SM.svg\" width=\"200\">\n                    <p><span class=\"greenText\"><b>Successful harvest!</b></span><br>Your pay has increased by $0.02. Your bonus pay is now $0.56.</p>\n            ","response":0,"trial_type":"html-button-response","trial_index":28,"time_elapsed":181168,"internal_node_id":"0.0-4.0-1.10","subject_id":"60c913bb22635561f43ebf3a","study_id":"6197b3f67c2b5cd3b6d9596a","session_id":"6197b9ee2b0510aa5def88db","condition":"contingent","relevant_dimensions":["wings","legs"],"bee_group":{"antennae":"X","wings":"2","pattern":"X","legs":"F"},"bonus":1.4200000000000008},{"rt":1164.7000000011176,"stimulus":"bees-with-color/bee-A1SM.svg","response":0,"trial_type":"image-button-response","trial_index":29,"time_elapsed":182334,"internal_node_id":"0.0-4.0-0.11","subject_id":"60c913bb22635561f43ebf3a","study_id":"6197b3f67c2b5cd3b6d9596a","session_id":"6197b9ee2b0510aa5def88db","condition":"contingent","relevant_dimensions":["wings","legs"],"bee_group":{"antennae":"X","wings":"2","pattern":"X","legs":"F"},"action":"harvest","summary":"good-harvest","bonus":1.4200000000000008},{"rt":440.3999999985099,"stimulus":"\n                    <p><b>Action: <em>harvest</em></b></p>\n                    <p>This is the bee that you just saw.</p>\n                    <img src=\"bees-with-color/bee-A1SM.svg\" width=\"200\">\n                    <p><span class=\"greenText\"><b>Successful harvest!</b></span><br>Your pay has increased by $0.02. Your bonus pay is now $0.58.</p>\n            ","response":0,"trial_type":"html-button-response","trial_index":30,"time_elapsed":182776,"internal_node_id":"0.0-4.0-1.11","subject_id":"60c913bb22635561f43ebf3a","study_id":"6197b3f67c2b5cd3b6d9596a","session_id":"6197b9ee2b0510aa5def88db","condition":"contingent","relevant_dimensions":["wings","legs"],"bee_group":{"antennae":"X","wings":"2","pattern":"X","legs":"F"},"bonus":1.4200000000000008},{"rt":658.6000000014901,"stimulus":"bees-with-color/bee-A1SF.svg","response":0,"trial_type":"image-button-response","trial_index":31,"time_elapsed":183436,"internal_node_id":"0.0-4.0-0.12","subject_id":"60c913bb22635561f43ebf3a","study_id":"6197b3f67c2b5cd3b6d9596a","session_id":"6197b9ee2b0510aa5def88db","condition":"contingent","relevant_dimensions":["wings","legs"],"bee_group":{"antennae":"X","wings":"2","pattern":"X","legs":"F"},"action":"harvest","summary":"good-harvest","bonus":1.4200000000000008},{"rt":478.3999999985099,"stimulus":"\n                    <p><b>Action: <em>harvest</em></b></p>\n                    <p>This is the bee that you just saw.</p>\n                    <img src=\"bees-with-color/bee-A1SF.svg\" width=\"200\">\n                    <p><span class=\"greenText\"><b>Successful harvest!</b></span><br>Your pay has increased by $0.02. Your bonus pay is now $0.60.</p>\n            ","response":0,"trial_type":"html-button-response","trial_index":32,"time_elapsed":183916,"internal_node_id":"0.0-4.0-1.12","subject_id":"60c913bb22635561f43ebf3a","study_id":"6197b3f67c2b5cd3b6d9596a","session_id":"6197b9ee2b0510aa5def88db","condition":"contingent","relevant_dimensions":["wings","legs"],"bee_group":{"antennae":"X","wings":"2","pattern":"X","legs":"F"},"bonus":1.4200000000000008},{"rt":3524.5,"stimulus":"bees-with-color/bee-B2DF.svg","response":1,"trial_type":"image-button-response","trial_index":33,"time_elapsed":187442,"internal_node_id":"0.0-4.0-0.13","subject_id":"60c913bb22635561f43ebf3a","study_id":"6197b3f67c2b5cd3b6d9596a","session_id":"6197b9ee2b0510aa5def88db","condition":"contingent","relevant_dimensions":["wings","legs"],"bee_group":{"antennae":"X","wings":"2","pattern":"X","legs":"F"},"action":"avoid","summary":"good-avoid","bonus":1.4200000000000008},{"rt":1048.2999999988824,"stimulus":"\n                    <p><b>Action: <em>avoid</em></b></p>\n                    <p>This is the bee that you just saw.</p>\n                    <img src=\"bees-with-color/bee-B2DF.svg\" width=\"200\">\n                    <p><br>Your bonus pay is unchanged, and remains at $0.60.</p>\n            ","response":0,"trial_type":"html-button-response","trial_index":34,"time_elapsed":188492,"internal_node_id":"0.0-4.0-1.13","subject_id":"60c913bb22635561f43ebf3a","study_id":"6197b3f67c2b5cd3b6d9596a","session_id":"6197b9ee2b0510aa5def88db","condition":"contingent","relevant_dimensions":["wings","legs"],"bee_group":{"antennae":"X","wings":"2","pattern":"X","legs":"F"},"bonus":1.4200000000000008},{"rt":720.0999999996275,"stimulus":"bees-with-color/bee-A2SM.svg","response":1,"trial_type":"image-button-response","trial_index":35,"time_elapsed":189214,"internal_node_id":"0.0-4.0-0.14","subject_id":"60c913bb22635561f43ebf3a","study_id":"6197b3f67c2b5cd3b6d9596a","session_id":"6197b9ee2b0510aa5def88db","condition":"contingent","relevant_dimensions":["wings","legs"],"bee_group":{"antennae":"X","wings":"2","pattern":"X","legs":"F"},"action":"avoid","summary":"bad-avoid","bonus":1.4200000000000008},{"rt":380.5,"stimulus":"\n                    <p><b>Action: <em>avoid</em></b></p>\n                    <p>This is the bee that you just saw.</p>\n                    <img src=\"bees-with-color/bee-A2SM.svg\" width=\"200\">\n                    <p><br>Your bonus pay is unchanged, and remains at $0.60.</p>\n            ","response":0,"trial_type":"html-button-response","trial_index":36,"time_elapsed":189596,"internal_node_id":"0.0-4.0-1.14","subject_id":"60c913bb22635561f43ebf3a","study_id":"6197b3f67c2b5cd3b6d9596a","session_id":"6197b9ee2b0510aa5def88db","condition":"contingent","relevant_dimensions":["wings","legs"],"bee_group":{"antennae":"X","wings":"2","pattern":"X","legs":"F"},"bonus":1.4200000000000008},{"rt":964.3999999985099,"stimulus":"bees-with-color/bee-B1DM.svg","response":0,"trial_type":"image-button-response","trial_index":37,"time_elapsed":190562,"internal_node_id":"0.0-4.0-0.15","subject_id":"60c913bb22635561f43ebf3a","study_id":"6197b3f67c2b5cd3b6d9596a","session_id":"6197b9ee2b0510aa5def88db","condition":"contingent","relevant_dimensions":["wings","legs"],"bee_group":{"antennae":"X","wings":"2","pattern":"X","legs":"F"},"action":"harvest","summary":"good-harvest","bonus":1.4200000000000008},{"rt":490.2999999988824,"stimulus":"\n                    <p><b>Action: <em>harvest</em></b></p>\n                    <p>This is the bee that you just saw.</p>\n                    <img src=\"bees-with-color/bee-B1DM.svg\" width=\"200\">\n                    <p><span class=\"greenText\"><b>Successful harvest!</b></span><br>Your pay has increased by $0.02. Your bonus pay is now $0.62.</p>\n            ","response":0,"trial_type":"html-button-response","trial_index":38,"time_elapsed":191054,"internal_node_id":"0.0-4.0-1.15","subject_id":"60c913bb22635561f43ebf3a","study_id":"6197b3f67c2b5cd3b6d9596a","session_id":"6197b9ee2b0510aa5def88db","condition":"contingent","relevant_dimensions":["wings","legs"],"bee_group":{"antennae":"X","wings":"2","pattern":"X","legs":"F"},"bonus":1.4200000000000008},{"rt":1332.5999999996275,"stimulus":"bees-with-color/bee-B1DM.svg","response":0,"trial_type":"image-button-response","trial_index":39,"time_elapsed":192388,"internal_node_id":"0.0-4.0-0.16","subject_id":"60c913bb22635561f43ebf3a","study_id":"6197b3f67c2b5cd3b6d9596a","session_id":"6197b9ee2b0510aa5def88db","condition":"contingent","relevant_dimensions":["wings","legs"],"bee_group":{"antennae":"X","wings":"2","pattern":"X","legs":"F"},"action":"harvest","summary":"good-harvest","bonus":1.4200000000000008},{"rt":394.09999999962747,"stimulus":"\n                    <p><b>Action: <em>harvest</em></b></p>\n                    <p>This is the bee that you just saw.</p>\n                    <img src=\"bees-with-color/bee-B1DM.svg\" width=\"200\">\n                    <p><span class=\"greenText\"><b>Successful harvest!</b></span><br>Your pay has increased by $0.02. Your bonus pay is now $0.64.</p>\n            ","response":0,"trial_type":"html-button-response","trial_index":40,"time_elapsed":192784,"internal_node_id":"0.0-4.0-1.16","subject_id":"60c913bb22635561f43ebf3a","study_id":"6197b3f67c2b5cd3b6d9596a","session_id":"6197b9ee2b0510aa5def88db","condition":"contingent","relevant_dimensions":["wings","legs"],"bee_group":{"antennae":"X","wings":"2","pattern":"X","legs":"F"},"bonus":1.4200000000000008},{"rt":560.2999999988824,"stimulus":"bees-with-color/bee-A1DF.svg","response":0,"trial_type":"image-button-response","trial_index":41,"time_elapsed":193346,"internal_node_id":"0.0-4.0-0.17","subject_id":"60c913bb22635561f43ebf3a","study_id":"6197b3f67c2b5cd3b6d9596a","session_id":"6197b9ee2b0510aa5def88db","condition":"contingent","relevant_dimensions":["wings","legs"],"bee_group":{"antennae":"X","wings":"2","pattern":"X","legs":"F"},"action":"harvest","summary":"good-harvest","bonus":1.4200000000000008},{"rt":376.30000000074506,"stimulus":"\n                    <p><b>Action: <em>harvest</em></b></p>\n                    <p>This is the bee that you just saw.</p>\n                    <img src=\"bees-with-color/bee-A1DF.svg\" width=\"200\">\n                    <p><span class=\"greenText\"><b>Successful harvest!</b></span><br>Your pay has increased by $0.02. Your bonus pay is now $0.66.</p>\n            ","response":0,"trial_type":"html-button-response","trial_index":42,"time_elapsed":193724,"internal_node_id":"0.0-4.0-1.17","subject_id":"60c913bb22635561f43ebf3a","study_id":"6197b3f67c2b5cd3b6d9596a","session_id":"6197b9ee2b0510aa5def88db","condition":"contingent","relevant_dimensions":["wings","legs"],"bee_group":{"antennae":"X","wings":"2","pattern":"X","legs":"F"},"bonus":1.4200000000000008},{"rt":486.09999999962747,"stimulus":"bees-with-color/bee-B1SM.svg","response":0,"trial_type":"image-button-response","trial_index":43,"time_elapsed":194212,"internal_node_id":"0.0-4.0-0.18","subject_id":"60c913bb22635561f43ebf3a","study_id":"6197b3f67c2b5cd3b6d9596a","session_id":"6197b9ee2b0510aa5def88db","condition":"contingent","relevant_dimensions":["wings","legs"],"bee_group":{"antennae":"X","wings":"2","pattern":"X","legs":"F"},"action":"harvest","summary":"good-harvest","bonus":1.4200000000000008},{"rt":632.5,"stimulus":"\n                    <p><b>Action: <em>harvest</em></b></p>\n                    <p>This is the bee that you just saw.</p>\n                    <img src=\"bees-with-color/bee-B1SM.svg\" width=\"200\">\n                    <p><span class=\"greenText\"><b>Successful harvest!</b></span><br>Your pay has increased by $0.02. Your bonus pay is now $0.68.</p>\n            ","response":0,"trial_type":"html-button-response","trial_index":44,"time_elapsed":194846,"internal_node_id":"0.0-4.0-1.18","subject_id":"60c913bb22635561f43ebf3a","study_id":"6197b3f67c2b5cd3b6d9596a","session_id":"6197b9ee2b0510aa5def88db","condition":"contingent","relevant_dimensions":["wings","legs"],"bee_group":{"antennae":"X","wings":"2","pattern":"X","legs":"F"},"bonus":1.4200000000000008},{"rt":502.19999999925494,"stimulus":"bees-with-color/bee-A1SF.svg","response":0,"trial_type":"image-button-response","trial_index":45,"time_elapsed":195350,"internal_node_id":"0.0-4.0-0.19","subject_id":"60c913bb22635561f43ebf3a","study_id":"6197b3f67c2b5cd3b6d9596a","session_id":"6197b9ee2b0510aa5def88db","condition":"contingent","relevant_dimensions":["wings","legs"],"bee_group":{"antennae":"X","wings":"2","pattern":"X","legs":"F"},"action":"harvest","summary":"good-harvest","bonus":1.4200000000000008},{"rt":340.5,"stimulus":"\n                    <p><b>Action: <em>harvest</em></b></p>\n                    <p>This is the bee that you just saw.</p>\n                    <img src=\"bees-with-color/bee-A1SF.svg\" width=\"200\">\n                    <p><span class=\"greenText\"><b>Successful harvest!</b></span><br>Your pay has increased by $0.02. Your bonus pay is now $0.70.</p>\n            ","response":0,"trial_type":"html-button-response","trial_index":46,"time_elapsed":195692,"internal_node_id":"0.0-4.0-1.19","subject_id":"60c913bb22635561f43ebf3a","study_id":"6197b3f67c2b5cd3b6d9596a","session_id":"6197b9ee2b0510aa5def88db","condition":"contingent","relevant_dimensions":["wings","legs"],"bee_group":{"antennae":"X","wings":"2","pattern":"X","legs":"F"},"bonus":1.4200000000000008},{"rt":614.3999999985099,"stimulus":"bees-with-color/bee-B2DM.svg","response":1,"trial_type":"image-button-response","trial_index":47,"time_elapsed":196308,"internal_node_id":"0.0-4.0-0.20","subject_id":"60c913bb22635561f43ebf3a","study_id":"6197b3f67c2b5cd3b6d9596a","session_id":"6197b9ee2b0510aa5def88db","condition":"contingent","relevant_dimensions":["wings","legs"],"bee_group":{"antennae":"X","wings":"2","pattern":"X","legs":"F"},"action":"avoid","summary":"bad-avoid","bonus":1.4200000000000008},{"rt":348.69999999925494,"stimulus":"\n                    <p><b>Action: <em>avoid</em></b></p>\n                    <p>This is the bee that you just saw.</p>\n                    <img src=\"bees-with-color/bee-B2DM.svg\" width=\"200\">\n                    <p><br>Your bonus pay is unchanged, and remains at $0.70.</p>\n            ","response":0,"trial_type":"html-button-response","trial_index":48,"time_elapsed":196658,"internal_node_id":"0.0-4.0-1.20","subject_id":"60c913bb22635561f43ebf3a","study_id":"6197b3f67c2b5cd3b6d9596a","session_id":"6197b9ee2b0510aa5def88db","condition":"contingent","relevant_dimensions":["wings","legs"],"bee_group":{"antennae":"X","wings":"2","pattern":"X","legs":"F"},"bonus":1.4200000000000008},{"rt":884.7000000011176,"stimulus":"bees-with-color/bee-A2DF.svg","response":1,"trial_type":"image-button-response","trial_index":49,"time_elapsed":197544,"internal_node_id":"0.0-4.0-0.21","subject_id":"60c913bb22635561f43ebf3a","study_id":"6197b3f67c2b5cd3b6d9596a","session_id":"6197b9ee2b0510aa5def88db","condition":"contingent","relevant_dimensions":["wings","legs"],"bee_group":{"antennae":"X","wings":"2","pattern":"X","legs":"F"},"action":"avoid","summary":"good-avoid","bonus":1.4200000000000008},{"rt":348.6000000014901,"stimulus":"\n                    <p><b>Action: <em>avoid</em></b></p>\n                    <p>This is the bee that you just saw.</p>\n                    <img src=\"bees-with-color/bee-A2DF.svg\" width=\"200\">\n                    <p><br>Your bonus pay is unchanged, and remains at $0.70.</p>\n            ","response":0,"trial_type":"html-button-response","trial_index":50,"time_elapsed":197894,"internal_node_id":"0.0-4.0-1.21","subject_id":"60c913bb22635561f43ebf3a","study_id":"6197b3f67c2b5cd3b6d9596a","session_id":"6197b9ee2b0510aa5def88db","condition":"contingent","relevant_dimensions":["wings","legs"],"bee_group":{"antennae":"X","wings":"2","pattern":"X","legs":"F"},"bonus":1.4200000000000008},{"rt":684.0999999996275,"stimulus":"bees-with-color/bee-B2SF.svg","response":1,"trial_type":"image-button-response","trial_index":51,"time_elapsed":198580,"internal_node_id":"0.0-4.0-0.22","subject_id":"60c913bb22635561f43ebf3a","study_id":"6197b3f67c2b5cd3b6d9596a","session_id":"6197b9ee2b0510aa5def88db","condition":"contingent","relevant_dimensions":["wings","legs"],"bee_group":{"antennae":"X","wings":"2","pattern":"X","legs":"F"},"action":"avoid","summary":"good-avoid","bonus":1.4200000000000008},{"rt":360.69999999925494,"stimulus":"\n                    <p><b>Action: <em>avoid</em></b></p>\n                    <p>This is the bee that you just saw.</p>\n                    <img src=\"bees-with-color/bee-B2SF.svg\" width=\"200\">\n                    <p><br>Your bonus pay is unchanged, and remains at $0.70.</p>\n            ","response":0,"trial_type":"html-button-response","trial_index":52,"time_elapsed":198942,"internal_node_id":"0.0-4.0-1.22","subject_id":"60c913bb22635561f43ebf3a","study_id":"6197b3f67c2b5cd3b6d9596a","session_id":"6197b9ee2b0510aa5def88db","condition":"contingent","relevant_dimensions":["wings","legs"],"bee_group":{"antennae":"X","wings":"2","pattern":"X","legs":"F"},"bonus":1.4200000000000008},{"rt":904.5999999996275,"stimulus":"bees-with-color/bee-B1DF.svg","response":0,"trial_type":"image-button-response","trial_index":53,"time_elapsed":199848,"internal_node_id":"0.0-4.0-0.23","subject_id":"60c913bb22635561f43ebf3a","study_id":"6197b3f67c2b5cd3b6d9596a","session_id":"6197b9ee2b0510aa5def88db","condition":"contingent","relevant_dimensions":["wings","legs"],"bee_group":{"antennae":"X","wings":"2","pattern":"X","legs":"F"},"action":"harvest","summary":"good-harvest","bonus":1.4200000000000008},{"rt":484.69999999925494,"stimulus":"\n                    <p><b>Action: <em>harvest</em></b></p>\n                    <p>This is the bee that you just saw.</p>\n                    <img src=\"bees-with-color/bee-B1DF.svg\" width=\"200\">\n                    <p><span class=\"greenText\"><b>Successful harvest!</b></span><br>Your pay has increased by $0.02. Your bonus pay is now $0.72.</p>\n            ","response":0,"trial_type":"html-button-response","trial_index":54,"time_elapsed":200334,"internal_node_id":"0.0-4.0-1.23","subject_id":"60c913bb22635561f43ebf3a","study_id":"6197b3f67c2b5cd3b6d9596a","session_id":"6197b9ee2b0510aa5def88db","condition":"contingent","relevant_dimensions":["wings","legs"],"bee_group":{"antennae":"X","wings":"2","pattern":"X","legs":"F"},"bonus":1.4200000000000008},{"rt":704.5999999996275,"stimulus":"bees-with-color/bee-B1SF.svg","response":0,"trial_type":"image-button-response","trial_index":55,"time_elapsed":201040,"internal_node_id":"0.0-4.0-0.24","subject_id":"60c913bb22635561f43ebf3a","study_id":"6197b3f67c2b5cd3b6d9596a","session_id":"6197b9ee2b0510aa5def88db","condition":"contingent","relevant_dimensions":["wings","legs"],"bee_group":{"antennae":"X","wings":"2","pattern":"X","legs":"F"},"action":"harvest","summary":"good-harvest","bonus":1.4200000000000008},{"rt":414.5,"stimulus":"\n                    <p><b>Action: <em>harvest</em></b></p>\n                    <p>This is the bee that you just saw.</p>\n                    <img src=\"bees-with-color/bee-B1SF.svg\" width=\"200\">\n                    <p><span class=\"greenText\"><b>Successful harvest!</b></span><br>Your pay has increased by $0.02. Your bonus pay is now $0.74.</p>\n            ","response":0,"trial_type":"html-button-response","trial_index":56,"time_elapsed":201456,"internal_node_id":"0.0-4.0-1.24","subject_id":"60c913bb22635561f43ebf3a","study_id":"6197b3f67c2b5cd3b6d9596a","session_id":"6197b9ee2b0510aa5def88db","condition":"contingent","relevant_dimensions":["wings","legs"],"bee_group":{"antennae":"X","wings":"2","pattern":"X","legs":"F"},"bonus":1.4200000000000008},{"rt":626.5,"stimulus":"bees-with-color/bee-A2SM.svg","response":1,"trial_type":"image-button-response","trial_index":57,"time_elapsed":202084,"internal_node_id":"0.0-4.0-0.25","subject_id":"60c913bb22635561f43ebf3a","study_id":"6197b3f67c2b5cd3b6d9596a","session_id":"6197b9ee2b0510aa5def88db","condition":"contingent","relevant_dimensions":["wings","legs"],"bee_group":{"antennae":"X","wings":"2","pattern":"X","legs":"F"},"action":"avoid","summary":"bad-avoid","bonus":1.4200000000000008},{"rt":332.6000000014901,"stimulus":"\n                    <p><b>Action: <em>avoid</em></b></p>\n                    <p>This is the bee that you just saw.</p>\n                    <img src=\"bees-with-color/bee-A2SM.svg\" width=\"200\">\n                    <p><br>Your bonus pay is unchanged, and remains at $0.74.</p>\n            ","response":0,"trial_type":"html-button-response","trial_index":58,"time_elapsed":202418,"internal_node_id":"0.0-4.0-1.25","subject_id":"60c913bb22635561f43ebf3a","study_id":"6197b3f67c2b5cd3b6d9596a","session_id":"6197b9ee2b0510aa5def88db","condition":"contingent","relevant_dimensions":["wings","legs"],"bee_group":{"antennae":"X","wings":"2","pattern":"X","legs":"F"},"bonus":1.4200000000000008},{"rt":668.7000000011176,"stimulus":"bees-with-color/bee-B2SM.svg","response":1,"trial_type":"image-button-response","trial_index":59,"time_elapsed":203088,"internal_node_id":"0.0-4.0-0.26","subject_id":"60c913bb22635561f43ebf3a","study_id":"6197b3f67c2b5cd3b6d9596a","session_id":"6197b9ee2b0510aa5def88db","condition":"contingent","relevant_dimensions":["wings","legs"],"bee_group":{"antennae":"X","wings":"2","pattern":"X","legs":"F"},"action":"avoid","summary":"bad-avoid","bonus":1.4200000000000008},{"rt":406.5,"stimulus":"\n                    <p><b>Action: <em>avoid</em></b></p>\n                    <p>This is the bee that you just saw.</p>\n                    <img src=\"bees-with-color/bee-B2SM.svg\" width=\"200\">\n                    <p><br>Your bonus pay is unchanged, and remains at $0.74.</p>\n            ","response":0,"trial_type":"html-button-response","trial_index":60,"time_elapsed":203496,"internal_node_id":"0.0-4.0-1.26","subject_id":"60c913bb22635561f43ebf3a","study_id":"6197b3f67c2b5cd3b6d9596a","session_id":"6197b9ee2b0510aa5def88db","condition":"contingent","relevant_dimensions":["wings","legs"],"bee_group":{"antennae":"X","wings":"2","pattern":"X","legs":"F"},"bonus":1.4200000000000008},{"rt":680.5999999996275,"stimulus":"bees-with-color/bee-B2DF.svg","response":1,"trial_type":"image-button-response","trial_index":61,"time_elapsed":204178,"internal_node_id":"0.0-4.0-0.27","subject_id":"60c913bb22635561f43ebf3a","study_id":"6197b3f67c2b5cd3b6d9596a","session_id":"6197b9ee2b0510aa5def88db","condition":"contingent","relevant_dimensions":["wings","legs"],"bee_group":{"antennae":"X","wings":"2","pattern":"X","legs":"F"},"action":"avoid","summary":"good-avoid","bonus":1.4200000000000008},{"rt":390.59999999962747,"stimulus":"\n                    <p><b>Action: <em>avoid</em></b></p>\n                    <p>This is the bee that you just saw.</p>\n                    <img src=\"bees-with-color/bee-B2DF.svg\" width=\"200\">\n                    <p><br>Your bonus pay is unchanged, and remains at $0.74.</p>\n            ","response":0,"trial_type":"html-button-response","trial_index":62,"time_elapsed":204570,"internal_node_id":"0.0-4.0-1.27","subject_id":"60c913bb22635561f43ebf3a","study_id":"6197b3f67c2b5cd3b6d9596a","session_id":"6197b9ee2b0510aa5def88db","condition":"contingent","relevant_dimensions":["wings","legs"],"bee_group":{"antennae":"X","wings":"2","pattern":"X","legs":"F"},"bonus":1.4200000000000008},{"rt":796.6000000014901,"stimulus":"bees-with-color/bee-A1SM.svg","response":0,"trial_type":"image-button-response","trial_index":63,"time_elapsed":205368,"internal_node_id":"0.0-4.0-0.28","subject_id":"60c913bb22635561f43ebf3a","study_id":"6197b3f67c2b5cd3b6d9596a","session_id":"6197b9ee2b0510aa5def88db","condition":"contingent","relevant_dimensions":["wings","legs"],"bee_group":{"antennae":"X","wings":"2","pattern":"X","legs":"F"},"action":"harvest","summary":"good-harvest","bonus":1.4200000000000008},{"rt":368.5,"stimulus":"\n                    <p><b>Action: <em>harvest</em></b></p>\n                    <p>This is the bee that you just saw.</p>\n                    <img src=\"bees-with-color/bee-A1SM.svg\" width=\"200\">\n                    <p><span class=\"greenText\"><b>Successful harvest!</b></span><br>Your pay has increased by $0.02. Your bonus pay is now $0.76.</p>\n            ","response":0,"trial_type":"html-button-response","trial_index":64,"time_elapsed":205738,"internal_node_id":"0.0-4.0-1.28","subject_id":"60c913bb22635561f43ebf3a","study_id":"6197b3f67c2b5cd3b6d9596a","session_id":"6197b9ee2b0510aa5def88db","condition":"contingent","relevant_dimensions":["wings","legs"],"bee_group":{"antennae":"X","wings":"2","pattern":"X","legs":"F"},"bonus":1.4200000000000008},{"rt":498.7000000011176,"stimulus":"bees-with-color/bee-A1DM.svg","response":0,"trial_type":"image-button-response","trial_index":65,"time_elapsed":206238,"internal_node_id":"0.0-4.0-0.29","subject_id":"60c913bb22635561f43ebf3a","study_id":"6197b3f67c2b5cd3b6d9596a","session_id":"6197b9ee2b0510aa5def88db","condition":"contingent","relevant_dimensions":["wings","legs"],"bee_group":{"antennae":"X","wings":"2","pattern":"X","legs":"F"},"action":"harvest","summary":"good-harvest","bonus":1.4200000000000008},{"rt":426.7000000011176,"stimulus":"\n                    <p><b>Action: <em>harvest</em></b></p>\n                    <p>This is the bee that you just saw.</p>\n                    <img src=\"bees-with-color/bee-A1DM.svg\" width=\"200\">\n                    <p><span class=\"greenText\"><b>Successful harvest!</b></span><br>Your pay has increased by $0.02. Your bonus pay is now $0.78.</p>\n            ","response":0,"trial_type":"html-button-response","trial_index":66,"time_elapsed":206666,"internal_node_id":"0.0-4.0-1.29","subject_id":"60c913bb22635561f43ebf3a","study_id":"6197b3f67c2b5cd3b6d9596a","session_id":"6197b9ee2b0510aa5def88db","condition":"contingent","relevant_dimensions":["wings","legs"],"bee_group":{"antennae":"X","wings":"2","pattern":"X","legs":"F"},"bonus":1.4200000000000008},{"rt":530.1999999992549,"stimulus":"bees-with-color/bee-A2SF.svg","response":1,"trial_type":"image-button-response","trial_index":67,"time_elapsed":207198,"internal_node_id":"0.0-4.0-0.30","subject_id":"60c913bb22635561f43ebf3a","study_id":"6197b3f67c2b5cd3b6d9596a","session_id":"6197b9ee2b0510aa5def88db","condition":"contingent","relevant_dimensions":["wings","legs"],"bee_group":{"antennae":"X","wings":"2","pattern":"X","legs":"F"},"action":"avoid","summary":"good-avoid","bonus":1.4200000000000008},{"rt":398.5,"stimulus":"\n                    <p><b>Action: <em>avoid</em></b></p>\n                    <p>This is the bee that you just saw.</p>\n                    <img src=\"bees-with-color/bee-A2SF.svg\" width=\"200\">\n                    <p><br>Your bonus pay is unchanged, and remains at $0.78.</p>\n            ","response":0,"trial_type":"html-button-response","trial_index":68,"time_elapsed":207598,"internal_node_id":"0.0-4.0-1.30","subject_id":"60c913bb22635561f43ebf3a","study_id":"6197b3f67c2b5cd3b6d9596a","session_id":"6197b9ee2b0510aa5def88db","condition":"contingent","relevant_dimensions":["wings","legs"],"bee_group":{"antennae":"X","wings":"2","pattern":"X","legs":"F"},"bonus":1.4200000000000008},{"rt":542.5,"stimulus":"bees-with-color/bee-A2DM.svg","response":1,"trial_type":"image-button-response","trial_index":69,"time_elapsed":208142,"internal_node_id":"0.0-4.0-0.31","subject_id":"60c913bb22635561f43ebf3a","study_id":"6197b3f67c2b5cd3b6d9596a","session_id":"6197b9ee2b0510aa5def88db","condition":"contingent","relevant_dimensions":["wings","legs"],"bee_group":{"antennae":"X","wings":"2","pattern":"X","legs":"F"},"action":"avoid","summary":"bad-avoid","bonus":1.4200000000000008},{"rt":338.40000000037253,"stimulus":"\n                    <p><b>Action: <em>avoid</em></b></p>\n                    <p>This is the bee that you just saw.</p>\n                    <img src=\"bees-with-color/bee-A2DM.svg\" width=\"200\">\n                    <p><br>Your bonus pay is unchanged, and remains at $0.78.</p>\n            ","response":0,"trial_type":"html-button-response","trial_index":70,"time_elapsed":208482,"internal_node_id":"0.0-4.0-1.31","subject_id":"60c913bb22635561f43ebf3a","study_id":"6197b3f67c2b5cd3b6d9596a","session_id":"6197b9ee2b0510aa5def88db","condition":"contingent","relevant_dimensions":["wings","legs"],"bee_group":{"antennae":"X","wings":"2","pattern":"X","legs":"F"},"bonus":1.4200000000000008},{"rt":726.5,"stimulus":"bees-with-color/bee-A1DF.svg","response":0,"trial_type":"image-button-response","trial_index":71,"time_elapsed":209210,"internal_node_id":"0.0-4.0-0.32","subject_id":"60c913bb22635561f43ebf3a","study_id":"6197b3f67c2b5cd3b6d9596a","session_id":"6197b9ee2b0510aa5def88db","condition":"contingent","relevant_dimensions":["wings","legs"],"bee_group":{"antennae":"X","wings":"2","pattern":"X","legs":"F"},"action":"harvest","summary":"good-harvest","bonus":1.4200000000000008},{"rt":282.5,"stimulus":"\n                    <p><b>Action: <em>harvest</em></b></p>\n                    <p>This is the bee that you just saw.</p>\n                    <img src=\"bees-with-color/bee-A1DF.svg\" width=\"200\">\n                    <p><span class=\"greenText\"><b>Successful harvest!</b></span><br>Your pay has increased by $0.02. Your bonus pay is now $0.80.</p>\n            ","response":0,"trial_type":"html-button-response","trial_index":72,"time_elapsed":209494,"internal_node_id":"0.0-4.0-1.32","subject_id":"60c913bb22635561f43ebf3a","study_id":"6197b3f67c2b5cd3b6d9596a","session_id":"6197b9ee2b0510aa5def88db","condition":"contingent","relevant_dimensions":["wings","legs"],"bee_group":{"antennae":"X","wings":"2","pattern":"X","legs":"F"},"bonus":1.4200000000000008},{"rt":588.2999999988824,"stimulus":"bees-with-color/bee-A2DM.svg","response":1,"trial_type":"image-button-response","trial_index":73,"time_elapsed":210084,"internal_node_id":"0.0-4.0-0.33","subject_id":"60c913bb22635561f43ebf3a","study_id":"6197b3f67c2b5cd3b6d9596a","session_id":"6197b9ee2b0510aa5def88db","condition":"contingent","relevant_dimensions":["wings","legs"],"bee_group":{"antennae":"X","wings":"2","pattern":"X","legs":"F"},"action":"avoid","summary":"bad-avoid","bonus":1.4200000000000008},{"rt":534.1999999992549,"stimulus":"\n                    <p><b>Action: <em>avoid</em></b></p>\n                    <p>This is the bee that you just saw.</p>\n                    <img src=\"bees-with-color/bee-A2DM.svg\" width=\"200\">\n                    <p><br>Your bonus pay is unchanged, and remains at $0.80.</p>\n            ","response":0,"trial_type":"html-button-response","trial_index":74,"time_elapsed":210620,"internal_node_id":"0.0-4.0-1.33","subject_id":"60c913bb22635561f43ebf3a","study_id":"6197b3f67c2b5cd3b6d9596a","session_id":"6197b9ee2b0510aa5def88db","condition":"contingent","relevant_dimensions":["wings","legs"],"bee_group":{"antennae":"X","wings":"2","pattern":"X","legs":"F"},"bonus":1.4200000000000008},{"rt":972.8000000007451,"stimulus":"bees-with-color/bee-A2SM.svg","response":1,"trial_type":"image-button-response","trial_index":75,"time_elapsed":211594,"internal_node_id":"0.0-4.0-0.34","subject_id":"60c913bb22635561f43ebf3a","study_id":"6197b3f67c2b5cd3b6d9596a","session_id":"6197b9ee2b0510aa5def88db","condition":"contingent","relevant_dimensions":["wings","legs"],"bee_group":{"antennae":"X","wings":"2","pattern":"X","legs":"F"},"action":"avoid","summary":"bad-avoid","bonus":1.4200000000000008},{"rt":402.3999999985099,"stimulus":"\n                    <p><b>Action: <em>avoid</em></b></p>\n                    <p>This is the bee that you just saw.</p>\n                    <img src=\"bees-with-color/bee-A2SM.svg\" width=\"200\">\n                    <p><br>Your bonus pay is unchanged, and remains at $0.80.</p>\n            ","response":0,"trial_type":"html-button-response","trial_index":76,"time_elapsed":211998,"internal_node_id":"0.0-4.0-1.34","subject_id":"60c913bb22635561f43ebf3a","study_id":"6197b3f67c2b5cd3b6d9596a","session_id":"6197b9ee2b0510aa5def88db","condition":"contingent","relevant_dimensions":["wings","legs"],"bee_group":{"antennae":"X","wings":"2","pattern":"X","legs":"F"},"bonus":1.4200000000000008},{"rt":636.3999999985099,"stimulus":"bees-with-color/bee-B1SM.svg","response":0,"trial_type":"image-button-response","trial_index":77,"time_elapsed":212636,"internal_node_id":"0.0-4.0-0.35","subject_id":"60c913bb22635561f43ebf3a","study_id":"6197b3f67c2b5cd3b6d9596a","session_id":"6197b9ee2b0510aa5def88db","condition":"contingent","relevant_dimensions":["wings","legs"],"bee_group":{"antennae":"X","wings":"2","pattern":"X","legs":"F"},"action":"harvest","summary":"good-harvest","bonus":1.4200000000000008},{"rt":250.90000000037253,"stimulus":"\n                    <p><b>Action: <em>harvest</em></b></p>\n                    <p>This is the bee that you just saw.</p>\n                    <img src=\"bees-with-color/bee-B1SM.svg\" width=\"200\">\n                    <p><span class=\"greenText\"><b>Successful harvest!</b></span><br>Your pay has increased by $0.02. Your bonus pay is now $0.82.</p>\n            ","response":0,"trial_type":"html-button-response","trial_index":78,"time_elapsed":212888,"internal_node_id":"0.0-4.0-1.35","subject_id":"60c913bb22635561f43ebf3a","study_id":"6197b3f67c2b5cd3b6d9596a","session_id":"6197b9ee2b0510aa5def88db","condition":"contingent","relevant_dimensions":["wings","legs"],"bee_group":{"antennae":"X","wings":"2","pattern":"X","legs":"F"},"bonus":1.4200000000000008},{"rt":556.4000000003725,"stimulus":"bees-with-color/bee-A1DM.svg","response":0,"trial_type":"image-button-response","trial_index":79,"time_elapsed":213445,"internal_node_id":"0.0-4.0-0.36","subject_id":"60c913bb22635561f43ebf3a","study_id":"6197b3f67c2b5cd3b6d9596a","session_id":"6197b9ee2b0510aa5def88db","condition":"contingent","relevant_dimensions":["wings","legs"],"bee_group":{"antennae":"X","wings":"2","pattern":"X","legs":"F"},"action":"harvest","summary":"good-harvest","bonus":1.4200000000000008},{"rt":332.5,"stimulus":"\n                    <p><b>Action: <em>harvest</em></b></p>\n                    <p>This is the bee that you just saw.</p>\n                    <img src=\"bees-with-color/bee-A1DM.svg\" width=\"200\">\n                    <p><span class=\"greenText\"><b>Successful harvest!</b></span><br>Your pay has increased by $0.02. Your bonus pay is now $0.84.</p>\n            ","response":0,"trial_type":"html-button-response","trial_index":80,"time_elapsed":213780,"internal_node_id":"0.0-4.0-1.36","subject_id":"60c913bb22635561f43ebf3a","study_id":"6197b3f67c2b5cd3b6d9596a","session_id":"6197b9ee2b0510aa5def88db","condition":"contingent","relevant_dimensions":["wings","legs"],"bee_group":{"antennae":"X","wings":"2","pattern":"X","legs":"F"},"bonus":1.4200000000000008},{"rt":536.3000000007451,"stimulus":"bees-with-color/bee-A2DF.svg","response":1,"trial_type":"image-button-response","trial_index":81,"time_elapsed":214318,"internal_node_id":"0.0-4.0-0.37","subject_id":"60c913bb22635561f43ebf3a","study_id":"6197b3f67c2b5cd3b6d9596a","session_id":"6197b9ee2b0510aa5def88db","condition":"contingent","relevant_dimensions":["wings","legs"],"bee_group":{"antennae":"X","wings":"2","pattern":"X","legs":"F"},"action":"avoid","summary":"good-avoid","bonus":1.4200000000000008},{"rt":294.5,"stimulus":"\n                    <p><b>Action: <em>avoid</em></b></p>\n                    <p>This is the bee that you just saw.</p>\n                    <img src=\"bees-with-color/bee-A2DF.svg\" width=\"200\">\n                    <p><br>Your bonus pay is unchanged, and remains at $0.84.</p>\n            ","response":0,"trial_type":"html-button-response","trial_index":82,"time_elapsed":214614,"internal_node_id":"0.0-4.0-1.37","subject_id":"60c913bb22635561f43ebf3a","study_id":"6197b3f67c2b5cd3b6d9596a","session_id":"6197b9ee2b0510aa5def88db","condition":"contingent","relevant_dimensions":["wings","legs"],"bee_group":{"antennae":"X","wings":"2","pattern":"X","legs":"F"},"bonus":1.4200000000000008},{"rt":816.6999999992549,"stimulus":"bees-with-color/bee-A1SM.svg","response":0,"trial_type":"image-button-response","trial_index":83,"time_elapsed":215432,"internal_node_id":"0.0-4.0-0.38","subject_id":"60c913bb22635561f43ebf3a","study_id":"6197b3f67c2b5cd3b6d9596a","session_id":"6197b9ee2b0510aa5def88db","condition":"contingent","relevant_dimensions":["wings","legs"],"bee_group":{"antennae":"X","wings":"2","pattern":"X","legs":"F"},"action":"harvest","summary":"good-harvest","bonus":1.4200000000000008},{"rt":472.59999999962747,"stimulus":"\n                    <p><b>Action: <em>harvest</em></b></p>\n                    <p>This is the bee that you just saw.</p>\n                    <img src=\"bees-with-color/bee-A1SM.svg\" width=\"200\">\n                    <p><span class=\"greenText\"><b>Successful harvest!</b></span><br>Your pay has increased by $0.02. Your bonus pay is now $0.86.</p>\n            ","response":0,"trial_type":"html-button-response","trial_index":84,"time_elapsed":215906,"internal_node_id":"0.0-4.0-1.38","subject_id":"60c913bb22635561f43ebf3a","study_id":"6197b3f67c2b5cd3b6d9596a","session_id":"6197b9ee2b0510aa5def88db","condition":"contingent","relevant_dimensions":["wings","legs"],"bee_group":{"antennae":"X","wings":"2","pattern":"X","legs":"F"},"bonus":1.4200000000000008},{"rt":736.7000000011176,"stimulus":"bees-with-color/bee-B2SF.svg","response":1,"trial_type":"image-button-response","trial_index":85,"time_elapsed":216644,"internal_node_id":"0.0-4.0-0.39","subject_id":"60c913bb22635561f43ebf3a","study_id":"6197b3f67c2b5cd3b6d9596a","session_id":"6197b9ee2b0510aa5def88db","condition":"contingent","relevant_dimensions":["wings","legs"],"bee_group":{"antennae":"X","wings":"2","pattern":"X","legs":"F"},"action":"avoid","summary":"good-avoid","bonus":1.4200000000000008},{"rt":360.2999999988824,"stimulus":"\n                    <p><b>Action: <em>avoid</em></b></p>\n                    <p>This is the bee that you just saw.</p>\n                    <img src=\"bees-with-color/bee-B2SF.svg\" width=\"200\">\n                    <p><br>Your bonus pay is unchanged, and remains at $0.86.</p>\n            ","response":0,"trial_type":"html-button-response","trial_index":86,"time_elapsed":217006,"internal_node_id":"0.0-4.0-1.39","subject_id":"60c913bb22635561f43ebf3a","study_id":"6197b3f67c2b5cd3b6d9596a","session_id":"6197b9ee2b0510aa5def88db","condition":"contingent","relevant_dimensions":["wings","legs"],"bee_group":{"antennae":"X","wings":"2","pattern":"X","legs":"F"},"bonus":1.4200000000000008},{"rt":616.5,"stimulus":"bees-with-color/bee-B1DM.svg","response":0,"trial_type":"image-button-response","trial_index":87,"time_elapsed":217624,"internal_node_id":"0.0-4.0-0.40","subject_id":"60c913bb22635561f43ebf3a","study_id":"6197b3f67c2b5cd3b6d9596a","session_id":"6197b9ee2b0510aa5def88db","condition":"contingent","relevant_dimensions":["wings","legs"],"bee_group":{"antennae":"X","wings":"2","pattern":"X","legs":"F"},"action":"harvest","summary":"good-harvest","bonus":1.4200000000000008},{"rt":444.3999999985099,"stimulus":"\n                    <p><b>Action: <em>harvest</em></b></p>\n                    <p>This is the bee that you just saw.</p>\n                    <img src=\"bees-with-color/bee-B1DM.svg\" width=\"200\">\n                    <p><span class=\"greenText\"><b>Successful harvest!</b></span><br>Your pay has increased by $0.02. Your bonus pay is now $0.88.</p>\n            ","response":0,"trial_type":"html-button-response","trial_index":88,"time_elapsed":218070,"internal_node_id":"0.0-4.0-1.40","subject_id":"60c913bb22635561f43ebf3a","study_id":"6197b3f67c2b5cd3b6d9596a","session_id":"6197b9ee2b0510aa5def88db","condition":"contingent","relevant_dimensions":["wings","legs"],"bee_group":{"antennae":"X","wings":"2","pattern":"X","legs":"F"},"bonus":1.4200000000000008},{"rt":760.5999999996275,"stimulus":"bees-with-color/bee-B2DF.svg","response":1,"trial_type":"image-button-response","trial_index":89,"time_elapsed":218832,"internal_node_id":"0.0-4.0-0.41","subject_id":"60c913bb22635561f43ebf3a","study_id":"6197b3f67c2b5cd3b6d9596a","session_id":"6197b9ee2b0510aa5def88db","condition":"contingent","relevant_dimensions":["wings","legs"],"bee_group":{"antennae":"X","wings":"2","pattern":"X","legs":"F"},"action":"avoid","summary":"good-avoid","bonus":1.4200000000000008},{"rt":320.19999999925494,"stimulus":"\n                    <p><b>Action: <em>avoid</em></b></p>\n                    <p>This is the bee that you just saw.</p>\n                    <img src=\"bees-with-color/bee-B2DF.svg\" width=\"200\">\n                    <p><br>Your bonus pay is unchanged, and remains at $0.88.</p>\n            ","response":0,"trial_type":"html-button-response","trial_index":90,"time_elapsed":219154,"internal_node_id":"0.0-4.0-1.41","subject_id":"60c913bb22635561f43ebf3a","study_id":"6197b3f67c2b5cd3b6d9596a","session_id":"6197b9ee2b0510aa5def88db","condition":"contingent","relevant_dimensions":["wings","legs"],"bee_group":{"antennae":"X","wings":"2","pattern":"X","legs":"F"},"bonus":1.4200000000000008},{"rt":624.5,"stimulus":"bees-with-color/bee-B1DF.svg","response":0,"trial_type":"image-button-response","trial_index":91,"time_elapsed":219780,"internal_node_id":"0.0-4.0-0.42","subject_id":"60c913bb22635561f43ebf3a","study_id":"6197b3f67c2b5cd3b6d9596a","session_id":"6197b9ee2b0510aa5def88db","condition":"contingent","relevant_dimensions":["wings","legs"],"bee_group":{"antennae":"X","wings":"2","pattern":"X","legs":"F"},"action":"harvest","summary":"good-harvest","bonus":1.4200000000000008},{"rt":450.3999999985099,"stimulus":"\n                    <p><b>Action: <em>harvest</em></b></p>\n                    <p>This is the bee that you just saw.</p>\n                    <img src=\"bees-with-color/bee-B1DF.svg\" width=\"200\">\n                    <p><span class=\"greenText\"><b>Successful harvest!</b></span><br>Your pay has increased by $0.02. Your bonus pay is now $0.90.</p>\n            ","response":0,"trial_type":"html-button-response","trial_index":92,"time_elapsed":220232,"internal_node_id":"0.0-4.0-1.42","subject_id":"60c913bb22635561f43ebf3a","study_id":"6197b3f67c2b5cd3b6d9596a","session_id":"6197b9ee2b0510aa5def88db","condition":"contingent","relevant_dimensions":["wings","legs"],"bee_group":{"antennae":"X","wings":"2","pattern":"X","legs":"F"},"bonus":1.4200000000000008},{"rt":988.5999999996275,"stimulus":"bees-with-color/bee-B2DM.svg","response":1,"trial_type":"image-button-response","trial_index":93,"time_elapsed":221222,"internal_node_id":"0.0-4.0-0.43","subject_id":"60c913bb22635561f43ebf3a","study_id":"6197b3f67c2b5cd3b6d9596a","session_id":"6197b9ee2b0510aa5def88db","condition":"contingent","relevant_dimensions":["wings","legs"],"bee_group":{"antennae":"X","wings":"2","pattern":"X","legs":"F"},"action":"avoid","summary":"bad-avoid","bonus":1.4200000000000008},{"rt":498.59999999962747,"stimulus":"\n                    <p><b>Action: <em>avoid</em></b></p>\n                    <p>This is the bee that you just saw.</p>\n                    <img src=\"bees-with-color/bee-B2DM.svg\" width=\"200\">\n                    <p><br>Your bonus pay is unchanged, and remains at $0.90.</p>\n            ","response":0,"trial_type":"html-button-response","trial_index":94,"time_elapsed":221722,"internal_node_id":"0.0-4.0-1.43","subject_id":"60c913bb22635561f43ebf3a","study_id":"6197b3f67c2b5cd3b6d9596a","session_id":"6197b9ee2b0510aa5def88db","condition":"contingent","relevant_dimensions":["wings","legs"],"bee_group":{"antennae":"X","wings":"2","pattern":"X","legs":"F"},"bonus":1.4200000000000008},{"rt":810.7000000011176,"stimulus":"bees-with-color/bee-B2SM.svg","response":1,"trial_type":"image-button-response","trial_index":95,"time_elapsed":222534,"internal_node_id":"0.0-4.0-0.44","subject_id":"60c913bb22635561f43ebf3a","study_id":"6197b3f67c2b5cd3b6d9596a","session_id":"6197b9ee2b0510aa5def88db","condition":"contingent","relevant_dimensions":["wings","legs"],"bee_group":{"antennae":"X","wings":"2","pattern":"X","legs":"F"},"action":"avoid","summary":"bad-avoid","bonus":1.4200000000000008},{"rt":488.40000000037253,"stimulus":"\n                    <p><b>Action: <em>avoid</em></b></p>\n                    <p>This is the bee that you just saw.</p>\n                    <img src=\"bees-with-color/bee-B2SM.svg\" width=\"200\">\n                    <p><br>Your bonus pay is unchanged, and remains at $0.90.</p>\n            ","response":0,"trial_type":"html-button-response","trial_index":96,"time_elapsed":223024,"internal_node_id":"0.0-4.0-1.44","subject_id":"60c913bb22635561f43ebf3a","study_id":"6197b3f67c2b5cd3b6d9596a","session_id":"6197b9ee2b0510aa5def88db","condition":"contingent","relevant_dimensions":["wings","legs"],"bee_group":{"antennae":"X","wings":"2","pattern":"X","legs":"F"},"bonus":1.4200000000000008},{"rt":1048.5999999996275,"stimulus":"bees-with-color/bee-B1SF.svg","response":0,"trial_type":"image-button-response","trial_index":97,"time_elapsed":224074,"internal_node_id":"0.0-4.0-0.45","subject_id":"60c913bb22635561f43ebf3a","study_id":"6197b3f67c2b5cd3b6d9596a","session_id":"6197b9ee2b0510aa5def88db","condition":"contingent","relevant_dimensions":["wings","legs"],"bee_group":{"antennae":"X","wings":"2","pattern":"X","legs":"F"},"action":"harvest","summary":"good-harvest","bonus":1.4200000000000008},{"rt":482.2999999988824,"stimulus":"\n                    <p><b>Action: <em>harvest</em></b></p>\n                    <p>This is the bee that you just saw.</p>\n                    <img src=\"bees-with-color/bee-B1SF.svg\" width=\"200\">\n                    <p><span class=\"greenText\"><b>Successful harvest!</b></span><br>Your pay has increased by $0.02. Your bonus pay is now $0.92.</p>\n            ","response":0,"trial_type":"html-button-response","trial_index":98,"time_elapsed":224558,"internal_node_id":"0.0-4.0-1.45","subject_id":"60c913bb22635561f43ebf3a","study_id":"6197b3f67c2b5cd3b6d9596a","session_id":"6197b9ee2b0510aa5def88db","condition":"contingent","relevant_dimensions":["wings","legs"],"bee_group":{"antennae":"X","wings":"2","pattern":"X","legs":"F"},"bonus":1.4200000000000008},{"rt":766.2999999988824,"stimulus":"bees-with-color/bee-A1SF.svg","response":0,"trial_type":"image-button-response","trial_index":99,"time_elapsed":225326,"internal_node_id":"0.0-4.0-0.46","subject_id":"60c913bb22635561f43ebf3a","study_id":"6197b3f67c2b5cd3b6d9596a","session_id":"6197b9ee2b0510aa5def88db","condition":"contingent","relevant_dimensions":["wings","legs"],"bee_group":{"antennae":"X","wings":"2","pattern":"X","legs":"F"},"action":"harvest","summary":"good-harvest","bonus":1.4200000000000008},{"rt":386.2999999988824,"stimulus":"\n                    <p><b>Action: <em>harvest</em></b></p>\n                    <p>This is the bee that you just saw.</p>\n                    <img src=\"bees-with-color/bee-A1SF.svg\" width=\"200\">\n                    <p><span class=\"greenText\"><b>Successful harvest!</b></span><br>Your pay has increased by $0.02. Your bonus pay is now $0.94.</p>\n            ","response":0,"trial_type":"html-button-response","trial_index":100,"time_elapsed":225714,"internal_node_id":"0.0-4.0-1.46","subject_id":"60c913bb22635561f43ebf3a","study_id":"6197b3f67c2b5cd3b6d9596a","session_id":"6197b9ee2b0510aa5def88db","condition":"contingent","relevant_dimensions":["wings","legs"],"bee_group":{"antennae":"X","wings":"2","pattern":"X","legs":"F"},"bonus":1.4200000000000008},{"rt":4510.5999999996275,"stimulus":"bees-with-color/bee-A2SF.svg","response":1,"trial_type":"image-button-response","trial_index":101,"time_elapsed":230226,"internal_node_id":"0.0-4.0-0.47","subject_id":"60c913bb22635561f43ebf3a","study_id":"6197b3f67c2b5cd3b6d9596a","session_id":"6197b9ee2b0510aa5def88db","condition":"contingent","relevant_dimensions":["wings","legs"],"bee_group":{"antennae":"X","wings":"2","pattern":"X","legs":"F"},"action":"avoid","summary":"good-avoid","bonus":1.4200000000000008},{"rt":274.30000000074506,"stimulus":"\n                    <p><b>Action: <em>avoid</em></b></p>\n                    <p>This is the bee that you just saw.</p>\n                    <img src=\"bees-with-color/bee-A2SF.svg\" width=\"200\">\n                    <p><br>Your bonus pay is unchanged, and remains at $0.94.</p>\n            ","response":0,"trial_type":"html-button-response","trial_index":102,"time_elapsed":230502,"internal_node_id":"0.0-4.0-1.47","subject_id":"60c913bb22635561f43ebf3a","study_id":"6197b3f67c2b5cd3b6d9596a","session_id":"6197b9ee2b0510aa5def88db","condition":"contingent","relevant_dimensions":["wings","legs"],"bee_group":{"antennae":"X","wings":"2","pattern":"X","legs":"F"},"bonus":1.4200000000000008},{"rt":570.3000000007451,"stimulus":"bees-with-color/bee-B2SF.svg","response":1,"trial_type":"image-button-response","trial_index":103,"time_elapsed":231074,"internal_node_id":"0.0-4.0-0.48","subject_id":"60c913bb22635561f43ebf3a","study_id":"6197b3f67c2b5cd3b6d9596a","session_id":"6197b9ee2b0510aa5def88db","condition":"contingent","relevant_dimensions":["wings","legs"],"bee_group":{"antennae":"X","wings":"2","pattern":"X","legs":"F"},"action":"avoid","summary":"good-avoid","bonus":1.4200000000000008},{"rt":244.2999999988824,"stimulus":"\n                    <p><b>Action: <em>avoid</em></b></p>\n                    <p>This is the bee that you just saw.</p>\n                    <img src=\"bees-with-color/bee-B2SF.svg\" width=\"200\">\n                    <p><br>Your bonus pay is unchanged, and remains at $0.94.</p>\n            ","response":0,"trial_type":"html-button-response","trial_index":104,"time_elapsed":231320,"internal_node_id":"0.0-4.0-1.48","subject_id":"60c913bb22635561f43ebf3a","study_id":"6197b3f67c2b5cd3b6d9596a","session_id":"6197b9ee2b0510aa5def88db","condition":"contingent","relevant_dimensions":["wings","legs"],"bee_group":{"antennae":"X","wings":"2","pattern":"X","legs":"F"},"bonus":1.4200000000000008},{"rt":649.2000000011176,"stimulus":"bees-with-color/bee-A1DF.svg","response":0,"trial_type":"image-button-response","trial_index":105,"time_elapsed":231970,"internal_node_id":"0.0-4.0-0.49","subject_id":"60c913bb22635561f43ebf3a","study_id":"6197b3f67c2b5cd3b6d9596a","session_id":"6197b9ee2b0510aa5def88db","condition":"contingent","relevant_dimensions":["wings","legs"],"bee_group":{"antennae":"X","wings":"2","pattern":"X","legs":"F"},"action":"harvest","summary":"good-harvest","bonus":1.4200000000000008},{"rt":318.19999999925494,"stimulus":"\n                    <p><b>Action: <em>harvest</em></b></p>\n                    <p>This is the bee that you just saw.</p>\n                    <img src=\"bees-with-color/bee-A1DF.svg\" width=\"200\">\n                    <p><span class=\"greenText\"><b>Successful harvest!</b></span><br>Your pay has increased by $0.02. Your bonus pay is now $0.96.</p>\n            ","response":0,"trial_type":"html-button-response","trial_index":106,"time_elapsed":232290,"internal_node_id":"0.0-4.0-1.49","subject_id":"60c913bb22635561f43ebf3a","study_id":"6197b3f67c2b5cd3b6d9596a","session_id":"6197b9ee2b0510aa5def88db","condition":"contingent","relevant_dimensions":["wings","legs"],"bee_group":{"antennae":"X","wings":"2","pattern":"X","legs":"F"},"bonus":1.4200000000000008},{"rt":516.7999999988824,"stimulus":"bees-with-color/bee-B1DF.svg","response":0,"trial_type":"image-button-response","trial_index":107,"time_elapsed":232808,"internal_node_id":"0.0-4.0-0.50","subject_id":"60c913bb22635561f43ebf3a","study_id":"6197b3f67c2b5cd3b6d9596a","session_id":"6197b9ee2b0510aa5def88db","condition":"contingent","relevant_dimensions":["wings","legs"],"bee_group":{"antennae":"X","wings":"2","pattern":"X","legs":"F"},"action":"harvest","summary":"good-harvest","bonus":1.4200000000000008},{"rt":370.19999999925494,"stimulus":"\n                    <p><b>Action: <em>harvest</em></b></p>\n                    <p>This is the bee that you just saw.</p>\n                    <img src=\"bees-with-color/bee-B1DF.svg\" width=\"200\">\n                    <p><span class=\"greenText\"><b>Successful harvest!</b></span><br>Your pay has increased by $0.02. Your bonus pay is now $0.98.</p>\n            ","response":0,"trial_type":"html-button-response","trial_index":108,"time_elapsed":233180,"internal_node_id":"0.0-4.0-1.50","subject_id":"60c913bb22635561f43ebf3a","study_id":"6197b3f67c2b5cd3b6d9596a","session_id":"6197b9ee2b0510aa5def88db","condition":"contingent","relevant_dimensions":["wings","legs"],"bee_group":{"antennae":"X","wings":"2","pattern":"X","legs":"F"},"bonus":1.4200000000000008},{"rt":866.6999999992549,"stimulus":"bees-with-color/bee-B1SM.svg","response":0,"trial_type":"image-button-response","trial_index":109,"time_elapsed":234048,"internal_node_id":"0.0-4.0-0.51","subject_id":"60c913bb22635561f43ebf3a","study_id":"6197b3f67c2b5cd3b6d9596a","session_id":"6197b9ee2b0510aa5def88db","condition":"contingent","relevant_dimensions":["wings","legs"],"bee_group":{"antennae":"X","wings":"2","pattern":"X","legs":"F"},"action":"harvest","summary":"good-harvest","bonus":1.4200000000000008},{"rt":412.80000000074506,"stimulus":"\n                    <p><b>Action: <em>harvest</em></b></p>\n                    <p>This is the bee that you just saw.</p>\n                    <img src=\"bees-with-color/bee-B1SM.svg\" width=\"200\">\n                    <p><span class=\"greenText\"><b>Successful harvest!</b></span><br>Your pay has increased by $0.02. Your bonus pay is now $1.00.</p>\n            ","response":0,"trial_type":"html-button-response","trial_index":110,"time_elapsed":234462,"internal_node_id":"0.0-4.0-1.51","subject_id":"60c913bb22635561f43ebf3a","study_id":"6197b3f67c2b5cd3b6d9596a","session_id":"6197b9ee2b0510aa5def88db","condition":"contingent","relevant_dimensions":["wings","legs"],"bee_group":{"antennae":"X","wings":"2","pattern":"X","legs":"F"},"bonus":1.4200000000000008},{"rt":1212.3999999985099,"stimulus":"bees-with-color/bee-A2SM.svg","response":1,"trial_type":"image-button-response","trial_index":111,"time_elapsed":235676,"internal_node_id":"0.0-4.0-0.52","subject_id":"60c913bb22635561f43ebf3a","study_id":"6197b3f67c2b5cd3b6d9596a","session_id":"6197b9ee2b0510aa5def88db","condition":"contingent","relevant_dimensions":["wings","legs"],"bee_group":{"antennae":"X","wings":"2","pattern":"X","legs":"F"},"action":"avoid","summary":"bad-avoid","bonus":1.4200000000000008},{"rt":378.5,"stimulus":"\n                    <p><b>Action: <em>avoid</em></b></p>\n                    <p>This is the bee that you just saw.</p>\n                    <img src=\"bees-with-color/bee-A2SM.svg\" width=\"200\">\n                    <p><br>Your bonus pay is unchanged, and remains at $1.00.</p>\n            ","response":0,"trial_type":"html-button-response","trial_index":112,"time_elapsed":236056,"internal_node_id":"0.0-4.0-1.52","subject_id":"60c913bb22635561f43ebf3a","study_id":"6197b3f67c2b5cd3b6d9596a","session_id":"6197b9ee2b0510aa5def88db","condition":"contingent","relevant_dimensions":["wings","legs"],"bee_group":{"antennae":"X","wings":"2","pattern":"X","legs":"F"},"bonus":1.4200000000000008},{"rt":500.69999999925494,"stimulus":"bees-with-color/bee-B1SF.svg","response":0,"trial_type":"image-button-response","trial_index":113,"time_elapsed":236558,"internal_node_id":"0.0-4.0-0.53","subject_id":"60c913bb22635561f43ebf3a","study_id":"6197b3f67c2b5cd3b6d9596a","session_id":"6197b9ee2b0510aa5def88db","condition":"contingent","relevant_dimensions":["wings","legs"],"bee_group":{"antennae":"X","wings":"2","pattern":"X","legs":"F"},"action":"harvest","summary":"good-harvest","bonus":1.4200000000000008},{"rt":282.6000000014901,"stimulus":"\n                    <p><b>Action: <em>harvest</em></b></p>\n                    <p>This is the bee that you just saw.</p>\n                    <img src=\"bees-with-color/bee-B1SF.svg\" width=\"200\">\n                    <p><span class=\"greenText\"><b>Successful harvest!</b></span><br>Your pay has increased by $0.02. Your bonus pay is now $1.02.</p>\n            ","response":0,"trial_type":"html-button-response","trial_index":114,"time_elapsed":236842,"internal_node_id":"0.0-4.0-1.53","subject_id":"60c913bb22635561f43ebf3a","study_id":"6197b3f67c2b5cd3b6d9596a","session_id":"6197b9ee2b0510aa5def88db","condition":"contingent","relevant_dimensions":["wings","legs"],"bee_group":{"antennae":"X","wings":"2","pattern":"X","legs":"F"},"bonus":1.4200000000000008},{"rt":1334.4000000003725,"stimulus":"bees-with-color/bee-A2DF.svg","response":1,"trial_type":"image-button-response","trial_index":115,"time_elapsed":238177,"internal_node_id":"0.0-4.0-0.54","subject_id":"60c913bb22635561f43ebf3a","study_id":"6197b3f67c2b5cd3b6d9596a","session_id":"6197b9ee2b0510aa5def88db","condition":"contingent","relevant_dimensions":["wings","legs"],"bee_group":{"antennae":"X","wings":"2","pattern":"X","legs":"F"},"action":"avoid","summary":"good-avoid","bonus":1.4200000000000008},{"rt":260.7999999988824,"stimulus":"\n                    <p><b>Action: <em>avoid</em></b></p>\n                    <p>This is the bee that you just saw.</p>\n                    <img src=\"bees-with-color/bee-A2DF.svg\" width=\"200\">\n                    <p><br>Your bonus pay is unchanged, and remains at $1.02.</p>\n            ","response":0,"trial_type":"html-button-response","trial_index":116,"time_elapsed":238440,"internal_node_id":"0.0-4.0-1.54","subject_id":"60c913bb22635561f43ebf3a","study_id":"6197b3f67c2b5cd3b6d9596a","session_id":"6197b9ee2b0510aa5def88db","condition":"contingent","relevant_dimensions":["wings","legs"],"bee_group":{"antennae":"X","wings":"2","pattern":"X","legs":"F"},"bonus":1.4200000000000008},{"rt":652.5,"stimulus":"bees-with-color/bee-A1SM.svg","response":0,"trial_type":"image-button-response","trial_index":117,"time_elapsed":239094,"internal_node_id":"0.0-4.0-0.55","subject_id":"60c913bb22635561f43ebf3a","study_id":"6197b3f67c2b5cd3b6d9596a","session_id":"6197b9ee2b0510aa5def88db","condition":"contingent","relevant_dimensions":["wings","legs"],"bee_group":{"antennae":"X","wings":"2","pattern":"X","legs":"F"},"action":"harvest","summary":"good-harvest","bonus":1.4200000000000008},{"rt":304.6000000014901,"stimulus":"\n                    <p><b>Action: <em>harvest</em></b></p>\n                    <p>This is the bee that you just saw.</p>\n                    <img src=\"bees-with-color/bee-A1SM.svg\" width=\"200\">\n                    <p><span class=\"greenText\"><b>Successful harvest!</b></span><br>Your pay has increased by $0.02. Your bonus pay is now $1.04.</p>\n            ","response":0,"trial_type":"html-button-response","trial_index":118,"time_elapsed":239400,"internal_node_id":"0.0-4.0-1.55","subject_id":"60c913bb22635561f43ebf3a","study_id":"6197b3f67c2b5cd3b6d9596a","session_id":"6197b9ee2b0510aa5def88db","condition":"contingent","relevant_dimensions":["wings","legs"],"bee_group":{"antennae":"X","wings":"2","pattern":"X","legs":"F"},"bonus":1.4200000000000008},{"rt":726.6000000014901,"stimulus":"bees-with-color/bee-B2SM.svg","response":1,"trial_type":"image-button-response","trial_index":119,"time_elapsed":240128,"internal_node_id":"0.0-4.0-0.56","subject_id":"60c913bb22635561f43ebf3a","study_id":"6197b3f67c2b5cd3b6d9596a","session_id":"6197b9ee2b0510aa5def88db","condition":"contingent","relevant_dimensions":["wings","legs"],"bee_group":{"antennae":"X","wings":"2","pattern":"X","legs":"F"},"action":"avoid","summary":"bad-avoid","bonus":1.4200000000000008},{"rt":244.39999999850988,"stimulus":"\n                    <p><b>Action: <em>avoid</em></b></p>\n                    <p>This is the bee that you just saw.</p>\n                    <img src=\"bees-with-color/bee-B2SM.svg\" width=\"200\">\n                    <p><br>Your bonus pay is unchanged, and remains at $1.04.</p>\n            ","response":0,"trial_type":"html-button-response","trial_index":120,"time_elapsed":240374,"internal_node_id":"0.0-4.0-1.56","subject_id":"60c913bb22635561f43ebf3a","study_id":"6197b3f67c2b5cd3b6d9596a","session_id":"6197b9ee2b0510aa5def88db","condition":"contingent","relevant_dimensions":["wings","legs"],"bee_group":{"antennae":"X","wings":"2","pattern":"X","legs":"F"},"bonus":1.4200000000000008},{"rt":664.7999999988824,"stimulus":"bees-with-color/bee-A1DM.svg","response":0,"trial_type":"image-button-response","trial_index":121,"time_elapsed":241040,"internal_node_id":"0.0-4.0-0.57","subject_id":"60c913bb22635561f43ebf3a","study_id":"6197b3f67c2b5cd3b6d9596a","session_id":"6197b9ee2b0510aa5def88db","condition":"contingent","relevant_dimensions":["wings","legs"],"bee_group":{"antennae":"X","wings":"2","pattern":"X","legs":"F"},"action":"harvest","summary":"good-harvest","bonus":1.4200000000000008},{"rt":268.59999999962747,"stimulus":"\n                    <p><b>Action: <em>harvest</em></b></p>\n                    <p>This is the bee that you just saw.</p>\n                    <img src=\"bees-with-color/bee-A1DM.svg\" width=\"200\">\n                    <p><span class=\"greenText\"><b>Successful harvest!</b></span><br>Your pay has increased by $0.02. Your bonus pay is now $1.06.</p>\n            ","response":0,"trial_type":"html-button-response","trial_index":122,"time_elapsed":241310,"internal_node_id":"0.0-4.0-1.57","subject_id":"60c913bb22635561f43ebf3a","study_id":"6197b3f67c2b5cd3b6d9596a","session_id":"6197b9ee2b0510aa5def88db","condition":"contingent","relevant_dimensions":["wings","legs"],"bee_group":{"antennae":"X","wings":"2","pattern":"X","legs":"F"},"bonus":1.4200000000000008},{"rt":512.6999999992549,"stimulus":"bees-with-color/bee-A2DM.svg","response":1,"trial_type":"image-button-response","trial_index":123,"time_elapsed":241824,"internal_node_id":"0.0-4.0-0.58","subject_id":"60c913bb22635561f43ebf3a","study_id":"6197b3f67c2b5cd3b6d9596a","session_id":"6197b9ee2b0510aa5def88db","condition":"contingent","relevant_dimensions":["wings","legs"],"bee_group":{"antennae":"X","wings":"2","pattern":"X","legs":"F"},"action":"avoid","summary":"bad-avoid","bonus":1.4200000000000008},{"rt":214.5,"stimulus":"\n                    <p><b>Action: <em>avoid</em></b></p>\n                    <p>This is the bee that you just saw.</p>\n                    <img src=\"bees-with-color/bee-A2DM.svg\" width=\"200\">\n                    <p><br>Your bonus pay is unchanged, and remains at $1.06.</p>\n            ","response":0,"trial_type":"html-button-response","trial_index":124,"time_elapsed":242040,"internal_node_id":"0.0-4.0-1.58","subject_id":"60c913bb22635561f43ebf3a","study_id":"6197b3f67c2b5cd3b6d9596a","session_id":"6197b9ee2b0510aa5def88db","condition":"contingent","relevant_dimensions":["wings","legs"],"bee_group":{"antennae":"X","wings":"2","pattern":"X","legs":"F"},"bonus":1.4200000000000008},{"rt":1102.5,"stimulus":"bees-with-color/bee-A2SF.svg","response":1,"trial_type":"image-button-response","trial_index":125,"time_elapsed":243144,"internal_node_id":"0.0-4.0-0.59","subject_id":"60c913bb22635561f43ebf3a","study_id":"6197b3f67c2b5cd3b6d9596a","session_id":"6197b9ee2b0510aa5def88db","condition":"contingent","relevant_dimensions":["wings","legs"],"bee_group":{"antennae":"X","wings":"2","pattern":"X","legs":"F"},"action":"avoid","summary":"good-avoid","bonus":1.4200000000000008},{"rt":196.40000000037253,"stimulus":"\n                    <p><b>Action: <em>avoid</em></b></p>\n                    <p>This is the bee that you just saw.</p>\n                    <img src=\"bees-with-color/bee-A2SF.svg\" width=\"200\">\n                    <p><br>Your bonus pay is unchanged, and remains at $1.06.</p>\n            ","response":0,"trial_type":"html-button-response","trial_index":126,"time_elapsed":243342,"internal_node_id":"0.0-4.0-1.59","subject_id":"60c913bb22635561f43ebf3a","study_id":"6197b3f67c2b5cd3b6d9596a","session_id":"6197b9ee2b0510aa5def88db","condition":"contingent","relevant_dimensions":["wings","legs"],"bee_group":{"antennae":"X","wings":"2","pattern":"X","legs":"F"},"bonus":1.4200000000000008},{"rt":632.6999999992549,"stimulus":"bees-with-color/bee-B2DF.svg","response":1,"trial_type":"image-button-response","trial_index":127,"time_elapsed":243976,"internal_node_id":"0.0-4.0-0.60","subject_id":"60c913bb22635561f43ebf3a","study_id":"6197b3f67c2b5cd3b6d9596a","session_id":"6197b9ee2b0510aa5def88db","condition":"contingent","relevant_dimensions":["wings","legs"],"bee_group":{"antennae":"X","wings":"2","pattern":"X","legs":"F"},"action":"avoid","summary":"good-avoid","bonus":1.4200000000000008},{"rt":374.5,"stimulus":"\n                    <p><b>Action: <em>avoid</em></b></p>\n                    <p>This is the bee that you just saw.</p>\n                    <img src=\"bees-with-color/bee-B2DF.svg\" width=\"200\">\n                    <p><br>Your bonus pay is unchanged, and remains at $1.06.</p>\n            ","response":0,"trial_type":"html-button-response","trial_index":128,"time_elapsed":244352,"internal_node_id":"0.0-4.0-1.60","subject_id":"60c913bb22635561f43ebf3a","study_id":"6197b3f67c2b5cd3b6d9596a","session_id":"6197b9ee2b0510aa5def88db","condition":"contingent","relevant_dimensions":["wings","legs"],"bee_group":{"antennae":"X","wings":"2","pattern":"X","legs":"F"},"bonus":1.4200000000000008},{"rt":626.3999999985099,"stimulus":"bees-with-color/bee-B2DM.svg","response":1,"trial_type":"image-button-response","trial_index":129,"time_elapsed":244980,"internal_node_id":"0.0-4.0-0.61","subject_id":"60c913bb22635561f43ebf3a","study_id":"6197b3f67c2b5cd3b6d9596a","session_id":"6197b9ee2b0510aa5def88db","condition":"contingent","relevant_dimensions":["wings","legs"],"bee_group":{"antennae":"X","wings":"2","pattern":"X","legs":"F"},"action":"avoid","summary":"bad-avoid","bonus":1.4200000000000008},{"rt":424.2999999988824,"stimulus":"\n                    <p><b>Action: <em>avoid</em></b></p>\n                    <p>This is the bee that you just saw.</p>\n                    <img src=\"bees-with-color/bee-B2DM.svg\" width=\"200\">\n                    <p><br>Your bonus pay is unchanged, and remains at $1.06.</p>\n            ","response":0,"trial_type":"html-button-response","trial_index":130,"time_elapsed":245406,"internal_node_id":"0.0-4.0-1.61","subject_id":"60c913bb22635561f43ebf3a","study_id":"6197b3f67c2b5cd3b6d9596a","session_id":"6197b9ee2b0510aa5def88db","condition":"contingent","relevant_dimensions":["wings","legs"],"bee_group":{"antennae":"X","wings":"2","pattern":"X","legs":"F"},"bonus":1.4200000000000008},{"rt":910.5999999996275,"stimulus":"bees-with-color/bee-A1SF.svg","response":0,"trial_type":"image-button-response","trial_index":131,"time_elapsed":246318,"internal_node_id":"0.0-4.0-0.62","subject_id":"60c913bb22635561f43ebf3a","study_id":"6197b3f67c2b5cd3b6d9596a","session_id":"6197b9ee2b0510aa5def88db","condition":"contingent","relevant_dimensions":["wings","legs"],"bee_group":{"antennae":"X","wings":"2","pattern":"X","legs":"F"},"action":"harvest","summary":"good-harvest","bonus":1.4200000000000008},{"rt":470.59999999962747,"stimulus":"\n                    <p><b>Action: <em>harvest</em></b></p>\n                    <p>This is the bee that you just saw.</p>\n                    <img src=\"bees-with-color/bee-A1SF.svg\" width=\"200\">\n                    <p><span class=\"greenText\"><b>Successful harvest!</b></span><br>Your pay has increased by $0.02. Your bonus pay is now $1.08.</p>\n            ","response":0,"trial_type":"html-button-response","trial_index":132,"time_elapsed":246790,"internal_node_id":"0.0-4.0-1.62","subject_id":"60c913bb22635561f43ebf3a","study_id":"6197b3f67c2b5cd3b6d9596a","session_id":"6197b9ee2b0510aa5def88db","condition":"contingent","relevant_dimensions":["wings","legs"],"bee_group":{"antennae":"X","wings":"2","pattern":"X","legs":"F"},"bonus":1.4200000000000008},{"rt":544.5999999996275,"stimulus":"bees-with-color/bee-B1DM.svg","response":0,"trial_type":"image-button-response","trial_index":133,"time_elapsed":247336,"internal_node_id":"0.0-4.0-0.63","subject_id":"60c913bb22635561f43ebf3a","study_id":"6197b3f67c2b5cd3b6d9596a","session_id":"6197b9ee2b0510aa5def88db","condition":"contingent","relevant_dimensions":["wings","legs"],"bee_group":{"antennae":"X","wings":"2","pattern":"X","legs":"F"},"action":"harvest","summary":"good-harvest","bonus":1.4200000000000008},{"rt":336.5,"stimulus":"\n                    <p><b>Action: <em>harvest</em></b></p>\n                    <p>This is the bee that you just saw.</p>\n                    <img src=\"bees-with-color/bee-B1DM.svg\" width=\"200\">\n                    <p><span class=\"greenText\"><b>Successful harvest!</b></span><br>Your pay has increased by $0.02. Your bonus pay is now $1.10.</p>\n            ","response":0,"trial_type":"html-button-response","trial_index":134,"time_elapsed":247674,"internal_node_id":"0.0-4.0-1.63","subject_id":"60c913bb22635561f43ebf3a","study_id":"6197b3f67c2b5cd3b6d9596a","session_id":"6197b9ee2b0510aa5def88db","condition":"contingent","relevant_dimensions":["wings","legs"],"bee_group":{"antennae":"X","wings":"2","pattern":"X","legs":"F"},"bonus":1.4200000000000008},{"rt":10952.099999999627,"stimulus":"You have completed the first part of this experiment.<br><br>You will now begin a shorter second part, in which you will receive no feedback.<br>The same rules regarding bonus pay apply.<br><br>Press any key to begin.","response":"k","trial_type":"html-keyboard-response","trial_index":135,"time_elapsed":258628,"internal_node_id":"0.0-5.0","subject_id":"60c913bb22635561f43ebf3a","study_id":"6197b3f67c2b5cd3b6d9596a","session_id":"6197b9ee2b0510aa5def88db","condition":"contingent","relevant_dimensions":["wings","legs"],"bee_group":{"antennae":"X","wings":"2","pattern":"X","legs":"F"},"bonus":1.4200000000000008},{"rt":2868.0999999996275,"stimulus":"bees-with-color/bee-B1SF.svg","response":0,"trial_type":"image-button-response","trial_index":136,"time_elapsed":261503,"internal_node_id":"0.0-6.0-0.0","subject_id":"60c913bb22635561f43ebf3a","study_id":"6197b3f67c2b5cd3b6d9596a","session_id":"6197b9ee2b0510aa5def88db","condition":"contingent","relevant_dimensions":["wings","legs"],"bee_group":{"antennae":"X","wings":"2","pattern":"X","legs":"F"},"bonus":1.4200000000000008},{"rt":4111.299999998882,"stimulus":"bees-with-color/bee-A2DF.svg","response":1,"trial_type":"image-button-response","trial_index":137,"time_elapsed":265616,"internal_node_id":"0.0-6.0-0.1","subject_id":"60c913bb22635561f43ebf3a","study_id":"6197b3f67c2b5cd3b6d9596a","session_id":"6197b9ee2b0510aa5def88db","condition":"contingent","relevant_dimensions":["wings","legs"],"bee_group":{"antennae":"X","wings":"2","pattern":"X","legs":"F"},"bonus":1.4200000000000008},{"rt":933.7999999988824,"stimulus":"bees-with-color/bee-B1DF.svg","response":0,"trial_type":"image-button-response","trial_index":138,"time_elapsed":266552,"internal_node_id":"0.0-6.0-0.2","subject_id":"60c913bb22635561f43ebf3a","study_id":"6197b3f67c2b5cd3b6d9596a","session_id":"6197b9ee2b0510aa5def88db","condition":"contingent","relevant_dimensions":["wings","legs"],"bee_group":{"antennae":"X","wings":"2","pattern":"X","legs":"F"},"bonus":1.4200000000000008},{"rt":1178.0999999996275,"stimulus":"bees-with-color/bee-B2SM.svg","response":1,"trial_type":"image-button-response","trial_index":139,"time_elapsed":267732,"internal_node_id":"0.0-6.0-0.3","subject_id":"60c913bb22635561f43ebf3a","study_id":"6197b3f67c2b5cd3b6d9596a","session_id":"6197b9ee2b0510aa5def88db","condition":"contingent","relevant_dimensions":["wings","legs"],"bee_group":{"antennae":"X","wings":"2","pattern":"X","legs":"F"},"bonus":1.4200000000000008},{"rt":766.1999999992549,"stimulus":"bees-with-color/bee-A1DM.svg","response":0,"trial_type":"image-button-response","trial_index":140,"time_elapsed":268500,"internal_node_id":"0.0-6.0-0.4","subject_id":"60c913bb22635561f43ebf3a","study_id":"6197b3f67c2b5cd3b6d9596a","session_id":"6197b9ee2b0510aa5def88db","condition":"contingent","relevant_dimensions":["wings","legs"],"bee_group":{"antennae":"X","wings":"2","pattern":"X","legs":"F"},"bonus":1.4200000000000008},{"rt":610.0999999996275,"stimulus":"bees-with-color/bee-A2SF.svg","response":1,"trial_type":"image-button-response","trial_index":141,"time_elapsed":269112,"internal_node_id":"0.0-6.0-0.5","subject_id":"60c913bb22635561f43ebf3a","study_id":"6197b3f67c2b5cd3b6d9596a","session_id":"6197b9ee2b0510aa5def88db","condition":"contingent","relevant_dimensions":["wings","legs"],"bee_group":{"antennae":"X","wings":"2","pattern":"X","legs":"F"},"bonus":1.4200000000000008},{"rt":790.1000000014901,"stimulus":"bees-with-color/bee-B2DM.svg","response":1,"trial_type":"image-button-response","trial_index":142,"time_elapsed":269904,"internal_node_id":"0.0-6.0-0.6","subject_id":"60c913bb22635561f43ebf3a","study_id":"6197b3f67c2b5cd3b6d9596a","session_id":"6197b9ee2b0510aa5def88db","condition":"contingent","relevant_dimensions":["wings","legs"],"bee_group":{"antennae":"X","wings":"2","pattern":"X","legs":"F"},"bonus":1.4200000000000008},{"rt":733.5,"stimulus":"bees-with-color/bee-A1SF.svg","response":0,"trial_type":"image-button-response","trial_index":143,"time_elapsed":270640,"internal_node_id":"0.0-6.0-0.7","subject_id":"60c913bb22635561f43ebf3a","study_id":"6197b3f67c2b5cd3b6d9596a","session_id":"6197b9ee2b0510aa5def88db","condition":"contingent","relevant_dimensions":["wings","legs"],"bee_group":{"antennae":"X","wings":"2","pattern":"X","legs":"F"},"bonus":1.4200000000000008},{"rt":636.0999999996275,"stimulus":"bees-with-color/bee-B2DF.svg","response":1,"trial_type":"image-button-response","trial_index":144,"time_elapsed":271278,"internal_node_id":"0.0-6.0-0.8","subject_id":"60c913bb22635561f43ebf3a","study_id":"6197b3f67c2b5cd3b6d9596a","session_id":"6197b9ee2b0510aa5def88db","condition":"contingent","relevant_dimensions":["wings","legs"],"bee_group":{"antennae":"X","wings":"2","pattern":"X","legs":"F"},"bonus":1.4200000000000008},{"rt":786.0999999996275,"stimulus":"bees-with-color/bee-B1SM.svg","response":0,"trial_type":"image-button-response","trial_index":145,"time_elapsed":272066,"internal_node_id":"0.0-6.0-0.9","subject_id":"60c913bb22635561f43ebf3a","study_id":"6197b3f67c2b5cd3b6d9596a","session_id":"6197b9ee2b0510aa5def88db","condition":"contingent","relevant_dimensions":["wings","legs"],"bee_group":{"antennae":"X","wings":"2","pattern":"X","legs":"F"},"bonus":1.4200000000000008},{"rt":424.19999999925494,"stimulus":"bees-with-color/bee-A2SM.svg","response":1,"trial_type":"image-button-response","trial_index":146,"time_elapsed":272492,"internal_node_id":"0.0-6.0-0.10","subject_id":"60c913bb22635561f43ebf3a","study_id":"6197b3f67c2b5cd3b6d9596a","session_id":"6197b9ee2b0510aa5def88db","condition":"contingent","relevant_dimensions":["wings","legs"],"bee_group":{"antennae":"X","wings":"2","pattern":"X","legs":"F"},"bonus":1.4200000000000008},{"rt":554.1000000014901,"stimulus":"bees-with-color/bee-A1SM.svg","response":0,"trial_type":"image-button-response","trial_index":147,"time_elapsed":273048,"internal_node_id":"0.0-6.0-0.11","subject_id":"60c913bb22635561f43ebf3a","study_id":"6197b3f67c2b5cd3b6d9596a","session_id":"6197b9ee2b0510aa5def88db","condition":"contingent","relevant_dimensions":["wings","legs"],"bee_group":{"antennae":"X","wings":"2","pattern":"X","legs":"F"},"bonus":1.4200000000000008},{"rt":527.8999999985099,"stimulus":"bees-with-color/bee-B2SF.svg","response":1,"trial_type":"image-button-response","trial_index":148,"time_elapsed":273578,"internal_node_id":"0.0-6.0-0.12","subject_id":"60c913bb22635561f43ebf3a","study_id":"6197b3f67c2b5cd3b6d9596a","session_id":"6197b9ee2b0510aa5def88db","condition":"contingent","relevant_dimensions":["wings","legs"],"bee_group":{"antennae":"X","wings":"2","pattern":"X","legs":"F"},"bonus":1.4200000000000008},{"rt":794.3000000007451,"stimulus":"bees-with-color/bee-A1DF.svg","response":0,"trial_type":"image-button-response","trial_index":149,"time_elapsed":274374,"internal_node_id":"0.0-6.0-0.13","subject_id":"60c913bb22635561f43ebf3a","study_id":"6197b3f67c2b5cd3b6d9596a","session_id":"6197b9ee2b0510aa5def88db","condition":"contingent","relevant_dimensions":["wings","legs"],"bee_group":{"antennae":"X","wings":"2","pattern":"X","legs":"F"},"bonus":1.4200000000000008},{"rt":451.8999999985099,"stimulus":"bees-with-color/bee-B1DM.svg","response":0,"trial_type":"image-button-response","trial_index":150,"time_elapsed":274828,"internal_node_id":"0.0-6.0-0.14","subject_id":"60c913bb22635561f43ebf3a","study_id":"6197b3f67c2b5cd3b6d9596a","session_id":"6197b9ee2b0510aa5def88db","condition":"contingent","relevant_dimensions":["wings","legs"],"bee_group":{"antennae":"X","wings":"2","pattern":"X","legs":"F"},"bonus":1.4200000000000008},{"rt":580.1000000014901,"stimulus":"bees-with-color/bee-A2DM.svg","response":1,"trial_type":"image-button-response","trial_index":151,"time_elapsed":275410,"internal_node_id":"0.0-6.0-0.15","subject_id":"60c913bb22635561f43ebf3a","study_id":"6197b3f67c2b5cd3b6d9596a","session_id":"6197b9ee2b0510aa5def88db","condition":"contingent","relevant_dimensions":["wings","legs"],"bee_group":{"antennae":"X","wings":"2","pattern":"X","legs":"F"},"bonus":1.4200000000000008},{"rt":444.2999999988824,"stimulus":"bees-with-color/bee-A1DM.svg","response":0,"trial_type":"image-button-response","trial_index":152,"time_elapsed":275856,"internal_node_id":"0.0-6.0-0.16","subject_id":"60c913bb22635561f43ebf3a","study_id":"6197b3f67c2b5cd3b6d9596a","session_id":"6197b9ee2b0510aa5def88db","condition":"contingent","relevant_dimensions":["wings","legs"],"bee_group":{"antennae":"X","wings":"2","pattern":"X","legs":"F"},"bonus":1.4200000000000008},{"rt":600.1999999992549,"stimulus":"bees-with-color/bee-B1DM.svg","response":0,"trial_type":"image-button-response","trial_index":153,"time_elapsed":276458,"internal_node_id":"0.0-6.0-0.17","subject_id":"60c913bb22635561f43ebf3a","study_id":"6197b3f67c2b5cd3b6d9596a","session_id":"6197b9ee2b0510aa5def88db","condition":"contingent","relevant_dimensions":["wings","legs"],"bee_group":{"antennae":"X","wings":"2","pattern":"X","legs":"F"},"bonus":1.4200000000000008},{"rt":538.2999999988824,"stimulus":"bees-with-color/bee-B2DM.svg","response":1,"trial_type":"image-button-response","trial_index":154,"time_elapsed":276998,"internal_node_id":"0.0-6.0-0.18","subject_id":"60c913bb22635561f43ebf3a","study_id":"6197b3f67c2b5cd3b6d9596a","session_id":"6197b9ee2b0510aa5def88db","condition":"contingent","relevant_dimensions":["wings","legs"],"bee_group":{"antennae":"X","wings":"2","pattern":"X","legs":"F"},"bonus":1.4200000000000008},{"rt":560.5,"stimulus":"bees-with-color/bee-B1SF.svg","response":0,"trial_type":"image-button-response","trial_index":155,"time_elapsed":277560,"internal_node_id":"0.0-6.0-0.19","subject_id":"60c913bb22635561f43ebf3a","study_id":"6197b3f67c2b5cd3b6d9596a","session_id":"6197b9ee2b0510aa5def88db","condition":"contingent","relevant_dimensions":["wings","legs"],"bee_group":{"antennae":"X","wings":"2","pattern":"X","legs":"F"},"bonus":1.4200000000000008},{"rt":718,"stimulus":"bees-with-color/bee-A2DF.svg","response":1,"trial_type":"image-button-response","trial_index":156,"time_elapsed":278280,"internal_node_id":"0.0-6.0-0.20","subject_id":"60c913bb22635561f43ebf3a","study_id":"6197b3f67c2b5cd3b6d9596a","session_id":"6197b9ee2b0510aa5def88db","condition":"contingent","relevant_dimensions":["wings","legs"],"bee_group":{"antennae":"X","wings":"2","pattern":"X","legs":"F"},"bonus":1.4200000000000008},{"rt":558.3000000007451,"stimulus":"bees-with-color/bee-A1SM.svg","response":0,"trial_type":"image-button-response","trial_index":157,"time_elapsed":278840,"internal_node_id":"0.0-6.0-0.21","subject_id":"60c913bb22635561f43ebf3a","study_id":"6197b3f67c2b5cd3b6d9596a","session_id":"6197b9ee2b0510aa5def88db","condition":"contingent","relevant_dimensions":["wings","legs"],"bee_group":{"antennae":"X","wings":"2","pattern":"X","legs":"F"},"bonus":1.4200000000000008},{"rt":566.0999999996275,"stimulus":"bees-with-color/bee-A2DM.svg","response":1,"trial_type":"image-button-response","trial_index":158,"time_elapsed":279408,"internal_node_id":"0.0-6.0-0.22","subject_id":"60c913bb22635561f43ebf3a","study_id":"6197b3f67c2b5cd3b6d9596a","session_id":"6197b9ee2b0510aa5def88db","condition":"contingent","relevant_dimensions":["wings","legs"],"bee_group":{"antennae":"X","wings":"2","pattern":"X","legs":"F"},"bonus":1.4200000000000008},{"rt":536.0999999996275,"stimulus":"bees-with-color/bee-B2DF.svg","response":1,"trial_type":"image-button-response","trial_index":159,"time_elapsed":279946,"internal_node_id":"0.0-6.0-0.23","subject_id":"60c913bb22635561f43ebf3a","study_id":"6197b3f67c2b5cd3b6d9596a","session_id":"6197b9ee2b0510aa5def88db","condition":"contingent","relevant_dimensions":["wings","legs"],"bee_group":{"antennae":"X","wings":"2","pattern":"X","legs":"F"},"bonus":1.4200000000000008},{"rt":1054.2999999988824,"stimulus":"bees-with-color/bee-B1SM.svg","response":0,"trial_type":"image-button-response","trial_index":160,"time_elapsed":281002,"internal_node_id":"0.0-6.0-0.24","subject_id":"60c913bb22635561f43ebf3a","study_id":"6197b3f67c2b5cd3b6d9596a","session_id":"6197b9ee2b0510aa5def88db","condition":"contingent","relevant_dimensions":["wings","legs"],"bee_group":{"antennae":"X","wings":"2","pattern":"X","legs":"F"},"bonus":1.4200000000000008},{"rt":708.2999999988824,"stimulus":"bees-with-color/bee-A1DF.svg","response":0,"trial_type":"image-button-response","trial_index":161,"time_elapsed":281712,"internal_node_id":"0.0-6.0-0.25","subject_id":"60c913bb22635561f43ebf3a","study_id":"6197b3f67c2b5cd3b6d9596a","session_id":"6197b9ee2b0510aa5def88db","condition":"contingent","relevant_dimensions":["wings","legs"],"bee_group":{"antennae":"X","wings":"2","pattern":"X","legs":"F"},"bonus":1.4200000000000008},{"rt":1758.199999999255,"stimulus":"bees-with-color/bee-A2SM.svg","response":1,"trial_type":"image-button-response","trial_index":162,"time_elapsed":283472,"internal_node_id":"0.0-6.0-0.26","subject_id":"60c913bb22635561f43ebf3a","study_id":"6197b3f67c2b5cd3b6d9596a","session_id":"6197b9ee2b0510aa5def88db","condition":"contingent","relevant_dimensions":["wings","legs"],"bee_group":{"antennae":"X","wings":"2","pattern":"X","legs":"F"},"bonus":1.4200000000000008},{"rt":642.1999999992549,"stimulus":"bees-with-color/bee-A1SF.svg","response":0,"trial_type":"image-button-response","trial_index":163,"time_elapsed":284116,"internal_node_id":"0.0-6.0-0.27","subject_id":"60c913bb22635561f43ebf3a","study_id":"6197b3f67c2b5cd3b6d9596a","session_id":"6197b9ee2b0510aa5def88db","condition":"contingent","relevant_dimensions":["wings","legs"],"bee_group":{"antennae":"X","wings":"2","pattern":"X","legs":"F"},"bonus":1.4200000000000008},{"rt":510.19999999925494,"stimulus":"bees-with-color/bee-B2SM.svg","response":1,"trial_type":"image-button-response","trial_index":164,"time_elapsed":284628,"internal_node_id":"0.0-6.0-0.28","subject_id":"60c913bb22635561f43ebf3a","study_id":"6197b3f67c2b5cd3b6d9596a","session_id":"6197b9ee2b0510aa5def88db","condition":"contingent","relevant_dimensions":["wings","legs"],"bee_group":{"antennae":"X","wings":"2","pattern":"X","legs":"F"},"bonus":1.4200000000000008},{"rt":568.3999999985099,"stimulus":"bees-with-color/bee-B1DF.svg","response":0,"trial_type":"image-button-response","trial_index":165,"time_elapsed":285198,"internal_node_id":"0.0-6.0-0.29","subject_id":"60c913bb22635561f43ebf3a","study_id":"6197b3f67c2b5cd3b6d9596a","session_id":"6197b9ee2b0510aa5def88d