[{"success":true,"trial_type":"fullscreen","trial_index":0,"time_elapsed":4835,"internal_node_id":"0.0-0.0","subject_id":"615b44e83d0396716fc468d1","study_id":"6197b3f67c2b5cd3b6d9596a","session_id":"6197b5af2eeaa7903ec2d793","condition":"full-information","relevant_dimensions":["wings","legs"],"bee_group":{"antennae":"X","wings":"2","pattern":"X","legs":"F"},"bonus":0.09999999999999999},{"success":true,"timeout":false,"failed_images":[],"failed_audio":[],"failed_video":[],"trial_type":"preload","trial_index":1,"time_elapsed":6549,"internal_node_id":"0.0-1.0","subject_id":"615b44e83d0396716fc468d1","study_id":"6197b3f67c2b5cd3b6d9596a","session_id":"6197b5af2eeaa7903ec2d793","condition":"full-information","relevant_dimensions":["wings","legs"],"bee_group":{"antennae":"X","wings":"2","pattern":"X","legs":"F"},"bonus":0.09999999999999999},{"rt":2329.0999999940395,"stimulus":"Welcome! Press any key to begin.","response":"d","trial_type":"html-keyboard-response","trial_index":2,"time_elapsed":8878,"internal_node_id":"0.0-2.0","subject_id":"615b44e83d0396716fc468d1","study_id":"6197b3f67c2b5cd3b6d9596a","session_id":"6197b5af2eeaa7903ec2d793","condition":"full-information","relevant_dimensions":["wings","legs"],"bee_group":{"antennae":"X","wings":"2","pattern":"X","legs":"F"},"bonus":0.09999999999999999},{"view_history":[{"page_index":0,"viewing_time":7775.199999988079},{"page_index":1,"viewing_time":3506.4000000059605},{"page_index":2,"viewing_time":1709.5},{"page_index":3,"viewing_time":1835.0999999940395},{"page_index":4,"viewing_time":839.9000000059605},{"page_index":5,"viewing_time":1822.2999999821186},{"page_index":6,"viewing_time":601.6000000238419},{"page_index":7,"viewing_time":5230.0999999940395},{"page_index":8,"viewing_time":2269.199999988079},{"page_index":9,"viewing_time":2214.0999999940395},{"page_index":10,"viewing_time":2512},{"page_index":11,"viewing_time":5973.800000011921},{"page_index":12,"viewing_time":7402.300000011921},{"page_index":13,"viewing_time":1032.7999999821186},{"page_index":14,"viewing_time":2171}],"rt":46896.29999998212,"trial_type":"instructions","trial_index":3,"time_elapsed":55775,"internal_node_id":"0.0-3.0-0.0","subject_id":"615b44e83d0396716fc468d1","study_id":"6197b3f67c2b5cd3b6d9596a","session_id":"6197b5af2eeaa7903ec2d793","condition":"full-information","relevant_dimensions":["wings","legs"],"bee_group":{"antennae":"X","wings":"2","pattern":"X","legs":"F"},"bonus":0.09999999999999999},{"rt":18757.19999998808,"response":{"Q0":["Single or double wings","Antennae or no antennae"]},"question_order":[0],"trial_type":"survey-multi-select","trial_index":4,"time_elapsed":74536,"internal_node_id":"0.0-3.0-1.0","subject_id":"615b44e83d0396716fc468d1","study_id":"6197b3f67c2b5cd3b6d9596a","session_id":"6197b5af2eeaa7903ec2d793","condition":"full-information","relevant_dimensions":["wings","legs"],"bee_group":{"antennae":"X","wings":"2","pattern":"X","legs":"F"},"correct":false,"bonus":0.09999999999999999},{"rt":20414.59999999404,"response":{"Q1":"Yes.","Q2":"Based on the four features of the bee.","Q3":"You learn if it was friendly or dangerous and alter your bonus."},"question_order":[0,1,2],"trial_type":"survey-multi-choice","trial_index":5,"time_elapsed":94953,"internal_node_id":"0.0-3.0-2.0","subject_id":"615b44e83d0396716fc468d1","study_id":"6197b3f67c2b5cd3b6d9596a","session_id":"6197b5af2eeaa7903ec2d793","condition":"full-information","relevant_dimensions":["wings","legs"],"bee_group":{"antennae":"X","wings":"2","pattern":"X","legs":"F"},"correct":false,"bonus":0.09999999999999999},{"rt":3761.4000000059605,"stimulus":"<p>You did not answer all comprehension questions correctly.<br>Press <b>continue</b> to review the instructions again.</p>","response":0,"trial_type":"html-button-response","trial_index":6,"time_elapsed":98716,"internal_node_id":"0.0-3.0-3.0","subject_id":"615b44e83d0396716fc468d1","study_id":"6197b3f67c2b5cd3b6d9596a","session_id":"6197b5af2eeaa7903ec2d793","condition":"full-information","relevant_dimensions":["wings","legs"],"bee_group":{"antennae":"X","wings":"2","pattern":"X","legs":"F"},"bonus":0.09999999999999999},{"view_history":[{"page_index":0,"viewing_time":1130.5},{"page_index":1,"viewing_time":21733.59999999404},{"page_index":2,"viewing_time":7686.800000011921},{"page_index":3,"viewing_time":7113.899999976158},{"page_index":4,"viewing_time":10977.100000023842},{"page_index":5,"viewing_time":11670},{"page_index":6,"viewing_time":8841.09999999404},{"page_index":7,"viewing_time":6036.4000000059605},{"page_index":8,"viewing_time":5506.199999988079},{"page_index":9,"viewing_time":15020.09999999404},{"page_index":10,"viewing_time":6187},{"page_index":11,"viewing_time":22468.90000000596},{"page_index":12,"viewing_time":26347.90000000596},{"page_index":13,"viewing_time":1164.4000000059605},{"page_index":14,"viewing_time":1409.199999988079}],"rt":153293.59999999404,"trial_type":"instructions","trial_index":7,"time_elapsed":252011,"internal_node_id":"0.0-3.0-4.0-0.0","subject_id":"615b44e83d0396716fc468d1","study_id":"6197b3f67c2b5cd3b6d9596a","session_id":"6197b5af2eeaa7903ec2d793","condition":"full-information","relevant_dimensions":["wings","legs"],"bee_group":{"antennae":"X","wings":"2","pattern":"X","legs":"F"},"bonus":0.09999999999999999},{"rt":11099.600000023842,"response":{"Q0":["Two or six legs","Stripes or spots on body","Single or double wings","Antennae or no antennae"]},"question_order":[0],"trial_type":"survey-multi-select","trial_index":8,"time_elapsed":263113,"internal_node_id":"0.0-3.0-4.0-1.0","subject_id":"615b44e83d0396716fc468d1","study_id":"6197b3f67c2b5cd3b6d9596a","session_id":"6197b5af2eeaa7903ec2d793","condition":"full-information","relevant_dimensions":["wings","legs"],"bee_group":{"antennae":"X","wings":"2","pattern":"X","legs":"F"},"correct":true,"bonus":0.09999999999999999},{"rt":35498.19999998808,"response":{"Q1":"No.","Q2":"Based on the four features of the bee.","Q3":"You learn if it was friendly or dangerous, but do not alter your bonus."},"question_order":[0,1,2],"trial_type":"survey-multi-choice","trial_index":9,"time_elapsed":298612,"internal_node_id":"0.0-3.0-4.0-2.0","subject_id":"615b44e83d0396716fc468d1","study_id":"6197b3f67c2b5cd3b6d9596a","session_id":"6197b5af2eeaa7903ec2d793","condition":"full-information","relevant_dimensions":["wings","legs"],"bee_group":{"antennae":"X","wings":"2","pattern":"X","legs":"F"},"correct":true,"bonus":0.09999999999999999},{"rt":4294.300000011921,"stimulus":"<p>Congrats, you got everything right<br>When you're ready, click the button below to continue to the experiment.</p>","response":0,"trial_type":"html-button-response","trial_index":10,"time_elapsed":302909,"internal_node_id":"0.0-3.0-4.0-3.0","subject_id":"615b44e83d0396716fc468d1","study_id":"6197b3f67c2b5cd3b6d9596a","session_id":"6197b5af2eeaa7903ec2d793","condition":"full-information","relevant_dimensions":["wings","legs"],"bee_group":{"antennae":"X","wings":"2","pattern":"X","legs":"F"},"bonus":0.09999999999999999},{"rt":7078,"stimulus":"bees-with-color/bee-A2SM.svg","response":1,"trial_type":"image-button-response","trial_index":11,"time_elapsed":309988,"internal_node_id":"0.0-4.0-0.0","subject_id":"615b44e83d0396716fc468d1","study_id":"6197b3f67c2b5cd3b6d9596a","session_id":"6197b5af2eeaa7903ec2d793","condition":"full-information","relevant_dimensions":["wings","legs"],"bee_group":{"antennae":"X","wings":"2","pattern":"X","legs":"F"},"action":"avoid","summary":"bad-avoid","bonus":0.09999999999999999},{"rt":20550.79999998212,"stimulus":"\n                    <p><b>Action: <em>avoid</em></b></p>\n                    <p>This is the bee that you just saw.</p>\n                    <img src=\"bees-with-color/bee-A2SM.svg\" width=\"200\">\n                    <p><span class=\"redText\">Bad choice,</span> the bee was friendly.<br>Your bonus pay is unchanged, and remains at $0.54.</p>\n            ","response":0,"trial_type":"html-button-response","trial_index":12,"time_elapsed":330541,"internal_node_id":"0.0-4.0-1.0","subject_id":"615b44e83d0396716fc468d1","study_id":"6197b3f67c2b5cd3b6d9596a","session_id":"6197b5af2eeaa7903ec2d793","condition":"full-information","relevant_dimensions":["wings","legs"],"bee_group":{"antennae":"X","wings":"2","pattern":"X","legs":"F"},"bonus":0.09999999999999999},{"rt":3972.100000023842,"stimulus":"bees-with-color/bee-B1DF.svg","response":1,"trial_type":"image-button-response","trial_index":13,"time_elapsed":334515,"internal_node_id":"0.0-4.0-0.1","subject_id":"615b44e83d0396716fc468d1","study_id":"6197b3f67c2b5cd3b6d9596a","session_id":"6197b5af2eeaa7903ec2d793","condition":"full-information","relevant_dimensions":["wings","legs"],"bee_group":{"antennae":"X","wings":"2","pattern":"X","legs":"F"},"action":"avoid","summary":"bad-avoid","bonus":0.09999999999999999},{"rt":3450.300000011921,"stimulus":"\n                    <p><b>Action: <em>avoid</em></b></p>\n                    <p>This is the bee that you just saw.</p>\n                    <img src=\"bees-with-color/bee-B1DF.svg\" width=\"200\">\n                    <p><span class=\"redText\">Bad choice,</span> the bee was friendly.<br>Your bonus pay is unchanged, and remains at $0.54.</p>\n            ","response":0,"trial_type":"html-button-response","trial_index":14,"time_elapsed":337967,"internal_node_id":"0.0-4.0-1.1","subject_id":"615b44e83d0396716fc468d1","study_id":"6197b3f67c2b5cd3b6d9596a","session_id":"6197b5af2eeaa7903ec2d793","condition":"full-information","relevant_dimensions":["wings","legs"],"bee_group":{"antennae":"X","wings":"2","pattern":"X","legs":"F"},"bonus":0.09999999999999999},{"rt":4673.600000023842,"stimulus":"bees-with-color/bee-A1DF.svg","response":0,"trial_type":"image-button-response","trial_index":15,"time_elapsed":342642,"internal_node_id":"0.0-4.0-0.2","subject_id":"615b44e83d0396716fc468d1","study_id":"6197b3f67c2b5cd3b6d9596a","session_id":"6197b5af2eeaa7903ec2d793","condition":"full-information","relevant_dimensions":["wings","legs"],"bee_group":{"antennae":"X","wings":"2","pattern":"X","legs":"F"},"action":"harvest","summary":"good-harvest","bonus":0.09999999999999999},{"rt":1406.0999999940395,"stimulus":"\n                    <p><b>Action: <em>harvest</em></b></p>\n                    <p>This is the bee that you just saw.</p>\n                    <img src=\"bees-with-color/bee-A1DF.svg\" width=\"200\">\n                    <p><span class=\"greenText\"><b>Successful harvest!</b></span><br>Your pay has increased by $0.02. Your bonus pay is now $0.56.</p>\n            ","response":0,"trial_type":"html-button-response","trial_index":16,"time_elapsed":344049,"internal_node_id":"0.0-4.0-1.2","subject_id":"615b44e83d0396716fc468d1","study_id":"6197b3f67c2b5cd3b6d9596a","session_id":"6197b5af2eeaa7903ec2d793","condition":"full-information","relevant_dimensions":["wings","legs"],"bee_group":{"antennae":"X","wings":"2","pattern":"X","legs":"F"},"bonus":0.09999999999999999},{"rt":2463.699999988079,"stimulus":"bees-with-color/bee-A2DF.svg","response":0,"trial_type":"image-button-response","trial_index":17,"time_elapsed":346514,"internal_node_id":"0.0-4.0-0.3","subject_id":"615b44e83d0396716fc468d1","study_id":"6197b3f67c2b5cd3b6d9596a","session_id":"6197b5af2eeaa7903ec2d793","condition":"full-information","relevant_dimensions":["wings","legs"],"bee_group":{"antennae":"X","wings":"2","pattern":"X","legs":"F"},"action":"harvest","summary":"bad-harvest","bonus":0.09999999999999999},{"rt":3829.5,"stimulus":"\n                    <p><b>Action: <em>harvest</em></b></p>\n                    <p>This is the bee that you just saw.</p>\n                    <img src=\"bees-with-color/bee-A2DF.svg\" width=\"200\">\n                    <p><span class=\"redText\">Bad choice, the bee was angry.</span><br><b>You have been stung!</b><br>Your pay has been decreased by $0.10. Your bonus pay is now $0.46.</p>\n            ","response":0,"trial_type":"html-button-response","trial_index":18,"time_elapsed":350345,"internal_node_id":"0.0-4.0-1.3","subject_id":"615b44e83d0396716fc468d1","study_id":"6197b3f67c2b5cd3b6d9596a","session_id":"6197b5af2eeaa7903ec2d793","condition":"full-information","relevant_dimensions":["wings","legs"],"bee_group":{"antennae":"X","wings":"2","pattern":"X","legs":"F"},"bonus":0.09999999999999999},{"rt":14641,"stimulus":"bees-with-color/bee-A1SM.svg","response":0,"trial_type":"image-button-response","trial_index":19,"time_elapsed":364987,"internal_node_id":"0.0-4.0-0.4","subject_id":"615b44e83d0396716fc468d1","study_id":"6197b3f67c2b5cd3b6d9596a","session_id":"6197b5af2eeaa7903ec2d793","condition":"full-information","relevant_dimensions":["wings","legs"],"bee_group":{"antennae":"X","wings":"2","pattern":"X","legs":"F"},"action":"harvest","summary":"good-harvest","bonus":0.09999999999999999},{"rt":794.8999999761581,"stimulus":"\n                    <p><b>Action: <em>harvest</em></b></p>\n                    <p>This is the bee that you just saw.</p>\n                    <img src=\"bees-with-color/bee-A1SM.svg\" width=\"200\">\n                    <p><span class=\"greenText\"><b>Successful harvest!</b></span><br>Your pay has increased by $0.02. Your bonus pay is now $0.48.</p>\n            ","response":0,"trial_type":"html-button-response","trial_index":20,"time_elapsed":365784,"internal_node_id":"0.0-4.0-1.4","subject_id":"615b44e83d0396716fc468d1","study_id":"6197b3f67c2b5cd3b6d9596a","session_id":"6197b5af2eeaa7903ec2d793","condition":"full-information","relevant_dimensions":["wings","legs"],"bee_group":{"antennae":"X","wings":"2","pattern":"X","legs":"F"},"bonus":0.09999999999999999},{"rt":2141.800000011921,"stimulus":"bees-with-color/bee-B2DF.svg","response":1,"trial_type":"image-button-response","trial_index":21,"time_elapsed":367927,"internal_node_id":"0.0-4.0-0.5","subject_id":"615b44e83d0396716fc468d1","study_id":"6197b3f67c2b5cd3b6d9596a","session_id":"6197b5af2eeaa7903ec2d793","condition":"full-information","relevant_dimensions":["wings","legs"],"bee_group":{"antennae":"X","wings":"2","pattern":"X","legs":"F"},"action":"avoid","summary":"good-avoid","bonus":0.09999999999999999},{"rt":734.6999999880791,"stimulus":"\n                    <p><b>Action: <em>avoid</em></b></p>\n                    <p>This is the bee that you just saw.</p>\n                    <img src=\"bees-with-color/bee-B2DF.svg\" width=\"200\">\n                    <p><span class=\"greenText\">Good choice!</span>  This bee would have stung you.<br>Your bonus pay is unchanged, and remains at $0.48.</p>\n            ","response":0,"trial_type":"html-button-response","trial_index":22,"time_elapsed":368663,"internal_node_id":"0.0-4.0-1.5","subject_id":"615b44e83d0396716fc468d1","study_id":"6197b3f67c2b5cd3b6d9596a","session_id":"6197b5af2eeaa7903ec2d793","condition":"full-information","relevant_dimensions":["wings","legs"],"bee_group":{"antennae":"X","wings":"2","pattern":"X","legs":"F"},"bonus":0.09999999999999999},{"rt":2317.399999976158,"stimulus":"bees-with-color/bee-B2DM.svg","response":1,"trial_type":"image-button-response","trial_index":23,"time_elapsed":370982,"internal_node_id":"0.0-4.0-0.6","subject_id":"615b44e83d0396716fc468d1","study_id":"6197b3f67c2b5cd3b6d9596a","session_id":"6197b5af2eeaa7903ec2d793","condition":"full-information","relevant_dimensions":["wings","legs"],"bee_group":{"antennae":"X","wings":"2","pattern":"X","legs":"F"},"action":"avoid","summary":"bad-avoid","bonus":0.09999999999999999},{"rt":54099.39999997616,"stimulus":"\n                    <p><b>Action: <em>avoid</em></b></p>\n                    <p>This is the bee that you just saw.</p>\n                    <img src=\"bees-with-color/bee-B2DM.svg\" width=\"200\">\n                    <p><span class=\"redText\">Bad choice,</span> the bee was friendly.<br>Your bonus pay is unchanged, and remains at $0.48.</p>\n            ","response":0,"trial_type":"html-button-response","trial_index":24,"time_elapsed":425083,"internal_node_id":"0.0-4.0-1.6","subject_id":"615b44e83d0396716fc468d1","study_id":"6197b3f67c2b5cd3b6d9596a","session_id":"6197b5af2eeaa7903ec2d793","condition":"full-information","relevant_dimensions":["wings","legs"],"bee_group":{"antennae":"X","wings":"2","pattern":"X","legs":"F"},"bonus":0.09999999999999999},{"rt":7493.200000017881,"stimulus":"bees-with-color/bee-A1SF.svg","response":1,"trial_type":"image-button-response","trial_index":25,"time_elapsed":432577,"internal_node_id":"0.0-4.0-0.7","subject_id":"615b44e83d0396716fc468d1","study_id":"6197b3f67c2b5cd3b6d9596a","session_id":"6197b5af2eeaa7903ec2d793","condition":"full-information","relevant_dimensions":["wings","legs"],"bee_group":{"antennae":"X","wings":"2","pattern":"X","legs":"F"},"action":"avoid","summary":"bad-avoid","bonus":0.09999999999999999},{"rt":2022.9000000059605,"stimulus":"\n                    <p><b>Action: <em>avoid</em></b></p>\n                    <p>This is the bee that you just saw.</p>\n                    <img src=\"bees-with-color/bee-A1SF.svg\" width=\"200\">\n                    <p><span class=\"redText\">Bad choice,</span> the bee was friendly.<br>Your bonus pay is unchanged, and remains at $0.48.</p>\n            ","response":0,"trial_type":"html-button-response","trial_index":26,"time_elapsed":434601,"internal_node_id":"0.0-4.0-1.7","subject_id":"615b44e83d0396716fc468d1","study_id":"6197b3f67c2b5cd3b6d9596a","session_id":"6197b5af2eeaa7903ec2d793","condition":"full-information","relevant_dimensions":["wings","legs"],"bee_group":{"antennae":"X","wings":"2","pattern":"X","legs":"F"},"bonus":0.09999999999999999},{"rt":8722.699999988079,"stimulus":"bees-with-color/bee-A2DM.svg","response":0,"trial_type":"image-button-response","trial_index":27,"time_elapsed":443326,"internal_node_id":"0.0-4.0-0.8","subject_id":"615b44e83d0396716fc468d1","study_id":"6197b3f67c2b5cd3b6d9596a","session_id":"6197b5af2eeaa7903ec2d793","condition":"full-information","relevant_dimensions":["wings","legs"],"bee_group":{"antennae":"X","wings":"2","pattern":"X","legs":"F"},"action":"harvest","summary":"good-harvest","bonus":0.09999999999999999},{"rt":4049,"stimulus":"\n                    <p><b>Action: <em>harvest</em></b></p>\n                    <p>This is the bee that you just saw.</p>\n                    <img src=\"bees-with-color/bee-A2DM.svg\" width=\"200\">\n                    <p><span class=\"greenText\"><b>Successful harvest!</b></span><br>Your pay has increased by $0.02. Your bonus pay is now $0.50.</p>\n            ","response":0,"trial_type":"html-button-response","trial_index":28,"time_elapsed":447376,"internal_node_id":"0.0-4.0-1.8","subject_id":"615b44e83d0396716fc468d1","study_id":"6197b3f67c2b5cd3b6d9596a","session_id":"6197b5af2eeaa7903ec2d793","condition":"full-information","relevant_dimensions":["wings","legs"],"bee_group":{"antennae":"X","wings":"2","pattern":"X","legs":"F"},"bonus":0.09999999999999999},{"rt":7027.9000000059605,"stimulus":"bees-with-color/bee-B2SF.svg","response":1,"trial_type":"image-button-response","trial_index":29,"time_elapsed":454405,"internal_node_id":"0.0-4.0-0.9","subject_id":"615b44e83d0396716fc468d1","study_id":"6197b3f67c2b5cd3b6d9596a","session_id":"6197b5af2eeaa7903ec2d793","condition":"full-information","relevant_dimensions":["wings","legs"],"bee_group":{"antennae":"X","wings":"2","pattern":"X","legs":"F"},"action":"avoid","summary":"good-avoid","bonus":0.09999999999999999},{"rt":1667.7000000178814,"stimulus":"\n                    <p><b>Action: <em>avoid</em></b></p>\n                    <p>This is the bee that you just saw.</p>\n                    <img src=\"bees-with-color/bee-B2SF.svg\" width=\"200\">\n                    <p><span class=\"greenText\">Good choice!</span>  This bee would have stung you.<br>Your bonus pay is unchanged, and remains at $0.50.</p>\n            ","response":0,"trial_type":"html-button-response","trial_index":30,"time_elapsed":456074,"internal_node_id":"0.0-4.0-1.9","subject_id":"615b44e83d0396716fc468d1","study_id":"6197b3f67c2b5cd3b6d9596a","session_id":"6197b5af2eeaa7903ec2d793","condition":"full-information","relevant_dimensions":["wings","legs"],"bee_group":{"antennae":"X","wings":"2","pattern":"X","legs":"F"},"bonus":0.09999999999999999},{"rt":27714.80000001192,"stimulus":"bees-with-color/bee-A1DM.svg","response":0,"trial_type":"image-button-response","trial_index":31,"time_elapsed":483790,"internal_node_id":"0.0-4.0-0.10","subject_id":"615b44e83d0396716fc468d1","study_id":"6197b3f67c2b5cd3b6d9596a","session_id":"6197b5af2eeaa7903ec2d793","condition":"full-information","relevant_dimensions":["wings","legs"],"bee_group":{"antennae":"X","wings":"2","pattern":"X","legs":"F"},"action":"harvest","summary":"good-harvest","bonus":0.09999999999999999},{"rt":33732.09999999404,"stimulus":"\n                    <p><b>Action: <em>harvest</em></b></p>\n                    <p>This is the bee that you just saw.</p>\n                    <img src=\"bees-with-color/bee-A1DM.svg\" width=\"200\">\n                    <p><span class=\"greenText\"><b>Successful harvest!</b></span><br>Your pay has increased by $0.02. Your bonus pay is now $0.52.</p>\n            ","response":0,"trial_type":"html-button-response","trial_index":32,"time_elapsed":517524,"internal_node_id":"0.0-4.0-1.10","subject_id":"615b44e83d0396716fc468d1","study_id":"6197b3f67c2b5cd3b6d9596a","session_id":"6197b5af2eeaa7903ec2d793","condition":"full-information","relevant_dimensions":["wings","legs"],"bee_group":{"antennae":"X","wings":"2","pattern":"X","legs":"F"},"bonus":0.09999999999999999},{"rt":10664.90000000596,"stimulus":"bees-with-color/bee-B2SM.svg","response":1,"trial_type":"image-button-response","trial_index":33,"time_elapsed":528190,"internal_node_id":"0.0-4.0-0.11","subject_id":"615b44e83d0396716fc468d1","study_id":"6197b3f67c2b5cd3b6d9596a","session_id":"6197b5af2eeaa7903ec2d793","condition":"full-information","relevant_dimensions":["wings","legs"],"bee_group":{"antennae":"X","wings":"2","pattern":"X","legs":"F"},"action":"avoid","summary":"bad-avoid","bonus":0.09999999999999999},{"rt":2463.199999988079,"stimulus":"\n                    <p><b>Action: <em>avoid</em></b></p>\n                    <p>This is the bee that you just saw.</p>\n                    <img src=\"bees-with-color/bee-B2SM.svg\" width=\"200\">\n                    <p><span class=\"redText\">Bad choice,</span> the bee was friendly.<br>Your bonus pay is unchanged, and remains at $0.52.</p>\n            ","response":0,"trial_type":"html-button-response","trial_index":34,"time_elapsed":530654,"internal_node_id":"0.0-4.0-1.11","subject_id":"615b44e83d0396716fc468d1","study_id":"6197b3f67c2b5cd3b6d9596a","session_id":"6197b5af2eeaa7903ec2d793","condition":"full-information","relevant_dimensions":["wings","legs"],"bee_group":{"antennae":"X","wings":"2","pattern":"X","legs":"F"},"bonus":0.09999999999999999},{"rt":2098.2999999821186,"stimulus":"bees-with-color/bee-B1SM.svg","response":1,"trial_type":"image-button-response","trial_index":35,"time_elapsed":532754,"internal_node_id":"0.0-4.0-0.12","subject_id":"615b44e83d0396716fc468d1","study_id":"6197b3f67c2b5cd3b6d9596a","session_id":"6197b5af2eeaa7903ec2d793","condition":"full-information","relevant_dimensions":["wings","legs"],"bee_group":{"antennae":"X","wings":"2","pattern":"X","legs":"F"},"action":"avoid","summary":"bad-avoid","bonus":0.09999999999999999},{"rt":1192,"stimulus":"\n                    <p><b>Action: <em>avoid</em></b></p>\n                    <p>This is the bee that you just saw.</p>\n                    <img src=\"bees-with-color/bee-B1SM.svg\" width=\"200\">\n                    <p><span class=\"redText\">Bad choice,</span> the bee was friendly.<br>Your bonus pay is unchanged, and remains at $0.52.</p>\n            ","response":0,"trial_type":"html-button-response","trial_index":36,"time_elapsed":533947,"internal_node_id":"0.0-4.0-1.12","subject_id":"615b44e83d0396716fc468d1","study_id":"6197b3f67c2b5cd3b6d9596a","session_id":"6197b5af2eeaa7903ec2d793","condition":"full-information","relevant_dimensions":["wings","legs"],"bee_group":{"antennae":"X","wings":"2","pattern":"X","legs":"F"},"bonus":0.09999999999999999},{"rt":1467.7000000178814,"stimulus":"bees-with-color/bee-B1DM.svg","response":1,"trial_type":"image-button-response","trial_index":37,"time_elapsed":535416,"internal_node_id":"0.0-4.0-0.13","subject_id":"615b44e83d0396716fc468d1","study_id":"6197b3f67c2b5cd3b6d9596a","session_id":"6197b5af2eeaa7903ec2d793","condition":"full-information","relevant_dimensions":["wings","legs"],"bee_group":{"antennae":"X","wings":"2","pattern":"X","legs":"F"},"action":"avoid","summary":"bad-avoid","bonus":0.09999999999999999},{"rt":1002.5999999940395,"stimulus":"\n                    <p><b>Action: <em>avoid</em></b></p>\n                    <p>This is the bee that you just saw.</p>\n                    <img src=\"bees-with-color/bee-B1DM.svg\" width=\"200\">\n                    <p><span class=\"redText\">Bad choice,</span> the bee was friendly.<br>Your bonus pay is unchanged, and remains at $0.52.</p>\n            ","response":0,"trial_type":"html-button-response","trial_index":38,"time_elapsed":536420,"internal_node_id":"0.0-4.0-1.13","subject_id":"615b44e83d0396716fc468d1","study_id":"6197b3f67c2b5cd3b6d9596a","session_id":"6197b5af2eeaa7903ec2d793","condition":"full-information","relevant_dimensions":["wings","legs"],"bee_group":{"antennae":"X","wings":"2","pattern":"X","legs":"F"},"bonus":0.09999999999999999},{"rt":3235.699999988079,"stimulus":"bees-with-color/bee-A2SF.svg","response":0,"trial_type":"image-button-response","trial_index":39,"time_elapsed":539656,"internal_node_id":"0.0-4.0-0.14","subject_id":"615b44e83d0396716fc468d1","study_id":"6197b3f67c2b5cd3b6d9596a","session_id":"6197b5af2eeaa7903ec2d793","condition":"full-information","relevant_dimensions":["wings","legs"],"bee_group":{"antennae":"X","wings":"2","pattern":"X","legs":"F"},"action":"harvest","summary":"bad-harvest","bonus":0.09999999999999999},{"rt":5113.0999999940395,"stimulus":"\n                    <p><b>Action: <em>harvest</em></b></p>\n                    <p>This is the bee that you just saw.</p>\n                    <img src=\"bees-with-color/bee-A2SF.svg\" width=\"200\">\n                    <p><span class=\"redText\">Bad choice, the bee was angry.</span><br><b>You have been stung!</b><br>Your pay has been decreased by $0.10. Your bonus pay is now $0.42.</p>\n            ","response":0,"trial_type":"html-button-response","trial_index":40,"time_elapsed":544771,"internal_node_id":"0.0-4.0-1.14","subject_id":"615b44e83d0396716fc468d1","study_id":"6197b3f67c2b5cd3b6d9596a","session_id":"6197b5af2eeaa7903ec2d793","condition":"full-information","relevant_dimensions":["wings","legs"],"bee_group":{"antennae":"X","wings":"2","pattern":"X","legs":"F"},"bonus":0.09999999999999999},{"rt":3034.399999976158,"stimulus":"bees-with-color/bee-B1SF.svg","response":1,"trial_type":"image-button-response","trial_index":41,"time_elapsed":547807,"internal_node_id":"0.0-4.0-0.15","subject_id":"615b44e83d0396716fc468d1","study_id":"6197b3f67c2b5cd3b6d9596a","session_id":"6197b5af2eeaa7903ec2d793","condition":"full-information","relevant_dimensions":["wings","legs"],"bee_group":{"antennae":"X","wings":"2","pattern":"X","legs":"F"},"action":"avoid","summary":"bad-avoid","bonus":0.09999999999999999},{"rt":1725.9000000059605,"stimulus":"\n                    <p><b>Action: <em>avoid</em></b></p>\n                    <p>This is the bee that you just saw.</p>\n                    <img src=\"bees-with-color/bee-B1SF.svg\" width=\"200\">\n                    <p><span class=\"redText\">Bad choice,</span> the bee was friendly.<br>Your bonus pay is unchanged, and remains at $0.42.</p>\n            ","response":0,"trial_type":"html-button-response","trial_index":42,"time_elapsed":549534,"internal_node_id":"0.0-4.0-1.15","subject_id":"615b44e83d0396716fc468d1","study_id":"6197b3f67c2b5cd3b6d9596a","session_id":"6197b5af2eeaa7903ec2d793","condition":"full-information","relevant_dimensions":["wings","legs"],"bee_group":{"antennae":"X","wings":"2","pattern":"X","legs":"F"},"bonus":0.09999999999999999},{"rt":1274.4000000059605,"stimulus":"bees-with-color/bee-B1SM.svg","response":0,"trial_type":"image-button-response","trial_index":43,"time_elapsed":550809,"internal_node_id":"0.0-4.0-0.16","subject_id":"615b44e83d0396716fc468d1","study_id":"6197b3f67c2b5cd3b6d9596a","session_id":"6197b5af2eeaa7903ec2d793","condition":"full-information","relevant_dimensions":["wings","legs"],"bee_group":{"antennae":"X","wings":"2","pattern":"X","legs":"F"},"action":"harvest","summary":"good-harvest","bonus":0.09999999999999999},{"rt":735.3000000119209,"stimulus":"\n                    <p><b>Action: <em>harvest</em></b></p>\n                    <p>This is the bee that you just saw.</p>\n                    <img src=\"bees-with-color/bee-B1SM.svg\" width=\"200\">\n                    <p><span class=\"greenText\"><b>Successful harvest!</b></span><br>Your pay has increased by $0.02. Your bonus pay is now $0.44.</p>\n            ","response":0,"trial_type":"html-button-response","trial_index":44,"time_elapsed":551546,"internal_node_id":"0.0-4.0-1.16","subject_id":"615b44e83d0396716fc468d1","study_id":"6197b3f67c2b5cd3b6d9596a","session_id":"6197b5af2eeaa7903ec2d793","condition":"full-information","relevant_dimensions":["wings","legs"],"bee_group":{"antennae":"X","wings":"2","pattern":"X","legs":"F"},"bonus":0.09999999999999999},{"rt":3365.5,"stimulus":"bees-with-color/bee-A1DF.svg","response":0,"trial_type":"image-button-response","trial_index":45,"time_elapsed":554912,"internal_node_id":"0.0-4.0-0.17","subject_id":"615b44e83d0396716fc468d1","study_id":"6197b3f67c2b5cd3b6d9596a","session_id":"6197b5af2eeaa7903ec2d793","condition":"full-information","relevant_dimensions":["wings","legs"],"bee_group":{"antennae":"X","wings":"2","pattern":"X","legs":"F"},"action":"harvest","summary":"good-harvest","bonus":0.09999999999999999},{"rt":907,"stimulus":"\n                    <p><b>Action: <em>harvest</em></b></p>\n                    <p>This is the bee that you just saw.</p>\n                    <img src=\"bees-with-color/bee-A1DF.svg\" width=\"200\">\n                    <p><span class=\"greenText\"><b>Successful harvest!</b></span><br>Your pay has increased by $0.02. Your bonus pay is now $0.46.</p>\n            ","response":0,"trial_type":"html-button-response","trial_index":46,"time_elapsed":555821,"internal_node_id":"0.0-4.0-1.17","subject_id":"615b44e83d0396716fc468d1","study_id":"6197b3f67c2b5cd3b6d9596a","session_id":"6197b5af2eeaa7903ec2d793","condition":"full-information","relevant_dimensions":["wings","legs"],"bee_group":{"antennae":"X","wings":"2","pattern":"X","legs":"F"},"bonus":0.09999999999999999},{"rt":1585.0999999940395,"stimulus":"bees-with-color/bee-B2DF.svg","response":1,"trial_type":"image-button-response","trial_index":47,"time_elapsed":557407,"internal_node_id":"0.0-4.0-0.18","subject_id":"615b44e83d0396716fc468d1","study_id":"6197b3f67c2b5cd3b6d9596a","session_id":"6197b5af2eeaa7903ec2d793","condition":"full-information","relevant_dimensions":["wings","legs"],"bee_group":{"antennae":"X","wings":"2","pattern":"X","legs":"F"},"action":"avoid","summary":"good-avoid","bonus":0.09999999999999999},{"rt":777.4000000059605,"stimulus":"\n                    <p><b>Action: <em>avoid</em></b></p>\n                    <p>This is the bee that you just saw.</p>\n                    <img src=\"bees-with-color/bee-B2DF.svg\" width=\"200\">\n                    <p><span class=\"greenText\">Good choice!</span>  This bee would have stung you.<br>Your bonus pay is unchanged, and remains at $0.46.</p>\n            ","response":0,"trial_type":"html-button-response","trial_index":48,"time_elapsed":558186,"internal_node_id":"0.0-4.0-1.18","subject_id":"615b44e83d0396716fc468d1","study_id":"6197b3f67c2b5cd3b6d9596a","session_id":"6197b5af2eeaa7903ec2d793","condition":"full-information","relevant_dimensions":["wings","legs"],"bee_group":{"antennae":"X","wings":"2","pattern":"X","legs":"F"},"bonus":0.09999999999999999},{"rt":3577.300000011921,"stimulus":"bees-with-color/bee-A2SF.svg","response":1,"trial_type":"image-button-response","trial_index":49,"time_elapsed":561764,"internal_node_id":"0.0-4.0-0.19","subject_id":"615b44e83d0396716fc468d1","study_id":"6197b3f67c2b5cd3b6d9596a","session_id":"6197b5af2eeaa7903ec2d793","condition":"full-information","relevant_dimensions":["wings","legs"],"bee_group":{"antennae":"X","wings":"2","pattern":"X","legs":"F"},"action":"avoid","summary":"good-avoid","bonus":0.09999999999999999},{"rt":582.7000000178814,"stimulus":"\n                    <p><b>Action: <em>avoid</em></b></p>\n                    <p>This is the bee that you just saw.</p>\n                    <img src=\"bees-with-color/bee-A2SF.svg\" width=\"200\">\n                    <p><span class=\"greenText\">Good choice!</span>  This bee would have stung you.<br>Your bonus pay is unchanged, and remains at $0.46.</p>\n            ","response":0,"trial_type":"html-button-response","trial_index":50,"time_elapsed":562348,"internal_node_id":"0.0-4.0-1.19","subject_id":"615b44e83d0396716fc468d1","study_id":"6197b3f67c2b5cd3b6d9596a","session_id":"6197b5af2eeaa7903ec2d793","condition":"full-information","relevant_dimensions":["wings","legs"],"bee_group":{"antennae":"X","wings":"2","pattern":"X","legs":"F"},"bonus":0.09999999999999999},{"rt":3763.800000011921,"stimulus":"bees-with-color/bee-A1DM.svg","response":0,"trial_type":"image-button-response","trial_index":51,"time_elapsed":566113,"internal_node_id":"0.0-4.0-0.20","subject_id":"615b44e83d0396716fc468d1","study_id":"6197b3f67c2b5cd3b6d9596a","session_id":"6197b5af2eeaa7903ec2d793","condition":"full-information","relevant_dimensions":["wings","legs"],"bee_group":{"antennae":"X","wings":"2","pattern":"X","legs":"F"},"action":"harvest","summary":"good-harvest","bonus":0.09999999999999999},{"rt":604.9000000059605,"stimulus":"\n                    <p><b>Action: <em>harvest</em></b></p>\n                    <p>This is the bee that you just saw.</p>\n                    <img src=\"bees-with-color/bee-A1DM.svg\" width=\"200\">\n                    <p><span class=\"greenText\"><b>Successful harvest!</b></span><br>Your pay has increased by $0.02. Your bonus pay is now $0.48.</p>\n            ","response":0,"trial_type":"html-button-response","trial_index":52,"time_elapsed":566720,"internal_node_id":"0.0-4.0-1.20","subject_id":"615b44e83d0396716fc468d1","study_id":"6197b3f67c2b5cd3b6d9596a","session_id":"6197b5af2eeaa7903ec2d793","condition":"full-information","relevant_dimensions":["wings","legs"],"bee_group":{"antennae":"X","wings":"2","pattern":"X","legs":"F"},"bonus":0.09999999999999999},{"rt":4087.199999988079,"stimulus":"bees-with-color/bee-B1DM.svg","response":0,"trial_type":"image-button-response","trial_index":53,"time_elapsed":570809,"internal_node_id":"0.0-4.0-0.21","subject_id":"615b44e83d0396716fc468d1","study_id":"6197b3f67c2b5cd3b6d9596a","session_id":"6197b5af2eeaa7903ec2d793","condition":"full-information","relevant_dimensions":["wings","legs"],"bee_group":{"antennae":"X","wings":"2","pattern":"X","legs":"F"},"action":"harvest","summary":"good-harvest","bonus":0.09999999999999999},{"rt":803.5,"stimulus":"\n                    <p><b>Action: <em>harvest</em></b></p>\n                    <p>This is the bee that you just saw.</p>\n                    <img src=\"bees-with-color/bee-B1DM.svg\" width=\"200\">\n                    <p><span class=\"greenText\"><b>Successful harvest!</b></span><br>Your pay has increased by $0.02. Your bonus pay is now $0.50.</p>\n            ","response":0,"trial_type":"html-button-response","trial_index":54,"time_elapsed":571613,"internal_node_id":"0.0-4.0-1.21","subject_id":"615b44e83d0396716fc468d1","study_id":"6197b3f67c2b5cd3b6d9596a","session_id":"6197b5af2eeaa7903ec2d793","condition":"full-information","relevant_dimensions":["wings","legs"],"bee_group":{"antennae":"X","wings":"2","pattern":"X","legs":"F"},"bonus":0.09999999999999999},{"rt":1902.800000011921,"stimulus":"bees-with-color/bee-A2SM.svg","response":0,"trial_type":"image-button-response","trial_index":55,"time_elapsed":573517,"internal_node_id":"0.0-4.0-0.22","subject_id":"615b44e83d0396716fc468d1","study_id":"6197b3f67c2b5cd3b6d9596a","session_id":"6197b5af2eeaa7903ec2d793","condition":"full-information","relevant_dimensions":["wings","legs"],"bee_group":{"antennae":"X","wings":"2","pattern":"X","legs":"F"},"action":"harvest","summary":"good-harvest","bonus":0.09999999999999999},{"rt":826,"stimulus":"\n                    <p><b>Action: <em>harvest</em></b></p>\n                    <p>This is the bee that you just saw.</p>\n                    <img src=\"bees-with-color/bee-A2SM.svg\" width=\"200\">\n                    <p><span class=\"greenText\"><b>Successful harvest!</b></span><br>Your pay has increased by $0.02. Your bonus pay is now $0.52.</p>\n            ","response":0,"trial_type":"html-button-response","trial_index":56,"time_elapsed":574344,"internal_node_id":"0.0-4.0-1.22","subject_id":"615b44e83d0396716fc468d1","study_id":"6197b3f67c2b5cd3b6d9596a","session_id":"6197b5af2eeaa7903ec2d793","condition":"full-information","relevant_dimensions":["wings","legs"],"bee_group":{"antennae":"X","wings":"2","pattern":"X","legs":"F"},"bonus":0.09999999999999999},{"rt":1433.2999999821186,"stimulus":"bees-with-color/bee-B2SM.svg","response":0,"trial_type":"image-button-response","trial_index":57,"time_elapsed":575779,"internal_node_id":"0.0-4.0-0.23","subject_id":"615b44e83d0396716fc468d1","study_id":"6197b3f67c2b5cd3b6d9596a","session_id":"6197b5af2eeaa7903ec2d793","condition":"full-information","relevant_dimensions":["wings","legs"],"bee_group":{"antennae":"X","wings":"2","pattern":"X","legs":"F"},"action":"harvest","summary":"good-harvest","bonus":0.09999999999999999},{"rt":527.5999999940395,"stimulus":"\n                    <p><b>Action: <em>harvest</em></b></p>\n                    <p>This is the bee that you just saw.</p>\n                    <img src=\"bees-with-color/bee-B2SM.svg\" width=\"200\">\n                    <p><span class=\"greenText\"><b>Successful harvest!</b></span><br>Your pay has increased by $0.02. Your bonus pay is now $0.54.</p>\n            ","response":0,"trial_type":"html-button-response","trial_index":58,"time_elapsed":576307,"internal_node_id":"0.0-4.0-1.23","subject_id":"615b44e83d0396716fc468d1","study_id":"6197b3f67c2b5cd3b6d9596a","session_id":"6197b5af2eeaa7903ec2d793","condition":"full-information","relevant_dimensions":["wings","legs"],"bee_group":{"antennae":"X","wings":"2","pattern":"X","legs":"F"},"bonus":0.09999999999999999},{"rt":2105.4000000059605,"stimulus":"bees-with-color/bee-B1SF.svg","response":1,"trial_type":"image-button-response","trial_index":59,"time_elapsed":578413,"internal_node_id":"0.0-4.0-0.24","subject_id":"615b44e83d0396716fc468d1","study_id":"6197b3f67c2b5cd3b6d9596a","session_id":"6197b5af2eeaa7903ec2d793","condition":"full-information","relevant_dimensions":["wings","legs"],"bee_group":{"antennae":"X","wings":"2","pattern":"X","legs":"F"},"action":"avoid","summary":"bad-avoid","bonus":0.09999999999999999},{"rt":1265.800000011921,"stimulus":"\n                    <p><b>Action: <em>avoid</em></b></p>\n                    <p>This is the bee that you just saw.</p>\n                    <img src=\"bees-with-color/bee-B1SF.svg\" width=\"200\">\n                    <p><span class=\"redText\">Bad choice,</span> the bee was friendly.<br>Your bonus pay is unchanged, and remains at $0.54.</p>\n            ","response":0,"trial_type":"html-button-response","trial_index":60,"time_elapsed":579680,"internal_node_id":"0.0-4.0-1.24","subject_id":"615b44e83d0396716fc468d1","study_id":"6197b3f67c2b5cd3b6d9596a","session_id":"6197b5af2eeaa7903ec2d793","condition":"full-information","relevant_dimensions":["wings","legs"],"bee_group":{"antennae":"X","wings":"2","pattern":"X","legs":"F"},"bonus":0.09999999999999999},{"rt":4309.300000011921,"stimulus":"bees-with-color/bee-B2SF.svg","response":0,"trial_type":"image-button-response","trial_index":61,"time_elapsed":583992,"internal_node_id":"0.0-4.0-0.25","subject_id":"615b44e83d0396716fc468d1","study_id":"6197b3f67c2b5cd3b6d9596a","session_id":"6197b5af2eeaa7903ec2d793","condition":"full-information","relevant_dimensions":["wings","legs"],"bee_group":{"antennae":"X","wings":"2","pattern":"X","legs":"F"},"action":"harvest","summary":"bad-harvest","bonus":0.09999999999999999},{"rt":1383.5,"stimulus":"\n                    <p><b>Action: <em>harvest</em></b></p>\n                    <p>This is the bee that you just saw.</p>\n                    <img src=\"bees-with-color/bee-B2SF.svg\" width=\"200\">\n                    <p><span class=\"redText\">Bad choice, the bee was angry.</span><br><b>You have been stung!</b><br>Your pay has been decreased by $0.10. Your bonus pay is now $0.44.</p>\n            ","response":0,"trial_type":"html-button-response","trial_index":62,"time_elapsed":585376,"internal_node_id":"0.0-4.0-1.25","subject_id":"615b44e83d0396716fc468d1","study_id":"6197b3f67c2b5cd3b6d9596a","session_id":"6197b5af2eeaa7903ec2d793","condition":"full-information","relevant_dimensions":["wings","legs"],"bee_group":{"antennae":"X","wings":"2","pattern":"X","legs":"F"},"bonus":0.09999999999999999},{"rt":4542.800000011921,"stimulus":"bees-with-color/bee-A1SM.svg","response":0,"trial_type":"image-button-response","trial_index":63,"time_elapsed":589921,"internal_node_id":"0.0-4.0-0.26","subject_id":"615b44e83d0396716fc468d1","study_id":"6197b3f67c2b5cd3b6d9596a","session_id":"6197b5af2eeaa7903ec2d793","condition":"full-information","relevant_dimensions":["wings","legs"],"bee_group":{"antennae":"X","wings":"2","pattern":"X","legs":"F"},"action":"harvest","summary":"good-harvest","bonus":0.09999999999999999},{"rt":1031.4000000059605,"stimulus":"\n                    <p><b>Action: <em>harvest</em></b></p>\n                    <p>This is the bee that you just saw.</p>\n                    <img src=\"bees-with-color/bee-A1SM.svg\" width=\"200\">\n                    <p><span class=\"greenText\"><b>Successful harvest!</b></span><br>Your pay has increased by $0.02. Your bonus pay is now $0.46.</p>\n            ","response":0,"trial_type":"html-button-response","trial_index":64,"time_elapsed":590954,"internal_node_id":"0.0-4.0-1.26","subject_id":"615b44e83d0396716fc468d1","study_id":"6197b3f67c2b5cd3b6d9596a","session_id":"6197b5af2eeaa7903ec2d793","condition":"full-information","relevant_dimensions":["wings","legs"],"bee_group":{"antennae":"X","wings":"2","pattern":"X","legs":"F"},"bonus":0.09999999999999999},{"rt":25231.19999998808,"stimulus":"bees-with-color/bee-B2DM.svg","response":0,"trial_type":"image-button-response","trial_index":65,"time_elapsed":616186,"internal_node_id":"0.0-4.0-0.27","subject_id":"615b44e83d0396716fc468d1","study_id":"6197b3f67c2b5cd3b6d9596a","session_id":"6197b5af2eeaa7903ec2d793","condition":"full-information","relevant_dimensions":["wings","legs"],"bee_group":{"antennae":"X","wings":"2","pattern":"X","legs":"F"},"action":"harvest","summary":"good-harvest","bonus":0.09999999999999999},{"rt":553.5999999940395,"stimulus":"\n                    <p><b>Action: <em>harvest</em></b></p>\n                    <p>This is the bee that you just saw.</p>\n                    <img src=\"bees-with-color/bee-B2DM.svg\" width=\"200\">\n                    <p><span class=\"greenText\"><b>Successful harvest!</b></span><br>Your pay has increased by $0.02. Your bonus pay is now $0.48.</p>\n            ","response":0,"trial_type":"html-button-response","trial_index":66,"time_elapsed":616741,"internal_node_id":"0.0-4.0-1.27","subject_id":"615b44e83d0396716fc468d1","study_id":"6197b3f67c2b5cd3b6d9596a","session_id":"6197b5af2eeaa7903ec2d793","condition":"full-information","relevant_dimensions":["wings","legs"],"bee_group":{"antennae":"X","wings":"2","pattern":"X","legs":"F"},"bonus":0.09999999999999999},{"rt":2201.5,"stimulus":"bees-with-color/bee-A2DF.svg","response":1,"trial_type":"image-button-response","trial_index":67,"time_elapsed":618943,"internal_node_id":"0.0-4.0-0.28","subject_id":"615b44e83d0396716fc468d1","study_id":"6197b3f67c2b5cd3b6d9596a","session_id":"6197b5af2eeaa7903ec2d793","condition":"full-information","relevant_dimensions":["wings","legs"],"bee_group":{"antennae":"X","wings":"2","pattern":"X","legs":"F"},"action":"avoid","summary":"good-avoid","bonus":0.09999999999999999},{"rt":563.7999999821186,"stimulus":"\n                    <p><b>Action: <em>avoid</em></b></p>\n                    <p>This is the bee that you just saw.</p>\n                    <img src=\"bees-with-color/bee-A2DF.svg\" width=\"200\">\n                    <p><span class=\"greenText\">Good choice!</span>  This bee would have stung you.<br>Your bonus pay is unchanged, and remains at $0.48.</p>\n            ","response":0,"trial_type":"html-button-response","trial_index":68,"time_elapsed":619508,"internal_node_id":"0.0-4.0-1.28","subject_id":"615b44e83d0396716fc468d1","study_id":"6197b3f67c2b5cd3b6d9596a","session_id":"6197b5af2eeaa7903ec2d793","condition":"full-information","relevant_dimensions":["wings","legs"],"bee_group":{"antennae":"X","wings":"2","pattern":"X","legs":"F"},"bonus":0.09999999999999999},{"rt":3941.199999988079,"stimulus":"bees-with-color/bee-B1DF.svg","response":0,"trial_type":"image-button-response","trial_index":69,"time_elapsed":623451,"internal_node_id":"0.0-4.0-0.29","subject_id":"615b44e83d0396716fc468d1","study_id":"6197b3f67c2b5cd3b6d9596a","session_id":"6197b5af2eeaa7903ec2d793","condition":"full-information","relevant_dimensions":["wings","legs"],"bee_group":{"antennae":"X","wings":"2","pattern":"X","legs":"F"},"action":"harvest","summary":"good-harvest","bonus":0.09999999999999999},{"rt":626.5,"stimulus":"\n                    <p><b>Action: <em>harvest</em></b></p>\n                    <p>This is the bee that you just saw.</p>\n                    <img src=\"bees-with-color/bee-B1DF.svg\" width=\"200\">\n                    <p><span class=\"greenText\"><b>Successful harvest!</b></span><br>Your pay has increased by $0.02. Your bonus pay is now $0.50.</p>\n            ","response":0,"trial_type":"html-button-response","trial_index":70,"time_elapsed":624078,"internal_node_id":"0.0-4.0-1.29","subject_id":"615b44e83d0396716fc468d1","study_id":"6197b3f67c2b5cd3b6d9596a","session_id":"6197b5af2eeaa7903ec2d793","condition":"full-information","relevant_dimensions":["wings","legs"],"bee_group":{"antennae":"X","wings":"2","pattern":"X","legs":"F"},"bonus":0.09999999999999999},{"rt":1586.800000011921,"stimulus":"bees-with-color/bee-A2DM.svg","response":1,"trial_type":"image-button-response","trial_index":71,"time_elapsed":625666,"internal_node_id":"0.0-4.0-0.30","subject_id":"615b44e83d0396716fc468d1","study_id":"6197b3f67c2b5cd3b6d9596a","session_id":"6197b5af2eeaa7903ec2d793","condition":"full-information","relevant_dimensions":["wings","legs"],"bee_group":{"antennae":"X","wings":"2","pattern":"X","legs":"F"},"action":"avoid","summary":"bad-avoid","bonus":0.09999999999999999},{"rt":2319.399999976158,"stimulus":"\n                    <p><b>Action: <em>avoid</em></b></p>\n                    <p>This is the bee that you just saw.</p>\n                    <img src=\"bees-with-color/bee-A2DM.svg\" width=\"200\">\n                    <p><span class=\"redText\">Bad choice,</span> the bee was friendly.<br>Your bonus pay is unchanged, and remains at $0.50.</p>\n            ","response":0,"trial_type":"html-button-response","trial_index":72,"time_elapsed":627987,"internal_node_id":"0.0-4.0-1.30","subject_id":"615b44e83d0396716fc468d1","study_id":"6197b3f67c2b5cd3b6d9596a","session_id":"6197b5af2eeaa7903ec2d793","condition":"full-information","relevant_dimensions":["wings","legs"],"bee_group":{"antennae":"X","wings":"2","pattern":"X","legs":"F"},"bonus":0.09999999999999999},{"rt":1877.2999999821186,"stimulus":"bees-with-color/bee-A1SF.svg","response":0,"trial_type":"image-button-response","trial_index":73,"time_elapsed":629865,"internal_node_id":"0.0-4.0-0.31","subject_id":"615b44e83d0396716fc468d1","study_id":"6197b3f67c2b5cd3b6d9596a","session_id":"6197b5af2eeaa7903ec2d793","condition":"full-information","relevant_dimensions":["wings","legs"],"bee_group":{"antennae":"X","wings":"2","pattern":"X","legs":"F"},"action":"harvest","summary":"good-harvest","bonus":0.09999999999999999},{"rt":762.3000000119209,"stimulus":"\n                    <p><b>Action: <em>harvest</em></b></p>\n                    <p>This is the bee that you just saw.</p>\n                    <img src=\"bees-with-color/bee-A1SF.svg\" width=\"200\">\n                    <p><span class=\"greenText\"><b>Successful harvest!</b></span><br>Your pay has increased by $0.02. Your bonus pay is now $0.52.</p>\n            ","response":0,"trial_type":"html-button-response","trial_index":74,"time_elapsed":630628,"internal_node_id":"0.0-4.0-1.31","subject_id":"615b44e83d0396716fc468d1","study_id":"6197b3f67c2b5cd3b6d9596a","session_id":"6197b5af2eeaa7903ec2d793","condition":"full-information","relevant_dimensions":["wings","legs"],"bee_group":{"antennae":"X","wings":"2","pattern":"X","legs":"F"},"bonus":0.09999999999999999},{"rt":1618.9000000059605,"stimulus":"bees-with-color/bee-B1DM.svg","response":0,"trial_type":"image-button-response","trial_index":75,"time_elapsed":632248,"internal_node_id":"0.0-4.0-0.32","subject_id":"615b44e83d0396716fc468d1","study_id":"6197b3f67c2b5cd3b6d9596a","session_id":"6197b5af2eeaa7903ec2d793","condition":"full-information","relevant_dimensions":["wings","legs"],"bee_group":{"antennae":"X","wings":"2","pattern":"X","legs":"F"},"action":"harvest","summary":"good-harvest","bonus":0.09999999999999999},{"rt":529.5999999940395,"stimulus":"\n                    <p><b>Action: <em>harvest</em></b></p>\n                    <p>This is the bee that you just saw.</p>\n                    <img src=\"bees-with-color/bee-B1DM.svg\" width=\"200\">\n                    <p><span class=\"greenText\"><b>Successful harvest!</b></span><br>Your pay has increased by $0.02. Your bonus pay is now $0.54.</p>\n            ","response":0,"trial_type":"html-button-response","trial_index":76,"time_elapsed":632779,"internal_node_id":"0.0-4.0-1.32","subject_id":"615b44e83d0396716fc468d1","study_id":"6197b3f67c2b5cd3b6d9596a","session_id":"6197b5af2eeaa7903ec2d793","condition":"full-information","relevant_dimensions":["wings","legs"],"bee_group":{"antennae":"X","wings":"2","pattern":"X","legs":"F"},"bonus":0.09999999999999999},{"rt":1446.300000011921,"stimulus":"bees-with-color/bee-B1SF.svg","response":0,"trial_type":"image-button-response","trial_index":77,"time_elapsed":634226,"internal_node_id":"0.0-4.0-0.33","subject_id":"615b44e83d0396716fc468d1","study_id":"6197b3f67c2b5cd3b6d9596a","session_id":"6197b5af2eeaa7903ec2d793","condition":"full-information","relevant_dimensions":["wings","legs"],"bee_group":{"antennae":"X","wings":"2","pattern":"X","legs":"F"},"action":"harvest","summary":"good-harvest","bonus":0.09999999999999999},{"rt":490.19999998807907,"stimulus":"\n                    <p><b>Action: <em>harvest</em></b></p>\n                    <p>This is the bee that you just saw.</p>\n                    <img src=\"bees-with-color/bee-B1SF.svg\" width=\"200\">\n                    <p><span class=\"greenText\"><b>Successful harvest!</b></span><br>Your pay has increased by $0.02. Your bonus pay is now $0.56.</p>\n            ","response":0,"trial_type":"html-button-response","trial_index":78,"time_elapsed":634718,"internal_node_id":"0.0-4.0-1.33","subject_id":"615b44e83d0396716fc468d1","study_id":"6197b3f67c2b5cd3b6d9596a","session_id":"6197b5af2eeaa7903ec2d793","condition":"full-information","relevant_dimensions":["wings","legs"],"bee_group":{"antennae":"X","wings":"2","pattern":"X","legs":"F"},"bonus":0.09999999999999999},{"rt":1108.9000000059605,"stimulus":"bees-with-color/bee-A1DF.svg","response":0,"trial_type":"image-button-response","trial_index":79,"time_elapsed":635827,"internal_node_id":"0.0-4.0-0.34","subject_id":"615b44e83d0396716fc468d1","study_id":"6197b3f67c2b5cd3b6d9596a","session_id":"6197b5af2eeaa7903ec2d793","condition":"full-information","relevant_dimensions":["wings","legs"],"bee_group":{"antennae":"X","wings":"2","pattern":"X","legs":"F"},"action":"harvest","summary":"good-harvest","bonus":0.09999999999999999},{"rt":489.59999999403954,"stimulus":"\n                    <p><b>Action: <em>harvest</em></b></p>\n                    <p>This is the bee that you just saw.</p>\n                    <img src=\"bees-with-color/bee-A1DF.svg\" width=\"200\">\n                    <p><span class=\"greenText\"><b>Successful harvest!</b></span><br>Your pay has increased by $0.02. Your bonus pay is now $0.58.</p>\n            ","response":0,"trial_type":"html-button-response","trial_index":80,"time_elapsed":636318,"internal_node_id":"0.0-4.0-1.34","subject_id":"615b44e83d0396716fc468d1","study_id":"6197b3f67c2b5cd3b6d9596a","session_id":"6197b5af2eeaa7903ec2d793","condition":"full-information","relevant_dimensions":["wings","legs"],"bee_group":{"antennae":"X","wings":"2","pattern":"X","legs":"F"},"bonus":0.09999999999999999},{"rt":3027.0999999940395,"stimulus":"bees-with-color/bee-B2DF.svg","response":0,"trial_type":"image-button-response","trial_index":81,"time_elapsed":639346,"internal_node_id":"0.0-4.0-0.35","subject_id":"615b44e83d0396716fc468d1","study_id":"6197b3f67c2b5cd3b6d9596a","session_id":"6197b5af2eeaa7903ec2d793","condition":"full-information","relevant_dimensions":["wings","legs"],"bee_group":{"antennae":"X","wings":"2","pattern":"X","legs":"F"},"action":"harvest","summary":"bad-harvest","bonus":0.09999999999999999},{"rt":1958.699999988079,"stimulus":"\n                    <p><b>Action: <em>harvest</em></b></p>\n                    <p>This is the bee that you just saw.</p>\n                    <img src=\"bees-with-color/bee-B2DF.svg\" width=\"200\">\n                    <p><span class=\"redText\">Bad choice, the bee was angry.</span><br><b>You have been stung!</b><br>Your pay has been decreased by $0.10. Your bonus pay is now $0.48.</p>\n            ","response":0,"trial_type":"html-button-response","trial_index":82,"time_elapsed":641306,"internal_node_id":"0.0-4.0-1.35","subject_id":"615b44e83d0396716fc468d1","study_id":"6197b3f67c2b5cd3b6d9596a","session_id":"6197b5af2eeaa7903ec2d793","condition":"full-information","relevant_dimensions":["wings","legs"],"bee_group":{"antennae":"X","wings":"2","pattern":"X","legs":"F"},"bonus":0.09999999999999999},{"rt":14825,"stimulus":"bees-with-color/bee-A2SM.svg","response":0,"trial_type":"image-button-response","trial_index":83,"time_elapsed":656132,"internal_node_id":"0.0-4.0-0.36","subject_id":"615b44e83d0396716fc468d1","study_id":"6197b3f67c2b5cd3b6d9596a","session_id":"6197b5af2eeaa7903ec2d793","condition":"full-information","relevant_dimensions":["wings","legs"],"bee_group":{"antennae":"X","wings":"2","pattern":"X","legs":"F"},"action":"harvest","summary":"good-harvest","bonus":0.09999999999999999},{"rt":2231.5999999940395,"stimulus":"\n                    <p><b>Action: <em>harvest</em></b></p>\n                    <p>This is the bee that you just saw.</p>\n                    <img src=\"bees-with-color/bee-A2SM.svg\" width=\"200\">\n                    <p><span class=\"greenText\"><b>Successful harvest!</b></span><br>Your pay has increased by $0.02. Your bonus pay is now $0.50.</p>\n            ","response":0,"trial_type":"html-button-response","trial_index":84,"time_elapsed":658365,"internal_node_id":"0.0-4.0-1.36","subject_id":"615b44e83d0396716fc468d1","study_id":"6197b3f67c2b5cd3b6d9596a","session_id":"6197b5af2eeaa7903ec2d793","condition":"full-information","relevant_dimensions":["wings","legs"],"bee_group":{"antennae":"X","wings":"2","pattern":"X","legs":"F"},"bonus":0.09999999999999999},{"rt":4759.199999988079,"stimulus":"bees-with-color/bee-B1DF.svg","response":0,"trial_type":"image-button-response","trial_index":85,"time_elapsed":663126,"internal_node_id":"0.0-4.0-0.37","subject_id":"615b44e83d0396716fc468d1","study_id":"6197b3f67c2b5cd3b6d9596a","session_id":"6197b5af2eeaa7903ec2d793","condition":"full-information","relevant_dimensions":["wings","legs"],"bee_group":{"antennae":"X","wings":"2","pattern":"X","legs":"F"},"action":"harvest","summary":"good-harvest","bonus":0.09999999999999999},{"rt":604.3000000119209,"stimulus":"\n                    <p><b>Action: <em>harvest</em></b></p>\n                    <p>This is the bee that you just saw.</p>\n                    <img src=\"bees-with-color/bee-B1DF.svg\" width=\"200\">\n                    <p><span class=\"greenText\"><b>Successful harvest!</b></span><br>Your pay has increased by $0.02. Your bonus pay is now $0.52.</p>\n            ","response":0,"trial_type":"html-button-response","trial_index":86,"time_elapsed":663731,"internal_node_id":"0.0-4.0-1.37","subject_id":"615b44e83d0396716fc468d1","study_id":"6197b3f67c2b5cd3b6d9596a","session_id":"6197b5af2eeaa7903ec2d793","condition":"full-information","relevant_dimensions":["wings","legs"],"bee_group":{"antennae":"X","wings":"2","pattern":"X","legs":"F"},"bonus":0.09999999999999999},{"rt":1063.5999999940395,"stimulus":"bees-with-color/bee-A1DM.svg","response":0,"trial_type":"image-button-response","trial_index":87,"time_elapsed":664796,"internal_node_id":"0.0-4.0-0.38","subject_id":"615b44e83d0396716fc468d1","study_id":"6197b3f67c2b5cd3b6d9596a","session_id":"6197b5af2eeaa7903ec2d793","condition":"full-information","relevant_dimensions":["wings","legs"],"bee_group":{"antennae":"X","wings":"2","pattern":"X","legs":"F"},"action":"harvest","summary":"good-harvest","bonus":0.09999999999999999},{"rt":573.4000000059605,"stimulus":"\n                    <p><b>Action: <em>harvest</em></b></p>\n                    <p>This is the bee that you just saw.</p>\n                    <img src=\"bees-with-color/bee-A1DM.svg\" width=\"200\">\n                    <p><span class=\"greenText\"><b>Successful harvest!</b></span><br>Your pay has increased by $0.02. Your bonus pay is now $0.54.</p>\n            ","response":0,"trial_type":"html-button-response","trial_index":88,"time_elapsed":665371,"internal_node_id":"0.0-4.0-1.38","subject_id":"615b44e83d0396716fc468d1","study_id":"6197b3f67c2b5cd3b6d9596a","session_id":"6197b5af2eeaa7903ec2d793","condition":"full-information","relevant_dimensions":["wings","legs"],"bee_group":{"antennae":"X","wings":"2","pattern":"X","legs":"F"},"bonus":0.09999999999999999},{"rt":1611.0999999940395,"stimulus":"bees-with-color/bee-A2SF.svg","response":0,"trial_type":"image-button-response","trial_index":89,"time_elapsed":666983,"internal_node_id":"0.0-4.0-0.39","subject_id":"615b44e83d0396716fc468d1","study_id":"6197b3f67c2b5cd3b6d9596a","session_id":"6197b5af2eeaa7903ec2d793","condition":"full-information","relevant_dimensions":["wings","legs"],"bee_group":{"antennae":"X","wings":"2","pattern":"X","legs":"F"},"action":"harvest","summary":"bad-harvest","bonus":0.09999999999999999},{"rt":672.3000000119209,"stimulus":"\n                    <p><b>Action: <em>harvest</em></b></p>\n                    <p>This is the bee that you just saw.</p>\n                    <img src=\"bees-with-color/bee-A2SF.svg\" width=\"200\">\n                    <p><span class=\"redText\">Bad choice, the bee was angry.</span><br><b>You have been stung!</b><br>Your pay has been decreased by $0.10. Your bonus pay is now $0.44.</p>\n            ","response":0,"trial_type":"html-button-response","trial_index":90,"time_elapsed":667656,"internal_node_id":"0.0-4.0-1.39","subject_id":"615b44e83d0396716fc468d1","study_id":"6197b3f67c2b5cd3b6d9596a","session_id":"6197b5af2eeaa7903ec2d793","condition":"full-information","relevant_dimensions":["wings","legs"],"bee_group":{"antennae":"X","wings":"2","pattern":"X","legs":"F"},"bonus":0.09999999999999999},{"rt":2971.4000000059605,"stimulus":"bees-with-color/bee-A1SM.svg","response":0,"trial_type":"image-button-response","trial_index":91,"time_elapsed":670629,"internal_node_id":"0.0-4.0-0.40","subject_id":"615b44e83d0396716fc468d1","study_id":"6197b3f67c2b5cd3b6d9596a","session_id":"6197b5af2eeaa7903ec2d793","condition":"full-information","relevant_dimensions":["wings","legs"],"bee_group":{"antennae":"X","wings":"2","pattern":"X","legs":"F"},"action":"harvest","summary":"good-harvest","bonus":0.09999999999999999},{"rt":473.90000000596046,"stimulus":"\n                    <p><b>Action: <em>harvest</em></b></p>\n                    <p>This is the bee that you just saw.</p>\n                    <img src=\"bees-with-color/bee-A1SM.svg\" width=\"200\">\n                    <p><span class=\"greenText\"><b>Successful harvest!</b></span><br>Your pay has increased by $0.02. Your bonus pay is now $0.46.</p>\n            ","response":0,"trial_type":"html-button-response","trial_index":92,"time_elapsed":671104,"internal_node_id":"0.0-4.0-1.40","subject_id":"615b44e83d0396716fc468d1","study_id":"6197b3f67c2b5cd3b6d9596a","session_id":"6197b5af2eeaa7903ec2d793","condition":"full-information","relevant_dimensions":["wings","legs"],"bee_group":{"antennae":"X","wings":"2","pattern":"X","legs":"F"},"bonus":0.09999999999999999},{"rt":1198.800000011921,"stimulus":"bees-with-color/bee-B2SF.svg","response":0,"trial_type":"image-button-response","trial_index":93,"time_elapsed":672304,"internal_node_id":"0.0-4.0-0.41","subject_id":"615b44e83d0396716fc468d1","study_id":"6197b3f67c2b5cd3b6d9596a","session_id":"6197b5af2eeaa7903ec2d793","condition":"full-information","relevant_dimensions":["wings","legs"],"bee_group":{"antennae":"X","wings":"2","pattern":"X","legs":"F"},"action":"harvest","summary":"bad-harvest","bonus":0.09999999999999999},{"rt":1046.9000000059605,"stimulus":"\n                    <p><b>Action: <em>harvest</em></b></p>\n                    <p>This is the bee that you just saw.</p>\n                    <img src=\"bees-with-color/bee-B2SF.svg\" width=\"200\">\n                    <p><span class=\"redText\">Bad choice, the bee was angry.</span><br><b>You have been stung!</b><br>Your pay has been decreased by $0.10. Your bonus pay is now $0.36.</p>\n            ","response":0,"trial_type":"html-button-response","trial_index":94,"time_elapsed":673352,"internal_node_id":"0.0-4.0-1.41","subject_id":"615b44e83d0396716fc468d1","study_id":"6197b3f67c2b5cd3b6d9596a","session_id":"6197b5af2eeaa7903ec2d793","condition":"full-information","relevant_dimensions":["wings","legs"],"bee_group":{"antennae":"X","wings":"2","pattern":"X","legs":"F"},"bonus":0.09999999999999999},{"rt":1440,"stimulus":"bees-with-color/bee-A1SF.svg","response":0,"trial_type":"image-button-response","trial_index":95,"time_elapsed":674793,"internal_node_id":"0.0-4.0-0.42","subject_id":"615b44e83d0396716fc468d1","study_id":"6197b3f67c2b5cd3b6d9596a","session_id":"6197b5af2eeaa7903ec2d793","condition":"full-information","relevant_dimensions":["wings","legs"],"bee_group":{"antennae":"X","wings":"2","pattern":"X","legs":"F"},"action":"harvest","summary":"good-harvest","bonus":0.09999999999999999},{"rt":423.90000000596046,"stimulus":"\n                    <p><b>Action: <em>harvest</em></b></p>\n                    <p>This is the bee that you just saw.</p>\n                    <img src=\"bees-with-color/bee-A1SF.svg\" width=\"200\">\n                    <p><span class=\"greenText\"><b>Successful harvest!</b></span><br>Your pay has increased by $0.02. Your bonus pay is now $0.38.</p>\n            ","response":0,"trial_type":"html-button-response","trial_index":96,"time_elapsed":675218,"internal_node_id":"0.0-4.0-1.42","subject_id":"615b44e83d0396716fc468d1","study_id":"6197b3f67c2b5cd3b6d9596a","session_id":"6197b5af2eeaa7903ec2d793","condition":"full-information","relevant_dimensions":["wings","legs"],"bee_group":{"antennae":"X","wings":"2","pattern":"X","legs":"F"},"bonus":0.09999999999999999},{"rt":1017.1999999880791,"stimulus":"bees-with-color/bee-B2DM.svg","response":0,"trial_type":"image-button-response","trial_index":97,"time_elapsed":676236,"internal_node_id":"0.0-4.0-0.43","subject_id":"615b44e83d0396716fc468d1","study_id":"6197b3f67c2b5cd3b6d9596a","session_id":"6197b5af2eeaa7903ec2d793","condition":"full-information","relevant_dimensions":["wings","legs"],"bee_group":{"antennae":"X","wings":"2","pattern":"X","legs":"F"},"action":"harvest","summary":"good-harvest","bonus":0.09999999999999999},{"rt":882.2999999821186,"stimulus":"\n                    <p><b>Action: <em>harvest</em></b></p>\n                    <p>This is the bee that you just saw.</p>\n                    <img src=\"bees-with-color/bee-B2DM.svg\" width=\"200\">\n                    <p><span class=\"greenText\"><b>Successful harvest!</b></span><br>Your pay has increased by $0.02. Your bonus pay is now $0.40.</p>\n            ","response":0,"trial_type":"html-button-response","trial_index":98,"time_elapsed":677119,"internal_node_id":"0.0-4.0-1.43","subject_id":"615b44e83d0396716fc468d1","study_id":"6197b3f67c2b5cd3b6d9596a","session_id":"6197b5af2eeaa7903ec2d793","condition":"full-information","relevant_dimensions":["wings","legs"],"bee_group":{"antennae":"X","wings":"2","pattern":"X","legs":"F"},"bonus":0.09999999999999999},{"rt":695.9000000059605,"stimulus":"bees-with-color/bee-B1SM.svg","response":1,"trial_type":"image-button-response","trial_index":99,"time_elapsed":677816,"internal_node_id":"0.0-4.0-0.44","subject_id":"615b44e83d0396716fc468d1","study_id":"6197b3f67c2b5cd3b6d9596a","session_id":"6197b5af2eeaa7903ec2d793","condition":"full-information","relevant_dimensions":["wings","legs"],"bee_group":{"antennae":"X","wings":"2","pattern":"X","legs":"F"},"action":"avoid","summary":"bad-avoid","bonus":0.09999999999999999},{"rt":456.69999998807907,"stimulus":"\n                    <p><b>Action: <em>avoid</em></b></p>\n                    <p>This is the bee that you just saw.</p>\n                    <img src=\"bees-with-color/bee-B1SM.svg\" width=\"200\">\n                    <p><span class=\"redText\">Bad choice,</span> the bee was friendly.<br>Your bonus pay is unchanged, and remains at $0.40.</p>\n            ","response":0,"trial_type":"html-button-response","trial_index":100,"time_elapsed":678274,"internal_node_id":"0.0-4.0-1.44","subject_id":"615b44e83d0396716fc468d1","study_id":"6197b3f67c2b5cd3b6d9596a","session_id":"6197b5af2eeaa7903ec2d793","condition":"full-information","relevant_dimensions":["wings","legs"],"bee_group":{"antennae":"X","wings":"2","pattern":"X","legs":"F"},"bonus":0.09999999999999999},{"rt":658.9000000059605,"stimulus":"bees-with-color/bee-A2DM.svg","response":0,"trial_type":"image-button-response","trial_index":101,"time_elapsed":678934,"internal_node_id":"0.0-4.0-0.45","subject_id":"615b44e83d0396716fc468d1","study_id":"6197b3f67c2b5cd3b6d9596a","session_id":"6197b5af2eeaa7903ec2d793","condition":"full-information","relevant_dimensions":["wings","legs"],"bee_group":{"antennae":"X","wings":"2","pattern":"X","legs":"F"},"action":"harvest","summary":"good-harvest","bonus":0.09999999999999999},{"rt":375.09999999403954,"stimulus":"\n                    <p><b>Action: <em>harvest</em></b></p>\n                    <p>This is the bee that you just saw.</p>\n                    <img src=\"bees-with-color/bee-A2DM.svg\" width=\"200\">\n                    <p><span class=\"greenText\"><b>Successful harvest!</b></span><br>Your pay has increased by $0.02. Your bonus pay is now $0.42.</p>\n            ","response":0,"trial_type":"html-button-response","trial_index":102,"time_elapsed":679310,"internal_node_id":"0.0-4.0-1.45","subject_id":"615b44e83d0396716fc468d1","study_id":"6197b3f67c2b5cd3b6d9596a","session_id":"6197b5af2eeaa7903ec2d793","condition":"full-information","relevant_dimensions":["wings","legs"],"bee_group":{"antennae":"X","wings":"2","pattern":"X","legs":"F"},"bonus":0.09999999999999999},{"rt":330.90000000596046,"stimulus":"bees-with-color/bee-B2SM.svg","response":0,"trial_type":"image-button-response","trial_index":103,"time_elapsed":679642,"internal_node_id":"0.0-4.0-0.46","subject_id":"615b44e83d0396716fc468d1","study_id":"6197b3f67c2b5cd3b6d9596a","session_id":"6197b5af2eeaa7903ec2d793","condition":"full-information","relevant_dimensions":["wings","legs"],"bee_group":{"antennae":"X","wings":"2","pattern":"X","legs":"F"},"action":"harvest","summary":"good-harvest","bonus":0.09999999999999999},{"rt":592.5999999940395,"stimulus":"\n                    <p><b>Action: <em>harvest</em></b></p>\n                    <p>This is the bee that you just saw.</p>\n                    <img src=\"bees-with-color/bee-B2SM.svg\" width=\"200\">\n                    <p><span class=\"greenText\"><b>Successful harvest!</b></span><br>Your pay has increased by $0.02. Your bonus pay is now $0.44.</p>\n            ","response":0,"trial_type":"html-button-response","trial_index":104,"time_elapsed":680236,"internal_node_id":"0.0-4.0-1.46","subject_id":"615b44e83d0396716fc468d1","study_id":"6197b3f67c2b5cd3b6d9596a","session_id":"6197b5af2eeaa7903ec2d793","condition":"full-information","relevant_dimensions":["wings","legs"],"bee_group":{"antennae":"X","wings":"2","pattern":"X","legs":"F"},"bonus":0.09999999999999999},{"rt":457.90000000596046,"stimulus":"bees-with-color/bee-A2DF.svg","response":0,"trial_type":"image-button-response","trial_index":105,"time_elapsed":680695,"internal_node_id":"0.0-4.0-0.47","subject_id":"615b44e83d0396716fc468d1","study_id":"6197b3f67c2b5cd3b6d9596a","session_id":"6197b5af2eeaa7903ec2d793","condition":"full-information","relevant_dimensions":["wings","legs"],"bee_group":{"antennae":"X","wings":"2","pattern":"X","legs":"F"},"action":"harvest","summary":"bad-harvest","bonus":0.09999999999999999},{"rt":791,"stimulus":"\n                    <p><b>Action: <em>harvest</em></b></p>\n                    <p>This is the bee that you just saw.</p>\n                    <img src=\"bees-with-color/bee-A2DF.svg\" width=\"200\">\n                    <p><span class=\"redText\">Bad choice, the bee was angry.</span><br><b>You have been stung!</b><br>Your pay has been decreased by $0.10. Your bonus pay is now $0.34.</p>\n            ","response":0,"trial_type":"html-button-response","trial_index":106,"time_elapsed":681487,"internal_node_id":"0.0-4.0-1.47","subject_id":"615b44e83d0396716fc468d1","study_id":"6197b3f67c2b5cd3b6d9596a","session_id":"6197b5af2eeaa7903ec2d793","condition":"full-information","relevant_dimensions":["wings","legs"],"bee_group":{"antennae":"X","wings":"2","pattern":"X","legs":"F"},"bonus":0.09999999999999999},{"rt":543.2000000178814,"stimulus":"bees-with-color/bee-A1SF.svg","response":1,"trial_type":"image-button-response","trial_index":107,"time_elapsed":682031,"internal_node_id":"0.0-4.0-0.48","subject_id":"615b44e83d0396716fc468d1","study_id":"6197b3f67c2b5cd3b6d9596a","session_id":"6197b5af2eeaa7903ec2d793","condition":"full-information","relevant_dimensions":["wings","legs"],"bee_group":{"antennae":"X","wings":"2","pattern":"X","legs":"F"},"action":"avoid","summary":"bad-avoid","bonus":0.09999999999999999},{"rt":392.69999998807907,"stimulus":"\n                    <p><b>Action: <em>avoid</em></b></p>\n                    <p>This is the bee that you just saw.</p>\n                    <img src=\"bees-with-color/bee-A1SF.svg\" width=\"200\">\n                    <p><span class=\"redText\">Bad choice,</span> the bee was friendly.<br>Your bonus pay is unchanged, and remains at $0.34.</p>\n            ","response":0,"trial_type":"html-button-response","trial_index":108,"time_elapsed":682425,"internal_node_id":"0.0-4.0-1.48","subject_id":"615b44e83d0396716fc468d1","study_id":"6197b3f67c2b5cd3b6d9596a","session_id":"6197b5af2eeaa7903ec2d793","condition":"full-information","relevant_dimensions":["wings","legs"],"bee_group":{"antennae":"X","wings":"2","pattern":"X","legs":"F"},"bonus":0.09999999999999999},{"rt":310.90000000596046,"stimulus":"bees-with-color/bee-A2DF.svg","response":0,"trial_type":"image-button-response","trial_index":109,"time_elapsed":682737,"internal_node_id":"0.0-4.0-0.49","subject_id":"615b44e83d0396716fc468d1","study_id":"6197b3f67c2b5cd3b6d9596a","session_id":"6197b5af2eeaa7903ec2d793","condition":"full-information","relevant_dimensions":["wings","legs"],"bee_group":{"antennae":"X","wings":"2","pattern":"X","legs":"F"},"action":"harvest","summary":"bad-harvest","bonus":0.09999999999999999},{"rt":419.69999998807907,"stimulus":"\n                    <p><b>Action: <em>harvest</em></b></p>\n                    <p>This is the bee that you just saw.</p>\n                    <img src=\"bees-with-color/bee-A2DF.svg\" width=\"200\">\n                    <p><span class=\"redText\">Bad choice, the bee was angry.</span><br><b>You have been stung!</b><br>Your pay has been decreased by $0.10. Your bonus pay is now $0.24.</p>\n            ","response":0,"trial_type":"html-button-response","trial_index":110,"time_elapsed":683158,"internal_node_id":"0.0-4.0-1.49","subject_id":"615b44e83d0396716fc468d1","study_id":"6197b3f67c2b5cd3b6d9596a","session_id":"6197b5af2eeaa7903ec2d793","condition":"full-information","relevant_dimensions":["wings","legs"],"bee_group":{"antennae":"X","wings":"2","pattern":"X","legs":"F"},"bonus":0.09999999999999999},{"rt":368.5,"stimulus":"bees-with-color/bee-A1DM.svg","response":1,"trial_type":"image-button-response","trial_index":111,"time_elapsed":683528,"internal_node_id":"0.0-4.0-0.50","subject_id":"615b44e83d0396716fc468d1","study_id":"6197b3f67c2b5cd3b6d9596a","session_id":"6197b5af2eeaa7903ec2d793","condition":"full-information","relevant_dimensions":["wings","legs"],"bee_group":{"antennae":"X","wings":"2","pattern":"X","legs":"F"},"action":"avoid","summary":"bad-avoid","bonus":0.09999999999999999},{"rt":575,"stimulus":"\n                    <p><b>Action: <em>avoid</em></b></p>\n                    <p>This is the bee that you just saw.</p>\n                    <img src=\"bees-with-color/bee-A1DM.svg\" width=\"200\">\n                    <p><span class=\"redText\">Bad choice,</span> the bee was friendly.<br>Your bonus pay is unchanged, and remains at $0.24.</p>\n            ","response":0,"trial_type":"html-button-response","trial_index":112,"time_elapsed":684104,"internal_node_id":"0.0-4.0-1.50","subject_id":"615b44e83d0396716fc468d1","study_id":"6197b3f67c2b5cd3b6d9596a","session_id":"6197b5af2eeaa7903ec2d793","condition":"full-information","relevant_dimensions":["wings","legs"],"bee_group":{"antennae":"X","wings":"2","pattern":"X","legs":"F"},"bonus":0.09999999999999999},{"rt":463.90000000596046,"stimulus":"bees-with-color/bee-A2SM.svg","response":0,"trial_type":"image-button-response","trial_index":113,"time_elapsed":684569,"internal_node_id":"0.0-4.0-0.51","subject_id":"615b44e83d0396716fc468d1","study_id":"6197b3f67c2b5cd3b6d9596a","session_id":"6197b5af2eeaa7903ec2d793","condition":"full-information","relevant_dimensions":["wings","legs"],"bee_group":{"antennae":"X","wings":"2","pattern":"X","legs":"F"},"action":"harvest","summary":"good-harvest","bonus":0.09999999999999999},{"rt":543.0999999940395,"stimulus":"\n                    <p><b>Action: <em>harvest</em></b></p>\n                    <p>This is the bee that you just saw.</p>\n                    <img src=\"bees-with-color/bee-A2SM.svg\" width=\"200\">\n                    <p><span class=\"greenText\"><b>Successful harvest!</b></span><br>Your pay has increased by $0.02. Your bonus pay is now $0.26.</p>\n            ","response":0,"trial_type":"html-button-response","trial_index":114,"time_elapsed":685114,"internal_node_id":"0.0-4.0-1.51","subject_id":"615b44e83d0396716fc468d1","study_id":"6197b3f67c2b5cd3b6d9596a","session_id":"6197b5af2eeaa7903ec2d793","condition":"full-information","relevant_dimensions":["wings","legs"],"bee_group":{"antennae":"X","wings":"2","pattern":"X","legs":"F"},"bonus":0.09999999999999999},{"rt":415.40000000596046,"stimulus":"bees-with-color/bee-B1SM.svg","response":0,"trial_type":"image-button-response","trial_index":115,"time_elapsed":685531,"internal_node_id":"0.0-4.0-0.52","subject_id":"615b44e83d0396716fc468d1","study_id":"6197b3f67c2b5cd3b6d9596a","session_id":"6197b5af2eeaa7903ec2d793","condition":"full-information","relevant_dimensions":["wings","legs"],"bee_group":{"antennae":"X","wings":"2","pattern":"X","legs":"F"},"action":"harvest","summary":"good-harvest","bonus":0.09999999999999999},{"rt":775.5,"stimulus":"\n                    <p><b>Action: <em>harvest</em></b></p>\n                    <p>This is the bee that you just saw.</p>\n                    <img src=\"bees-with-color/bee-B1SM.svg\" width=\"200\">\n                    <p><span class=\"greenText\"><b>Successful harvest!</b></span><br>Your pay has increased by $0.02. Your bonus pay is now $0.28.</p>\n            ","response":0,"trial_type":"html-button-response","trial_index":116,"time_elapsed":686308,"internal_node_id":"0.0-4.0-1.52","subject_id":"615b44e83d0396716fc468d1","study_id":"6197b3f67c2b5cd3b6d9596a","session_id":"6197b5af2eeaa7903ec2d793","condition":"full-information","relevant_dimensions":["wings","legs"],"bee_group":{"antennae":"X","wings":"2","pattern":"X","legs":"F"},"bonus":0.09999999999999999},{"rt":851.8000000119209,"stimulus":"bees-with-color/bee-B2DM.svg","response":0,"trial_type":"image-button-response","trial_index":117,"time_elapsed":687161,"internal_node_id":"0.0-4.0-0.53","subject_id":"615b44e83d0396716fc468d1","study_id":"6197b3f67c2b5cd3b6d9596a","session_id":"6197b5af2eeaa7903ec2d793","condition":"full-information","relevant_dimensions":["wings","legs"],"bee_group":{"antennae":"X","wings":"2","pattern":"X","legs":"F"},"action":"harvest","summary":"good-harvest","bonus":0.09999999999999999},{"rt":505.59999999403954,"stimulus":"\n                    <p><b>Action: <em>harvest</em></b></p>\n                    <p>This is the bee that you just saw.</p>\n                    <img src=\"bees-with-color/bee-B2DM.svg\" width=\"200\">\n                    <p><span class=\"greenText\"><b>Successful harvest!</b></span><br>Your pay has increased by $0.02. Your bonus pay is now $0.30.</p>\n            ","response":0,"trial_type":"html-button-response","trial_index":118,"time_elapsed":687668,"internal_node_id":"0.0-4.0-1.53","subject_id":"615b44e83d0396716fc468d1","study_id":"6197b3f67c2b5cd3b6d9596a","session_id":"6197b5af2eeaa7903ec2d793","condition":"full-information","relevant_dimensions":["wings","legs"],"bee_group":{"antennae":"X","wings":"2","pattern":"X","legs":"F"},"bonus":0.09999999999999999},{"rt":1095.4000000059605,"stimulus":"bees-with-color/bee-A2DM.svg","response":0,"trial_type":"image-button-response","trial_index":119,"time_elapsed":688765,"internal_node_id":"0.0-4.0-0.54","subject_id":"615b44e83d0396716fc468d1","study_id":"6197b3f67c2b5cd3b6d9596a","session_id":"6197b5af2eeaa7903ec2d793","condition":"full-information","relevant_dimensions":["wings","legs"],"bee_group":{"antennae":"X","wings":"2","pattern":"X","legs":"F"},"action":"harvest","summary":"good-harvest","bonus":0.09999999999999999},{"rt":370.40000000596046,"stimulus":"\n                    <p><b>Action: <em>harvest</em></b></p>\n                    <p>This is the bee that you just saw.</p>\n                    <img src=\"bees-with-color/bee-A2DM.svg\" width=\"200\">\n                    <p><span class=\"greenText\"><b>Successful harvest!</b></span><br>Your pay has increased by $0.02. Your bonus pay is now $0.32.</p>\n            ","response":0,"trial_type":"html-button-response","trial_index":120,"time_elapsed":689137,"internal_node_id":"0.0-4.0-1.54","subject_id":"615b44e83d0396716fc468d1","study_id":"6197b3f67c2b5cd3b6d9596a","session_id":"6197b5af2eeaa7903ec2d793","condition":"full-information","relevant_dimensions":["wings","legs"],"bee_group":{"antennae":"X","wings":"2","pattern":"X","legs":"F"},"bonus":0.09999999999999999},{"rt":877.0999999940395,"stimulus":"bees-with-color/bee-A2SF.svg","response":1,"trial_type":"image-button-response","trial_index":121,"time_elapsed":690015,"internal_node_id":"0.0-4.0-0.55","subject_id":"615b44e83d0396716fc468d1","study_id":"6197b3f67c2b5cd3b6d9596a","session_id":"6197b5af2eeaa7903ec2d793","condition":"full-information","relevant_dimensions":["wings","legs"],"bee_group":{"antennae":"X","wings":"2","pattern":"X","legs":"F"},"action":"avoid","summary":"good-avoid","bonus":0.09999999999999999},{"rt":504.7999999821186,"stimulus":"\n                    <p><b>Action: <em>avoid</em></b></p>\n                    <p>This is the bee that you just saw.</p>\n                    <img src=\"bees-with-color/bee-A2SF.svg\" width=\"200\">\n                    <p><span class=\"greenText\">Good choice!</span>  This bee would have stung you.<br>Your bonus pay is unchanged, and remains at $0.32.</p>\n            ","response":0,"trial_type":"html-button-response","trial_index":122,"time_elapsed":690521,"internal_node_id":"0.0-4.0-1.55","subject_id":"615b44e83d0396716fc468d1","study_id":"6197b3f67c2b5cd3b6d9596a","session_id":"6197b5af2eeaa7903ec2d793","condition":"full-information","relevant_dimensions":["wings","legs"],"bee_group":{"antennae":"X","wings":"2","pattern":"X","legs":"F"},"bonus":0.09999999999999999},{"rt":1386,"stimulus":"bees-with-color/bee-B1DF.svg","response":1,"trial_type":"image-button-response","trial_index":123,"time_elapsed":691908,"internal_node_id":"0.0-4.0-0.56","subject_id":"615b44e83d0396716fc468d1","study_id":"6197b3f67c2b5cd3b6d9596a","session_id":"6197b5af2eeaa7903ec2d793","condition":"full-information","relevant_dimensions":["wings","legs"],"bee_group":{"antennae":"X","wings":"2","pattern":"X","legs":"F"},"action":"avoid","summary":"bad-avoid","bonus":0.09999999999999999},{"rt":411,"stimulus":"\n                    <p><b>Action: <em>avoid</em></b></p>\n                    <p>This is the bee that you just saw.</p>\n                    <img src=\"bees-with-color/bee-B1DF.svg\" width=\"200\">\n                    <p><span class=\"redText\">Bad choice,</span> the bee was friendly.<br>Your bonus pay is unchanged, and remains at $0.32.</p>\n            ","response":0,"trial_type":"html-button-response","trial_index":124,"time_elapsed":692320,"internal_node_id":"0.0-4.0-1.56","subject_id":"615b44e83d0396716fc468d1","study_id":"6197b3f67c2b5cd3b6d9596a","session_id":"6197b5af2eeaa7903ec2d793","condition":"full-information","relevant_dimensions":["wings","legs"],"bee_group":{"antennae":"X","wings":"2","pattern":"X","legs":"F"},"bonus":0.09999999999999999},{"rt":671.5999999940395,"stimulus":"bees-with-color/bee-B2SF.svg","response":0,"trial_type":"image-button-response","trial_index":125,"time_elapsed":692993,"internal_node_id":"0.0-4.0-0.57","subject_id":"615b44e83d0396716fc468d1","study_id":"6197b3f67c2b5cd3b6d9596a","session_id":"6197b5af2eeaa7903ec2d793","condition":"full-information","relevant_dimensions":["wings","legs"],"bee_group":{"antennae":"X","wings":"2","pattern":"X","legs":"F"},"action":"harvest","summary":"bad-harvest","bonus":0.09999999999999999},{"rt":461.19999998807907,"stimulus":"\n                    <p><b>Action: <em>harvest</em></b></p>\n                    <p>This is the bee that you just saw.</p>\n                    <img src=\"bees-with-color/bee-B2SF.svg\" width=\"200\">\n                    <p><span class=\"redText\">Bad choice, the bee was angry.</span><br><b>You have been stung!</b><br>Your pay has been decreased by $0.10. Your bonus pay is now $0.22.</p>\n            ","response":0,"trial_type":"html-button-response","trial_index":126,"time_elapsed":693455,"internal_node_id":"0.0-4.0-1.57","subject_id":"615b44e83d0396716fc468d1","study_id":"6197b3f67c2b5cd3b6d9596a","session_id":"6197b5af2eeaa7903ec2d793","condition":"full-information","relevant_dimensions":["wings","legs"],"bee_group":{"antennae":"X","wings":"2","pattern":"X","legs":"F"},"bonus":0.09999999999999999},{"rt":342,"stimulus":"bees-with-color/bee-B2DF.svg","response":1,"trial_type":"image-button-response","trial_index":127,"time_elapsed":693798,"internal_node_id":"0.0-4.0-0.58","subject_id":"615b44e83d0396716fc468d1","study_id":"6197b3f67c2b5cd3b6d9596a","session_id":"6197b5af2eeaa7903ec2d793","condition":"full-information","relevant_dimensions":["wings","legs"],"bee_group":{"antennae":"X","wings":"2","pattern":"X","legs":"F"},"action":"avoid","summary":"good-avoid","bonus":0.09999999999999999},{"rt":874.3000000119209,"stimulus":"\n                    <p><b>Action: <em>avoid</em></b></p>\n                    <p>This is the bee that you just saw.</p>\n                    <img src=\"bees-with-color/bee-B2DF.svg\" width=\"200\">\n                    <p><span class=\"greenText\">Good choice!</span>  This bee would have stung you.<br>Your bonus pay is unchanged, and remains at $0.22.</p>\n            ","response":0,"trial_type":"html-button-response","trial_index":128,"time_elapsed":694673,"internal_node_id":"0.0-4.0-1.58","subject_id":"615b44e83d0396716fc468d1","study_id":"6197b3f67c2b5cd3b6d9596a","session_id":"6197b5af2eeaa7903ec2d793","condition":"full-information","relevant_dimensions":["wings","legs"],"bee_group":{"antennae":"X","wings":"2","pattern":"X","legs":"F"},"bonus":0.09999999999999999},{"rt":2009.8999999761581,"stimulus":"bees-with-color/bee-A1SM.svg","response":0,"trial_type":"image-button-response","trial_index":129,"time_elapsed":696684,"internal_node_id":"0.0-4.0-0.59","subject_id":"615b44e83d0396716fc468d1","study_id":"6197b3f67c2b5cd3b6d9596a","session_id":"6197b5af2eeaa7903ec2d793","condition":"full-information","relevant_dimensions":["wings","legs"],"bee_group":{"antennae":"X","wings":"2","pattern":"X","legs":"F"},"action":"harvest","summary":"good-harvest","bonus":0.09999999999999999},{"rt":572.8000000119209,"stimulus":"\n                    <p><b>Action: <em>harvest</em></b></p>\n                    <p>This is the bee that you just saw.</p>\n                    <img src=\"bees-with-color/bee-A1SM.svg\" width=\"200\">\n                    <p><span class=\"greenText\"><b>Successful harvest!</b></span><br>Your pay has increased by $0.02. Your bonus pay is now $0.24.</p>\n            ","response":0,"trial_type":"html-button-response","trial_index":130,"time_elapsed":697258,"internal_node_id":"0.0-4.0-1.59","subject_id":"615b44e83d0396716fc468d1","study_id":"6197b3f67c2b5cd3b6d9596a","session_id":"6197b5af2eeaa7903ec2d793","condition":"full-information","relevant_dimensions":["wings","legs"],"bee_group":{"antennae":"X","wings":"2","pattern":"X","legs":"F"},"bonus":0.09999999999999999},{"rt":1117.5,"stimulus":"bees-with-color/bee-B2SM.svg","response":0,"trial_type":"image-button-response","trial_index":131,"time_elapsed":698377,"internal_node_id":"0.0-4.0-0.60","subject_id":"615b44e83d0396716fc468d1","study_id":"6197b3f67c2b5cd3b6d9596a","session_id":"6197b5af2eeaa7903ec2d793","condition":"full-information","relevant_dimensions":["wings","legs"],"bee_group":{"antennae":"X","wings":"2","pattern":"X","legs":"F"},"action":"harvest","summary":"good-harvest","bonus":0.09999999999999999},{"rt":588.5999999940395,"stimulus":"\n                    <p><b>Action: <em>harvest</em></b></p>\n                    <p>This is the bee that you just saw.</p>\n                    <img src=\"bees-with-color/bee-B2SM.svg\" width=\"200\">\n                    <p><span class=\"greenText\"><b>Successful harvest!</b></span><br>Your pay has increased by $0.02. Your bonus pay is now $0.26.</p>\n            ","response":0,"trial_type":"html-button-response","trial_index":132,"time_elapsed":698967,"internal_node_id":"0.0-4.0-1.60","subject_id":"615b44e83d0396716fc468d1","study_id":"6197b3f67c2b5cd3b6d9596a","session_id":"6197b5af2eeaa7903ec2d793","condition":"full-information","relevant_dimensions":["wings","legs"],"bee_group":{"antennae":"X","wings":"2","pattern":"X","legs":"F"},"bonus":0.09999999999999999},{"rt":3050.800000011921,"stimulus":"bees-with-color/bee-B1DM.svg","response":0,"trial_type":"image-button-response","trial_index":133,"time_elapsed":702019,"internal_node_id":"0.0-4.0-0.61","subject_id":"615b44e83d0396716fc468d1","study_id":"6197b3f67c2b5cd3b6d9596a","session_id":"6197b5af2eeaa7903ec2d793","condition":"full-information","relevant_dimensions":["wings","legs"],"bee_group":{"antennae":"X","wings":"2","pattern":"X","legs":"F"},"action":"harvest","summary":"good-harvest","bonus":0.09999999999999999},{"rt":524.5,"stimulus":"\n                    <p><b>Action: <em>harvest</em></b></p>\n                    <p>This is the bee that you just saw.</p>\n                    <img src=\"bees-with-color/bee-B1DM.svg\" width=\"200\">\n                    <p><span class=\"greenText\"><b>Successful harvest!</b></span><br>Your pay has increased by $0.02. Your bonus pay is now $0.28.</p>\n            ","response":0,"trial_type":"html-button-response","trial_index":134,"time_elapsed":702545,"internal_node_id":"0.0-4.0-1.61","subject_id":"615b44e83d0396716fc468d1","study_id":"6197b3f67c2b5cd3b6d9596a","session_id":"6197b5af2eeaa7903ec2d793","condition":"full-information","relevant_dimensions":["wings","legs"],"bee_group":{"antennae":"X","wings":"2","pattern":"X","legs":"F"},"bonus":0.09999999999999999},{"rt":2122.5999999940395,"stimulus":"bees-with-color/bee-A1DF.svg","response":0,"trial_type":"image-button-response","trial_index":135,"time_elapsed":704669,"internal_node_id":"0.0-4.0-0.62","subject_id":"615b44e83d0396716fc468d1","study_id":"6197b3f67c2b5cd3b6d9596a","session_id":"6197b5af2eeaa7903ec2d793","condition":"full-information","relevant_dimensions":["wings","legs"],"bee_group":{"antennae":"X","wings":"2","pattern":"X","legs":"F"},"action":"harvest","summary":"good-harvest","bonus":0.09999999999999999},{"rt":812.5999999940395,"stimulus":"\n                    <p><b>Action: <em>harvest</em></b></p>\n                    <p>This is the bee that you just saw.</p>\n                    <img src=\"bees-with-color/bee-A1DF.svg\" width=\"200\">\n                    <p><span class=\"greenText\"><b>Successful harvest!</b></span><br>Your pay has increased by $0.02. Your bonus pay is now $0.30.</p>\n            ","response":0,"trial_type":"html-button-response","trial_index":136,"time_elapsed":705483,"internal_node_id":"0.0-4.0-1.62","subject_id":"615b44e83d0396716fc468d1","study_id":"6197b3f67c2b5cd3b6d9596a","session_id":"6197b5af2eeaa7903ec2d793","condition":"full-information","relevant_dimensions":["wings","legs"],"bee_group":{"antennae":"X","wings":"2","pattern":"X","legs":"F"},"bonus":0.09999999999999999},{"rt":1345.199999988079,"stimulus":"bees-with-color/bee-B1SF.svg","response":0,"trial_type":"image-button-response","trial_index":137,"time_elapsed":706829,"internal_node_id":"0.0-4.0-0.63","subject_id":"615b44e83d0396716fc468d1","study_id":"6197b3f67c2b5cd3b6d9596a","session_id":"6197b5af2eeaa7903ec2d793","condition":"full-information","relevant_dimensions":["wings","legs"],"bee_group":{"antennae":"X","wings":"2","pattern":"X","legs":"F"},"action":"harvest","summary":"good-harvest","bonus":0.09999999999999999},{"rt":14473,"stimulus":"\n                    <p><b>Action: <em>harvest</em></b></p>\n                    <p>This is the bee that you just saw.</p>\n                    <img src=\"bees-with-color/bee-B1SF.svg\" width=\"200\">\n                    <p><span class=\"greenText\"><b>Successful harvest!</b></span><br>Your pay has increased by $0.02. Your bonus pay is now $0.32.</p>\n            ","response":0,"trial_type":"html-button-response","trial_index":138,"time_elapsed":721304,"internal_node_id":"0.0-4.0-1.63","subject_id":"615b44e83d0396716fc468d1","study_id":"6197b3f67c2b5cd3b6d9596a","session_id":"6197b5af2eeaa7903ec2d793","condition":"full-information","relevant_dimensions":["wings","legs"],"bee_group":{"antennae":"X","wings":"2","pattern":"X","legs":"F"},"bonus":0.09999999999999999},{"rt":3309.7999999821186,"stimulus":"You have completed the first part of this experiment.<br><br>You will now begin a shorter second part, in which you will receive no feedback.<br>The same rules regarding bonus pay apply.<br><br>Press any key to begin.","response":"f","trial_type":"html-keyboard-response","trial_index":139,"time_elapsed":724614,"internal_node_id":"0.0-5.0","subject_id":"615b44e83d0396716fc468d1","study_id":"6197b3f67c2b5cd3b6d9596a","session_id":"6197b5af2eeaa7903ec2d793","condition":"full-information","relevant_dimensions":["wings","legs"],"bee_group":{"antennae":"X","wings":"2","pattern":"X","legs":"F"},"bonus":0.09999999999999999},{"rt":4748.9000000059605,"stimulus":"bees-with-color/bee-A2SF.svg","response":0,"trial_type":"image-button-response","trial_index":140,"time_elapsed":729371,"internal_node_id":"0.0-6.0-0.0","subject_id":"615b44e83d0396716fc468d1","study_id":"6197b3f67c2b5cd3b6d9596a","session_id":"6197b5af2eeaa7903ec2d793","condition":"full-information","relevant_dimensions":["wings","legs"],"bee_group":{"antennae":"X","wings":"2","pattern":"X","legs":"F"},"bonus":0.09999999999999999},{"rt":4573.5,"stimulus":"bees-with-color/bee-B1SF.svg","response":0,"trial_type":"image-button-response","trial_index":141,"time_elapsed":733947,"internal_node_id":"0.0-6.0-0.1","subject_id":"615b44e83d0396716fc468d1","study_id":"6197b3f67c2b5cd3b6d9596a","session_id":"6197b5af2eeaa7903ec2d793","condition":"full-information","relevant_dimensions":["wings","legs"],"bee_group":{"antennae":"X","wings":"2","pattern":"X","legs":"F"},"bonus":0.09999999999999999},{"rt":1459.9000000059605,"stimulus":"bees-with-color/bee-B1DF.svg","response":0,"trial_type":"image-button-response","trial_index":142,"time_elapsed":735409,"internal_node_id":"0.0-6.0-0.2","subject_id":"615b44e83d0396716fc468d1","study_id":"6197b3f67c2b5cd3b6d9596a","session_id":"6197b5af2eeaa7903ec2d793","condition":"full-information","relevant_dimensions":["wings","legs"],"bee_group":{"antennae":"X","wings":"2","pattern":"X","legs":"F"},"bonus":0.09999999999999999},{"rt":923.3000000119209,"stimulus":"bees-with-color/bee-A1SF.svg","response":0,"trial_type":"image-button-response","trial_index":143,"time_elapsed":736334,"internal_node_id":"0.0-6.0-0.3","subject_id":"615b44e83d0396716fc468d1","study_id":"6197b3f67c2b5cd3b6d9596a","session_id":"6197b5af2eeaa7903ec2d793","condition":"full-information","relevant_dimensions":["wings","legs"],"bee_group":{"antennae":"X","wings":"2","pattern":"X","legs":"F"},"bonus":0.09999999999999999},{"rt":1055.5,"stimulus":"bees-with-color/bee-B2SM.svg","response":1,"trial_type":"image-button-response","trial_index":144,"time_elapsed":737391,"internal_node_id":"0.0-6.0-0.4","subject_id":"615b44e83d0396716fc468d1","study_id":"6197b3f67c2b5cd3b6d9596a","session_id":"6197b5af2eeaa7903ec2d793","condition":"full-information","relevant_dimensions":["wings","legs"],"bee_group":{"antennae":"X","wings":"2","pattern":"X","legs":"F"},"bonus":0.09999999999999999},{"rt":1688.800000011921,"stimulus":"bees-with-color/bee-B2SF.svg","response":0,"trial_type":"image-button-response","trial_index":145,"time_elapsed":739081,"internal_node_id":"0.0-6.0-0.5","subject_id":"615b44e83d0396716fc468d1","study_id":"6197b3f67c2b5cd3b6d9596a","session_id":"6197b5af2eeaa7903ec2d793","condition":"full-information","relevant_dimensions":["wings","legs"],"bee_group":{"antennae":"X","wings":"2","pattern":"X","legs":"F"},"bonus":0.09999999999999999},{"rt":1132.300000011921,"stimulus":"bees-with-color/bee-B2DM.svg","response":1,"trial_type":"image-button-response","trial_index":146,"time_elapsed":740216,"internal_node_id":"0.0-6.0-0.6","subject_id":"615b44e83d0396716fc468d1","study_id":"6197b3f67c2b5cd3b6d9596a","session_id":"6197b5af2eeaa7903ec2d793","condition":"full-information","relevant_dimensions":["wings","legs"],"bee_group":{"antennae":"X","wings":"2","pattern":"X","legs":"F"},"bonus":0.09999999999999999},{"rt":908.5,"stimulus":"bees-with-color/bee-A1DF.svg","response":0,"trial_type":"image-button-response","trial_index":147,"time_elapsed":741126,"internal_node_id":"0.0-6.0-0.7","subject_id":"615b44e83d0396716fc468d1","study_id":"6197b3f67c2b5cd3b6d9596a","session_id":"6197b5af2eeaa7903ec2d793","condition":"full-information","relevant_dimensions":["wings","legs"],"bee_group":{"antennae":"X","wings":"2","pattern":"X","legs":"F"},"bonus":0.09999999999999999},{"rt":1047.3999999761581,"stimulus":"bees-with-color/bee-A1SM.svg","response":1,"trial_type":"image-button-response","trial_index":148,"time_elapsed":742175,"internal_node_id":"0.0-6.0-0.8","subject_id":"615b44e83d0396716fc468d1","study_id":"6197b3f67c2b5cd3b6d9596a","session_id":"6197b5af2eeaa7903ec2d793","condition":"full-information","relevant_dimensions":["wings","legs"],"bee_group":{"antennae":"X","wings":"2","pattern":"X","legs":"F"},"bonus":0.09999999999999999},{"rt":1260.7000000178814,"stimulus":"bees-with-color/bee-B2DF.svg","response":0,"trial_type":"image-button-response","trial_index":149,"time_elapsed":743437,"internal_node_id":"0.0-6.0-0.9","subject_id":"615b44e83d0396716fc468d1","study_id":"6197b3f67c2b5cd3b6d9596a","session_id":"6197b5af2eeaa7903ec2d793","condition":"full-information","relevant_dimensions":["wings","legs"],"bee_group":{"antennae":"X","wings":"2","pattern":"X","legs":"F"},"bonus":0.09999999999999999},{"rt":843.9000000059605,"stimulus":"bees-with-color/bee-A2DF.svg","response":0,"trial_type":"image-button-response","trial_index":150,"time_elapsed":744282,"internal_node_id":"0.0-6.0-0.10","subject_id":"615b44e83d0396716fc468d1","study_id":"6197b3f67c2b5cd3b6d9596a","session_id":"6197b5af2eeaa7903ec2d793","condition":"full-information","relevant_dimensions":["wings","legs"],"bee_group":{"antennae":"X","wings":"2","pattern":"X","legs":"F"},"bonus":0.09999999999999999},{"rt":855.0999999940395,"stimulus":"bees-with-color/bee-A2SM.svg","response":0,"trial_type":"image-button-response","trial_index":151,"time_elapsed":745139,"internal_node_id":"0.0-6.0-0.11","subject_id":"615b44e83d0396716fc468d1","study_id":"6197b3f67c2b5cd3b6d9596a","session_id":"6197b5af2eeaa7903ec2d793","condition":"full-information","relevant_dimensions":["wings","legs"],"bee_group":{"antennae":"X","wings":"2","pattern":"X","legs":"F"},"bonus":0.09999999999999999},{"rt":1737,"stimulus":"bees-with-color/bee-B1SM.svg","response":0,"trial_type":"image-button-response","trial_index":152,"time_elapsed":746878,"internal_node_id":"0.0-6.0-0.12","subject_id":"615b44e83d0396716fc468d1","study_id":"6197b3f67c2b5cd3b6d9596a","session_id":"6197b5af2eeaa7903ec2d793","condition":"full-information","relevant_dimensions":["wings","legs"],"bee_group":{"antennae":"X","wings":"2","pattern":"X","legs":"F"},"bonus":0.09999999999999999},{"rt":210.30000001192093,"stimulus":"bees-with-color/bee-A1DM.svg","response":1,"trial_type":"image-button-response","trial_index":153,"time_elapsed":747090,"internal_node_id":"0.0-6.0-0.13","subject_id":"615b44e83d0396716fc468d1","study_id":"6197b3f67c2b5cd3b6d9596a","session_id":"6197b5af2eeaa7903ec2d793","condition":"full-information","relevant_dimensions":["wings","legs"],"bee_group":{"antennae":"X","wings":"2","pattern":"X","legs":"F"},"bonus":0.09999999999999999},{"rt":569.0999999940395,"stimulus":"bees-with-color/bee-B1DM.svg","response":0,"trial_type":"image-button-response","trial_index":154,"time_elapsed":747661,"internal_node_id":"0.0-6.0-0.14","subject_id":"615b44e83d0396716fc468d1","study_id":"6197b3f67c2b5cd3b6d9596a","session_id":"6197b5af2eeaa7903ec2d793","condition":"full-information","relevant_dimensions":["wings","legs"],"bee_group":{"antennae":"X","wings":"2","pattern":"X","legs":"F"},"bonus":0.09999999999999999},{"rt":231.2000000178814,"stimulus":"bees-with-color/bee-A2DM.svg","response":1,"trial_type":"image-button-response","trial_index":155,"time_elapsed":747894,"internal_node_id":"0.0-6.0-0.15","subject_id":"615b44e83d0396716fc468d1","study_id":"6197b3f67c2b5cd3b6d9596a","session_id":"6197b5af2eeaa7903ec2d793","condition":"full-information","relevant_dimensions":["wings","legs"],"bee_group":{"antennae":"X","wings":