[{"success":true,"trial_type":"fullscreen","trial_index":0,"time_elapsed":25702,"internal_node_id":"0.0-0.0","subject_id":"60e8a67d61e5ac8c0e0051e4","study_id":"60edd13110225f80f9f3709b","session_id":"6196bf63e0cde1cc372febdf","condition":"contingent","relevant_dimensions":["wings","pattern"],"bee_group":{"antennae":"X","wings":"1","pattern":"S","legs":"X"},"bonus":0.4800000000000006},{"success":true,"timeout":false,"failed_images":[],"failed_audio":[],"failed_video":[],"trial_type":"preload","trial_index":1,"time_elapsed":29650,"internal_node_id":"0.0-1.0","subject_id":"60e8a67d61e5ac8c0e0051e4","study_id":"60edd13110225f80f9f3709b","session_id":"6196bf63e0cde1cc372febdf","condition":"contingent","relevant_dimensions":["wings","pattern"],"bee_group":{"antennae":"X","wings":"1","pattern":"S","legs":"X"},"bonus":0.4800000000000006},{"rt":2043.4000000059605,"stimulus":"Welcome! Press any key to begin.","response":" ","trial_type":"html-keyboard-response","trial_index":2,"time_elapsed":31694,"internal_node_id":"0.0-2.0","subject_id":"60e8a67d61e5ac8c0e0051e4","study_id":"60edd13110225f80f9f3709b","session_id":"6196bf63e0cde1cc372febdf","condition":"contingent","relevant_dimensions":["wings","pattern"],"bee_group":{"antennae":"X","wings":"1","pattern":"S","legs":"X"},"bonus":0.4800000000000006},{"view_history":[{"page_index":0,"viewing_time":7095.700000017881},{"page_index":1,"viewing_time":21410.09999999404},{"page_index":2,"viewing_time":13745.40000000596},{"page_index":3,"viewing_time":23724.19999998808},{"page_index":4,"viewing_time":10458.5},{"page_index":5,"viewing_time":9809.199999988079},{"page_index":6,"viewing_time":11484.100000023842},{"page_index":7,"viewing_time":15285.199999988079},{"page_index":8,"viewing_time":8588.59999999404},{"page_index":9,"viewing_time":6972},{"page_index":10,"viewing_time":6499},{"page_index":11,"viewing_time":12825.5},{"page_index":12,"viewing_time":20290.20000001788},{"page_index":13,"viewing_time":1695.8999999761581},{"page_index":14,"viewing_time":3847.4000000059605}],"rt":173731.5,"trial_type":"instructions","trial_index":3,"time_elapsed":205426,"internal_node_id":"0.0-3.0-0.0","subject_id":"60e8a67d61e5ac8c0e0051e4","study_id":"60edd13110225f80f9f3709b","session_id":"6196bf63e0cde1cc372febdf","condition":"contingent","relevant_dimensions":["wings","pattern"],"bee_group":{"antennae":"X","wings":"1","pattern":"S","legs":"X"},"bonus":0.4800000000000006},{"rt":18235.79999998212,"response":{"Q0":["Two or six legs","Stripes or spots on body","Single or double wings","Antennae or no antennae"]},"question_order":[0],"trial_type":"survey-multi-select","trial_index":4,"time_elapsed":223667,"internal_node_id":"0.0-3.0-1.0","subject_id":"60e8a67d61e5ac8c0e0051e4","study_id":"60edd13110225f80f9f3709b","session_id":"6196bf63e0cde1cc372febdf","condition":"contingent","relevant_dimensions":["wings","pattern"],"bee_group":{"antennae":"X","wings":"1","pattern":"S","legs":"X"},"correct":true,"bonus":0.4800000000000006},{"rt":30832.69999998808,"response":{"Q1":"No.","Q2":"Based on the four features of the bee.","Q3":"You do not learn if it was friendly or dangerous, and do not alter your bonus."},"question_order":[0,1,2],"trial_type":"survey-multi-choice","trial_index":5,"time_elapsed":254502,"internal_node_id":"0.0-3.0-2.0","subject_id":"60e8a67d61e5ac8c0e0051e4","study_id":"60edd13110225f80f9f3709b","session_id":"6196bf63e0cde1cc372febdf","condition":"contingent","relevant_dimensions":["wings","pattern"],"bee_group":{"antennae":"X","wings":"1","pattern":"S","legs":"X"},"correct":true,"bonus":0.4800000000000006},{"rt":2942.5,"stimulus":"<p>Congrats, you got everything right<br>When you're ready, click the button below to continue to the experiment.</p>","response":0,"trial_type":"html-button-response","trial_index":6,"time_elapsed":257446,"internal_node_id":"0.0-3.0-3.0","subject_id":"60e8a67d61e5ac8c0e0051e4","study_id":"60edd13110225f80f9f3709b","session_id":"6196bf63e0cde1cc372febdf","condition":"contingent","relevant_dimensions":["wings","pattern"],"bee_group":{"antennae":"X","wings":"1","pattern":"S","legs":"X"},"bonus":0.4800000000000006},{"rt":13285.40000000596,"stimulus":"bees-with-color/bee-B2DF.svg","response":0,"trial_type":"image-button-response","trial_index":7,"time_elapsed":270734,"internal_node_id":"0.0-4.0-0.0","subject_id":"60e8a67d61e5ac8c0e0051e4","study_id":"60edd13110225f80f9f3709b","session_id":"6196bf63e0cde1cc372febdf","condition":"contingent","relevant_dimensions":["wings","pattern"],"bee_group":{"antennae":"X","wings":"1","pattern":"S","legs":"X"},"action":"harvest","summary":"good-harvest","bonus":0.4800000000000006},{"rt":13527.199999988079,"stimulus":"\n                    <p><b>Action: <em>harvest</em></b></p>\n                    <p>This is the bee that you just saw.</p>\n                    <img src=\"bees-with-color/bee-B2DF.svg\" width=\"200\">\n                    <p><span class=\"greenText\"><b>Successful harvest!</b></span><br>Your pay has increased by $0.02. Your bonus pay is now $0.56.</p>\n            ","response":0,"trial_type":"html-button-response","trial_index":8,"time_elapsed":284264,"internal_node_id":"0.0-4.0-1.0","subject_id":"60e8a67d61e5ac8c0e0051e4","study_id":"60edd13110225f80f9f3709b","session_id":"6196bf63e0cde1cc372febdf","condition":"contingent","relevant_dimensions":["wings","pattern"],"bee_group":{"antennae":"X","wings":"1","pattern":"S","legs":"X"},"bonus":0.4800000000000006},{"rt":10556.5,"stimulus":"bees-with-color/bee-B2SF.svg","response":0,"trial_type":"image-button-response","trial_index":9,"time_elapsed":294823,"internal_node_id":"0.0-4.0-0.1","subject_id":"60e8a67d61e5ac8c0e0051e4","study_id":"60edd13110225f80f9f3709b","session_id":"6196bf63e0cde1cc372febdf","condition":"contingent","relevant_dimensions":["wings","pattern"],"bee_group":{"antennae":"X","wings":"1","pattern":"S","legs":"X"},"action":"harvest","summary":"good-harvest","bonus":0.4800000000000006},{"rt":7808.9000000059605,"stimulus":"\n                    <p><b>Action: <em>harvest</em></b></p>\n                    <p>This is the bee that you just saw.</p>\n                    <img src=\"bees-with-color/bee-B2SF.svg\" width=\"200\">\n                    <p><span class=\"greenText\"><b>Successful harvest!</b></span><br>Your pay has increased by $0.02. Your bonus pay is now $0.58.</p>\n            ","response":0,"trial_type":"html-button-response","trial_index":10,"time_elapsed":302635,"internal_node_id":"0.0-4.0-1.1","subject_id":"60e8a67d61e5ac8c0e0051e4","study_id":"60edd13110225f80f9f3709b","session_id":"6196bf63e0cde1cc372febdf","condition":"contingent","relevant_dimensions":["wings","pattern"],"bee_group":{"antennae":"X","wings":"1","pattern":"S","legs":"X"},"bonus":0.4800000000000006},{"rt":2200.4000000059605,"stimulus":"bees-with-color/bee-A1DF.svg","response":1,"trial_type":"image-button-response","trial_index":11,"time_elapsed":304837,"internal_node_id":"0.0-4.0-0.2","subject_id":"60e8a67d61e5ac8c0e0051e4","study_id":"60edd13110225f80f9f3709b","session_id":"6196bf63e0cde1cc372febdf","condition":"contingent","relevant_dimensions":["wings","pattern"],"bee_group":{"antennae":"X","wings":"1","pattern":"S","legs":"X"},"action":"avoid","summary":"bad-avoid","bonus":0.4800000000000006},{"rt":9896.300000011921,"stimulus":"\n                    <p><b>Action: <em>avoid</em></b></p>\n                    <p>This is the bee that you just saw.</p>\n                    <img src=\"bees-with-color/bee-A1DF.svg\" width=\"200\">\n                    <p><br>Your bonus pay is unchanged, and remains at $0.58.</p>\n            ","response":0,"trial_type":"html-button-response","trial_index":12,"time_elapsed":314736,"internal_node_id":"0.0-4.0-1.2","subject_id":"60e8a67d61e5ac8c0e0051e4","study_id":"60edd13110225f80f9f3709b","session_id":"6196bf63e0cde1cc372febdf","condition":"contingent","relevant_dimensions":["wings","pattern"],"bee_group":{"antennae":"X","wings":"1","pattern":"S","legs":"X"},"bonus":0.4800000000000006},{"rt":4835.4000000059605,"stimulus":"bees-with-color/bee-B1SF.svg","response":0,"trial_type":"image-button-response","trial_index":13,"time_elapsed":319573,"internal_node_id":"0.0-4.0-0.3","subject_id":"60e8a67d61e5ac8c0e0051e4","study_id":"60edd13110225f80f9f3709b","session_id":"6196bf63e0cde1cc372febdf","condition":"contingent","relevant_dimensions":["wings","pattern"],"bee_group":{"antennae":"X","wings":"1","pattern":"S","legs":"X"},"action":"harvest","summary":"bad-harvest","bonus":0.4800000000000006},{"rt":7129.800000011921,"stimulus":"\n                    <p><b>Action: <em>harvest</em></b></p>\n                    <p>This is the bee that you just saw.</p>\n                    <img src=\"bees-with-color/bee-B1SF.svg\" width=\"200\">\n                    <p><span class=\"redText\">Bad choice, the bee was angry.</span><br><b>You have been stung!</b><br>Your pay has been decreased by $0.10. Your bonus pay is now $0.48.</p>\n            ","response":0,"trial_type":"html-button-response","trial_index":14,"time_elapsed":326705,"internal_node_id":"0.0-4.0-1.3","subject_id":"60e8a67d61e5ac8c0e0051e4","study_id":"60edd13110225f80f9f3709b","session_id":"6196bf63e0cde1cc372febdf","condition":"contingent","relevant_dimensions":["wings","pattern"],"bee_group":{"antennae":"X","wings":"1","pattern":"S","legs":"X"},"bonus":0.4800000000000006},{"rt":2072,"stimulus":"bees-with-color/bee-A2SM.svg","response":0,"trial_type":"image-button-response","trial_index":15,"time_elapsed":328779,"internal_node_id":"0.0-4.0-0.4","subject_id":"60e8a67d61e5ac8c0e0051e4","study_id":"60edd13110225f80f9f3709b","session_id":"6196bf63e0cde1cc372febdf","condition":"contingent","relevant_dimensions":["wings","pattern"],"bee_group":{"antennae":"X","wings":"1","pattern":"S","legs":"X"},"action":"harvest","summary":"good-harvest","bonus":0.4800000000000006},{"rt":3075.600000023842,"stimulus":"\n                    <p><b>Action: <em>harvest</em></b></p>\n                    <p>This is the bee that you just saw.</p>\n                    <img src=\"bees-with-color/bee-A2SM.svg\" width=\"200\">\n                    <p><span class=\"greenText\"><b>Successful harvest!</b></span><br>Your pay has increased by $0.02. Your bonus pay is now $0.50.</p>\n            ","response":0,"trial_type":"html-button-response","trial_index":16,"time_elapsed":331856,"internal_node_id":"0.0-4.0-1.4","subject_id":"60e8a67d61e5ac8c0e0051e4","study_id":"60edd13110225f80f9f3709b","session_id":"6196bf63e0cde1cc372febdf","condition":"contingent","relevant_dimensions":["wings","pattern"],"bee_group":{"antennae":"X","wings":"1","pattern":"S","legs":"X"},"bonus":0.4800000000000006},{"rt":13296.59999999404,"stimulus":"bees-with-color/bee-A2DM.svg","response":0,"trial_type":"image-button-response","trial_index":17,"time_elapsed":345156,"internal_node_id":"0.0-4.0-0.5","subject_id":"60e8a67d61e5ac8c0e0051e4","study_id":"60edd13110225f80f9f3709b","session_id":"6196bf63e0cde1cc372febdf","condition":"contingent","relevant_dimensions":["wings","pattern"],"bee_group":{"antennae":"X","wings":"1","pattern":"S","legs":"X"},"action":"harvest","summary":"good-harvest","bonus":0.4800000000000006},{"rt":3333.199999988079,"stimulus":"\n                    <p><b>Action: <em>harvest</em></b></p>\n                    <p>This is the bee that you just saw.</p>\n                    <img src=\"bees-with-color/bee-A2DM.svg\" width=\"200\">\n                    <p><span class=\"greenText\"><b>Successful harvest!</b></span><br>Your pay has increased by $0.02. Your bonus pay is now $0.52.</p>\n            ","response":0,"trial_type":"html-button-response","trial_index":18,"time_elapsed":348490,"internal_node_id":"0.0-4.0-1.5","subject_id":"60e8a67d61e5ac8c0e0051e4","study_id":"60edd13110225f80f9f3709b","session_id":"6196bf63e0cde1cc372febdf","condition":"contingent","relevant_dimensions":["wings","pattern"],"bee_group":{"antennae":"X","wings":"1","pattern":"S","legs":"X"},"bonus":0.4800000000000006},{"rt":1493.0999999940395,"stimulus":"bees-with-color/bee-B1SM.svg","response":1,"trial_type":"image-button-response","trial_index":19,"time_elapsed":349986,"internal_node_id":"0.0-4.0-0.6","subject_id":"60e8a67d61e5ac8c0e0051e4","study_id":"60edd13110225f80f9f3709b","session_id":"6196bf63e0cde1cc372febdf","condition":"contingent","relevant_dimensions":["wings","pattern"],"bee_group":{"antennae":"X","wings":"1","pattern":"S","legs":"X"},"action":"avoid","summary":"good-avoid","bonus":0.4800000000000006},{"rt":2660.199999988079,"stimulus":"\n                    <p><b>Action: <em>avoid</em></b></p>\n                    <p>This is the bee that you just saw.</p>\n                    <img src=\"bees-with-color/bee-B1SM.svg\" width=\"200\">\n                    <p><br>Your bonus pay is unchanged, and remains at $0.52.</p>\n            ","response":0,"trial_type":"html-button-response","trial_index":20,"time_elapsed":352648,"internal_node_id":"0.0-4.0-1.6","subject_id":"60e8a67d61e5ac8c0e0051e4","study_id":"60edd13110225f80f9f3709b","session_id":"6196bf63e0cde1cc372febdf","condition":"contingent","relevant_dimensions":["wings","pattern"],"bee_group":{"antennae":"X","wings":"1","pattern":"S","legs":"X"},"bonus":0.4800000000000006},{"rt":1572,"stimulus":"bees-with-color/bee-A1DM.svg","response":0,"trial_type":"image-button-response","trial_index":21,"time_elapsed":354222,"internal_node_id":"0.0-4.0-0.7","subject_id":"60e8a67d61e5ac8c0e0051e4","study_id":"60edd13110225f80f9f3709b","session_id":"6196bf63e0cde1cc372febdf","condition":"contingent","relevant_dimensions":["wings","pattern"],"bee_group":{"antennae":"X","wings":"1","pattern":"S","legs":"X"},"action":"harvest","summary":"good-harvest","bonus":0.4800000000000006},{"rt":2756.0999999940395,"stimulus":"\n                    <p><b>Action: <em>harvest</em></b></p>\n                    <p>This is the bee that you just saw.</p>\n                    <img src=\"bees-with-color/bee-A1DM.svg\" width=\"200\">\n                    <p><span class=\"greenText\"><b>Successful harvest!</b></span><br>Your pay has increased by $0.02. Your bonus pay is now $0.54.</p>\n            ","response":0,"trial_type":"html-button-response","trial_index":22,"time_elapsed":356980,"internal_node_id":"0.0-4.0-1.7","subject_id":"60e8a67d61e5ac8c0e0051e4","study_id":"60edd13110225f80f9f3709b","session_id":"6196bf63e0cde1cc372febdf","condition":"contingent","relevant_dimensions":["wings","pattern"],"bee_group":{"antennae":"X","wings":"1","pattern":"S","legs":"X"},"bonus":0.4800000000000006},{"rt":2263.199999988079,"stimulus":"bees-with-color/bee-B1DF.svg","response":0,"trial_type":"image-button-response","trial_index":23,"time_elapsed":359245,"internal_node_id":"0.0-4.0-0.8","subject_id":"60e8a67d61e5ac8c0e0051e4","study_id":"60edd13110225f80f9f3709b","session_id":"6196bf63e0cde1cc372febdf","condition":"contingent","relevant_dimensions":["wings","pattern"],"bee_group":{"antennae":"X","wings":"1","pattern":"S","legs":"X"},"action":"harvest","summary":"good-harvest","bonus":0.4800000000000006},{"rt":2339.4000000059605,"stimulus":"\n                    <p><b>Action: <em>harvest</em></b></p>\n                    <p>This is the bee that you just saw.</p>\n                    <img src=\"bees-with-color/bee-B1DF.svg\" width=\"200\">\n                    <p><span class=\"greenText\"><b>Successful harvest!</b></span><br>Your pay has increased by $0.02. Your bonus pay is now $0.56.</p>\n            ","response":0,"trial_type":"html-button-response","trial_index":24,"time_elapsed":361586,"internal_node_id":"0.0-4.0-1.8","subject_id":"60e8a67d61e5ac8c0e0051e4","study_id":"60edd13110225f80f9f3709b","session_id":"6196bf63e0cde1cc372febdf","condition":"contingent","relevant_dimensions":["wings","pattern"],"bee_group":{"antennae":"X","wings":"1","pattern":"S","legs":"X"},"bonus":0.4800000000000006},{"rt":1357,"stimulus":"bees-with-color/bee-B2DM.svg","response":1,"trial_type":"image-button-response","trial_index":25,"time_elapsed":362945,"internal_node_id":"0.0-4.0-0.9","subject_id":"60e8a67d61e5ac8c0e0051e4","study_id":"60edd13110225f80f9f3709b","session_id":"6196bf63e0cde1cc372febdf","condition":"contingent","relevant_dimensions":["wings","pattern"],"bee_group":{"antennae":"X","wings":"1","pattern":"S","legs":"X"},"action":"avoid","summary":"bad-avoid","bonus":0.4800000000000006},{"rt":1755.4000000059605,"stimulus":"\n                    <p><b>Action: <em>avoid</em></b></p>\n                    <p>This is the bee that you just saw.</p>\n                    <img src=\"bees-with-color/bee-B2DM.svg\" width=\"200\">\n                    <p><br>Your bonus pay is unchanged, and remains at $0.56.</p>\n            ","response":0,"trial_type":"html-button-response","trial_index":26,"time_elapsed":364702,"internal_node_id":"0.0-4.0-1.9","subject_id":"60e8a67d61e5ac8c0e0051e4","study_id":"60edd13110225f80f9f3709b","session_id":"6196bf63e0cde1cc372febdf","condition":"contingent","relevant_dimensions":["wings","pattern"],"bee_group":{"antennae":"X","wings":"1","pattern":"S","legs":"X"},"bonus":0.4800000000000006},{"rt":8883.90000000596,"stimulus":"bees-with-color/bee-B1DM.svg","response":0,"trial_type":"image-button-response","trial_index":27,"time_elapsed":373587,"internal_node_id":"0.0-4.0-0.10","subject_id":"60e8a67d61e5ac8c0e0051e4","study_id":"60edd13110225f80f9f3709b","session_id":"6196bf63e0cde1cc372febdf","condition":"contingent","relevant_dimensions":["wings","pattern"],"bee_group":{"antennae":"X","wings":"1","pattern":"S","legs":"X"},"action":"harvest","summary":"good-harvest","bonus":0.4800000000000006},{"rt":2372.5999999940395,"stimulus":"\n                    <p><b>Action: <em>harvest</em></b></p>\n                    <p>This is the bee that you just saw.</p>\n                    <img src=\"bees-with-color/bee-B1DM.svg\" width=\"200\">\n                    <p><span class=\"greenText\"><b>Successful harvest!</b></span><br>Your pay has increased by $0.02. Your bonus pay is now $0.58.</p>\n            ","response":0,"trial_type":"html-button-response","trial_index":28,"time_elapsed":375962,"internal_node_id":"0.0-4.0-1.10","subject_id":"60e8a67d61e5ac8c0e0051e4","study_id":"60edd13110225f80f9f3709b","session_id":"6196bf63e0cde1cc372febdf","condition":"contingent","relevant_dimensions":["wings","pattern"],"bee_group":{"antennae":"X","wings":"1","pattern":"S","legs":"X"},"bonus":0.4800000000000006},{"rt":14748.899999976158,"stimulus":"bees-with-color/bee-A2SF.svg","response":1,"trial_type":"image-button-response","trial_index":29,"time_elapsed":390713,"internal_node_id":"0.0-4.0-0.11","subject_id":"60e8a67d61e5ac8c0e0051e4","study_id":"60edd13110225f80f9f3709b","session_id":"6196bf63e0cde1cc372febdf","condition":"contingent","relevant_dimensions":["wings","pattern"],"bee_group":{"antennae":"X","wings":"1","pattern":"S","legs":"X"},"action":"avoid","summary":"bad-avoid","bonus":0.4800000000000006},{"rt":1608,"stimulus":"\n                    <p><b>Action: <em>avoid</em></b></p>\n                    <p>This is the bee that you just saw.</p>\n                    <img src=\"bees-with-color/bee-A2SF.svg\" width=\"200\">\n                    <p><br>Your bonus pay is unchanged, and remains at $0.58.</p>\n            ","response":0,"trial_type":"html-button-response","trial_index":30,"time_elapsed":392322,"internal_node_id":"0.0-4.0-1.11","subject_id":"60e8a67d61e5ac8c0e0051e4","study_id":"60edd13110225f80f9f3709b","session_id":"6196bf63e0cde1cc372febdf","condition":"contingent","relevant_dimensions":["wings","pattern"],"bee_group":{"antennae":"X","wings":"1","pattern":"S","legs":"X"},"bonus":0.4800000000000006},{"rt":1509.7000000178814,"stimulus":"bees-with-color/bee-A1SF.svg","response":0,"trial_type":"image-button-response","trial_index":31,"time_elapsed":393834,"internal_node_id":"0.0-4.0-0.12","subject_id":"60e8a67d61e5ac8c0e0051e4","study_id":"60edd13110225f80f9f3709b","session_id":"6196bf63e0cde1cc372febdf","condition":"contingent","relevant_dimensions":["wings","pattern"],"bee_group":{"antennae":"X","wings":"1","pattern":"S","legs":"X"},"action":"harvest","summary":"bad-harvest","bonus":0.4800000000000006},{"rt":2012,"stimulus":"\n                    <p><b>Action: <em>harvest</em></b></p>\n                    <p>This is the bee that you just saw.</p>\n                    <img src=\"bees-with-color/bee-A1SF.svg\" width=\"200\">\n                    <p><span class=\"redText\">Bad choice, the bee was angry.</span><br><b>You have been stung!</b><br>Your pay has been decreased by $0.10. Your bonus pay is now $0.48.</p>\n            ","response":0,"trial_type":"html-button-response","trial_index":32,"time_elapsed":395847,"internal_node_id":"0.0-4.0-1.12","subject_id":"60e8a67d61e5ac8c0e0051e4","study_id":"60edd13110225f80f9f3709b","session_id":"6196bf63e0cde1cc372febdf","condition":"contingent","relevant_dimensions":["wings","pattern"],"bee_group":{"antennae":"X","wings":"1","pattern":"S","legs":"X"},"bonus":0.4800000000000006},{"rt":2105.699999988079,"stimulus":"bees-with-color/bee-B2SM.svg","response":0,"trial_type":"image-button-response","trial_index":33,"time_elapsed":397954,"internal_node_id":"0.0-4.0-0.13","subject_id":"60e8a67d61e5ac8c0e0051e4","study_id":"60edd13110225f80f9f3709b","session_id":"6196bf63e0cde1cc372febdf","condition":"contingent","relevant_dimensions":["wings","pattern"],"bee_group":{"antennae":"X","wings":"1","pattern":"S","legs":"X"},"action":"harvest","summary":"good-harvest","bonus":0.4800000000000006},{"rt":1896,"stimulus":"\n                    <p><b>Action: <em>harvest</em></b></p>\n                    <p>This is the bee that you just saw.</p>\n                    <img src=\"bees-with-color/bee-B2SM.svg\" width=\"200\">\n                    <p><span class=\"greenText\"><b>Successful harvest!</b></span><br>Your pay has increased by $0.02. Your bonus pay is now $0.50.</p>\n            ","response":0,"trial_type":"html-button-response","trial_index":34,"time_elapsed":399851,"internal_node_id":"0.0-4.0-1.13","subject_id":"60e8a67d61e5ac8c0e0051e4","study_id":"60edd13110225f80f9f3709b","session_id":"6196bf63e0cde1cc372febdf","condition":"contingent","relevant_dimensions":["wings","pattern"],"bee_group":{"antennae":"X","wings":"1","pattern":"S","legs":"X"},"bonus":0.4800000000000006},{"rt":1105.5999999940395,"stimulus":"bees-with-color/bee-A1SM.svg","response":0,"trial_type":"image-button-response","trial_index":35,"time_elapsed":400959,"internal_node_id":"0.0-4.0-0.14","subject_id":"60e8a67d61e5ac8c0e0051e4","study_id":"60edd13110225f80f9f3709b","session_id":"6196bf63e0cde1cc372febdf","condition":"contingent","relevant_dimensions":["wings","pattern"],"bee_group":{"antennae":"X","wings":"1","pattern":"S","legs":"X"},"action":"harvest","summary":"bad-harvest","bonus":0.4800000000000006},{"rt":1662.0999999940395,"stimulus":"\n                    <p><b>Action: <em>harvest</em></b></p>\n                    <p>This is the bee that you just saw.</p>\n                    <img src=\"bees-with-color/bee-A1SM.svg\" width=\"200\">\n                    <p><span class=\"redText\">Bad choice, the bee was angry.</span><br><b>You have been stung!</b><br>Your pay has been decreased by $0.10. Your bonus pay is now $0.40.</p>\n            ","response":0,"trial_type":"html-button-response","trial_index":36,"time_elapsed":402622,"internal_node_id":"0.0-4.0-1.14","subject_id":"60e8a67d61e5ac8c0e0051e4","study_id":"60edd13110225f80f9f3709b","session_id":"6196bf63e0cde1cc372febdf","condition":"contingent","relevant_dimensions":["wings","pattern"],"bee_group":{"antennae":"X","wings":"1","pattern":"S","legs":"X"},"bonus":0.4800000000000006},{"rt":1511.1000000238419,"stimulus":"bees-with-color/bee-A2DF.svg","response":0,"trial_type":"image-button-response","trial_index":37,"time_elapsed":404135,"internal_node_id":"0.0-4.0-0.15","subject_id":"60e8a67d61e5ac8c0e0051e4","study_id":"60edd13110225f80f9f3709b","session_id":"6196bf63e0cde1cc372febdf","condition":"contingent","relevant_dimensions":["wings","pattern"],"bee_group":{"antennae":"X","wings":"1","pattern":"S","legs":"X"},"action":"harvest","summary":"good-harvest","bonus":0.4800000000000006},{"rt":1988.5999999940395,"stimulus":"\n                    <p><b>Action: <em>harvest</em></b></p>\n                    <p>This is the bee that you just saw.</p>\n                    <img src=\"bees-with-color/bee-A2DF.svg\" width=\"200\">\n                    <p><span class=\"greenText\"><b>Successful harvest!</b></span><br>Your pay has increased by $0.02. Your bonus pay is now $0.42.</p>\n            ","response":0,"trial_type":"html-button-response","trial_index":38,"time_elapsed":406125,"internal_node_id":"0.0-4.0-1.15","subject_id":"60e8a67d61e5ac8c0e0051e4","study_id":"60edd13110225f80f9f3709b","session_id":"6196bf63e0cde1cc372febdf","condition":"contingent","relevant_dimensions":["wings","pattern"],"bee_group":{"antennae":"X","wings":"1","pattern":"S","legs":"X"},"bonus":0.4800000000000006},{"rt":1340.2000000178814,"stimulus":"bees-with-color/bee-B1DM.svg","response":0,"trial_type":"image-button-response","trial_index":39,"time_elapsed":407467,"internal_node_id":"0.0-4.0-0.16","subject_id":"60e8a67d61e5ac8c0e0051e4","study_id":"60edd13110225f80f9f3709b","session_id":"6196bf63e0cde1cc372febdf","condition":"contingent","relevant_dimensions":["wings","pattern"],"bee_group":{"antennae":"X","wings":"1","pattern":"S","legs":"X"},"action":"harvest","summary":"good-harvest","bonus":0.4800000000000006},{"rt":1852.0999999940395,"stimulus":"\n                    <p><b>Action: <em>harvest</em></b></p>\n                    <p>This is the bee that you just saw.</p>\n                    <img src=\"bees-with-color/bee-B1DM.svg\" width=\"200\">\n                    <p><span class=\"greenText\"><b>Successful harvest!</b></span><br>Your pay has increased by $0.02. Your bonus pay is now $0.44.</p>\n            ","response":0,"trial_type":"html-button-response","trial_index":40,"time_elapsed":409321,"internal_node_id":"0.0-4.0-1.16","subject_id":"60e8a67d61e5ac8c0e0051e4","study_id":"60edd13110225f80f9f3709b","session_id":"6196bf63e0cde1cc372febdf","condition":"contingent","relevant_dimensions":["wings","pattern"],"bee_group":{"antennae":"X","wings":"1","pattern":"S","legs":"X"},"bonus":0.4800000000000006},{"rt":1844.5999999940395,"stimulus":"bees-with-color/bee-A2SF.svg","response":1,"trial_type":"image-button-response","trial_index":41,"time_elapsed":411167,"internal_node_id":"0.0-4.0-0.17","subject_id":"60e8a67d61e5ac8c0e0051e4","study_id":"60edd13110225f80f9f3709b","session_id":"6196bf63e0cde1cc372febdf","condition":"contingent","relevant_dimensions":["wings","pattern"],"bee_group":{"antennae":"X","wings":"1","pattern":"S","legs":"X"},"action":"avoid","summary":"bad-avoid","bonus":0.4800000000000006},{"rt":4337.699999988079,"stimulus":"\n                    <p><b>Action: <em>avoid</em></b></p>\n                    <p>This is the bee that you just saw.</p>\n                    <img src=\"bees-with-color/bee-A2SF.svg\" width=\"200\">\n                    <p><br>Your bonus pay is unchanged, and remains at $0.44.</p>\n            ","response":0,"trial_type":"html-button-response","trial_index":42,"time_elapsed":415506,"internal_node_id":"0.0-4.0-1.17","subject_id":"60e8a67d61e5ac8c0e0051e4","study_id":"60edd13110225f80f9f3709b","session_id":"6196bf63e0cde1cc372febdf","condition":"contingent","relevant_dimensions":["wings","pattern"],"bee_group":{"antennae":"X","wings":"1","pattern":"S","legs":"X"},"bonus":0.4800000000000006},{"rt":1276.699999988079,"stimulus":"bees-with-color/bee-B2SF.svg","response":0,"trial_type":"image-button-response","trial_index":43,"time_elapsed":416785,"internal_node_id":"0.0-4.0-0.18","subject_id":"60e8a67d61e5ac8c0e0051e4","study_id":"60edd13110225f80f9f3709b","session_id":"6196bf63e0cde1cc372febdf","condition":"contingent","relevant_dimensions":["wings","pattern"],"bee_group":{"antennae":"X","wings":"1","pattern":"S","legs":"X"},"action":"harvest","summary":"good-harvest","bonus":0.4800000000000006},{"rt":1527.199999988079,"stimulus":"\n                    <p><b>Action: <em>harvest</em></b></p>\n                    <p>This is the bee that you just saw.</p>\n                    <img src=\"bees-with-color/bee-B2SF.svg\" width=\"200\">\n                    <p><span class=\"greenText\"><b>Successful harvest!</b></span><br>Your pay has increased by $0.02. Your bonus pay is now $0.46.</p>\n            ","response":0,"trial_type":"html-button-response","trial_index":44,"time_elapsed":418314,"internal_node_id":"0.0-4.0-1.18","subject_id":"60e8a67d61e5ac8c0e0051e4","study_id":"60edd13110225f80f9f3709b","session_id":"6196bf63e0cde1cc372febdf","condition":"contingent","relevant_dimensions":["wings","pattern"],"bee_group":{"antennae":"X","wings":"1","pattern":"S","legs":"X"},"bonus":0.4800000000000006},{"rt":1228.5,"stimulus":"bees-with-color/bee-A2SM.svg","response":0,"trial_type":"image-button-response","trial_index":45,"time_elapsed":419544,"internal_node_id":"0.0-4.0-0.19","subject_id":"60e8a67d61e5ac8c0e0051e4","study_id":"60edd13110225f80f9f3709b","session_id":"6196bf63e0cde1cc372febdf","condition":"contingent","relevant_dimensions":["wings","pattern"],"bee_group":{"antennae":"X","wings":"1","pattern":"S","legs":"X"},"action":"harvest","summary":"good-harvest","bonus":0.4800000000000006},{"rt":1790.7000000178814,"stimulus":"\n                    <p><b>Action: <em>harvest</em></b></p>\n                    <p>This is the bee that you just saw.</p>\n                    <img src=\"bees-with-color/bee-A2SM.svg\" width=\"200\">\n                    <p><span class=\"greenText\"><b>Successful harvest!</b></span><br>Your pay has increased by $0.02. Your bonus pay is now $0.48.</p>\n            ","response":0,"trial_type":"html-button-response","trial_index":46,"time_elapsed":421336,"internal_node_id":"0.0-4.0-1.19","subject_id":"60e8a67d61e5ac8c0e0051e4","study_id":"60edd13110225f80f9f3709b","session_id":"6196bf63e0cde1cc372febdf","condition":"contingent","relevant_dimensions":["wings","pattern"],"bee_group":{"antennae":"X","wings":"1","pattern":"S","legs":"X"},"bonus":0.4800000000000006},{"rt":1106.800000011921,"stimulus":"bees-with-color/bee-A1DF.svg","response":1,"trial_type":"image-button-response","trial_index":47,"time_elapsed":422444,"internal_node_id":"0.0-4.0-0.20","subject_id":"60e8a67d61e5ac8c0e0051e4","study_id":"60edd13110225f80f9f3709b","session_id":"6196bf63e0cde1cc372febdf","condition":"contingent","relevant_dimensions":["wings","pattern"],"bee_group":{"antennae":"X","wings":"1","pattern":"S","legs":"X"},"action":"avoid","summary":"bad-avoid","bonus":0.4800000000000006},{"rt":1370.2000000178814,"stimulus":"\n                    <p><b>Action: <em>avoid</em></b></p>\n                    <p>This is the bee that you just saw.</p>\n                    <img src=\"bees-with-color/bee-A1DF.svg\" width=\"200\">\n                    <p><br>Your bonus pay is unchanged, and remains at $0.48.</p>\n            ","response":0,"trial_type":"html-button-response","trial_index":48,"time_elapsed":423817,"internal_node_id":"0.0-4.0-1.20","subject_id":"60e8a67d61e5ac8c0e0051e4","study_id":"60edd13110225f80f9f3709b","session_id":"6196bf63e0cde1cc372febdf","condition":"contingent","relevant_dimensions":["wings","pattern"],"bee_group":{"antennae":"X","wings":"1","pattern":"S","legs":"X"},"bonus":0.4800000000000006},{"rt":1528,"stimulus":"bees-with-color/bee-B1SM.svg","response":0,"trial_type":"image-button-response","trial_index":49,"time_elapsed":425346,"internal_node_id":"0.0-4.0-0.21","subject_id":"60e8a67d61e5ac8c0e0051e4","study_id":"60edd13110225f80f9f3709b","session_id":"6196bf63e0cde1cc372febdf","condition":"contingent","relevant_dimensions":["wings","pattern"],"bee_group":{"antennae":"X","wings":"1","pattern":"S","legs":"X"},"action":"harvest","summary":"bad-harvest","bonus":0.4800000000000006},{"rt":1869.0999999940395,"stimulus":"\n                    <p><b>Action: <em>harvest</em></b></p>\n                    <p>This is the bee that you just saw.</p>\n                    <img src=\"bees-with-color/bee-B1SM.svg\" width=\"200\">\n                    <p><span class=\"redText\">Bad choice, the bee was angry.</span><br><b>You have been stung!</b><br>Your pay has been decreased by $0.10. Your bonus pay is now $0.38.</p>\n            ","response":0,"trial_type":"html-button-response","trial_index":50,"time_elapsed":427217,"internal_node_id":"0.0-4.0-1.21","subject_id":"60e8a67d61e5ac8c0e0051e4","study_id":"60edd13110225f80f9f3709b","session_id":"6196bf63e0cde1cc372febdf","condition":"contingent","relevant_dimensions":["wings","pattern"],"bee_group":{"antennae":"X","wings":"1","pattern":"S","legs":"X"},"bonus":0.4800000000000006},{"rt":2313.0999999940395,"stimulus":"bees-with-color/bee-A1SF.svg","response":0,"trial_type":"image-button-response","trial_index":51,"time_elapsed":429532,"internal_node_id":"0.0-4.0-0.22","subject_id":"60e8a67d61e5ac8c0e0051e4","study_id":"60edd13110225f80f9f3709b","session_id":"6196bf63e0cde1cc372febdf","condition":"contingent","relevant_dimensions":["wings","pattern"],"bee_group":{"antennae":"X","wings":"1","pattern":"S","legs":"X"},"action":"harvest","summary":"bad-harvest","bonus":0.4800000000000006},{"rt":1619.800000011921,"stimulus":"\n                    <p><b>Action: <em>harvest</em></b></p>\n                    <p>This is the bee that you just saw.</p>\n                    <img src=\"bees-with-color/bee-A1SF.svg\" width=\"200\">\n                    <p><span class=\"redText\">Bad choice, the bee was angry.</span><br><b>You have been stung!</b><br>Your pay has been decreased by $0.10. Your bonus pay is now $0.28.</p>\n            ","response":0,"trial_type":"html-button-response","trial_index":52,"time_elapsed":431154,"internal_node_id":"0.0-4.0-1.22","subject_id":"60e8a67d61e5ac8c0e0051e4","study_id":"60edd13110225f80f9f3709b","session_id":"6196bf63e0cde1cc372febdf","condition":"contingent","relevant_dimensions":["wings","pattern"],"bee_group":{"antennae":"X","wings":"1","pattern":"S","legs":"X"},"bonus":0.4800000000000006},{"rt":1266.7999999821186,"stimulus":"bees-with-color/bee-B2DM.svg","response":0,"trial_type":"image-button-response","trial_index":53,"time_elapsed":432423,"internal_node_id":"0.0-4.0-0.23","subject_id":"60e8a67d61e5ac8c0e0051e4","study_id":"60edd13110225f80f9f3709b","session_id":"6196bf63e0cde1cc372febdf","condition":"contingent","relevant_dimensions":["wings","pattern"],"bee_group":{"antennae":"X","wings":"1","pattern":"S","legs":"X"},"action":"harvest","summary":"good-harvest","bonus":0.4800000000000006},{"rt":1622.199999988079,"stimulus":"\n                    <p><b>Action: <em>harvest</em></b></p>\n                    <p>This is the bee that you just saw.</p>\n                    <img src=\"bees-with-color/bee-B2DM.svg\" width=\"200\">\n                    <p><span class=\"greenText\"><b>Successful harvest!</b></span><br>Your pay has increased by $0.02. Your bonus pay is now $0.30.</p>\n            ","response":0,"trial_type":"html-button-response","trial_index":54,"time_elapsed":434047,"internal_node_id":"0.0-4.0-1.23","subject_id":"60e8a67d61e5ac8c0e0051e4","study_id":"60edd13110225f80f9f3709b","session_id":"6196bf63e0cde1cc372febdf","condition":"contingent","relevant_dimensions":["wings","pattern"],"bee_group":{"antennae":"X","wings":"1","pattern":"S","legs":"X"},"bonus":0.4800000000000006},{"rt":1216.6000000238419,"stimulus":"bees-with-color/bee-A2DM.svg","response":0,"trial_type":"image-button-response","trial_index":55,"time_elapsed":435265,"internal_node_id":"0.0-4.0-0.24","subject_id":"60e8a67d61e5ac8c0e0051e4","study_id":"60edd13110225f80f9f3709b","session_id":"6196bf63e0cde1cc372febdf","condition":"contingent","relevant_dimensions":["wings","pattern"],"bee_group":{"antennae":"X","wings":"1","pattern":"S","legs":"X"},"action":"harvest","summary":"good-harvest","bonus":0.4800000000000006},{"rt":1664.9000000059605,"stimulus":"\n                    <p><b>Action: <em>harvest</em></b></p>\n                    <p>This is the bee that you just saw.</p>\n                    <img src=\"bees-with-color/bee-A2DM.svg\" width=\"200\">\n                    <p><span class=\"greenText\"><b>Successful harvest!</b></span><br>Your pay has increased by $0.02. Your bonus pay is now $0.32.</p>\n            ","response":0,"trial_type":"html-button-response","trial_index":56,"time_elapsed":436932,"internal_node_id":"0.0-4.0-1.24","subject_id":"60e8a67d61e5ac8c0e0051e4","study_id":"60edd13110225f80f9f3709b","session_id":"6196bf63e0cde1cc372febdf","condition":"contingent","relevant_dimensions":["wings","pattern"],"bee_group":{"antennae":"X","wings":"1","pattern":"S","legs":"X"},"bonus":0.4800000000000006},{"rt":1558.5999999940395,"stimulus":"bees-with-color/bee-B1DF.svg","response":0,"trial_type":"image-button-response","trial_index":57,"time_elapsed":438493,"internal_node_id":"0.0-4.0-0.25","subject_id":"60e8a67d61e5ac8c0e0051e4","study_id":"60edd13110225f80f9f3709b","session_id":"6196bf63e0cde1cc372febdf","condition":"contingent","relevant_dimensions":["wings","pattern"],"bee_group":{"antennae":"X","wings":"1","pattern":"S","legs":"X"},"action":"harvest","summary":"good-harvest","bonus":0.4800000000000006},{"rt":1588.300000011921,"stimulus":"\n                    <p><b>Action: <em>harvest</em></b></p>\n                    <p>This is the bee that you just saw.</p>\n                    <img src=\"bees-with-color/bee-B1DF.svg\" width=\"200\">\n                    <p><span class=\"greenText\"><b>Successful harvest!</b></span><br>Your pay has increased by $0.02. Your bonus pay is now $0.34.</p>\n            ","response":0,"trial_type":"html-button-response","trial_index":58,"time_elapsed":440083,"internal_node_id":"0.0-4.0-1.25","subject_id":"60e8a67d61e5ac8c0e0051e4","study_id":"60edd13110225f80f9f3709b","session_id":"6196bf63e0cde1cc372febdf","condition":"contingent","relevant_dimensions":["wings","pattern"],"bee_group":{"antennae":"X","wings":"1","pattern":"S","legs":"X"},"bonus":0.4800000000000006},{"rt":1108,"stimulus":"bees-with-color/bee-A2DF.svg","response":0,"trial_type":"image-button-response","trial_index":59,"time_elapsed":441192,"internal_node_id":"0.0-4.0-0.26","subject_id":"60e8a67d61e5ac8c0e0051e4","study_id":"60edd13110225f80f9f3709b","session_id":"6196bf63e0cde1cc372febdf","condition":"contingent","relevant_dimensions":["wings","pattern"],"bee_group":{"antennae":"X","wings":"1","pattern":"S","legs":"X"},"action":"harvest","summary":"good-harvest","bonus":0.4800000000000006},{"rt":1490.699999988079,"stimulus":"\n                    <p><b>Action: <em>harvest</em></b></p>\n                    <p>This is the bee that you just saw.</p>\n                    <img src=\"bees-with-color/bee-A2DF.svg\" width=\"200\">\n                    <p><span class=\"greenText\"><b>Successful harvest!</b></span><br>Your pay has increased by $0.02. Your bonus pay is now $0.36.</p>\n            ","response":0,"trial_type":"html-button-response","trial_index":60,"time_elapsed":442685,"internal_node_id":"0.0-4.0-1.26","subject_id":"60e8a67d61e5ac8c0e0051e4","study_id":"60edd13110225f80f9f3709b","session_id":"6196bf63e0cde1cc372febdf","condition":"contingent","relevant_dimensions":["wings","pattern"],"bee_group":{"antennae":"X","wings":"1","pattern":"S","legs":"X"},"bonus":0.4800000000000006},{"rt":1554.199999988079,"stimulus":"bees-with-color/bee-B1SF.svg","response":0,"trial_type":"image-button-response","trial_index":61,"time_elapsed":444242,"internal_node_id":"0.0-4.0-0.27","subject_id":"60e8a67d61e5ac8c0e0051e4","study_id":"60edd13110225f80f9f3709b","session_id":"6196bf63e0cde1cc372febdf","condition":"contingent","relevant_dimensions":["wings","pattern"],"bee_group":{"antennae":"X","wings":"1","pattern":"S","legs":"X"},"action":"harvest","summary":"bad-harvest","bonus":0.4800000000000006},{"rt":1992.7000000178814,"stimulus":"\n                    <p><b>Action: <em>harvest</em></b></p>\n                    <p>This is the bee that you just saw.</p>\n                    <img src=\"bees-with-color/bee-B1SF.svg\" width=\"200\">\n                    <p><span class=\"redText\">Bad choice, the bee was angry.</span><br><b>You have been stung!</b><br>Your pay has been decreased by $0.10. Your bonus pay is now $0.26.</p>\n            ","response":0,"trial_type":"html-button-response","trial_index":62,"time_elapsed":446236,"internal_node_id":"0.0-4.0-1.27","subject_id":"60e8a67d61e5ac8c0e0051e4","study_id":"60edd13110225f80f9f3709b","session_id":"6196bf63e0cde1cc372febdf","condition":"contingent","relevant_dimensions":["wings","pattern"],"bee_group":{"antennae":"X","wings":"1","pattern":"S","legs":"X"},"bonus":0.4800000000000006},{"rt":1357.2000000178814,"stimulus":"bees-with-color/bee-B2SM.svg","response":0,"trial_type":"image-button-response","trial_index":63,"time_elapsed":447595,"internal_node_id":"0.0-4.0-0.28","subject_id":"60e8a67d61e5ac8c0e0051e4","study_id":"60edd13110225f80f9f3709b","session_id":"6196bf63e0cde1cc372febdf","condition":"contingent","relevant_dimensions":["wings","pattern"],"bee_group":{"antennae":"X","wings":"1","pattern":"S","legs":"X"},"action":"harvest","summary":"good-harvest","bonus":0.4800000000000006},{"rt":1546.7000000178814,"stimulus":"\n                    <p><b>Action: <em>harvest</em></b></p>\n                    <p>This is the bee that you just saw.</p>\n                    <img src=\"bees-with-color/bee-B2SM.svg\" width=\"200\">\n                    <p><span class=\"greenText\"><b>Successful harvest!</b></span><br>Your pay has increased by $0.02. Your bonus pay is now $0.28.</p>\n            ","response":0,"trial_type":"html-button-response","trial_index":64,"time_elapsed":449142,"internal_node_id":"0.0-4.0-1.28","subject_id":"60e8a67d61e5ac8c0e0051e4","study_id":"60edd13110225f80f9f3709b","session_id":"6196bf63e0cde1cc372febdf","condition":"contingent","relevant_dimensions":["wings","pattern"],"bee_group":{"antennae":"X","wings":"1","pattern":"S","legs":"X"},"bonus":0.4800000000000006},{"rt":1577,"stimulus":"bees-with-color/bee-A1SM.svg","response":0,"trial_type":"image-button-response","trial_index":65,"time_elapsed":450721,"internal_node_id":"0.0-4.0-0.29","subject_id":"60e8a67d61e5ac8c0e0051e4","study_id":"60edd13110225f80f9f3709b","session_id":"6196bf63e0cde1cc372febdf","condition":"contingent","relevant_dimensions":["wings","pattern"],"bee_group":{"antennae":"X","wings":"1","pattern":"S","legs":"X"},"action":"harvest","summary":"bad-harvest","bonus":0.4800000000000006},{"rt":1460.4000000059605,"stimulus":"\n                    <p><b>Action: <em>harvest</em></b></p>\n                    <p>This is the bee that you just saw.</p>\n                    <img src=\"bees-with-color/bee-A1SM.svg\" width=\"200\">\n                    <p><span class=\"redText\">Bad choice, the bee was angry.</span><br><b>You have been stung!</b><br>Your pay has been decreased by $0.10. Your bonus pay is now $0.18.</p>\n            ","response":0,"trial_type":"html-button-response","trial_index":66,"time_elapsed":452183,"internal_node_id":"0.0-4.0-1.29","subject_id":"60e8a67d61e5ac8c0e0051e4","study_id":"60edd13110225f80f9f3709b","session_id":"6196bf63e0cde1cc372febdf","condition":"contingent","relevant_dimensions":["wings","pattern"],"bee_group":{"antennae":"X","wings":"1","pattern":"S","legs":"X"},"bonus":0.4800000000000006},{"rt":1077.0999999940395,"stimulus":"bees-with-color/bee-B2DF.svg","response":0,"trial_type":"image-button-response","trial_index":67,"time_elapsed":453261,"internal_node_id":"0.0-4.0-0.30","subject_id":"60e8a67d61e5ac8c0e0051e4","study_id":"60edd13110225f80f9f3709b","session_id":"6196bf63e0cde1cc372febdf","condition":"contingent","relevant_dimensions":["wings","pattern"],"bee_group":{"antennae":"X","wings":"1","pattern":"S","legs":"X"},"action":"harvest","summary":"good-harvest","bonus":0.4800000000000006},{"rt":1360,"stimulus":"\n                    <p><b>Action: <em>harvest</em></b></p>\n                    <p>This is the bee that you just saw.</p>\n                    <img src=\"bees-with-color/bee-B2DF.svg\" width=\"200\">\n                    <p><span class=\"greenText\"><b>Successful harvest!</b></span><br>Your pay has increased by $0.02. Your bonus pay is now $0.20.</p>\n            ","response":0,"trial_type":"html-button-response","trial_index":68,"time_elapsed":454622,"internal_node_id":"0.0-4.0-1.30","subject_id":"60e8a67d61e5ac8c0e0051e4","study_id":"60edd13110225f80f9f3709b","session_id":"6196bf63e0cde1cc372febdf","condition":"contingent","relevant_dimensions":["wings","pattern"],"bee_group":{"antennae":"X","wings":"1","pattern":"S","legs":"X"},"bonus":0.4800000000000006},{"rt":2184.100000023842,"stimulus":"bees-with-color/bee-A1DM.svg","response":1,"trial_type":"image-button-response","trial_index":69,"time_elapsed":456808,"internal_node_id":"0.0-4.0-0.31","subject_id":"60e8a67d61e5ac8c0e0051e4","study_id":"60edd13110225f80f9f3709b","session_id":"6196bf63e0cde1cc372febdf","condition":"contingent","relevant_dimensions":["wings","pattern"],"bee_group":{"antennae":"X","wings":"1","pattern":"S","legs":"X"},"action":"avoid","summary":"bad-avoid","bonus":0.4800000000000006},{"rt":1503.300000011921,"stimulus":"\n                    <p><b>Action: <em>avoid</em></b></p>\n                    <p>This is the bee that you just saw.</p>\n                    <img src=\"bees-with-color/bee-A1DM.svg\" width=\"200\">\n                    <p><br>Your bonus pay is unchanged, and remains at $0.20.</p>\n            ","response":0,"trial_type":"html-button-response","trial_index":70,"time_elapsed":458313,"internal_node_id":"0.0-4.0-1.31","subject_id":"60e8a67d61e5ac8c0e0051e4","study_id":"60edd13110225f80f9f3709b","session_id":"6196bf63e0cde1cc372febdf","condition":"contingent","relevant_dimensions":["wings","pattern"],"bee_group":{"antennae":"X","wings":"1","pattern":"S","legs":"X"},"bonus":0.4800000000000006},{"rt":2184.199999988079,"stimulus":"bees-with-color/bee-B1SM.svg","response":0,"trial_type":"image-button-response","trial_index":71,"time_elapsed":460498,"internal_node_id":"0.0-4.0-0.32","subject_id":"60e8a67d61e5ac8c0e0051e4","study_id":"60edd13110225f80f9f3709b","session_id":"6196bf63e0cde1cc372febdf","condition":"contingent","relevant_dimensions":["wings","pattern"],"bee_group":{"antennae":"X","wings":"1","pattern":"S","legs":"X"},"action":"harvest","summary":"bad-harvest","bonus":0.4800000000000006},{"rt":1524.699999988079,"stimulus":"\n                    <p><b>Action: <em>harvest</em></b></p>\n                    <p>This is the bee that you just saw.</p>\n                    <img src=\"bees-with-color/bee-B1SM.svg\" width=\"200\">\n                    <p><span class=\"redText\">Bad choice, the bee was angry.</span><br><b>You have been stung!</b><br>Your pay has been decreased by $0.10. Your bonus pay is now $0.10.</p>\n            ","response":0,"trial_type":"html-button-response","trial_index":72,"time_elapsed":462025,"internal_node_id":"0.0-4.0-1.32","subject_id":"60e8a67d61e5ac8c0e0051e4","study_id":"60edd13110225f80f9f3709b","session_id":"6196bf63e0cde1cc372febdf","condition":"contingent","relevant_dimensions":["wings","pattern"],"bee_group":{"antennae":"X","wings":"1","pattern":"S","legs":"X"},"bonus":0.4800000000000006},{"rt":1199.2999999821186,"stimulus":"bees-with-color/bee-A2DF.svg","response":1,"trial_type":"image-button-response","trial_index":73,"time_elapsed":463226,"internal_node_id":"0.0-4.0-0.33","subject_id":"60e8a67d61e5ac8c0e0051e4","study_id":"60edd13110225f80f9f3709b","session_id":"6196bf63e0cde1cc372febdf","condition":"contingent","relevant_dimensions":["wings","pattern"],"bee_group":{"antennae":"X","wings":"1","pattern":"S","legs":"X"},"action":"avoid","summary":"bad-avoid","bonus":0.4800000000000006},{"rt":2271.800000011921,"stimulus":"\n                    <p><b>Action: <em>avoid</em></b></p>\n                    <p>This is the bee that you just saw.</p>\n                    <img src=\"bees-with-color/bee-A2DF.svg\" width=\"200\">\n                    <p><br>Your bonus pay is unchanged, and remains at $0.10.</p>\n            ","response":0,"trial_type":"html-button-response","trial_index":74,"time_elapsed":465499,"internal_node_id":"0.0-4.0-1.33","subject_id":"60e8a67d61e5ac8c0e0051e4","study_id":"60edd13110225f80f9f3709b","session_id":"6196bf63e0cde1cc372febdf","condition":"contingent","relevant_dimensions":["wings","pattern"],"bee_group":{"antennae":"X","wings":"1","pattern":"S","legs":"X"},"bonus":0.4800000000000006},{"rt":1324.4000000059605,"stimulus":"bees-with-color/bee-A1SF.svg","response":0,"trial_type":"image-button-response","trial_index":75,"time_elapsed":466825,"internal_node_id":"0.0-4.0-0.34","subject_id":"60e8a67d61e5ac8c0e0051e4","study_id":"60edd13110225f80f9f3709b","session_id":"6196bf63e0cde1cc372febdf","condition":"contingent","relevant_dimensions":["wings","pattern"],"bee_group":{"antennae":"X","wings":"1","pattern":"S","legs":"X"},"action":"harvest","summary":"bad-harvest","bonus":0.4800000000000006},{"rt":1954.2000000178814,"stimulus":"\n                    <p><b>Action: <em>harvest</em></b></p>\n                    <p>This is the bee that you just saw.</p>\n                    <img src=\"bees-with-color/bee-A1SF.svg\" width=\"200\">\n                    <p><span class=\"redText\">Bad choice, the bee was angry.</span><br><b>You have been stung!</b><br>Your pay has been decreased by $0.10. Your bonus pay is now $0.00.</p>\n            ","response":0,"trial_type":"html-button-response","trial_index":76,"time_elapsed":468781,"internal_node_id":"0.0-4.0-1.34","subject_id":"60e8a67d61e5ac8c0e0051e4","study_id":"60edd13110225f80f9f3709b","session_id":"6196bf63e0cde1cc372febdf","condition":"contingent","relevant_dimensions":["wings","pattern"],"bee_group":{"antennae":"X","wings":"1","pattern":"S","legs":"X"},"bonus":0.4800000000000006},{"rt":1646.5999999940395,"stimulus":"bees-with-color/bee-A2SF.svg","response":0,"trial_type":"image-button-response","trial_index":77,"time_elapsed":470429,"internal_node_id":"0.0-4.0-0.35","subject_id":"60e8a67d61e5ac8c0e0051e4","study_id":"60edd13110225f80f9f3709b","session_id":"6196bf63e0cde1cc372febdf","condition":"contingent","relevant_dimensions":["wings","pattern"],"bee_group":{"antennae":"X","wings":"1","pattern":"S","legs":"X"},"action":"harvest","summary":"good-harvest","bonus":0.4800000000000006},{"rt":1994.800000011921,"stimulus":"\n                    <p><b>Action: <em>harvest</em></b></p>\n                    <p>This is the bee that you just saw.</p>\n                    <img src=\"bees-with-color/bee-A2SF.svg\" width=\"200\">\n                    <p><span class=\"greenText\"><b>Successful harvest!</b></span><br>Your pay has increased by $0.02. Your bonus pay is now $0.02.</p>\n            ","response":0,"trial_type":"html-button-response","trial_index":78,"time_elapsed":472426,"internal_node_id":"0.0-4.0-1.35","subject_id":"60e8a67d61e5ac8c0e0051e4","study_id":"60edd13110225f80f9f3709b","session_id":"6196bf63e0cde1cc372febdf","condition":"contingent","relevant_dimensions":["wings","pattern"],"bee_group":{"antennae":"X","wings":"1","pattern":"S","legs":"X"},"bonus":0.4800000000000006},{"rt":1014,"stimulus":"bees-with-color/bee-A1DM.svg","response":0,"trial_type":"image-button-response","trial_index":79,"time_elapsed":473441,"internal_node_id":"0.0-4.0-0.36","subject_id":"60e8a67d61e5ac8c0e0051e4","study_id":"60edd13110225f80f9f3709b","session_id":"6196bf63e0cde1cc372febdf","condition":"contingent","relevant_dimensions":["wings","pattern"],"bee_group":{"antennae":"X","wings":"1","pattern":"S","legs":"X"},"action":"harvest","summary":"good-harvest","bonus":0.4800000000000006},{"rt":1570.5,"stimulus":"\n                    <p><b>Action: <em>harvest</em></b></p>\n                    <p>This is the bee that you just saw.</p>\n                    <img src=\"bees-with-color/bee-A1DM.svg\" width=\"200\">\n                    <p><span class=\"greenText\"><b>Successful harvest!</b></span><br>Your pay has increased by $0.02. Your bonus pay is now $0.04.</p>\n            ","response":0,"trial_type":"html-button-response","trial_index":80,"time_elapsed":475013,"internal_node_id":"0.0-4.0-1.36","subject_id":"60e8a67d61e5ac8c0e0051e4","study_id":"60edd13110225f80f9f3709b","session_id":"6196bf63e0cde1cc372febdf","condition":"contingent","relevant_dimensions":["wings","pattern"],"bee_group":{"antennae":"X","wings":"1","pattern":"S","legs":"X"},"bonus":0.4800000000000006},{"rt":1395.199999988079,"stimulus":"bees-with-color/bee-B2DM.svg","response":0,"trial_type":"image-button-response","trial_index":81,"time_elapsed":476411,"internal_node_id":"0.0-4.0-0.37","subject_id":"60e8a67d61e5ac8c0e0051e4","study_id":"60edd13110225f80f9f3709b","session_id":"6196bf63e0cde1cc372febdf","condition":"contingent","relevant_dimensions":["wings","pattern"],"bee_group":{"antennae":"X","wings":"1","pattern":"S","legs":"X"},"action":"harvest","summary":"good-harvest","bonus":0.4800000000000006},{"rt":1463,"stimulus":"\n                    <p><b>Action: <em>harvest</em></b></p>\n                    <p>This is the bee that you just saw.</p>\n                    <img src=\"bees-with-color/bee-B2DM.svg\" width=\"200\">\n                    <p><span class=\"greenText\"><b>Successful harvest!</b></span><br>Your pay has increased by $0.02. Your bonus pay is now $0.06.</p>\n            ","response":0,"trial_type":"html-button-response","trial_index":82,"time_elapsed":477875,"internal_node_id":"0.0-4.0-1.37","subject_id":"60e8a67d61e5ac8c0e0051e4","study_id":"60edd13110225f80f9f3709b","session_id":"6196bf63e0cde1cc372febdf","condition":"contingent","relevant_dimensions":["wings","pattern"],"bee_group":{"antennae":"X","wings":"1","pattern":"S","legs":"X"},"bonus":0.4800000000000006},{"rt":1843.199999988079,"stimulus":"bees-with-color/bee-B2SF.svg","response":1,"trial_type":"image-button-response","trial_index":83,"time_elapsed":479720,"internal_node_id":"0.0-4.0-0.38","subject_id":"60e8a67d61e5ac8c0e0051e4","study_id":"60edd13110225f80f9f3709b","session_id":"6196bf63e0cde1cc372febdf","condition":"contingent","relevant_dimensions":["wings","pattern"],"bee_group":{"antennae":"X","wings":"1","pattern":"S","legs":"X"},"action":"avoid","summary":"bad-avoid","bonus":0.4800000000000006},{"rt":1351.4000000059605,"stimulus":"\n                    <p><b>Action: <em>avoid</em></b></p>\n                    <p>This is the bee that you just saw.</p>\n                    <img src=\"bees-with-color/bee-B2SF.svg\" width=\"200\">\n                    <p><br>Your bonus pay is unchanged, and remains at $0.06.</p>\n            ","response":0,"trial_type":"html-button-response","trial_index":84,"time_elapsed":481073,"internal_node_id":"0.0-4.0-1.38","subject_id":"60e8a67d61e5ac8c0e0051e4","study_id":"60edd13110225f80f9f3709b","session_id":"6196bf63e0cde1cc372febdf","condition":"contingent","relevant_dimensions":["wings","pattern"],"bee_group":{"antennae":"X","wings":"1","pattern":"S","legs":"X"},"bonus":0.4800000000000006},{"rt":1058.0999999940395,"stimulus":"bees-with-color/bee-A1DF.svg","response":0,"trial_type":"image-button-response","trial_index":85,"time_elapsed":482132,"internal_node_id":"0.0-4.0-0.39","subject_id":"60e8a67d61e5ac8c0e0051e4","study_id":"60edd13110225f80f9f3709b","session_id":"6196bf63e0cde1cc372febdf","condition":"contingent","relevant_dimensions":["wings","pattern"],"bee_group":{"antennae":"X","wings":"1","pattern":"S","legs":"X"},"action":"harvest","summary":"good-harvest","bonus":0.4800000000000006},{"rt":1353.9000000059605,"stimulus":"\n                    <p><b>Action: <em>harvest</em></b></p>\n                    <p>This is the bee that you just saw.</p>\n                    <img src=\"bees-with-color/bee-A1DF.svg\" width=\"200\">\n                    <p><span class=\"greenText\"><b>Successful harvest!</b></span><br>Your pay has increased by $0.02. Your bonus pay is now $0.08.</p>\n            ","response":0,"trial_type":"html-button-response","trial_index":86,"time_elapsed":483488,"internal_node_id":"0.0-4.0-1.39","subject_id":"60e8a67d61e5ac8c0e0051e4","study_id":"60edd13110225f80f9f3709b","session_id":"6196bf63e0cde1cc372febdf","condition":"contingent","relevant_dimensions":["wings","pattern"],"bee_group":{"antennae":"X","wings":"1","pattern":"S","legs":"X"},"bonus":0.4800000000000006},{"rt":1618.9000000059605,"stimulus":"bees-with-color/bee-B2SM.svg","response":1,"trial_type":"image-button-response","trial_index":87,"time_elapsed":485109,"internal_node_id":"0.0-4.0-0.40","subject_id":"60e8a67d61e5ac8c0e0051e4","study_id":"60edd13110225f80f9f3709b","session_id":"6196bf63e0cde1cc372febdf","condition":"contingent","relevant_dimensions":["wings","pattern"],"bee_group":{"antennae":"X","wings":"1","pattern":"S","legs":"X"},"action":"avoid","summary":"bad-avoid","bonus":0.4800000000000006},{"rt":1258.199999988079,"stimulus":"\n                    <p><b>Action: <em>avoid</em></b></p>\n                    <p>This is the bee that you just saw.</p>\n                    <img src=\"bees-with-color/bee-B2SM.svg\" width=\"200\">\n                    <p><br>Your bonus pay is unchanged, and remains at $0.08.</p>\n            ","response":0,"trial_type":"html-button-response","trial_index":88,"time_elapsed":486369,"internal_node_id":"0.0-4.0-1.40","subject_id":"60e8a67d61e5ac8c0e0051e4","study_id":"60edd13110225f80f9f3709b","session_id":"6196bf63e0cde1cc372febdf","condition":"contingent","relevant_dimensions":["wings","pattern"],"bee_group":{"antennae":"X","wings":"1","pattern":"S","legs":"X"},"bonus":0.4800000000000006},{"rt":1103.5,"stimulus":"bees-with-color/bee-B1DM.svg","response":0,"trial_type":"image-button-response","trial_index":89,"time_elapsed":487474,"internal_node_id":"0.0-4.0-0.41","subject_id":"60e8a67d61e5ac8c0e0051e4","study_id":"60edd13110225f80f9f3709b","session_id":"6196bf63e0cde1cc372febdf","condition":"contingent","relevant_dimensions":["wings","pattern"],"bee_group":{"antennae":"X","wings":"1","pattern":"S","legs":"X"},"action":"harvest","summary":"good-harvest","bonus":0.4800000000000006},{"rt":1356.5999999940395,"stimulus":"\n                    <p><b>Action: <em>harvest</em></b></p>\n                    <p>This is the bee that you just saw.</p>\n                    <img src=\"bees-with-color/bee-B1DM.svg\" width=\"200\">\n                    <p><span class=\"greenText\"><b>Successful harvest!</b></span><br>Your pay has increased by $0.02. Your bonus pay is now $0.10.</p>\n            ","response":0,"trial_type":"html-button-response","trial_index":90,"time_elapsed":488832,"internal_node_id":"0.0-4.0-1.41","subject_id":"60e8a67d61e5ac8c0e0051e4","study_id":"60edd13110225f80f9f3709b","session_id":"6196bf63e0cde1cc372febdf","condition":"contingent","relevant_dimensions":["wings","pattern"],"bee_group":{"antennae":"X","wings":"1","pattern":"S","legs":"X"},"bonus":0.4800000000000006},{"rt":1246.300000011921,"stimulus":"bees-with-color/bee-B1SF.svg","response":1,"trial_type":"image-button-response","trial_index":91,"time_elapsed":490081,"internal_node_id":"0.0-4.0-0.42","subject_id":"60e8a67d61e5ac8c0e0051e4","study_id":"60edd13110225f80f9f3709b","session_id":"6196bf63e0cde1cc372febdf","condition":"contingent","relevant_dimensions":["wings","pattern"],"bee_group":{"antennae":"X","wings":"1","pattern":"S","legs":"X"},"action":"avoid","summary":"good-avoid","bonus":0.4800000000000006},{"rt":1216.3999999761581,"stimulus":"\n                    <p><b>Action: <em>avoid</em></b></p>\n                    <p>This is the bee that you just saw.</p>\n                    <img src=\"bees-with-color/bee-B1SF.svg\" width=\"200\">\n                    <p><br>Your bonus pay is unchanged, and remains at $0.10.</p>\n            ","response":0,"trial_type":"html-button-response","trial_index":92,"time_elapsed":491299,"internal_node_id":"0.0-4.0-1.42","subject_id":"60e8a67d61e5ac8c0e0051e4","study_id":"60edd13110225f80f9f3709b","session_id":"6196bf63e0cde1cc372febdf","condition":"contingent","relevant_dimensions":["wings","pattern"],"bee_group":{"antennae":"X","wings":"1","pattern":"S","legs":"X"},"bonus":0.4800000000000006},{"rt":1044.800000011921,"stimulus":"bees-with-color/bee-A1SM.svg","response":0,"trial_type":"image-button-response","trial_index":93,"time_elapsed":492346,"internal_node_id":"0.0-4.0-0.43","subject_id":"60e8a67d61e5ac8c0e0051e4","study_id":"60edd13110225f80f9f3709b","session_id":"6196bf63e0cde1cc372febdf","condition":"contingent","relevant_dimensions":["wings","pattern"],"bee_group":{"antennae":"X","wings":"1","pattern":"S","legs":"X"},"action":"harvest","summary":"bad-harvest","bonus":0.4800000000000006},{"rt":1671.300000011921,"stimulus":"\n                    <p><b>Action: <em>harvest</em></b></p>\n                    <p>This is the bee that you just saw.</p>\n                    <img src=\"bees-with-color/bee-A1SM.svg\" width=\"200\">\n                    <p><span class=\"redText\">Bad choice, the bee was angry.</span><br><b>You have been stung!</b><br>Your pay has been decreased by $0.10. Your bonus pay is now $0.00.</p>\n            ","response":0,"trial_type":"html-button-response","trial_index":94,"time_elapsed":494019,"internal_node_id":"0.0-4.0-1.43","subject_id":"60e8a67d61e5ac8c0e0051e4","study_id":"60edd13110225f80f9f3709b","session_id":"6196bf63e0cde1cc372febdf","condition":"contingent","relevant_dimensions":["wings","pattern"],"bee_group":{"antennae":"X","wings":"1","pattern":"S","legs":"X"},"bonus":0.4800000000000006},{"rt":7010.100000023842,"stimulus":"bees-with-color/bee-A2DM.svg","response":0,"trial_type":"image-button-response","trial_index":95,"time_elapsed":501031,"internal_node_id":"0.0-4.0-0.44","subject_id":"60e8a67d61e5ac8c0e0051e4","study_id":"60edd13110225f80f9f3709b","session_id":"6196bf63e0cde1cc372febdf","condition":"contingent","relevant_dimensions":["wings","pattern"],"bee_group":{"antennae":"X","wings":"1","pattern":"S","legs":"X"},"action":"harvest","summary":"good-harvest","bonus":0.4800000000000006},{"rt":1709.9000000059605,"stimulus":"\n                    <p><b>Action: <em>harvest</em></b></p>\n                    <p>This is the bee that you just saw.</p>\n                    <img src=\"bees-with-color/bee-A2DM.svg\" width=\"200\">\n                    <p><span class=\"greenText\"><b>Successful harvest!</b></span><br>Your pay has increased by $0.02. Your bonus pay is now $0.02.</p>\n            ","response":0,"trial_type":"html-button-response","trial_index":96,"time_elapsed":502743,"internal_node_id":"0.0-4.0-1.44","subject_id":"60e8a67d61e5ac8c0e0051e4","study_id":"60edd13110225f80f9f3709b","session_id":"6196bf63e0cde1cc372febdf","condition":"contingent","relevant_dimensions":["wings","pattern"],"bee_group":{"antennae":"X","wings":"1","pattern":"S","legs":"X"},"bonus":0.4800000000000006},{"rt":1371.2000000178814,"stimulus":"bees-with-color/bee-A2SM.svg","response":0,"trial_type":"image-button-response","trial_index":97,"time_elapsed":504116,"internal_node_id":"0.0-4.0-0.45","subject_id":"60e8a67d61e5ac8c0e0051e4","study_id":"60edd13110225f80f9f3709b","session_id":"6196bf63e0cde1cc372febdf","condition":"contingent","relevant_dimensions":["wings","pattern"],"bee_group":{"antennae":"X","wings":"1","pattern":"S","legs":"X"},"action":"harvest","summary":"good-harvest","bonus":0.4800000000000006},{"rt":1352.0999999940395,"stimulus":"\n                    <p><b>Action: <em>harvest</em></b></p>\n                    <p>This is the bee that you just saw.</p>\n                    <img src=\"bees-with-color/bee-A2SM.svg\" width=\"200\">\n                    <p><span class=\"greenText\"><b>Successful harvest!</b></span><br>Your pay has increased by $0.02. Your bonus pay is now $0.04.</p>\n            ","response":0,"trial_type":"html-button-response","trial_index":98,"time_elapsed":505470,"internal_node_id":"0.0-4.0-1.45","subject_id":"60e8a67d61e5ac8c0e0051e4","study_id":"60edd13110225f80f9f3709b","session_id":"6196bf63e0cde1cc372febdf","condition":"contingent","relevant_dimensions":["wings","pattern"],"bee_group":{"antennae":"X","wings":"1","pattern":"S","legs":"X"},"bonus":0.4800000000000006},{"rt":1873.5999999940395,"stimulus":"bees-with-color/bee-B2DF.svg","response":0,"trial_type":"image-button-response","trial_index":99,"time_elapsed":507345,"internal_node_id":"0.0-4.0-0.46","subject_id":"60e8a67d61e5ac8c0e0051e4","study_id":"60edd13110225f80f9f3709b","session_id":"6196bf63e0cde1cc372febdf","condition":"contingent","relevant_dimensions":["wings","pattern"],"bee_group":{"antennae":"X","wings":"1","pattern":"S","legs":"X"},"action":"harvest","summary":"good-harvest","bonus":0.4800000000000006},{"rt":1687.800000011921,"stimulus":"\n                    <p><b>Action: <em>harvest</em></b></p>\n                    <p>This is the bee that you just saw.</p>\n                    <img src=\"bees-with-color/bee-B2DF.svg\" width=\"200\">\n                    <p><span class=\"greenText\"><b>Successful harvest!</b></span><br>Your pay has increased by $0.02. Your bonus pay is now $0.06.</p>\n            ","response":0,"trial_type":"html-button-response","trial_index":100,"time_elapsed":509035,"internal_node_id":"0.0-4.0-1.46","subject_id":"60e8a67d61e5ac8c0e0051e4","study_id":"60edd13110225f80f9f3709b","session_id":"6196bf63e0cde1cc372febdf","condition":"contingent","relevant_dimensions":["wings","pattern"],"bee_group":{"antennae":"X","wings":"1","pattern":"S","legs":"X"},"bonus":0.4800000000000006},{"rt":1324.300000011921,"stimulus":"bees-with-color/bee-B1DF.svg","response":0,"trial_type":"image-button-response","trial_index":101,"time_elapsed":510362,"internal_node_id":"0.0-4.0-0.47","subject_id":"60e8a67d61e5ac8c0e0051e4","study_id":"60edd13110225f80f9f3709b","session_id":"6196bf63e0cde1cc372febdf","condition":"contingent","relevant_dimensions":["wings","pattern"],"bee_group":{"antennae":"X","wings":"1","pattern":"S","legs":"X"},"action":"harvest","summary":"good-harvest","bonus":0.4800000000000006},{"rt":1651,"stimulus":"\n                    <p><b>Action: <em>harvest</em></b></p>\n                    <p>This is the bee that you just saw.</p>\n                    <img src=\"bees-with-color/bee-B1DF.svg\" width=\"200\">\n                    <p><span class=\"greenText\"><b>Successful harvest!</b></span><br>Your pay has increased by $0.02. Your bonus pay is now $0.08.</p>\n            ","response":0,"trial_type":"html-button-response","trial_index":102,"time_elapsed":512015,"internal_node_id":"0.0-4.0-1.47","subject_id":"60e8a67d61e5ac8c0e0051e4","study_id":"60edd13110225f80f9f3709b","session_id":"6196bf63e0cde1cc372febdf","condition":"contingent","relevant_dimensions":["wings","pattern"],"bee_group":{"antennae":"X","wings":"1","pattern":"S","legs":"X"},"bonus":0.4800000000000006},{"rt":1955.5,"stimulus":"bees-with-color/bee-A2DM.svg","response":1,"trial_type":"image-button-response","trial_index":103,"time_elapsed":513972,"internal_node_id":"0.0-4.0-0.48","subject_id":"60e8a67d61e5ac8c0e0051e4","study_id":"60edd13110225f80f9f3709b","session_id":"6196bf63e0cde1cc372febdf","condition":"contingent","relevant_dimensions":["wings","pattern"],"bee_group":{"antennae":"X","wings":"1","pattern":"S","legs":"X"},"action":"avoid","summary":"bad-avoid","bonus":0.4800000000000006},{"rt":1455.1000000238419,"stimulus":"\n                    <p><b>Action: <em>avoid</em></b></p>\n                    <p>This is the bee that you just saw.</p>\n                    <img src=\"bees-with-color/bee-A2DM.svg\" width=\"200\">\n                    <p><br>Your bonus pay is unchanged, and remains at $0.08.</p>\n            ","response":0,"trial_type":"html-button-response","trial_index":104,"time_elapsed":515429,"internal_node_id":"0.0-4.0-1.48","subject_id":"60e8a67d61e5ac8c0e0051e4","study_id":"60edd13110225f80f9f3709b","session_id":"6196bf63e0cde1cc372febdf","condition":"contingent","relevant_dimensions":["wings","pattern"],"bee_group":{"antennae":"X","wings":"1","pattern":"S","legs":"X"},"bonus":0.4800000000000006},{"rt":1353.4000000059605,"stimulus":"bees-with-color/bee-A1DF.svg","response":0,"trial_type":"image-button-response","trial_index":105,"time_elapsed":516784,"internal_node_id":"0.0-4.0-0.49","subject_id":"60e8a67d61e5ac8c0e0051e4","study_id":"60edd13110225f80f9f3709b","session_id":"6196bf63e0cde1cc372febdf","condition":"contingent","relevant_dimensions":["wings","pattern"],"bee_group":{"antennae":"X","wings":"1","pattern":"S","legs":"X"},"action":"harvest","summary":"good-harvest","bonus":0.4800000000000006},{"rt":2276.4000000059605,"stimulus":"\n                    <p><b>Action: <em>harvest</em></b></p>\n                    <p>This is the bee that you just saw.</p>\n                    <img src=\"bees-with-color/bee-A1DF.svg\" width=\"200\">\n                    <p><span class=\"greenText\"><b>Successful harvest!</b></span><br>Your pay has increased by $0.02. Your bonus pay is now $0.10.</p>\n            ","response":0,"trial_type":"html-button-response","trial_index":106,"time_elapsed":519062,"internal_node_id":"0.0-4.0-1.49","subject_id":"60e8a67d61e5ac8c0e0051e4","study_id":"60edd13110225f80f9f3709b","session_id":"6196bf63e0cde1cc372febdf","condition":"contingent","relevant_dimensions":["wings","pattern"],"bee_group":{"antennae":"X","wings":"1","pattern":"S","legs":"X"},"bonus":0.4800000000000006},{"rt":1465.7000000178814,"stimulus":"bees-with-color/bee-A2SF.svg","response":1,"trial_type":"image-button-response","trial_index":107,"time_elapsed":520529,"internal_node_id":"0.0-4.0-0.50","subject_id":"60e8a67d61e5ac8c0e0051e4","study_id":"60edd13110225f80f9f3709b","session_id":"6196bf63e0cde1cc372febdf","condition":"contingent","relevant_dimensions":["wings","pattern"],"bee_group":{"antennae":"X","wings":"1","pattern":"S","legs":"X"},"action":"avoid","summary":"bad-avoid","bonus":0.4800000000000006},{"rt":3612.4000000059605,"stimulus":"\n                    <p><b>Action: <em>avoid</em></b></p>\n                    <p>This is the bee that you just saw.</p>\n                    <img src=\"bees-with-color/bee-A2SF.svg\" width=\"200\">\n                    <p><br>Your bonus pay is unchanged, and remains at $0.10.</p>\n            ","response":0,"trial_type":"html-button-response","trial_index":108,"time_elapsed":524143,"internal_node_id":"0.0-4.0-1.50","subject_id":"60e8a67d61e5ac8c0e0051e4","study_id":"60edd13110225f80f9f3709b","session_id":"6196bf63e0cde1cc372febdf","condition":"contingent","relevant_dimensions":["wings","pattern"],"bee_group":{"antennae":"X","wings":"1","pattern":"S","legs":"X"},"bonus":0.4800000000000006},{"rt":1278.5999999940395,"stimulus":"bees-with-color/bee-A2SM.svg","response":0,"trial_type":"image-button-response","trial_index":109,"time_elapsed":525423,"internal_node_id":"0.0-4.0-0.51","subject_id":"60e8a67d61e5ac8c0e0051e4","study_id":"60edd13110225f80f9f3709b","session_id":"6196bf63e0cde1cc372febdf","condition":"contingent","relevant_dimensions":["wings","pattern"],"bee_group":{"antennae":"X","wings":"1","pattern":"S","legs":"X"},"action":"harvest","summary":"good-harvest","bonus":0.4800000000000006},{"rt":1416.8999999761581,"stimulus":"\n                    <p><b>Action: <em>harvest</em></b></p>\n                    <p>This is the bee that you just saw.</p>\n                    <img src=\"bees-with-color/bee-A2SM.svg\" width=\"200\">\n                    <p><span class=\"greenText\"><b>Successful harvest!</b></span><br>Your pay has increased by $0.02. Your bonus pay is now $0.12.</p>\n            ","response":0,"trial_type":"html-button-response","trial_index":110,"time_elapsed":526841,"internal_node_id":"0.0-4.0-1.51","subject_id":"60e8a67d61e5ac8c0e0051e4","study_id":"60edd13110225f80f9f3709b","session_id":"6196bf63e0cde1cc372febdf","condition":"contingent","relevant_dimensions":["wings","pattern"],"bee_group":{"antennae":"X","wings":"1","pattern":"S","legs":"X"},"bonus":0.4800000000000006},{"rt":2400.7000000178814,"stimulus":"bees-with-color/bee-B2SF.svg","response":0,"trial_type":"image-button-response","trial_index":111,"time_elapsed":529243,"internal_node_id":"0.0-4.0-0.52","subject_id":"60e8a67d61e5ac8c0e0051e4","study_id":"60edd13110225f80f9f3709b","session_id":"6196bf63e0cde1cc372febdf","condition":"contingent","relevant_dimensions":["wings","pattern"],"bee_group":{"antennae":"X","wings":"1","pattern":"S","legs":"X"},"action":"harvest","summary":"good-harvest","bonus":0.4800000000000006},{"rt":1591.300000011921,"stimulus":"\n                    <p><b>Action: <em>harvest</em></b></p>\n                    <p>This is the bee that you just saw.</p>\n                    <img src=\"bees-with-color/bee-B2SF.svg\" width=\"200\">\n                    <p><span class=\"greenText\"><b>Successful harvest!</b></span><br>Your pay has increased by $0.02. Your bonus pay is now $0.14.</p>\n            ","response":0,"trial_type":"html-button-response","trial_index":112,"time_elapsed":530836,"internal_node_id":"0.0-4.0-1.52","subject_id":"60e8a67d61e5ac8c0e0051e4","study_id":"60edd13110225f80f9f3709b","session_id":"6196bf63e0cde1cc372febdf","condition":"contingent","relevant_dimensions":["wings","pattern"],"bee_group":{"antennae":"X","wings":"1","pattern":"S","legs":"X"},"bonus":0.4800000000000006},{"rt":1448,"stimulus":"bees-with-color/bee-A1SM.svg","response":1,"trial_type":"image-button-response","trial_index":113,"time_elapsed":532286,"internal_node_id":"0.0-4.0-0.53","subject_id":"60e8a67d61e5ac8c0e0051e4","study_id":"60edd13110225f80f9f3709b","session_id":"6196bf63e0cde1cc372febdf","condition":"contingent","relevant_dimensions":["wings","pattern"],"bee_group":{"antennae":"X","wings":"1","pattern":"S","legs":"X"},"action":"avoid","summary":"good-avoid","bonus":0.4800000000000006},{"rt":1383,"stimulus":"\n                    <p><b>Action: <em>avoid</em></b></p>\n                    <p>This is the bee that you just saw.</p>\n                    <img src=\"bees-with-color/bee-A1SM.svg\" width=\"200\">\n                    <p><br>Your bonus pay is unchanged, and remains at $0.14.</p>\n            ","response":0,"trial_type":"html-button-response","trial_index":114,"time_elapsed":533670,"internal_node_id":"0.0-4.0-1.53","subject_id":"60e8a67d61e5ac8c0e0051e4","study_id":"60edd13110225f80f9f3709b","session_id":"6196bf63e0cde1cc372febdf","condition":"contingent","relevant_dimensions":["wings","pattern"],"bee_group":{"antennae":"X","wings":"1","pattern":"S","legs":"X"},"bonus":0.4800000000000006},{"rt":2094.4000000059605,"stimulus":"bees-with-color/bee-B1SF.svg","response":0,"trial_type":"image-button-response","trial_index":115,"time_elapsed":535766,"internal_node_id":"0.0-4.0-0.54","subject_id":"60e8a67d61e5ac8c0e0051e4","study_id":"60edd13110225f80f9f3709b","session_id":"6196bf63e0cde1cc372febdf","condition":"contingent","relevant_dimensions":["wings","pattern"],"bee_group":{"antennae":"X","wings":"1","pattern":"S","legs":"X"},"action":"harvest","summary":"bad-harvest","bonus":0.4800000000000006},{"rt":1840.0999999940395,"stimulus":"\n                    <p><b>Action: <em>harvest</em></b></p>\n                    <p>This is the bee that you just saw.</p>\n                    <img src=\"bees-with-color/bee-B1SF.svg\" width=\"200\">\n                    <p><span class=\"redText\">Bad choice, the bee was angry.</span><br><b>You have been stung!</b><br>Your pay has been decreased by $0.10. Your bonus pay is now $0.04.</p>\n            ","response":0,"trial_type":"html-button-response","trial_index":116,"time_elapsed":537608,"internal_node_id":"0.0-4.0-1.54","subject_id":"60e8a67d61e5ac8c0e0051e4","study_id":"60edd13110225f80f9f3709b","session_id":"6196bf63e0cde1cc372febdf","condition":"contingent","relevant_dimensions":["wings","pattern"],"bee_group":{"antennae":"X","wings":"1","pattern":"S","legs":"X"},"bonus":0.4800000000000006},{"rt":1233.199999988079,"stimulus":"bees-with-color/bee-B2DF.svg","response":0,"trial_type":"image-button-response","trial_index":117,"time_elapsed":538843,"internal_node_id":"0.0-4.0-0.55","subject_id":"60e8a67d61e5ac8c0e0051e4","study_id":"60edd13110225f80f9f3709b","session_id":"6196bf63e0cde1cc372febdf","condition":"contingent","relevant_dimensions":["wings","pattern"],"bee_group":{"antennae":"X","wings":"1","pattern":"S","legs":"X"},"action":"harvest","summary":"good-harvest","bonus":0.4800000000000006},{"rt":1386.5,"stimulus":"\n                    <p><b>Action: <em>harvest</em></b></p>\n                    <p>This is the bee that you just saw.</p>\n                    <img src=\"bees-with-color/bee-B2DF.svg\" width=\"200\">\n                    <p><span class=\"greenText\"><b>Successful harvest!</b></span><br>Your pay has increased by $0.02. Your bonus pay is now $0.06.</p>\n            ","response":0,"trial_type":"html-button-response","trial_index":118,"time_elapsed":540231,"internal_node_id":"0.0-4.0-1.55","subject_id":"60e8a67d61e5ac8c0e0051e4","study_id":"60edd13110225f80f9f3709b","session_id":"6196bf63e0cde1cc372febdf","condition":"contingent","relevant_dimensions":["wings","pattern"],"bee_group":{"antennae":"X","wings":"1","pattern":"S","legs":"X"},"bonus":0.4800000000000006},{"rt":1339.5999999940395,"stimulus":"bees-with-color/bee-B1DF.svg","response":0,"trial_type":"image-button-response","trial_index":119,"time_elapsed":541572,"internal_node_id":"0.0-4.0-0.56","subject_id":"60e8a67d61e5ac8c0e0051e4","study_id":"60edd13110225f80f9f3709b","session_id":"6196bf63e0cde1cc372febdf","condition":"contingent","relevant_dimensions":["wings","pattern"],"bee_group":{"antennae":"X","wings":"1","pattern":"S","legs":"X"},"action":"harvest","summary":"good-harvest","bonus":0.4800000000000006},{"rt":1268.2000000178814,"stimulus":"\n                    <p><b>Action: <em>harvest</em></b></p>\n                    <p>This is the bee that you just saw.</p>\n                    <img src=\"bees-with-color/bee-B1DF.svg\" width=\"200\">\n                    <p><span class=\"greenText\"><b>Successful harvest!</b></span><br>Your pay has increased by $0.02. Your bonus pay is now $0.08.</p>\n            ","response":0,"trial_type":"html-button-response","trial_index":120,"time_elapsed":542842,"internal_node_id":"0.0-4.0-1.56","subject_id":"60e8a67d61e5ac8c0e0051e4","study_id":"60edd13110225f80f9f3709b","session_id":"6196bf63e0cde1cc372febdf","condition":"contingent","relevant_dimensions":["wings","pattern"],"bee_group":{"antennae":"X","wings":"1","pattern":"S","legs":"X"},"bonus":0.4800000000000006},{"rt":1307.7000000178814,"stimulus":"bees-with-color/bee-A1DM.svg","response":0,"trial_type":"image-button-response","trial_index":121,"time_elapsed":544151,"internal_node_id":"0.0-4.0-0.57","subject_id":"60e8a67d61e5ac8c0e0051e4","study_id":"60edd13110225f80f9f3709b","session_id":"6196bf63e0cde1cc372febdf","condition":"contingent","relevant_dimensions":["wings","pattern"],"bee_group":{"antennae":"X","wings":"1","pattern":"S","legs":"X"},"action":"harvest","summary":"good-harvest","bonus":0.4800000000000006},{"rt":1542.3999999761581,"stimulus":"\n                    <p><b>Action: <em>harvest</em></b></p>\n                    <p>This is the bee that you just saw.</p>\n                    <img src=\"bees-with-color/bee-A1DM.svg\" width=\"200\">\n                    <p><span class=\"greenText\"><b>Successful harvest!</b></span><br>Your pay has increased by $0.02. Your bonus pay is now $0.10.</p>\n            ","response":0,"trial_type":"html-button-response","trial_index":122,"time_elapsed":545695,"internal_node_id":"0.0-4.0-1.57","subject_id":"60e8a67d61e5ac8c0e0051e4","study_id":"60edd13110225f80f9f3709b","session_id":"6196bf63e0cde1cc372febdf","condition":"contingent","relevant_dimensions":["wings","pattern"],"bee_group":{"antennae":"X","wings":"1","pattern":"S","legs":"X"},"bonus":0.4800000000000006},{"rt":1184,"stimulus":"bees-with-color/bee-B2DM.svg","response":0,"trial_type":"image-button-response","trial_index":123,"time_elapsed":546881,"internal_node_id":"0.0-4.0-0.58","subject_id":"60e8a67d61e5ac8c0e0051e4","study_id":"60edd13110225f80f9f3709b","session_id":"6196bf63e0cde1cc372febdf","condition":"contingent","relevant_dimensions":["wings","pattern"],"bee_group":{"antennae":"X","wings":"1","pattern":"S","legs":"X"},"action":"harvest","summary":"good-harvest","bonus":0.4800000000000006},{"rt":1434.800000011921,"stimulus":"\n                    <p><b>Action: <em>harvest</em></b></p>\n                    <p>This is the bee that you just saw.</p>\n                    <img src=\"bees-with-color/bee-B2DM.svg\" width=\"200\">\n                    <p><span class=\"greenText\"><b>Successful harvest!</b></span><br>Your pay has increased by $0.02. Your bonus pay is now $0.12.</p>\n            ","response":0,"trial_type":"html-button-response","trial_index":124,"time_elapsed":548318,"internal_node_id":"0.0-4.0-1.58","subject_id":"60e8a67d61e5ac8c0e0051e4","study_id":"60edd13110225f80f9f3709b","session_id":"6196bf63e0cde1cc372febdf","condition":"contingent","relevant_dimensions":["wings","pattern"],"bee_group":{"antennae":"X","wings":"1","pattern":"S","legs":"X"},"bonus":0.4800000000000006},{"rt":2317.199999988079,"stimulus":"bees-with-color/bee-B2SM.svg","response":1,"trial_type":"image-button-response","trial_index":125,"time_elapsed":550636,"internal_node_id":"0.0-4.0-0.59","subject_id":"60e8a67d61e5ac8c0e0051e4","study_id":"60edd13110225f80f9f3709b","session_id":"6196bf63e0cde1cc372febdf","condition":"contingent","relevant_dimensions":["wings","pattern"],"bee_group":{"antennae":"X","wings":"1","pattern":"S","legs":"X"},"action":"avoid","summary":"bad-avoid","bonus":0.4800000000000006},{"rt":1354.5,"stimulus":"\n                    <p><b>Action: <em>avoid</em></b></p>\n                    <p>This is the bee that you just saw.</p>\n                    <img src=\"bees-with-color/bee-B2SM.svg\" width=\"200\">\n                    <p><br>Your bonus pay is unchanged, and remains at $0.12.</p>\n            ","response":0,"trial_type":"html-button-response","trial_index":126,"time_elapsed":551993,"internal_node_id":"0.0-4.0-1.59","subject_id":"60e8a67d61e5ac8c0e0051e4","study_id":"60edd13110225f80f9f3709b","session_id":"6196bf63e0cde1cc372febdf","condition":"contingent","relevant_dimensions":["wings","pattern"],"bee_group":{"antennae":"X","wings":"1","pattern":"S","legs":"X"},"bonus":0.4800000000000006},{"rt":1446.699999988079,"stimulus":"bees-with-color/bee-B1DM.svg","response":0,"trial_type":"image-button-response","trial_index":127,"time_elapsed":553442,"internal_node_id":"0.0-4.0-0.60","subject_id":"60e8a67d61e5ac8c0e0051e4","study_id":"60edd13110225f80f9f3709b","session_id":"6196bf63e0cde1cc372febdf","condition":"contingent","relevant_dimensions":["wings","pattern"],"bee_group":{"antennae":"X","wings":"1","pattern":"S","legs":"X"},"action":"harvest","summary":"good-harvest","bonus":0.4800000000000006},{"rt":1558.8999999761581,"stimulus":"\n                    <p><b>Action: <em>harvest</em></b></p>\n                    <p>This is the bee that you just saw.</p>\n                    <img src=\"bees-with-color/bee-B1DM.svg\" width=\"200\">\n                    <p><span class=\"greenText\"><b>Successful harvest!</b></span><br>Your pay has increased by $0.02. Your bonus pay is now $0.14.</p>\n            ","response":0,"trial_type":"html-button-response","trial_index":128,"time_elapsed":555002,"internal_node_id":"0.0-4.0-1.60","subject_id":"60e8a67d61e5ac8c0e0051e4","study_id":"60edd13110225f80f9f3709b","session_id":"6196bf63e0cde1cc372febdf","condition":"contingent","relevant_dimensions":["wings","pattern"],"bee_group":{"antennae":"X","wings":"1","pattern":"S","legs":"X"},"bonus":0.4800000000000006},{"rt":1764.4000000059605,"stimulus":"bees-with-color/bee-A2DF.svg","response":0,"trial_type":"image-button-response","trial_index":129,"time_elapsed":556768,"internal_node_id":"0.0-4.0-0.61","subject_id":"60e8a67d61e5ac8c0e0051e4","study_id":"60edd13110225f80f9f3709b","session_id":"6196bf63e0cde1cc372febdf","condition":"contingent","relevant_dimensions":["wings","pattern"],"bee_group":{"antennae":"X","wings":"1","pattern":"S","legs":"X"},"action":"harvest","summary":"good-harvest","bonus":0.4800000000000006},{"rt":1417.5,"stimulus":"\n                    <p><b>Action: <em>harvest</em></b></p>\n                    <p>This is the bee that you just saw.</p>\n                    <img src=\"bees-with-color/bee-A2DF.svg\" width=\"200\">\n                    <p><span class=\"greenText\"><b>Successful harvest!</b></span><br>Your pay has increased by $0.02. Your bonus pay is now $0.16.</p>\n            ","response":0,"trial_type":"html-button-response","trial_index":130,"time_elapsed":558187,"internal_node_id":"0.0-4.0-1.61","subject_id":"60e8a67d61e5ac8c0e0051e4","study_id":"60edd13110225f80f9f3709b","session_id":"6196bf63e0cde1cc372febdf","condition":"contingent","relevant_dimensions":["wings","pattern"],"bee_group":{"antennae":"X","wings":"1","pattern":"S","legs":"X"},"bonus":0.4800000000000006},{"rt":2297.800000011921,"stimulus":"bees-with-color/bee-B1SM.svg","response":1,"trial_type":"image-button-response","trial_index":131,"time_elapsed":560487,"internal_node_id":"0.0-4.0-0.62","subject_id":"60e8a67d61e5ac8c0e0051e4","study_id":"60edd13110225f80f9f3709b","session_id":"6196bf63e0cde1cc372febdf","condition":"contingent","relevant_dimensions":["wings","pattern"],"bee_group":{"antennae":"X","wings":"1","pattern":"S","legs":"X"},"action":"avoid","summary":"good-avoid","bonus":0.4800000000000006},{"rt":1431.800000011921,"stimulus":"\n                    <p><b>Action: <em>avoid</em></b></p>\n                    <p>This is the bee that you just saw.</p>\n                    <img src=\"bees-with-color/bee-B1SM.svg\" width=\"200\">\n                    <p><br>Your bonus pay is unchanged, and remains at $0.16.</p>\n            ","response":0,"trial_type":"html-button-response","trial_index":132,"time_elapsed":561920,"internal_node_id":"0.0-4.0-1.62","subject_id":"60e8a67d61e5ac8c0e0051e4","study_id":"60edd13110225f80f9f3709b","session_id":"6196bf63e0cde1cc372febdf","condition":"contingent","relevant_dimensions":["wings","pattern"],"bee_group":{"antennae":"X","wings":"1","pattern":"S","legs":"X"},"bonus":0.4800000000000006},{"rt":1979.5999999940395,"stimulus":"bees-with-color/bee-A1SF.svg","response":1,"trial_type":"image-button-response","trial_index":133,"time_elapsed":563902,"internal_node_id":"0.0-4.0-0.63","subject_id":"60e8a67d61e5ac8c0e0051e4","study_id":"60edd13110225f80f9f3709b","session_id":"6196bf63e0cde1cc372febdf","condition":"contingent","relevant_dimensions":["wings","pattern"],"bee_group":{"antennae":"X","wings":"1","pattern":"S","legs":"X"},"action":"avoid","summary":"good-avoid","bonus":0.4800000000000006},{"rt":1510.4000000059605,"stimulus":"\n                    <p><b>Action: <em>avoid</em></b></p>\n                    <p>This is the bee that you just saw.</p>\n                    <img src=\"bees-with-color/bee-A1SF.svg\" width=\"200\">\n                    <p><br>Your bonus pay is unchanged, and remains at $0.16.</p>\n            ","response":0,"trial_type":"html-button-response","trial_index":134,"time_elapsed":565414,"internal_node_id":"0.0-4.0-1.63","subject_id":"60e8a67d61e5ac8c0e0051e4","study_id":"60edd13110225f80f9f3709b","session_id":"6196bf63e0cde1cc372febdf","condition":"contingent","relevant_dimensions":["wings","pattern"],"bee_group":{"antennae":"X","wings":"1","pattern":"S","legs":"X"},"bonus":0.4800000000000006},{"rt":9559.5,"stimulus":"You have completed the first part of this experiment.<br><br>You will now begin a shorter second part, in which you will receive no feedback.<br>The same rules regarding bonus pay apply.<br><br>Press any key to begin.","response":" ","trial_type":"html-keyboard-response","trial_index":135,"time_elapsed":574976,"internal_node_id":"0.0-5.0","subject_id":"60e8a67d61e5ac8c0e0051e4","study_id":"60edd13110225f80f9f3709b","session_id":"6196bf63e0cde1cc372febdf","condition":"contingent","relevant_dimensions":["wings","pattern"],"bee_group":{"antennae":"X","wings":"1","pattern":"S","legs":"X"},"bonus":0.4800000000000006},{"rt":2839.5,"stimulus":"bees-with-color/bee-B1SM.svg","response":1,"trial_type":"image-button-response","trial_index":136,"time_elapsed":577827,"internal_node_id":"0.0-6.0-0.0","subject_id":"60e8a67d61e5ac8c0e0051e4","study_id":"60edd13110225f80f9f3709b","session_id":"6196bf63e0cde1cc372febdf","condition":"contingent","relevant_dimensions":["wings","pattern"],"bee_group":{"antennae":"X","wings":"1","pattern":"S","legs":"X"},"bonus":0.4800000000000006},{"rt":947.0999999940395,"stimulus":"bees-with-color/bee-A2SM.svg","response":1,"trial_type":"image-button-response","trial_index":137,"time_elapsed":578777,"internal_node_id":"0.0-6.0-0.1","subject_id":"60e8a67d61e5ac8c0e0051e4","study_id":"60edd13110225f80f9f3709b","session_id":"6196bf63e0cde1cc372febdf","condition":"contingent","relevant_dimensions":["wings","pattern"],"bee_group":{"antennae":"X","wings":"1","pattern":"S","legs":"X"},"bonus":0.4800000000000006},{"rt":1449.5,"stimulus":"bees-with-color/bee-A2DM.svg","response":0,"trial_type":"image-button-response","trial_index":138,"time_elapsed":580229,"internal_node_id":"0.0-6.0-0.2","subject_id":"60e8a67d61e5ac8c0e0051e4","study_id":"60edd13110225f80f9f3709b","session_id":"6196bf63e0cde1cc372febdf","condition":"contingent","relevant_dimensions":["wings","pattern"],"bee_group":{"antennae":"X","wings":"1","pattern":"S","legs":"X"},"bonus":0.4800000000000006},{"rt":2176.5999999940395,"stimulus":"bees-with-color/bee-B1DF.svg","response":0,"trial_type":"image-button-response","trial_index":139,"time_elapsed":582409,"internal_node_id":"0.0-6.0-0.3","subject_id":"60e8a67d61e5ac8c0e0051e4","study_id":"60edd13110225f80f9f3709b","session_id":"6196bf63e0cde1cc372febdf","condition":"contingent","relevant_dimensions":["wings","pattern"],"bee_group":{"antennae":"X","wings":"1","pattern":"S","legs":"X"},"bonus":0.4800000000000006},{"rt":1242,"stimulus":"bees-with-color/bee-A2SF.svg","response":1,"trial_type":"image-button-response","trial_index":140,"time_elapsed":583653,"internal_node_id":"0.0-6.0-0.4","subject_id":"60e8a67d61e5ac8c0e0051e4","study_id":"60edd13110225f80f9f3709b","session_id":"6196bf63e0cde1cc372febdf","condition":"contingent","relevant_dimensions":["wings","pattern"],"bee_group":{"antennae":"X","wings":"1","pattern":"S","legs":"X"},"bonus":0.4800000000000006},{"rt":1137.0999999940395,"stimulus":"bees-with-color/bee-A1DM.svg","response":0,"trial_type":"image-button-response","trial_index":141,"time_elapsed":584793,"internal_node_id":"0.0-6.0-0.5","subject_id":"60e8a67d61e5ac8c0e0051e4","study_id":"60edd13110225f80f9f3709b","session_id":"6196bf63e0cde1cc372febdf","condition":"contingent","relevant_dimensions":["wings","pattern"],"bee_group":{"antennae":"X","wings":"1","pattern":"S","legs":"X"},"bonus":0.4800000000000006},{"rt":1482.5999999940395,"stimulus":"bees-with-color/bee-A1SM.svg","response":1,"trial_type":"image-button-response","trial_index":142,"time_elapsed":586279,"internal_node_id":"0.0-6.0-0.6","subject_id":"60e8a67d61e5ac8c0e0051e4","study_id":"60edd13110225f80f9f3709b","session_id":"6196bf63e0cde1cc372febdf","condition":"contingent","relevant_dimensions":["wings","pattern"],"bee_group":{"antennae":"X","wings":"1","pattern":"S","legs":"X"},"bonus":0.4800000000000006},{"rt":1171.300000011921,"stimulus":"bees-with-color/bee-B1DM.svg","response":0,"trial_type":"image-button-response","trial_index":143,"time_elapsed":587453,"internal_node_id":"0.0-6.0-0.7","subject_id":"60e8a67d61e5ac8c0e0051e4","study_id":"60edd13110225f80f9f3709b","session_id":"6196bf63e0cde1cc372febdf","condition":"contingent","relevant_dimensions":["wings","pattern"],"bee_group":{"antennae":"X","wings":"1","pattern":"S","legs":"X"},"bonus":0.4800000000000006},{"rt":1187.199999988079,"stimulus":"bees-with-color/bee-A1SF.svg","response":1,"trial_type":"image-button-response","trial_index":144,"time_elapsed":588642,"internal_node_id":"0.0-6.0-0.8","subject_id":"60e8a67d61e5ac8c0e0051e4","study_id":"60edd13110225f80f9f3709b","session_id":"6196bf63e0cde1cc372febdf","condition":"contingent","relevant_dimensions":["wings","pattern"],"bee_group":{"antennae":"X","wings":"1","pattern":"S","legs":"X"},"bonus":0.4800000000000006},{"rt":1118.199999988079,"stimulus":"bees-with-color/bee-B2DM.svg","response":0,"trial_type":"image-button-response","trial_index":145,"time_elapsed":589763,"internal_node_id":"0.0-6.0-0.9","subject_id":"60e8a67d61e5ac8c0e0051e4","study_id":"60edd13110225f80f9f3709b","session_id":"6196bf63e0cde1cc372febdf","condition":"contingent","relevant_dimensions":["wings","pattern"],"bee_group":{"antennae":"X","wings":"1","pattern":"S","legs":"X"},"bonus":0.4800000000000006},{"rt":701,"stimulus":"bees-with-color/bee-A2DF.svg","response":0,"trial_type":"image-button-response","trial_index":146,"time_elapsed":590466,"internal_node_id":"0.0-6.0-0.10","subject_id":"60e8a67d61e5ac8c0e0051e4","study_id":"60edd13110225f80f9f3709b","session_id":"6196bf63e0cde1cc372febdf","condition":"contingent","relevant_dimensions":["wings","pattern"],"bee_group":{"antennae":"X","wings":"1","pattern":"S","legs":"X"},"bonus":0.4800000000000006},{"rt":1370.5,"stimulus":"bees-with-color/bee-B2SF.svg","response":1,"trial_type":"image-button-response","trial_index":147,"time_elapsed":591838,"internal_node_id":"0.0-6.0-0.11","subject_id":"60e8a67d61e5ac8c0e0051e4","study_id":"60edd13110225f80f9f3709b","session_id":"6196bf63e0cde1cc372febdf","condition":"contingent","relevant_dimensions":["wings","pattern"],"bee_group":{"antennae":"X","wings":"1","pattern":"S","legs":"X"},"bonus":0.4800000000000006},{"rt":1076.5999999940395,"stimulus":"bees-with-color/bee-B2DF.svg","response":0,"trial_type":"image-button-response","trial_index":148,"time_elapsed":592917,"internal_node_id":"0.0-6.0-0.12","subject_id":"60e8a67d61e5ac8c0e0051e4","study_id":"60edd13110225f80f9f3709b","session_id":"6196bf63e0cde1cc372febdf","condition":"contingent","relevant_dimensions":["wings","pattern"],"bee_group":{"antennae":"X","wings":"1","pattern":"S","legs":"X"},"bonus":0.4800000000000006},{"rt":1095.699999988079,"stimulus":"bees-with-color/bee-B2SM.svg","response":1,"trial_type":"image-button-response","trial_index":149,"time_elapsed":594015,"internal_node_id":"0.0-6.0-0.13","subject_id":"60e8a67d61e5ac8c0e0051e4","study_id":"60edd13110225f80f9f3709b","session_id":"6196bf63e0cde1cc372febdf","condition":"contingent","relevant_dimensions":["wings","pattern"],"bee_group":{"antennae":"X","wings":"1","pattern":"S","legs":"X"},"bonus":0.4800000000000006},{"rt":1375.3999999761581,"stimulus":"bees-with-color/bee-B1SF.svg","response":1,"trial_type":"image-button-response","trial_index":150,"time_elapsed":595393,"internal_node_id":"0.0-6.0-0.14","subject_id":"60e8a67d61e5ac8c0e0051e4","study_id":"60edd13110225f80f9f3709b","session_id":"6196bf63e0cde1cc372febdf","condition":"contingent","relevant_dimensions":["wings","pattern"],"bee_group":{"antennae":"X","wings":"1","pattern":"S","legs":"X"},"bonus":0.4800000000000006},{"rt":1234.300000011921,"stimulus":"bees-with-color/bee-A1DF.svg","response":0,"trial_type":"image-button-response","trial_index":151,"time_elapsed":596629,"internal_node_id":"0.0-6.0-0.15","subject_id":"60e8a67d61e5ac8c0e0051e4","study_id":"60edd13110225f80f9f3709b","session_id":"6196bf63e0cde1cc372febdf","condition":"contingent","relevant_dimensions":["wings","pattern"],"bee_group":{"antennae":"X","wings":"1","pattern":"S","legs":"X"},"bonus":0.4800000000000006},{"rt":1679.9000000059605,"stimulus":"bees-with-color/bee-A2SM.svg","response":1,"trial_type":"image-button-response","trial_index":152,"time_elapsed":598311,"internal_node_id":"0.0-6.0-0.16","subject_id":"60e8a67d61e5ac8c0e0051e4","study_id":"60edd13110225f80f9f3709b","session_id":"6196bf63e0cde1cc372febdf","condition":"contingent","relevant_dimensions":["wings","pattern"],"bee_group":{"antennae":"X","wings":"1","pattern":"S","legs":"X"},"bonus":0.4800000000000006},{"rt":1123.5999999940395,"stimulus":"bees-with-color/bee-A1DF.svg","response":0,"trial_type":"image-button-response","trial_index":153,"time_elapsed":599436,"internal_node_id":"0.0-6.0-0.17","subject_id":"60e8a67d61e5ac8c0e0051e4","study_id":"60edd13110225f80f9f3709b","session_id":"6196bf63e0cde1cc372febdf","condition":"contingent","relevant_dimensions":["wings","pattern"],"bee_group":{"antennae":"X","wings":"1","pattern":"S","legs":"X"},"bonus":0.4800000000000006},{"rt":1624,"stimulus":"bees-with-color/bee-A1SF.svg","response":1,"trial_type":"image-button-response","trial_index":154,"time_elapsed":601062,"internal_node_id":"0.0-6.0-0.18","subject_id":"60e8a67d61e5ac8c0e0051e4","study_id":"60edd13110225f80f9f3709b","session_id":"6196bf63e0cde1cc372febdf","condition":"contingent","relevant_dimensions":["wings","pattern"],"bee_group":{"antennae":"X","wings":"1","pattern":"S","legs":"X"},"bonus":0.4800000000000006},{"rt":1123.5,"stimulus":"bees-with-color/bee-B1DF.svg","response":0,"trial_type":"image-button-response","trial_index":155,"time_elapsed":602187,"internal_node_id":"0.0-6.0-0.19","subject_id":"60e8a67d61e5ac8c0e0051e4","study_id":"60edd13110225f80f9f3709b","session_id":"6196bf63e0cde1cc372febdf","condition":"contingent","relevant_dimensions":["wings","pattern"],"bee_group":{"antennae":"X","wings":"1","pattern":"S","legs":"X"},"bonus":0.4800000000000006},{"rt":1219.5,"stimulus":"bees-with-color/bee-B2DF.svg","response":0,"trial_type":"image-button-response","trial_index":156,"time_elapsed":603409,"internal_node_id":"0.0-6.0-0.20","subject_id":"60e8a67d61e5ac8c0e0051e4","study_id":"60edd13110225f80f9f3709b","session_id":"6196bf63e0cde1cc372febdf","condition":"contingent","relevant_dimensions":["wings","pattern"],"bee_group":{"antennae":"X","wings":"1","pattern":"S","legs":"X"},"bonus":0.4800000000000006},{"rt":1406.7999999821186,"stimulus":"bees-with-color/bee-B1SM.svg","response":1,"trial_type":"image-button-response","trial_index":157,"time_elapsed":604818,"internal_node_id":"0.0-6.0-0.21","subject_id":"60e8a67d61e5ac8c0e0051e4","study_id":"60edd13110225f80f9f3709b","session_id":"6196bf63e0cde1cc372febdf","condition":"contingent","relevant_dimensions":["wings","pattern"],"bee_group":{"antennae":"X","wings":"1","pattern":"S","legs":"X"},"bonus":0.4800000000000006},{"rt":1340.5,"stimulus":"bees-with-color/bee-B2DM.svg","response":0,"trial_type":"image-button-response","trial_index":158,"time_elapsed":606160,"internal_node_id":"0.0-6.0-0.22","subject_id":"60e8a67d61e5ac8c0e0051e4","study_id":"60edd13110225f80f9f3709b","session_id":"6196bf63e0cde1cc372febdf","condition":"contingent","relevant_dimensions":["wings","pattern"],"bee_group":{"antennae":"X","wings":"1","pattern":"S","legs":"X"},"bonus":0.4800000000000006},{"rt":761.6999999880791,"stimulus":"bees-with-color/bee-A1DM.svg","response":0,"trial_type":"image-button-response","trial_index":159,"time_elapsed":606924,"internal_node_id":"0.0-6.0-0.23","subject_id":"60e8a67d61e5ac8c0e0051e4","study_id":"60edd13110225f80f9f3709b","session_id":"6196bf63e0cde1cc372febdf","condition":"contingent","relevant_dimensions":["wings","pattern"],"bee_group":{"antennae":"X","wings":"1","pattern":"S","legs":"X"},"bonus":0.4800000000000006},{"rt":1606.9000000059605,"stimulus":"bees-with-color/bee-B1SF.svg","response":1,"trial_type":"image-button-response","trial_index":160,"time_elapsed":608533,"internal_node_id":"0.0-6.0-0.24","subject_id":"60e8a67d61e5ac8c0e0051e4","study_id":"60edd13110225f80f9f3709b","session_id":"6196bf63e0cde1cc372febdf","condition":"contingent","relevant_dimensions":["wings","pattern"],"bee_group":{"antennae":"X","wings":"1","pattern":"S","legs":"X"},"bonus":0.4800000000000006},{"rt":1360.9000000059605,"stimulus":"bees-with-color/bee-B2SM.svg","response":1,"trial_type":"image-button-response","trial_index":161,"time_elapsed":609896,"internal_node_id":"0.0-6.0-0.25","subject_id":"60e8a67d61e5ac8c0e0051e4","study_id":"60edd13110225f80f9f3709b","session_id":"6196bf63e0cde